id,ASVM,GSVM,walking_nonwalking,normal_abnormal,ax,ay,az,gx,gy,gz
1,9.793517099637114,0.09128410668764367,0,0,9.698590942568,0.10399547024995962,-0.055631638475901024,-0.03900580478129678,0.001973368337496174,-0.002520825903198655
2,9.842719161473434,0.13930548608998972,0,0,9.683193908080296,0.21441872939737852,-0.12742137192967853,-0.09334705570769664,-0.014790336978778112,0.010727702859902178
3,9.90132456211939,0.19743794989917532,0,0,9.670246003218821,0.4578643948553877,-0.16941652014660263,-0.1765873284334518,-0.008464203644403688,0.030708273801956763
4,9.96524723112011,0.2640151693486874,0,0,9.670919703074679,0.3189061949755951,-0.013900964583881514,-0.2872358925101197,-0.013247002789246582,0.04421466588945609
5,10.029419320698091,0.3366625259998878,0,0,10.036414101503862,-0.3515991835836661,-0.04937007738581559,-0.32332729706389424,0.017922261641047026,0.0638380559501044
6,10.08838927076316,0.4124982341349432,0,0,10.399202581672427,-0.5862319242629337,0.16466888397939497,-0.2774295513379638,0.20185333334966363,0.11328217174908348
7,10.136978704693147,0.48839330677231474,0,0,10.779765853295851,-0.7857087724516164,0.21231666417816134,-0.2547351488004918,0.26361618769000017,0.14839891452738677
8,10.170829924607903,0.5612622761315894,0,0,10.662891715607492,-1.1736127181195033,0.30278173200907166,-0.21154549017816762,0.5961134448244658,0.1405974377390044
9,10.186708960634821,0.6283486620148218,0,0,10.002963541607826,-1.1625306391427583,0.7021100666758776,-0.2179415507685008,0.7136505547136486,0.10046617662664575
10,10.182544599478842,0.6874602956333484,0,0,9.56145778635928,-0.7527280949026018,0.5864393021292705,-0.22818139095140952,0.751672532934446,0.036905037954485916
11,10.157335639074983,0.7371094474848242,0,0,9.078634923447266,-0.7784169618184935,0.30504886596703745,-0.2064503715463622,0.8423850863389105,-0.0559462479275088
12,10.111156073282183,0.7765306607334906,0,0,9.175417483040635,-1.0868907132491756,0.06721495986156745,-0.13657445032186494,0.7822980988327595,-0.1299841121871195
13,10.045449775112935,0.8055839520003976,0,0,9.995451409532642,-1.0729107189687759,-0.20124272984534583,-0.07440578450863598,0.5877554616130787,-0.137784597895742
14,9.963621206909524,0.8245893984198442,0,0,10.889157470998267,-0.4476482752805334,-0.18094401564228338,-0.02227988890276301,0.5525657858877374,-0.09344679609067136
15,9.87167898540519,0.8341614783807376,0,0,10.85707414907579,0.09185550404581262,0.46855542206222695,-0.0760797155612535,0.758238729298922,-0.0829193347795373
16,9.778513550867727,0.8351016616580147,0,0,10.381911689289026,0.3286878531034196,0.8627403235433206,-0.23292121480606467,0.9255258417626044,-0.12948451018983603
17,9.695397345273719,0.8283671696849007,0,0,10.2122875740115,0.28186555599168683,0.8418247327951238,-0.35901657957775907,0.8610964751803953,-0.1797526973212302
18,9.634492165679925,0.8150869712956071,0,0,10.512270702899956,-0.015189769494649301,0.6793623613268456,-0.36168933122637775,0.7951118439805728,-0.16934082410098894
19,9.606452643842468,0.7965723816121478,0,0,9.845064540620864,-0.2389209725769204,1.1043527683301204,-0.26200985378154645,0.721236685147304,-0.11953900102528983
20,9.61753810436448,0.7742782749710198,0,0,8.879594119523372,-0.5084514995837983,1.2311944345728585,-0.13079808974454207,0.7009658641958216,-0.04617767086174307
21,9.66692873461324,0.7496968978599463,0,0,7.225178540006273,-0.1311719676264472,1.2564858050420853,0.07090755276467452,0.9225803044563298,0.056014012739626105
22,9.745114416403224,0.7241899428296963,0,0,6.330898243811506,0.9795767076630131,1.5905894261359976,0.1766986754162324,0.7101903260727724,0.24681790503927542
23,9.834163221851473,0.6987808534032802,0,0,7.3590708538241705,1.5807788193232113,1.848969764678419,0.14437871232523167,0.7424343674418548,0.37522088950427895
24,9.910270219593464,0.6739469924916549,0,0,10.741424478619676,0.5453489682690051,1.8783129442912294,0.08080568021157546,0.23334099966782512,0.32834840302135715
25,9.948275658284278,0.6494749614875862,0,0,13.25413009760793,-0.3383974108515264,0.4420376054506596,0.16426972351979785,0.0867107079687409,0.16208088644938998
26,9.927096108111645,0.624458133198754,0,0,11.949610455931806,-0.43722224037835355,-0.05775332497288397,0.2524499363373305,0.4473902327037246,-0.08499330461550303
27,9.83461738026106,0.5974986982822085,0,0,11.111371247404652,-0.12106121939009865,1.0938625958706536,0.3871445343552338,0.2407428608742006,-0.2792551973023468
28,9.670773805568912,0.5671178979263578,0,0,10.041837230383399,0.20524298234515123,0.8999173711970039,0.4675925743091111,0.35406439711699916,-0.31962350480255103
29,9.448164369721127,0.5322993709016881,0,0,9.249734524660383,0.30485068858184333,0.5188876665166133,0.5342270262859357,0.34476062517816936,-0.2767869344884617
30,9.19029345070491,0.493029042619444,0,0,8.540469006140281,0.49419401302287885,1.0361082799008856,0.5616843878298767,0.5436407967945495,-0.22084072473929103
31,8.92808182887776,0.4506765248557067,0,0,7.662536000576401,0.7857276105364432,1.1359855540334292,0.5568416314702297,0.31751436245989784,-0.1777821276101434
32,8.69555942073856,0.40809271183477674,0,0,7.494586386916618,0.9659999399909037,0.5875265167595991,0.4930018759456608,0.1575117908096483,-0.11740679800120876
33,8.5256401729389,0.36936633470427743,0,0,7.656934364351861,1.1468188451370582,0.732253001457432,0.36483690190125423,0.14040320507249707,-0.04364723368744387
34,8.446656693440067,0.33926828724184366,0,0,8.341392315498668,1.12208129384841,0.3222918547200262,0.12121688771148839,-0.14132854652491156,-0.003273844534659143
35,8.479989111970776,0.3224902967881277,0,0,8.773403285612241,1.305982667867611,-0.5367762053825379,0.005521318488345736,-0.19808433119710062,0.05147373106359119
36,8.638775815554805,0.3228316240596874,0,0,9.249790997819023,1.1910969790115162,-0.38421938436505254,-0.06475762022990748,-0.09984525497390902,0.08816734004896788
37,8.927455422964437,0.3424942257100007,0,0,9.00011844051638,1.2720888561717618,-0.3961902822873555,-0.11033643968001185,-0.1028725050267274,0.11670948105176288
38,9.34181720560761,0.3816175074249509,0,0,9.05130704150429,1.4275428749500776,-0.4311017331793639,-0.2246701339005456,-0.08178677430551866,0.12722574714911622
39,9.869305051805796,0.4381312982025973,0,0,10.011791801156514,1.6417657490458633,-0.3880388216137961,-0.31353816579142446,-0.1466642832550335,0.11886148006000834
40,10.489445263607477,0.5079442574402769,0,0,10.978349455429642,1.7925822169586574,-0.18555456631230666,-0.43320675658110114,0.08527975420604168,0.1083252927648067
41,11.174382154969901,0.5854262638313394,0,0,10.983747947431889,1.4928861978120598,-0.22867727479043426,-0.5442776621524574,0.416995396955063,0.034722215923160445
42,11.889597968572787,0.6640962125522708,0,0,11.19223744759812,0.7676347622591628,-0.08764985366674197,-0.6085584891712885,0.4323753477029523,-0.11840045589309252
43,12.594977880217954,0.7373981520193644,0,0,11.67324139880517,0.3074904699926606,-0.1495116670475328,-0.6925477681863365,0.5310764559344431,-0.31290605205812244
44,13.24642631662388,0.7994443704057869,0,0,12.429165867611985,0.31642806134385604,-0.3141519778993341,-0.65399218369474,0.22298161341854608,-0.49519189161603205
45,13.798181076030376,0.8456246695153293,0,0,13.02029782100084,1.8766187990153667,-0.6883191332642219,-0.48273776002814656,-0.02834342949474217,-0.5339156207443541
46,14.205781478582125,0.8730180768042526,0,0,16.482445541139082,-0.40639967419849815,2.2051278059022406,-0.42584345031654824,-0.7535609376094425,-0.5708483288625888
47,14.429400228093419,0.8805811547830519,0,0,14.5265589536973,-2.95491304500776,6.105956037310297,0.47331350440083686,0.9002371600340987,-0.44155083422353575
48,14.437102301582296,0.8691162250742028,0,0,10.123601241771631,-1.2058805825197068,6.315275303117407,0.6007271161851743,-0.016048624379038017,-0.0741461654578694
49,14.207667945545438,0.8410469931632052,0,0,14.268537680413743,0.800807534372538,5.08036504211335,0.4192384109788504,-0.8546601977061709,0.06672890482476598
50,13.732848690672913,0.8000533013925397,0,0,11.864275611713373,2.756482619509871,3.3769863527409387,0.4364688590712652,0.6611838883237579,0.27848956211565057
51,13.019107702236182,0.7506355458088023,0,0,10.927037273391132,0.8950040373600645,6.029799745001984,0.1628520152428949,-0.3802775918736082,0.3054232406402005
52,12.088895251430651,0.6976849204425137,0,0,10.403163084715597,-1.3345248372782483,5.571444791804849,0.3587109846631632,0.02077258587175626,0.13183469241613005
53,10.981363084140037,0.6461249256907096,0,0,9.210044359406789,-0.7963793297003261,4.509267515519485,0.687225920286707,0.14444578588773802,-0.0531933690735686
54,9.752222834184632,0.6006583792612713,0,0,11.25085054504611,0.7209860898248549,5.036295892815925,0.664784826036082,0.06957592629470778,0.06567429912642304
55,8.47228577327648,0.5656043803292898,0,0,10.785831163232487,1.605066941514819,2.2705143531784753,0.5623100698611702,0.06426296217187033,0.31747909882591846
56,7.224197785272466,0.5447621856657344,0,0,7.305641964918936,0.6539771368516797,1.4096926886102799,0.47562372458481983,0.8815082817679997,0.411724422110459
57,6.097126315664578,0.5412229177999587,0,0,4.911686439975427,-0.3471907401778021,1.744119090386074,0.3144081167269011,0.14972673109503748,0.41015555595232867
58,5.179647694342185,0.5570802074131432,0,0,4.540749772506291,-0.641042726633032,1.2981153031697847,0.2393064988635636,0.29678488075154386,0.3326692173378823
59,4.551601078710904,0.5930579335927807,0,0,3.3035096606677543,-0.8290935919414603,1.277906748545366,0.20615211655802396,0.3593594755427275,0.30961677668369114
60,4.275964511734282,0.6481469033879769,0,0,3.525719701162415,-0.6481630499012789,0.8866357463123803,0.18163870473278612,-0.20838532712101018,0.2945295644877731
61,4.391797732175944,0.7193871301208775,0,0,4.184046044158988,-0.9522844088769279,0.5097330290114659,0.1954828718262061,-0.19369008081519085,0.20301473570991194
62,4.909094263927515,0.8019281821865477,0,0,4.534796384976258,-1.5363000256790442,0.3271383609622753,0.3298626479519638,-0.32576969695610003,0.04947496604898327
63,5.80613509082901,0.8894458617533119,0,0,5.117225502622145,-2.221613446414782,0.17318533774087724,0.5257812334259916,-0.5544168664698772,-0.11482385874028177
64,7.029724657314021,0.9748995396215124,0,0,5.120502008102994,-2.0662869562316217,-0.12179026954587456,0.803549277111923,-0.7741707569061614,-0.2060979999441368
65,8.498523980890823,1.0515041493797666,0,0,5.6547108666036285,-0.7996544283529511,-0.43152477270634126,1.0192032893069414,-1.1462899642490745,-0.26003361291109284
66,10.109494263425793,1.1137036397269553,0,0,7.856312460203414,0.4953147691214466,-0.6703898537134441,1.0339645742107901,-1.1264747935097126,-0.20409612110147438
67,11.747098632890829,1.1579101667989877,0,0,12.158426047976146,1.1919123951664894,-0.9060594263849253,0.9980776508243394,-0.9635999720103773,0.059474955357740875
68,13.294328836538757,1.182833497924258,0,0,17.14899581083517,2.479534477451652,-1.1482234670487392,0.7696839934130936,-1.147966015053524,0.37774407077362754
69,14.643994241221375,1.189347762564505,0,0,17.86728112769655,1.526647751870714,-3.771613322981132,0.40939855585859547,-0.270137672793591,0.5707943935610587
70,15.708393310018872,1.179978428993415,0,0,17.01025403903552,0.060298081294315804,-2.031619505185382,0.3303445005285932,0.020205837238996566,0.6199431557019457
71,16.42577486776157,1.1581863127606535,0,0,15.750921454490166,-2.3122567691642875,-2.557497708769901,0.31532552212823756,-1.1074497666892347,0.6545271631087052
72,16.762825077415435,1.127643295175316,0,0,17.391728004584035,2.9626151617525385,4.269423592937647,0.8523364865766654,-0.525456844661937,0.6430940814822377
73,16.713402240466536,1.0916454385740832,0,0,12.363241767123196,6.6459963108812845,10.490729370672707,-0.0588021055754821,0.6433811521178273,0.6277879447805259
74,16.2945243785184,1.052740134240116,0,0,9.65720559537803,2.7303838433163645,7.884663325037155,-0.6499057611290233,0.07246984990205273,0.32603729047350344
75,15.541076182144911,1.0125926246877281,0,0,9.70046014371805,0.5420682838767176,6.926859252970289,-1.0371445953620755,0.7207071489263758,0.10552748767391144
76,14.500817620072564,0.9720809597501292,0,0,8.511321885234652,-2.8058514944367827,2.19956920121407,-0.8110025184992063,-0.3126441916901775,-0.057320026412015834
77,13.230930727450914,0.9315718409698863,0,0,15.137200580556767,-1.9931367025482314,4.7003278134373625,-0.4608777521575831,-1.1340863393037544,-0.0564011955237736
78,11.796485419136559,0.8912999539615714,0,0,14.554471306462808,-1.674706698609564,5.307154816715106,-0.5822067543775903,-0.39196372018146264,0.03734267078865605
79,10.270148658514133,0.8517666682397926,0,0,12.412500259346873,-1.0414005479011805,3.113491208043476,-0.5105267017669541,-0.6540584712647592,-0.05883694966700085
80,8.731794289837264,0.8140871045676604,0,0,10.170510672887238,0.09786338690978584,1.9109320614612961,-0.48803583560336317,0.26592493264396316,-0.06969736507004198
81,7.266782546516699,0.780226072242832,0,0,5.706439154668713,0.21489064270859107,1.003419862006021,-0.7025960361317333,0.9722090895346073,-0.08081611866977505
82,5.9624049147220255,0.7530593147778278,0,0,4.274816802604817,-0.18809873726673565,0.8063186010763295,-0.5614557850406757,0.9731210255590766,-0.1577959020506785
83,4.902796079879096,0.7361908988684619,0,0,4.624129614710823,0.2557003619270732,2.222715532469084,-0.40865644530206235,1.0705979364122533,-0.23408163532251797
84,4.163060063792562,0.7334851766853066,0,0,3.5118880220690514,1.0408221031322396,1.0690974687842387,-0.3004290505392333,0.43164676159297866,-0.312966564101827
85,3.803369745443076,0.7483519247745174,0,0,3.9230081605908604,1.5464205536195348,0.6313076112072773,-0.25833425264381954,-0.03956285240342291,-0.30248833956421084
86,3.863592567084584,0.782929500250663,0,0,3.7982095467840855,1.8272360950993125,0.8165609857745914,-0.34545096000738423,0.15429475899496312,-0.1691214474791313
87,4.358815691354117,0.8373837990220162,0,0,4.069415949483555,1.6088620986296918,-0.1278989630954363,-0.45987899296760354,-0.14296541963819992,-0.06074307743624546
88,5.276093973236792,0.9095348059262702,0,0,4.807162958995172,1.9884875301622227,-0.3496929058970351,-0.5558258915849456,-0.15521595273848118,0.028728654860438126
89,6.572793542569845,0.9949369934486761,0,0,5.212736733092748,2.2222134202195583,-0.12782924186466804,-0.8855943325713634,-0.35937182223055086,0.07466505746114029
90,8.176968011159927,1.0874100731007317,0,0,6.020520918721721,1.799109777754607,-0.651566837203499,-1.1700916440881162,-0.4315974211136786,0.09153050830562338
91,9.990186348280663,1.1798876869534491,0,0,7.476727597269461,1.7045076047459085,-0.6549263680404505,-1.4731357204892752,-0.38276229838309384,0.028665772398844238
92,11.893039902988702,1.2653637444410615,0,0,11.514421369213965,-1.7319549986443692,-0.42764944765008167,-1.7630750693033446,-0.9886585897627728,-0.21952008928515024
93,13.75315416812092,1.3377005837465346,0,0,16.217519931331843,-5.605880783703338,-1.6665953540897807,-1.2056784822445121,-1.323611544655519,-0.5998050726282187
94,15.435024341702851,1.392135752697446,0,0,14.873091058279243,-3.508853903484294,-4.280150154581973,-0.26895136289782373,-0.33531056169800444,-0.6885046079567108
95,16.810633060079137,1.4254680313310208,0,0,13.650913860891784,2.1412647596610417,-2.4662948524196113,0.35059786649391733,-0.12954592254463096,-0.46352898610495197
96,17.76977793125866,1.4360510108178146,0,0,19.163563188534955,-0.8995244382826219,4.557576487345701,-0.6774746282006378,-0.35020211505411797,-0.3885259571602216
97,18.22924273329577,1.4237789152473808,0,0,17.210503788044146,-10.679595796734603,11.016562503816582,-0.1288493490024086,1.4354373223300048,-0.6126347911050735
98,18.140174607441796,1.3901679067361894,0,0,5.894611253657221,-2.120507248223467,10.130127209087979,1.317590931541671,1.2032840889585932,-0.735288719214007
99,17.49323246168983,1.3384749251241348,0,0,13.697789480596391,1.7780743033354947,6.353249250972833,0.898904663372721,-2.074070623937927,-0.46933157250471524
100,16.32124953169404,1.2736783716512816,0,0,19.044331253991565,2.330641884863284,0.9516947233502103,0.8687696617943207,-1.164115432372873,-0.13612201325206696
101,14.699139007403808,1.2021601418729504,0,0,19.50710259315347,2.773063006708622,4.439113248015542,0.6581427389832806,-0.5530869556730992,0.003149604674568041
102,12.740536555439641,1.1310662429752458,0,0,14.049614605637306,0.8212714984319779,4.996922953557532,0.5357687288809697,0.28069620112648846,0.11158785206636075
103,10.590623696678028,1.0674859214985835,0,0,9.847195034559027,-1.4686563354096724,1.07788602165289,0.5213734294133928,-0.05205336715999485,0.12913611776785697
104,8.415108098445819,1.0176682542862043,0,0,6.796505962633801,-1.4602739289364441,0.9820940856299909,0.7472095104479588,0.538939284015638,0.28829696786290043
105,6.386267838312892,0.9864497525462919,0,0,4.206242216533835,-0.30757027636688666,0.5443470129673643,0.8754758347993629,0.6441403849785278,0.40870965761495615
106,4.667719187037153,0.9769426316439918,0,0,4.27049967750162,0.30626958476180155,1.0318359705012743,0.8352980307255687,1.435438046570373,0.5709257541847634
107,3.399771193934924,0.990419869728042,0,0,2.2086004429719264,-0.2558666705978444,0.40652569627040913,0.48735204476430766,0.6515247535724122,0.6328486612812932
108,2.6869538957175583,1.0263004760152803,0,0,2.159132796363407,-1.1522923425686473,0.8853868315013643,0.4357237575632311,-0.0796315512039982,0.5063951777086755
109,2.5888371130527292,1.082194120765232,0,0,2.05416126820274,-1.1946629332437106,0.8565683285879353,0.7850617855814188,0.2465497830561583,0.2917594579802384
110,3.114823119602662,1.1540493616656375,0,0,1.6395333249518709,-0.8702710220259976,-0.30922379220954027,0.8546048011054022,0.06259714873068234,0.051315845585097344
111,4.223274230370306,1.2364883564162064,0,0,2.0593190440132494,-1.5217218339692096,-1.1667262654396584,0.8854092965656153,-0.021683957367456028,-0.08938405298958124
112,5.825080122311138,1.323371899921369,0,0,4.239418515202507,-1.7304570116512261,-0.23419016849922392,0.9462767277182799,-0.5816649515827885,-0.23020636881441564
113,7.791481399530949,1.4085436054641949,0,0,6.75990703681362,-1.9268038594339596,0.9006025814806707,1.1665935105799041,-1.454162287380888,-0.2545540414490829
114,9.965575006167512,1.486595450999199,0,0,7.883655500647115,-0.4375045133840853,-0.24303835444660737,1.0327766903077922,-2.5876276282318065,-0.2533791056649904
115,12.176446268423758,1.5534340233916815,0,0,14.626295670464645,1.1677263103268973,-2.9394204574838194,1.0463072295558138,-1.6692605643802985,-0.20527539516130125
116,14.254396333775327,1.6064673917653196,0,0,17.617861483674464,5.675362009645211,-2.3257628848307776,0.774340520572372,-0.7078020489221362,0.21641952176194099
117,16.045436271395356,1.6443911876540975,0,0,16.010334012781197,4.195005404072395,-3.847250252752551,-0.2067616975065586,0.5168936296477825,0.5224947303970212
118,17.423313376729457,1.6667473724164374,0,0,12.814457390303701,-3.205671901417033,-8.308539928858552,-0.41320005060628806,-0.8679203478166941,0.34683345755891243
119,18.297879884732552,1.6735248778292915,0,0,21.36918946111674,-3.0239020389007587,-4.9100410018852605,0.6985396492700487,-1.0909607447440166,0.3370270877701733
120,18.619373757961885,1.6649976968658926,0,0,17.65088819221666,6.055720199415264,5.705198752434934,0.8203284789594883,2.807756915867261,0.6129951849783727
121,18.378854076645645,1.6418142148622188,0,0,10.27955074875399,7.092255666315154,9.761753224365073,-0.14012044891038275,1.4094382399227028,0.7072719719593487
122,17.60553739798798,1.6051989084287317,0,0,11.400034164787634,5.511312228231259,10.011787891332457,-1.0869255672364155,0.5876875025549316,0.727184107017214
123,16.36212137632613,1.5570983379753174,0,0,10.928806199686756,-1.994141101766039,2.794849687620527,-1.8008257157010394,0.2748075859729997,0.421811166195581
124,14.739212385713152,1.5001779680706682,0,0,13.948702128711929,-5.4345716130666855,3.7467277013076914,-1.2965020137123409,0.4413336900848001,-0.05568357255511312
125,12.849547911934502,1.4376686450554002,0,0,15.405539569017328,-5.155125569270404,4.197677583951501,-0.6971368938099002,-1.1259170986185494,-0.27241109688687776
126,10.821984353057656,1.3731167821433936,0,0,14.12713694273089,-0.8795040541253959,0.6087026746142498,-0.5725731426476864,-1.0325519278570026,-0.2651173454949137
127,8.794678958645326,1.310109017321674,0,0,9.356061200000092,0.6401289673574657,-0.3440810013423488,-0.7602440664526723,0.3942861993284332,-0.25341904313213776
128,6.9069486218600025,1.25202819913416,0,0,5.844507059791718,0.2604798559810881,0.39034339002372875,-0.8489676598088072,1.2312906288880445,-0.2307191407865073
129,5.2899122124196944,1.2018555538223172,0,0,3.3998345307917623,-0.17226824436623944,0.34619272921334904,-0.8691070498353413,1.6420228139058066,-0.3219935610893752
130,4.056760701219598,1.1619849818573902,0,0,2.642046956065075,0.33405893801640346,1.2323599888889623,-0.49668104430957266,1.1640005100960136,-0.4511327737077488
131,3.293883586755959,1.1340039849016856,0,0,2.2007595660313073,1.3622197540746261,1.2885289540463738,-0.3250696215361388,0.5598567973540827,-0.5049808899644629
132,3.0539859071480198,1.11844837581909,0,0,1.9480506999429947,1.923134808845496,0.666772397504738,-0.49147945948992794,0.2775079571979299,-0.4502264566524851
133,3.3519475070208555,1.1146207970349065,0,0,2.2572409917059435,2.045522334535776,0.9155558955568548,-0.6308467735503396,0.23716058318087613,-0.25491411594890173
134,4.163763307614359,1.120602948529468,0,0,2.725767337406318,2.1440501497182805,0.8037813456255067,-0.8277749300985081,0.0395926704364428,0.010565565789827452
135,5.428597255840494,1.1335447629374091,0,0,4.221354635772192,2.3221669602287887,0.5752273209344435,-0.9851393083233612,-0.11195958494709406,0.21838066617504168
136,7.053773719549947,1.1501992599957436,0,0,5.328664011621632,1.508483463547499,-0.15108439094941134,-1.150635538676292,-0.9168677852942246,0.2780598180185013
137,8.922336177495051,1.1675455345105064,0,0,7.547743582323896,-0.5793135792789215,-1.6445817064294368,-1.1832230922668585,-2.123982334271484,0.2338016693978137
138,10.902548087851308,1.1832687018766008,0,0,11.581687093084039,-3.3782827833188542,-2.8243674366631812,-1.1079986434714404,-1.436075149872039,0.0938935677564446
139,12.858388848681821,1.1959017490517467,0,0,15.446053273586331,-4.7666366443389965,-1.9361245190797087,-0.7177794927885919,0.013850117708047754,-0.16469459145413495
140,14.659830801826443,1.2045930993380571,0,0,15.458763148407481,-2.400070379231698,-3.2145026694660817,-0.08882621532682243,0.16283107042142386,-0.3546267058990504
141,16.191686602270902,1.2086707993872936,0,0,15.931201767033418,0.9307314492902456,-4.914020895547945,0.29658355023479277,0.24279567499246565,-0.3502939156491068
142,17.360203607934608,1.2072968924260021,0,0,14.037377221340561,4.080715609040539,-3.9807904266109575,-0.10353923549839206,0.6881392407086736,-0.2163680294391846
143,18.097193447542583,1.199458520703715,0,0,18.98251860022102,-1.9286449438724271,4.7599180854957,-0.35444082001119376,0.7389984477225555,-0.3951732941247223
144,18.362005047674884,1.1843546230624118,0,0,13.340252747000967,-11.078036591993163,13.24486777120684,0.3379390697315963,2.090942819719641,-0.7185009799795719
145,18.141920643089644,1.1620165093932378,0,0,4.222081204300016,-1.4312204693965096,8.509544081444574,1.4969109080877256,-0.2462386738134172,-0.7240734336437621
146,17.451646591315203,1.13386095681637,0,0,13.521051943332402,3.566769205647062,3.808914524730636,1.0491183000568622,-1.353478042548588,-0.4523095278807233
147,16.332479888500263,1.102883951454016,0,0,18.959495680877545,3.7984188637687453,1.4168151914688165,0.7506779245779003,-0.9587017998260123,-0.05415600485424239
148,14.851280093383519,1.0733525346194714,0,0,19.76655718707657,3.242853666232059,4.64268580252929,0.614384393477509,-0.24007408279321055,0.16315083084966267
149,13.098657090394411,1.0500591774322254,0,0,13.741094307062134,-0.3093865348239621,4.418277222104439,0.5155209127269557,0.3522755408990804,0.23171488826107028
150,11.185370990724396,1.0373650354905952,0,0,10.918845127398905,-1.8359621391875778,1.7842969427975315,0.6111649489654687,-0.06582734220605391,0.2026651094900275
151,9.236282264331066,1.0383117999525633,0,0,7.944993979204883,-1.3831842910718264,1.4778333169656697,0.7851480487192115,0.42484866358107864,0.27980742491473887
152,7.3820479154595215,1.0540268106374588,0,0,5.840909791884357,0.10084437054711892,0.432736008397555,0.8201364048067286,-0.12689424921726836,0.43921444185175185
153,5.749508453086117,1.083531078056443,0,0,5.554944830260757,0.09980595893035855,0.7474524170153328,0.8307977696538381,0.6454772444040264,0.5968797658361102
154,4.4519836493728535,1.1239440919090526,0,0,3.5247842884070018,-0.7132431865716118,1.2052563267458656,0.6793838767251285,0.9513262489260396,0.6722632165078284
155,3.5805551872314294,1.1710018099293107,0,0,2.016660776316818,-2.1353472924231967,1.2714068494360744,0.6689444341405719,0.24359913861693583,0.5967547934756462
156,3.1971046323226173,1.2197745832232905,0,0,2.557681470275622,-2.489148892443867,0.9226938260476443,1.023934612848993,0.13510949506601336,0.3942822992530105
157,3.329582201860186,1.265473399015124,0,0,2.197199968834884,-1.707132622590301,-0.021516359541049274,1.3003659562519208,0.03782423115062308,0.14374080679843598
158,3.9697751043210068,1.3042363373304067,0,0,2.7221233750404243,-1.3815990745006423,-0.916498512010282,1.3504435454524437,-0.21967972270265512,-0.0779862324605427
159,5.073711296941332,1.3337759816545633,0,0,3.8326394998039928,-1.2702411516688557,-1.2227091822107348,1.348122739293755,-0.5912869613359112,-0.21147111993312304
160,6.564715109344018,1.3537540881378125,0,0,6.023798245486528,-0.15851435049102913,0.05784676077166366,1.3367656837740338,-1.4373896010879075,-0.29152568163903547
161,8.338956916895054,1.3657592035592043,0,0,7.9629750230994025,0.5162499901180777,0.17462666461367815,1.164650127371622,-1.45938714932069,-0.28757477903791706
162,10.273091528745203,1.3728200855548696,0,0,10.180492038322638,1.5334880102710566,-1.003194392902426,1.2139513668706885,-0.6295136540176307,-0.2177595654087772
163,12.233311452033659,1.3785006462212945,0,0,13.737482857736826,2.9644118539896827,-1.7094494692962166,0.9701152525026331,-0.6575258881403503,0.057159576348463435
164,14.084944362965045,1.385766482708356,0,0,15.129962758144314,3.1460647652132616,-3.4808646119090514,0.2473971370641392,-0.7291384590965456,0.4171611194110443
165,15.701698547974496,1.3959300755390172,0,0,13.31016178148974,-0.43598632101063217,-7.217095772673445,-0.10086416769869201,-0.15987494282794285,0.42415030396850645
166,16.973858121474034,1.408008228015724,0,0,14.113141082468353,-2.734235186964555,-4.909823808358911,0.4422759582043486,-0.28036544006796504,0.3762950734432979
167,17.815066723095637,1.418729816634984,0,0,17.12104965525903,4.001531429046037,3.4845766567421586,1.0058699538842555,1.0259445143441384,0.5759399600842877
168,18.167603882449168,1.4232322170803753,0,0,14.03823228626904,10.4690056518104,10.52775799121909,0.25246616221279305,1.8324791165689664,0.9465639807525246
169,18.006116667646193,1.4162525565470188,0,0,9.920868623133543,6.997077536176541,11.022521102875958,-1.3521412241131292,0.4804306489781849,1.0328687815328659
170,17.33970537581895,1.3934576918662598,0,0,13.765931690338338,-0.7420386487254477,7.023977357420081,-1.8039713439135603,-0.23093693959152325,0.7924339394153783
171,16.212218515621505,1.3525351014541283,0,0,15.040488556014346,-5.7700545391873295,2.2701184705302313,-1.6193430537444495,0.7745055481781562,0.1366108141861381
172,14.700566674244591,1.2937779110800203,0,0,16.643508318648575,-6.958854899377315,4.055082231041393,-0.6994944007819937,-0.7477263810775004,-0.32038193670114706
173,12.910746938420319,1.2200756010481466,0,0,15.621222610799956,-1.4676220286869142,2.2544800830471923,-0.26439006014429783,-1.1606198877658034,-0.28423466154795324
174,10.971226415343743,1.1363936558405905,0,0,11.732502786082241,1.6156054956717547,-1.070151087051734,-0.43746497839797255,0.21364659215343354,-0.18770133618366455
175,9.023636638708197,1.0489350136360924,0,0,7.4858290893828885,0.6285341200490647,0.26348352494446553,-0.6693045991453561,0.8913265703063121,-0.10002003867224193
176,7.211399220563595,0.9641995529907963,0,0,4.601427117627892,-0.0937425419655583,0.3041897682716238,-0.6216682139310566,0.9383098803921491,-0.10144400968834238
177,5.667588418856556,0.8881127840476454,0,0,4.754286548119584,0.31021000098633167,1.0913048511639438,-0.37441934132032234,0.6471704841258954,-0.31226700189563056
178,4.503632670883958,0.8253298935619038,0,0,2.9112315093539634,0.980755706439016,0.7284064632306598,-0.2868291579914407,0.17397078531487462,-0.5209537018818045
179,3.8002474853172337,0.7787768596117342,0,0,3.127439840043167,1.477138317622139,1.0901876729036035,-0.3578923921471863,-0.15298092620364767,-0.5726146814864321
180,3.6014731036927206,0.7494679235950623,0,0,3.3722955777918346,1.2694290148813796,0.373391148278523,-0.4593392751083555,-0.05202987931695745,-0.41930489382856573
181,3.9121425547487214,0.7366138876178997,0,0,3.4970015693266405,0.9557012685668095,-0.18217500795235692,-0.5788367509107568,-0.06335049693438921,-0.23905373366524776
182,4.6986963212942765,0.7379946872265427,0,0,4.363300904784039,0.8210094056899955,0.1981768757807756,-0.6474054704664339,-0.30560320514587197,-0.052688644055684165
183,5.893013048780886,0.7505200290661299,0,0,5.481541562604512,1.1430041937394015,0.27933843268149455,-0.7794609049694501,-0.5488388807034325,0.12454670691072108
184,7.3987837620735775,0.7708590251032259,0,0,6.405559674586694,0.776307189865305,0.19738751459605075,-0.8733903396610655,-0.5337997519911514,0.1703500549107781
185,9.099842452434078,0.7959993897760707,0,0,8.55111717514771,0.10712746609557203,0.2914951503476004,-0.9208239874294882,-0.14173780292377686,0.07763135961542701
186,10.869724888116858,0.8236127183001818,0,0,12.757162182045962,-2.107322801015468,-1.5718730334500457,-1.1714993226012373,-0.6594648614971365,-0.09361002657179548
187,12.581568348197198,0.8521593094931059,0,0,14.247964403072713,-2.4182444053415857,-3.3081589204190047,-0.6736425153261337,-0.27016604346860434,-0.22837288180876517
188,14.117386669026859,0.8807539453222724,0,0,12.480979552851684,-0.1511106856297156,-3.665093667304251,-0.28356926733906174,0.04088316032378088,-0.24559926809185606
189,15.375882186639474,0.9089059738029154,0,0,13.439842328902003,2.1134255892213765,-4.802612165153525,-0.14084871643815075,0.17888273325676493,-0.15645738324813313
190,16.27827174317296,0.9362982160917475,0,0,17.61327701552669,-1.3846216930454855,1.1229754947719073,-0.5622845928039674,0.48153669620704664,-0.28189750513999284
191,16.771924498479816,0.9627378104764641,0,0,17.314701929726453,-9.682397118098647,9.671780540127434,0.011442855795748292,0.6016877078725087,-0.694704553231
192,16.831836380513295,0.9883006669393902,0,0,9.325125295266385,-5.677373956627131,8.79129999742838,1.2021979894256825,0.4381687742517237,-0.8712038721465853
193,16.460228854233307,1.013560025042149,0,0,8.175123028375573,0.6301148768679701,5.069232453277592,1.3409498596745242,-0.6742767005341688,-0.8369980321562266
194,15.684905749636318,1.0397183334943325,0,0,13.239588581982783,4.3270162655100775,1.3386514431537222,0.916276422507995,-0.8018533920451327,-0.5692102159544987
195,14.557106189731424,1.0684969354701899,0,0,17.918526844431074,4.256117347454689,3.0597229738081704,0.4895986845621742,-0.18673951871750633,-0.3350093020213912
196,13.149133552965726,1.101762766074323,0,0,17.023746341143145,0.3629536176584648,3.7736977766532034,0.6283421569835368,0.1949230396810071,-0.11173694629026625
197,11.551302914390448,1.1410089687712839,0,0,12.373478716257969,-1.6160884217728835,0.5353997514909804,0.8581926589991455,0.33685553344113495,0.030876834494760245
198,9.86743632688224,1.186871357462909,0,0,8.275509467944879,-2.6551193227954473,0.850047575154839,1.0360985065526516,0.6353661033114135,0.16226411204969154
199,8.208558117179528,1.2388272754521985,0,0,6.674327029827289,-1.6430443044427097,0.03349062379922489,1.156621750462421,0.3499026514191042,0.28359080820289195
200,6.685206361369876,1.2951328148871313,0,0,6.3119526625070055,-0.2182260883430149,-0.05684763012491377,1.1632420100127596,0.7588244106650256,0.41964949534949075
201,5.399296535889521,1.3529748546029559,0,0,4.892996984368224,0.060375396921383016,0.38690518667207,1.09506775281102,0.8670143402830168,0.5175223249878569
202,4.43653478278452,1.4087802605372703,0,0,3.8426243573383436,-0.6900128263265521,0.8607387652681683,1.0785429209731205,0.42672070430400694,0.557521774925612
203,3.86014982719726,1.4586311561243988,0,0,3.2271100305504867,-1.5225023704729295,1.3019508826844406,1.1861691867836146,0.19578118318726884,0.5045458428468294
204,3.706430022435009,1.4987576017567152,0,0,2.970987393321952,-1.5761043595994124,0.45768604595280404,1.3029004465740552,0.00959931700004833,0.3150043343079331
205,3.982325075751651,1.526089363231318,0,0,3.8027925583745374,-0.5997870875822876,-0.6615071659541104,1.395406162348286,-0.15541393533735975,0.04633435221992096
206,4.665208458966728,1.5388298295273783,0,0,4.4009132262820465,0.14034372943704992,-1.1304513110822816,1.326733691189,-0.5623602058327786,-0.20946997280629648
207,5.704777480854279,1.5369709815392476,0,0,5.021114626857691,0.14718719956024687,-1.743717714837438,1.1783596494223523,-1.3991719969392167,-0.36405733087020725
208,7.026974092273604,1.5226194885171884,0,0,5.989482858604221,-0.11330232984661831,-0.9918810882722111,1.1605206875946228,-1.6532006950585068,-0.47289803390889834
209,8.53971371290291,1.4999810792410408,0,0,7.530412161551529,-1.0695937691814814,-0.5728484435987592,1.1578885169593394,-1.5105457368400645,-0.5383317548792903
210,10.140072707408748,1.4748841459722148,0,0,10.035216308101859,-0.47210606346895573,-1.88423190141668,1.3186730709643208,-0.4104789725444552,-0.5217404730273217
211,11.722383422282709,1.4538260460951484,0,0,13.199773896466226,2.4433813998171434,-1.758240958295415,1.5907902637129196,1.3109959688220638,-0.3395864701557227
212,13.186466367429219,1.4426745973809383,0,0,13.99180860625286,4.075481712004863,-4.236413375870756,0.86671884584652,0.455511647844518,0.03385105384595927
213,14.445126343276955,1.4453077233748173,0,0,12.679285448564231,2.1365574398918796,-4.719020048967014,0.18777131874757974,0.24057216749082433,0.0811852176623544
214,15.430167867706091,1.4625748268467944,0,0,12.073543491674473,-1.7042340672055576,-3.3121045520476144,0.025872799010100807,0.4013861407403236,0.014193941639103678
215,16.096476315241755,1.4919560045364006,0,0,15.68382352537244,-0.44190706346970166,-2.075990229403507,0.49943827838687904,-0.21178489365568928,0.2207768848845962
216,16.42392510936739,1.5281332596730908,0,0,20.79833509248315,10.674046090990096,10.714563394642788,0.14740510945135513,1.573316588829619,0.7810223962255989
217,16.416907423452745,1.5643929408751815,0,0,9.236051659752812,9.604515554746703,12.46764956497838,-1.480231908499933,2.2314714037421868,1.2298466996925554
218,16.101436939042554,1.5944672683705687,0,0,4.884494663347863,-0.9045177546795524,4.835325191938327,-2.0839130219959823,-0.9506758013266399,0.9706714481136082
219,15.520319461251967,1.6142511419011172,0,0,12.24053375599776,-3.4613818650898405,5.002326234200608,-1.722051519124555,-1.3535500198903587,0.4073780753841326
220,14.72756993318624,1.6228895304851798,0,0,13.570142585516642,-3.735690886242088,2.5959541538456703,-1.3168474285029634,-0.7493119535103504,-0.03867648107294333
221,13.783340098290868,1.622978480111929,0,0,15.808793285372392,-1.1755162161333708,3.6838602815131027,-0.9224259313774623,-1.3585516801383257,-0.1504702208958364
222,12.749959059699426,1.6199198125144576,0,0,13.839924096682315,1.6636421276346907,2.097239383377449,-1.0020555969506821,-0.7544258685472542,-0.07418675142571557
223,11.688882440714357,1.6206872647967245,0,0,11.902921560224746,2.2980919517116205,1.194822779075207,-1.203872220417933,-0.47761541552014386,-0.042744341633077575
224,10.658021743837166,1.6323523858124467,0,0,9.977077839718724,1.4072591858714985,1.6059441373849905,-1.420567488776124,-0.2391445452844763,-0.05601850398508427
225,9.709123211250933,1.660701761285526,0,0,8.99833436656354,0.2681201817689527,1.437670682509836,-1.4943942091917894,-0.4374944299825499,-0.11474056342537439
226,8.885230575438495,1.7091969539181273,0,0,8.635136757372095,0.28573650826067665,1.7616960300580844,-1.4673907856016397,-0.19800893027015842,-0.16282797072540822
227,8.218496816552657,1.7784267705158865,0,0,7.563451486754385,1.4872341244011462,1.9245221873716996,-1.5477495198592095,0.007941961855419417,-0.2089107116566915
228,7.728637639680664,1.8661046713293878,0,0,7.101763737961183,2.6336617051307565,1.8082352749154942,-1.7006138283142547,-0.06427120461010341,-0.27610921482301193
229,7.422230411804285,1.96757801797771,0,0,6.814067522457147,3.0342629514556774,1.3090693525957795,-1.9268132693467932,-0.20146026265744318,-0.32451504141065685
230,7.292960412960773,2.076736590374838,0,0,6.62226838377287,2.3792523783201798,0.1726923002820837,-2.20341655468856,-0.2469700810695576,-0.33508809444056337
231,7.322850434962727,2.187140158902282,0,0,6.814111291400049,1.4492638519338366,-0.6110633041024089,-2.3873581940608775,-0.26916189914530525,-0.3106827656038678
232,7.484473913223486,2.2931452002315402,0,0,6.603336603405345,0.657602889493895,-0.47884817637064053,-2.490640987276483,-0.268977328012053,-0.29206695659302506
233,7.744106470979852,2.3908140554400257,0,0,6.8904960537795015,0.4294360192423873,-0.9381370138226564,-2.5350799423818247,-0.6443961029465696,-0.24568299330766846
234,8.065670337663525,2.478437477425516,0,0,8.4249342846109,1.7006101443810675,-1.342714069307368,-2.481296652054136,-1.0258260934761319,-0.10973704844251704
235,8.415157751463141,2.556581245461011,0,0,8.054345631130445,2.520736710619975,-1.1572445320609062,-2.571541206976802,-0.4425867295257508,0.0006507995346061688
236,8.765030043293027,2.6276609901177266,0,0,7.969168381381,1.4116667328728247,-1.1394586643764235,-2.741901526292245,-0.15674202656882522,-0.09056381337788433
237,9.09795374196582,2.6951394797465436,0,0,10.181501828385247,0.4302071654204543,-1.5441831406547561,-2.626155850836799,-0.40802972283263167,-0.2674687633728564
238,9.409192060633352,2.7625146276760058,0,0,10.996487843662065,0.019895307814742753,-2.754063307785691,-2.491062253634466,-0.29191082031094945,-0.31406438984324
239,9.707025164680035,2.8323153286891665,0,0,10.524307619035698,0.34715311066052856,-3.17822158696605,-2.4288737092377266,0.007848389103073592,-0.22028733635441716
240,10.010761434784643,2.9053359652689004,0,0,10.161306762872009,1.7923558227023753,-2.6501203797523214,-2.4686524202296174,0.021110334107988463,-0.07779264684454909
241,10.34626842968053,2.9803061031678335,0,0,10.733984856560353,2.776685387828233,-2.906641835404244,-2.6032380402035424,-0.33242143408745356,0.029066247877970384
242,10.739457337904202,3.054102458366218,0,0,11.006151206849438,3.1111366170530763,-3.7595149701554083,-2.8991517667805646,0.19506962075996062,0.04896653396179912
243,11.208688139541346,3.122477581337129,0,0,9.384048413181356,2.546275572831295,-3.1837148038460676,-3.230555692986815,0.9135273055757883,-0.07622690808803805
244,11.757531308330343,3.1811376274322916,0,0,7.075367793915097,2.0718988073042057,-1.774998696536253,-3.381195697160853,0.8350578063899,-0.277802803743703
245,12.369626120286307,3.2268949273116276,0,0,6.812978467777214,0.6613507641161578,-1.259177995029138,-3.762942325108105,0.30746421316682315,-0.37662101035710377
246,13.00731370324362,3.25858809138241,0,0,8.500600949600267,-2.4478421565311526,-0.3440416003701291,-3.750173184764014,0.5868845053860815,-0.38852274982629975
247,13.615062622853197,3.277519263677202,0,0,12.516282716245618,-4.425411298531992,2.1555835513360795,-3.2942384029161236,1.061701636654353,-0.48253817627879514
248,14.127447025508392,3.287292368918752,0,0,16.316911042480662,-5.966528367567859,6.057720334556004,-2.6747360967174507,1.332628055985586,-0.7151245682400535
249,14.479990771855979,3.2931073949142884,0,0,17.363831817670775,-7.297630258163736,9.106040680685936,-2.8530968273623554,0.819374729029911,-0.8493114738189087
250,14.620226696070029,3.300715646562279,0,0,17.68426387478426,-6.875502895469171,6.298489901655584,-2.6109219348206154,1.3637848570461035,-0.6867912048700693
251,14.516369074348777,3.315318866075007,0,0,9.484847330551073,1.8498631592700114,2.507897669762526,-1.8892548766709538,1.97448704114171,-0.24860895857346313
252,14.162045946145476,3.34068262906713,0,0,9.394403537610438,5.759125269201105,2.6754053607368657,-2.436625326793989,-0.24394971051035183,-0.07054166858851388
253,13.57693706908852,3.378641364407308,0,0,12.95580219282468,2.153161020837406,-2.551280209617219,-3.8669576748190146,-1.6089901091331469,-0.22864366198378147
254,12.804077168297898,3.4290239384080956,0,0,16.449767471970812,-3.5209486713225213,-5.16574154022999,-3.676651284641793,0.5720257970016298,-0.4972897330903513
255,11.904711693642902,3.4898772231026935,0,0,11.051070314036169,-3.7450756306740014,2.950708439619565,-3.0815056575303297,2.8091955978735177,-0.6917666680264185
256,10.951377818755036,3.557789054246823,0,0,9.100228958197466,-2.7319508889724484,1.7839046625273987,-3.3947464568942,-0.07237695086676582,-0.6791097368477298
257,10.019902270942778,3.628158538838431,0,0,8.089893044758611,-2.128721561993895,-0.03569314204722348,-3.160104207091476,0.750893046905858,-0.5240768639223293
258,9.181305771042718,3.695391534979154,0,0,6.233315447377814,-0.6947082629070298,1.8788123859699577,-3.0897260213585853,-0.6071557057140728,-0.5975785400748423
259,8.494788866251882,3.7531147234195137,0,0,8.329347766005506,0.3088466288499547,-0.4361817513668673,-3.3112504069376802,-0.6711137736396586,-0.7360605035039137
260,8.002761932698926,3.794526944320829,0,0,7.355223363272979,-0.13960127378181017,-0.9295680462521597,-3.740465773797909,0.19359323255524613,-0.9744581532689262
261,7.728353004774926,3.812936711607402,0,0,8.134365857561844,-1.2270101507305198,0.3580328379917541,-3.920591297166594,-0.03756618811881924,-1.1605468890798782
262,7.675253740147893,3.8024268186022474,0,0,8.262053230389055,-2.0594051678419674,0.8674970085748682,-3.9188453430279413,0.3818692362317302,-1.2128169307566723
263,7.829368645139504,3.7585115500083575,0,0,8.020946451002791,-2.7295290452555645,0.5985536409448023,-3.678703063047468,-0.27394923565880136,-1.1893423345513234
264,8.161594685084712,3.6786476132532986,0,0,8.22656606493911,-3.100158752662648,-0.2841948251918248,-3.453559341886014,-0.5224801217393948,-1.0755429818778068
265,8.631144175440362,3.5625157053461636,0,0,8.145381605209137,-3.24049143010851,-0.024520651346476015,-3.300957315634796,-0.510663367899738,-0.9917219435321093
266,9.18904351446996,3.4120635319278487,0,0,8.044411880494426,-2.7565930344511864,0.2288861693122539,-3.177627981516234,-0.3229044788765056,-0.9501503258596372
267,9.78168284030774,3.231353157733324,0,0,8.64502711007173,-1.109866626953228,1.9649550359452994,-2.917647124807096,-0.255037500872933,-0.8684903430512666
268,10.354451331574017,3.026269747764947,0,0,9.551525524188131,0.5895762805080322,2.512216655783501,-2.981035878556434,-0.23289722205604718,-0.6732594515311275
269,10.855503901545992,2.804131488971387,0,0,11.38504507360215,0.7760905603989755,2.043399658684475,-2.6973556101322442,0.4499353955384513,-0.4071363235292248
270,11.239582388740226,2.5732091858229897,0,0,11.554948749551468,-0.13515619998881467,3.054151330242625,-2.312327422165798,2.2177974943492123,-0.26990993806990554
271,11.471659938083768,2.3421416977585556,0,0,10.02470064941231,-2.895549000413842,2.8725025713307146,-2.392289816179053,0.5960946912368055,-0.36994766943205465
272,11.530106401347837,2.1192451185217958,0,0,11.262033796518905,-3.642567378488642,2.516664143722308,-1.798864466171351,0.2781802615926385,-0.4926492687436853
273,11.409109446540423,1.9117690891694081,0,0,9.045694204371971,-1.9344694606947856,1.0787648230278666,-1.2567256171091412,0.6255113658714717,-0.4973501454069801
274,11.120144812896656,1.7252246924141788,0,0,10.889117325783177,0.4120212615078931,-0.06508176290746974,-1.241572006104451,-0.5097007284875971,-0.3210409532068087
275,10.692263596968106,1.562939427271029,0,0,13.841047812460685,2.1817254019641372,-0.01105236881911627,-1.3529005797529292,-0.14908642607364264,-0.2657248553845394
276,10.170848475575998,1.4259511703329228,0,0,11.75365234798501,2.777603684202706,-0.18860617259101056,-1.3974675559089011,0.3466437024348957,-0.3929250623704655
277,9.614437529072742,1.3132533093848415,0,0,9.673537077299756,2.43141629120215,0.9245551024084264,-1.3631810034610823,0.268162676051641,-0.5765973864172036
278,9.089426253053253,1.2223002741323652,0,0,8.766476864917122,1.25386498314427,0.8027319798172101,-1.3469372451951862,0.0817465351713085,-0.6396918025601239
279,8.662950726070745,1.1496234455047238,0,0,7.798676239250642,0.0013577810072710726,0.29368560825293255,-1.2054823026797523,0.1283491622614095,-0.5566926852194524
280,8.39479195261621,1.091409675411555,0,0,7.40130434425431,-0.581875640925894,1.0353399954602305,-0.9880564821196911,0.14706365323374118,-0.47215147489755055
281,8.329458810486678,1.0439461058555435,0,0,7.4161448565522265,-0.571696633545794,1.1438050250407763,-0.8417958545182197,0.16572919118094245,-0.44028236502916057
282,8.48962129504555,1.0039046282178576,0,0,7.690712030723085,0.10629150908851928,1.4043451692747047,-0.7629737176446083,0.207342817871872,-0.3951969781893825
283,8.871855006388962,0.9684941934793778,0,0,8.068245247807184,0.4165982683630364,1.4154382364444753,-0.8313426744411808,0.10463214971410953,-0.34242666957294315
284,9.445339801916813,0.935530404265618,0,0,8.5883305614306,0.43402092604522113,0.9098324267868635,-0.8575691619890066,-0.09089731304663921,-0.2851657407570343
285,10.153812748496348,0.9034613690741286,0,0,9.189385957500642,0.5563978874675687,0.074625102869414,-0.8634857750336452,-0.31939553953843564,-0.23176936766893538
286,10.920737603657974,0.8713631864462472,0,0,9.85793768909477,-0.3216703336158498,-0.4101697463497377,-0.8156422709512332,-0.4198938642157034,-0.20423850207471866
287,11.657310034242256,0.838896163839158,0,0,10.609852499082159,-0.955800693374138,-0.48163673557358944,-0.6671816114613621,-0.6142324973385939,-0.17056101173722765
288,12.272549380663929,0.8062055170953106,0,0,11.992357951206621,-1.0054094903975639,-0.29160809364856477,-0.4637053581077306,-0.7276776956424753,-0.1958773913352912
289,12.684338184099053,0.7737603974961417,0,0,14.747609148388683,-0.05387663197002935,1.9423346855365675,-0.28072560483817244,-0.7662840878371397,-0.219275452039944
290,12.829929074035784,0.7421483708195965,0,0,16.539668142095664,1.193211299738661,5.736488828281947,-0.30964714307147795,-0.4526882129421184,-0.16481764154681494
291,12.674310161193175,0.7118697233510013,0,0,13.79420920463998,0.5482388875007348,6.726933591704215,-0.45894317688150177,0.11299396011004449,-0.1624165387755906
292,12.215107596907787,0.6831934102860903,0,0,8.83045061316659,-0.4857750556982397,4.17899618779455,-0.4742709113763551,0.0591510452547615,-0.3986309588773375
293,11.483439014274627,0.6561302238810754,0,0,7.4260544273526,-0.1605198282843087,2.500795054274377,-0.35639786568423726,-0.20273834658004442,-0.542427182164239
294,10.540993079225728,0.6305466025094942,0,0,11.553119462835816,0.9333696542639411,1.1309773948604191,-0.3442821588777267,-0.3133450974241774,-0.3975295435041614
295,9.474108510187339,0.6063992733124243,0,0,12.615471205297757,0.4163720979317028,1.3405904197011198,-0.03202208635583819,0.4614341140632468,-0.06823634062932196
296,8.385596526295677,0.5840349542727288,0,0,9.569976959624272,0.06394640182441225,2.4328643149975835,-0.07455043655898436,0.48338229015239875,0.33811347921453083
297,7.384853257631122,0.5644756356938438,0,0,7.1916509796658845,0.07291915564846917,1.4635339991524767,-0.4310034230367093,0.46154374128112635,0.55252328741572
298,6.576897101792051,0.5495951447906171,0,0,4.023244978763627,0.19821689539903392,1.248543464140078,-0.46542298145884325,0.5646326624304102,0.5319350929580926
299,6.051368055460998,0.5420935643370338,0,0,3.487641267492004,-0.07532401639874865,1.4011292975279592,-0.5369020303207422,-0.3230417254745262,0.30371390636145207
300,5.872869862112886,0.5452096661471905,0,0,4.94782597917226,-0.9393742896788658,-0.49237571951219894,-0.49978535205898283,-0.25461047107544194,0.09757965553852282
301,6.0739868231056615,0.562181724495716,0,0,5.10334662536403,-1.7865410541185447,-0.40054392165358316,-0.35127447192690947,0.19132258007727895,-0.04168818198783558
302,6.651858565536439,0.5955498736839854,0,0,5.856763796825454,-2.4372297789569757,0.12409675218597502,-0.2107719350414265,-0.30494101590199946,-0.10489484930061163
303,7.568591688363824,0.6464515065556148,0,0,7.405768756068567,-2.3955509042663974,-1.0389021365769568,0.03149748991803094,-0.3908069861666773,-0.12654521667827626
304,8.755272493927695,0.7140709651905678,0,0,7.863591972108677,-2.3980632600786054,-0.6707658412496166,0.3662652553323186,-0.35676817333792105,-0.13272472075400207
305,10.119013604277027,0.79536593454761,0,0,8.491940767082477,-1.7653075474928022,-0.03344594859222228,0.6439126240754132,-0.6104358430860695,-0.07616421621774719
306,11.552270605334868,0.8851248042466996,0,0,10.626165878576733,-1.3454091437017204,-0.14449193846396755,0.7935593301057537,-0.626982133610753,0.017051238985691233
307,12.943491517651154,0.9763411314898635,0,0,14.027647857687157,0.12583326754829824,-0.1866315257128613,0.9175238222331612,-0.7016206925392314,0.2079407779225875
308,14.187936602138207,1.0608507124229887,0,0,15.587977066292366,0.844782954358674,-1.6011352636407918,0.5454603745632812,-0.18691537316850065,0.44393440365842135
309,15.197283882549408,1.1301719987696452,0,0,17.718523432469407,-0.14865771662020216,-2.17576165360466,0.32161712896705896,-0.06987181210983444,0.5319185528274607
310,15.906598115861259,1.176497933914284,0,0,21.75548780095416,4.070049400836194,2.1745065179935232,-0.00358625762075937,0.15067363768776074,0.7780891100185451
311,16.277581480767495,1.1937646334224734,0,0,14.740845355651432,4.245317347893918,6.0673485976019546,-1.0126268976999389,1.878676148645898,0.8741937078390644
312,16.297819783645647,1.1786554839072463,0,0,11.236205502116027,-0.18350026621584034,3.193608400484177,-1.251559361895766,0.1385165343532004,0.4127252841335535
313,15.976817057178328,1.1313354271862452,0,0,14.728460103280938,-2.0466153640038516,2.981700352198857,-1.1977666780795349,-0.23038298410491156,0.3693199416625325
314,15.340513141764838,1.0557193922319907,0,0,9.92093323708663,-2.6205920733516295,4.186807368324551,-1.0672280623683612,1.0558098140394383,0.1915933768992092
315,14.426224594425793,0.959176134490691,0,0,9.58479058468566,-0.5654574939829268,7.812259937542431,-0.7735142677609155,-0.19950751025806518,-0.027454483612525515
316,13.279436829617072,0.8517033802797419,0,0,10.567854346679031,-0.14583739316357225,7.221248437741394,-0.6486204946686422,-0.0494439224954989,-0.05421092677419197
317,11.952902660338298,0.744724533233292,0,0,11.689261850416562,-2.005416669474037,4.255481662893294,-0.6064690158005993,0.023413810748689163,-0.04229401063414264
318,10.50747879610256,0.6497218872869828,0,0,12.207525934378436,-3.2053252236318674,6.691670572880546,-0.3699670392984963,0.287031357564429,-0.13309654613048583
319,9.01340084367563,0.5769285945851563,0,0,10.57288993019533,-3.0115748293658045,4.34257805414728,-0.049570573303168275,0.11483622963322815,-0.24388919863991954
320,7.550498433757467,0.5342603585102751,0,0,7.910609080541812,-0.947992429361854,1.7927291386946,0.21319348568553764,0.18535662850701076,-0.2621713761686646
321,6.20623983716945,0.5265975687130083,0,0,5.776610886557211,-0.026951079580137493,1.533607785216937,0.27115097287424905,0.43627638746888364,-0.33159632208473094
322,5.071264636721594,0.5554484446250756,0,0,4.383438519283748,0.3369336072646734,0.9416071883035818,0.439690856228061,0.32570710178597334,-0.47576100630810464
323,4.232839538280614,0.6189531081930462,0,0,3.115783580709097,1.1192205117600023,-0.31777937830390013,0.6034655051023412,0.06339593757686164,-0.5584726182840659
324,3.7671533874106324,0.7121500219363347,0,0,3.066754839210687,1.694815907287889,-0.12595478327104492,0.6496571057490608,-0.1484096371321211,-0.526298330649641
325,3.7314873830605286,0.8274331143554988,0,0,3.4133318336124794,1.8026609756321248,0.7326516091461439,0.47466286593827217,-0.3598240293128907,-0.39769781957089123
326,4.157181223233456,0.9551698618720158,0,0,3.955442867319453,2.1758390257003715,0.7608371824244972,0.1896652645752469,-0.4279493679852926,-0.268704218321745
327,5.044140145610031,1.0844952917135913,0,0,3.893570104647403,2.8734325628481208,0.8044941291916109,-0.14498716597900538,-0.5264962367859229,-0.11486653523027662
328,6.357512535520994,1.2043042404902073,0,0,3.9984129932571046,3.3488961766699306,0.6177199014445872,-0.6791352965984132,-0.848683275056901,-0.08038588950969162
329,8.027127208723671,1.3044089669986314,0,0,4.192755540962508,2.557322359653562,-1.228128551593392,-1.0346267702339706,-1.2624868652795291,-0.09947690838678266
330,9.950209415115646,1.3767253755579538,0,0,5.995728852642399,3.0991936646488,-2.0208933374817053,-1.1585182180988038,-1.4420785819205308,-0.05349191688062909
331,11.997630420947784,1.4162556384428509,0,0,12.845716627235479,2.437464195541717,-0.6644704994688927,-1.7021017837308992,-1.4610294058994233,-0.16624576158629825
332,14.02340760904161,1.4216157962024187,0,0,17.678685605432722,-2.1180188598718335,-1.8880945017775088,-1.7515488515430475,-0.5249356041169552,-0.42147621406557817
333,15.876520191271302,1.3949479604494048,0,0,13.543324080690153,-4.569380125622811,-4.108897111942224,-0.5736261011767934,0.9315885049195203,-0.5740421628797681
334,17.41368086329287,1.3412344928688358,0,0,13.835523280641643,-0.2371645604014842,-3.431171181197502,0.34433524291625506,-0.4186857251512039,-0.4877251464577802
335,18.51168657178389,1.2672207796698725,0,0,21.884270177091626,-3.4230656010415577,5.442469240320267,-0.060675393747323676,0.026693365972625872,-0.40382863217437354
336,19.0781838189487,1.1802608296257031,0,0,16.706011466133262,-8.384720525912241,14.341322909291176,0.7762213024061428,0.6961453148252953,-0.5701245613248394
337,19.05990631961778,1.087371496106861,0,0,8.414828002499808,-1.196623080471106,12.35895401807458,1.1525744989647182,-0.3180891507903781,-0.6295895575993702
338,18.4477369117926,0.9946447371598574,0,0,12.194346173335928,5.531780800212647,7.194587290023763,0.4898518784549281,-0.5226512505273824,-0.40255573028010855
339,17.27836714901774,0.9070137169345648,0,0,16.504051337645542,5.141294814465926,6.0310244834331765,-0.30552389770859883,-1.122614608330685,-0.12866389167458633
340,15.632602979886432,0.8282750021484204,0,0,20.21663109053308,-1.4902561074967082,4.088897833184506,-0.33672261792247665,-0.8023572434446657,-0.04357002472595653
341,13.630279461096311,0.7612482036839595,0,0,16.026128143383932,-1.4499926173915385,4.441858709321889,0.26188964984765495,0.8998441573021797,0.18383512501043045
342,11.421617806592248,0.7079765257728009,0,0,11.020020175269071,-1.432978670217174,4.389649787988271,0.007735256457152671,-0.2191226462614886,0.31589455671681327
343,9.175186803660004,0.6699077641415034,0,0,7.277532721126062,-0.6088240415054593,-0.18856485362251177,0.21730750914483618,0.5326245332040402,0.2875891134098365
344,7.063437904264103,0.6480252636603416,0,0,3.900185613216958,0.8539208940072412,0.7793868487779989,0.04449390885973868,1.0875935913462136,0.24613777164664602
345,5.247567627479607,0.6429105776272236,0,0,3.035615549318052,1.5922741576791644,0.7413643849672361,-0.3855778697922487,0.2008285452330969,0.2610616321766849
346,3.8637248668973347,0.6547230943661604,0,0,2.03252626437084,0.5003236154698079,0.627857487720873,-0.5871533866407788,0.4807881637095907,0.24612063295311973
347,3.012221708886188,0.6830989079356823,0,0,-0.26729426350671043,-1.8559662500444603,1.507516627698144,-0.4544750905848952,0.635910567207156,0.11783838744851523
348,2.7506726546090916,0.727007178733267,0,0,-0.4934839920366644,-3.482002155842528,1.220509635509621,-0.12208075758492827,-0.12342890654899104,-0.06521139750559184
349,3.091221125170604,0.7846372830548141,0,0,0.8021075243167817,-4.006106274986286,-0.04036991139406447,0.4056966899338544,-0.28463230048230675,-0.19817044237124712
350,4.001464692324212,0.8533967845073662,0,0,2.3649422425719098,-2.820699749545475,-1.0960789150166683,0.8235166629668685,-0.17388183180532707,-0.24750854561403873
351,5.408461577401414,0.9300623242805001,0,0,4.379682715552156,-1.5942019724158354,-1.426882221213948,0.8704629829056527,-0.44660517558285884,-0.27157350644012274
352,7.205229928030414,1.011053677784211,0,0,6.45263267471539,-0.9478215690050158,-1.2187581827850502,1.0497654872492106,-0.5603474383634348,-0.3627721108881749
353,9.25926050413956,1.0927346845744836,0,0,8.092366048148559,-0.5311750104368884,0.05553637663825008,1.2748043870229167,-0.5412980773086259,-0.35564028120717506
354,11.422579788450397,1.1716232290163893,0,0,10.63052375978634,-0.5801156392953623,-1.244350821268101,1.2411000297198862,-0.7087445065265269,-0.1346126486699563
355,13.542761352261918,1.2444289273986449,0,0,15.158126395226002,0.7875879172160424,-1.918598797418036,1.3773526626445798,0.09147363940094413,0.171850956056783
356,15.474049423916183,1.307918627817969,0,0,17.13210643009104,3.160271068915475,-1.8792945404285508,0.9770755070954766,0.1368263798423814,0.5096702616058324
357,17.087581413995768,1.3587074965519326,0,0,16.89305643165524,2.874258820552126,-3.648717835166635,0.04460279578147872,-0.33981324782437394,0.6970375053633415
358,18.279739159501723,1.3931467581746348,0,0,16.619698841446127,-2.986198220771041,-5.173426555103095,-0.26358167711708863,-0.015835289024374654,0.517597049986533
359,18.977957562325873,1.4074833582095638,0,0,20.474994878376343,4.189620207378491,4.2248281132811085,0.8804923711285726,0.5582674936022933,0.6340227095546391
360,19.14374315584928,1.398376142996246,0,0,12.92324890357207,10.986024979762208,15.48355406547481,-0.5885911302879733,1.442799988694451,0.9108626177360882
361,18.773080824452308,1.3636916783521793,0,0,7.497962251051213,2.617911572454402,9.822398808695079,-1.64855009759406,-0.7819906732682257,0.7828873037950195
362,17.89482028407031,1.3033497698762457,0,0,11.187487926790894,-2.108579019649543,6.094920004106712,-1.5921705115346745,-0.1531998013881534,0.487328372487486
363,16.56791566142935,1.2199310607793787,0,0,13.390036485061469,-4.634678249622273,5.88198220244235,-1.401320261519688,-0.5444399360783064,0.1172232041118351
364,14.878215749747048,1.1188256559313836,0,0,19.455739255773924,-4.383031076632855,6.12694204878953,-0.8632755150929058,-0.9076415489064658,-0.07752438371993853
365,12.934773070647996,1.0078481369974743,0,0,15.836980886901,-1.750681000245582,6.2101252064358485,-0.5878537719032638,0.39340435060363244,-0.19367645911162662
366,10.86487852698828,0.8963971704841883,0,0,11.374982308577135,0.35618743895722804,3.494230836664983,-0.4613081721687433,-0.33291825478232245,-0.2073070680387236
367,8.806951488529878,0.7943410647958644,0,0,8.62212166122388,-0.2232673796349804,-0.19376897621788622,-0.5898087667667578,0.3832152474753095,-0.1628730453577417
368,6.901157853619319,0.7108412489287936,0,0,3.6252681207998463,-1.3733977278107636,-0.8732361953527958,-0.6231360166831433,0.6400769344763834,-0.09155228920439666
369,5.2786354309769665,0.6532956005441031,0,0,2.8634196682022957,-0.6250333046993738,1.2684199616462504,-0.1896333029770791,0.15532442286635126,-0.15260983908316134
370,4.050820194658936,0.6265291505991,0,0,2.630435189431305,1.3109578244606939,2.9251990349533283,-0.07412306521821424,0.4038031742815732,-0.4074012299120317
371,3.300344164280454,0.6323111195651373,0,0,1.621776165441975,2.3377660646326257,0.44465340354795757,-0.10615874427714155,-0.4193561641897234,-0.5604424251726176
372,3.0745140558465884,0.6692378596531781,0,0,3.054983403991029,2.2827927327434927,-0.11405130622128683,-0.2248059776341836,-0.15704087059206437,-0.4479158712777428
373,3.3818478290057863,0.7329834239573634,0,0,2.3060224722394356,1.519544465756587,0.8600310117778406,-0.4489323796633301,0.2224313911592171,-0.20512437882527698
374,4.191794634002494,0.8168829763632931,0,0,2.6756696322983813,0.8408863398793247,-0.1521782712616094,-0.7025778663301683,-0.2343234729841612,-0.014250991042939917
375,5.437604420484761,0.9127786348497073,0,0,3.4919078806309853,1.721451609382978,0.7120318285940981,-0.813962952199257,-0.07935466971501556,0.07226563284345355
376,7.022193992773483,1.012016563187621,0,0,4.812846579254602,2.2329669139825787,1.3301045585726616,-1.0901463246388756,-0.6567269477152451,0.08652474847180393
377,8.826615102355992,1.1064413836216476,0,0,8.227606100527623,1.7666871222705833,-0.6482564959035786,-1.1901497126156613,-1.0035633196451605,0.15323035821148256
378,10.720322397809802,1.1892110787887247,0,0,14.241290427099992,0.2461774202328608,-1.6668575431633772,-1.460584237399084,-0.9706074932614336,0.10600423499855974
379,12.571993357727008,1.2552822406961912,0,0,15.701999297643846,-4.183734638967911,-2.3740204214611893,-1.2242164463970806,0.8250925818213753,-0.12019906819529853
380,14.259436210525994,1.30150732654707,0,0,13.24769940390992,-4.248189318139241,-0.4068754492467815,-0.20272068360182485,0.7136072557131212,-0.32067531500033736
381,15.67736703692749,1.3264202865043802,0,0,14.217347855368489,-0.8585273022468183,-3.5274911343577693,0.2523526722686108,-0.3118653051804246,-0.35719167160138854
382,16.742493364336273,1.3298990065382523,0,0,16.988972023487083,3.7968921482243463,-3.7256048832095194,-0.04855717466464359,0.7385427368467552,-0.23109915378391424
383,17.396061160321672,1.312908718923193,0,0,18.645550590985362,-2.5261612669360716,2.506705490551688,-0.43659020951523014,1.8901230348532998,-0.45780402335363735
384,17.60449822181497,1.2774309434209088,0,0,9.137565239696768,-8.422613002273826,7.500733310235384,0.6051110107186306,0.13692615920141682,-0.5456967155483117
385,17.3590013606366,1.226531604948004,0,0,9.730379706862673,-3.4387441365125,8.828651889384952,1.0784113183459343,-2.014224481018479,-0.4308972181840384
386,16.67493545577535,1.1644165919179792,0,0,12.41351453504472,1.2805962868992622,5.203184299673655,1.1966452130691208,0.2249067359923506,-0.36047262575549005
387,15.591632780103625,1.0963175522689799,0,0,15.555341241986119,3.03691479839947,5.3131307290127205,0.7945152106070033,-0.367393525941766,-0.19981838724795958
388,14.17249497734767,1.0281326319081636,0,0,19.279475138409598,1.7913819022407191,4.712764055661312,0.6623959396751564,-0.15852257919361706,-0.013429202850728385
389,12.504457205886979,0.9658580413810353,0,0,15.889250197816338,1.5733226431326808,4.134219343322828,0.8209951460985276,1.0589162387207618,0.1593552839623744
390,10.695439145464334,0.9149221482817109,0,0,11.420922432867423,-0.30770067476930263,2.9548115388965357,0.6309540213336852,0.3926650072916574,0.15343212714295743
391,8.868783956865766,0.8795508744200843,0,0,7.483630265453253,-0.7529767260143498,-0.43679639162627937,0.6832521509965368,0.17806431034488202,0.13067768363511753
392,7.154712449652233,0.8622782418733309,0,0,4.409963112218435,0.6949044292471103,-0.6138746276402949,0.5091110798989217,-0.34082457975614666,0.1849893201327745
393,5.67988247155528,0.8636956480361206,0,0,4.028182228904603,0.8878840515581122,1.5716553491668013,0.37783479196310116,-0.30890056885478456,0.24333952714415735
394,4.556683331386393,0.8825014295721672,0,0,2.6714906479596348,-1.0449581939626806,2.272237710229142,0.2923215867968942,0.9765903179758902,0.36350928823838485
395,3.873783329429401,0.9158557850421785,0,0,-1.106954933101884,-3.1118170033005974,1.7412788044868188,0.45495160218326686,0.4528088942120243,0.3788489577845302
396,3.688943809087301,0.9599761697178725,0,0,-0.12435424124880916,-3.7815074101308346,2.4565445846119807,0.9003079467448195,0.03089134539092555,0.16777331738995088
397,4.024569720993127,1.0108492024801874,0,0,0.32726148561382457,-3.004083466967927,0.8807448771068739,1.3277668829394333,0.3577109486945541,-0.09215510983085566
398,4.866096881254502,1.0649017606364455,0,0,2.634497166052974,-1.4484867929646772,-1.1384746668061412,1.3468714292182649,-0.1994368662396475,-0.257311431286105
399,6.163125013906612,1.1194722415595926,0,0,6.8540840358784685,0.21664696881611611,-0.920234969328747,1.2535645724754292,-0.4076420543914782,-0.2746854442682389
400,7.833071291261522,1.1729609086142962,0,0,8.548523326672129,0.8843551983668604,-1.2763601182120754,1.0916804849209192,-0.4998186382079917,-0.21529242534949206
401,9.766956430326724,1.2246162927365911,0,0,9.034868068376191,0.06573781146521561,-1.6587399096226005,1.1981487081123057,-0.41039943460947576,-0.08155447860085917
402,11.836790592558094,1.2740114774689477,0,0,11.291591447386343,-0.39150898753972446,-0.7381057852481472,1.4838292395555,0.13710110784157195,0.07153455336824895
403,13.903976591942124,1.3203502698515932,0,0,15.415694751999016,2.3808195657969615,-1.7677944936248247,1.1250958780587428,-0.4149121769872995,0.2872702887778518
404,15.828180440411709,1.361804642028204,0,0,16.129395927824643,3.669588661276536,-4.6390000147758,0.42167908948448174,0.017877951149947793,0.43395399854341415
405,17.476195561830103,1.395116417671963,0,0,14.061023806666421,-0.09742802201411022,-3.211954871626786,-0.30954735133311206,0.3888015956307009,0.4599652647492657
406,18.73045066965577,1.4156764443155128,0,0,15.33227985722145,-1.7475746499911355,-1.792627945556127,0.550509990964312,0.1970628510282179,0.5203368126363713
407,19.496914130764402,1.4181899787943122,0,0,18.09449145352797,12.18134355441333,12.91705633815785,0.5449463547421685,0.6974110813833453,1.0886068801790054
408,19.712085752288257,1.3978470356477453,0,0,8.367453085887027,9.711813839270484,16.763486265022344,-2.09728741901518,0.4219197586014755,1.1739766805490977
409,19.3485861606004,1.3517058249388507,0,0,9.611925259413242,-1.287915205940588,8.057618642045584,-1.8555575913592166,-0.5191161412453384,0.6710419273599507
410,18.418801602067912,1.2798717590079354,0,0,16.365565421908222,-4.073800250540293,7.990696711335596,-1.8879972451917244,-0.44632654599451554,0.21472340042114638
411,16.976136360384416,1.186090712375857,0,0,19.97756547461615,-6.709274449349231,5.206626979833673,-1.1274662398070425,-1.065680461923868,-0.034827408086275345
412,15.11339890553851,1.0775638941510306,0,0,19.36821614832506,-2.911954801302422,5.598164771035997,-0.46254353281396177,0.09650160653261117,-0.07572438967996212
413,12.957724363187394,0.9640424802965558,0,0,12.634689369723983,-0.42566143208781215,2.8398715631234714,-0.4447729932352542,0.2894942143734271,-0.07562646196633577
414,10.661671199906701,0.856460073763386,0,0,10.494110424579828,-0.09972702185227972,0.7449802171238021,-0.5144236429752937,0.17147592402276224,-0.10002353155183136
415,8.390942446541201,0.765436379146475,0,0,5.328960689706662,-0.6207149115463176,-0.2909909506175872,-0.5972122617527338,0.5762994240871435,-0.19343788916725096
416,6.310157827594835,0.6999362525866374,0,0,3.8078472361621807,0.01854912234870802,0.46135863269075106,-0.3356945440171109,0.14942326802576414,-0.3782524919840935
417,4.568644583138206,0.6662573773379141,0,0,3.039120024290666,1.1220828872452457,1.3152649187842915,-0.07658994224234707,0.24399137210405894,-0.5989518362598332
418,3.2880890172592916,0.6674173053797182,0,0,2.143762930525353,2.088266072960972,0.5916469591104692,-0.06133464548600336,-0.46518599146115863,-0.6467112655504808
419,2.5532910977767256,0.7029464176078071,0,0,2.733704038883947,2.035291194551182,0.128251740470186,-0.23132639581512876,-0.11677076511663112,-0.48688429373225595
420,2.4065614899746883,0.7690611551354982,0,0,1.5519685805795487,1.5507897155710262,0.5637629186523018,-0.47440821337957284,0.10564642219550953,-0.28041004876296366
421,2.8457913063818654,0.8591748289271574,0,0,1.5110532566970414,1.52121496985119,0.4127272022496792,-0.7529118892886416,-0.32516339315663567,-0.10869914958868235
422,3.825992606940816,0.9646846883956692,0,0,2.200249503345256,1.816792155194682,-0.06333753919957102,-0.9529402009853593,-0.18434053930664446,0.020013430377246826
423,5.2640350364096635,1.075943625923653,0,0,3.6687862126029853,1.9925177155692908,0.30341460607679166,-1.1405815779768047,-0.4416944032022396,0.07964614672333903
424,7.046210501086866,1.1832899525329716,0,0,6.014379326256157,1.0576545485301907,1.2892950856557917,-1.299038333187519,-0.15797660325971913,0.12264867600765132
425,9.03803992698763,1.277989107927727,0,0,9.062835182491924,0.21144118349471042,0.6224237138716359,-1.5999748407165708,0.14908672565101963,0.07921386880820139
426,11.095416929629089,1.3529533281707216,0,0,13.828823754139412,-2.2633989753293666,-0.6807191460153019,-1.7976834801067416,0.39627749734928336,-0.07848410010373472
427,13.075892178804258,1.4031555267245823,0,0,15.507880779941699,-4.046684542479398,-0.7910408287420472,-1.1811216893445333,0.6682117204708607,-0.3873902070636364
428,14.848829960006363,1.4257394224256292,0,0,13.711065396860013,-2.891818714963307,-3.1340574905873035,-0.448167349843534,0.3154757243156977,-0.546289863778305
429,16.303451764645626,1.4199264231625195,0,0,14.206203806535168,1.351751781493351,-3.1739954511732815,-0.06415841027297968,-0.01059633011673015,-0.43762270264466113
430,17.35433637960611,1.3868762108202224,0,0,18.514626494253164,0.6442364500161006,0.168089683395569,-0.5996731004911292,1.311128825430712,-0.4841057316595141
431,17.944476691545812,1.3296159946660417,0,0,16.34791306403776,-8.618009803869393,6.954345197069112,-0.2813696297941134,1.559309944486245,-0.7431947102055565
432,18.046285931896723,1.253020798556079,0,0,10.207079634030917,-7.642431807532164,12.919179767056304,0.7229312709092942,-1.6115900908734773,-0.8264004869602153
433,17.661072848485404,1.1636957658166671,0,0,9.21753199281598,1.4947672650932746,6.995465412630244,1.2746862194455406,-1.1865648468624068,-0.5988361604300461
434,16.817599887513254,1.069585486952902,0,0,12.241690973566428,5.1957859083687215,4.908532696710126,0.6174287613396569,-0.4650459791078441,-0.28802274022455876
435,15.570275764269851,0.9792404048791555,0,0,18.25182749384212,2.607086871816689,5.457849267975411,-0.07565140129243424,-0.4506457616960112,-0.10259966396588839
436,13.997096721124231,0.9008360433781543,0,0,17.511177897452836,-0.3371106674667636,3.964851001945391,0.3524478493477267,0.6550313952503338,0.08766284787482652
437,12.196806219765634,0.841161506408821,0,0,13.134212886061185,-1.320992755492699,4.537750559055993,0.44253812870397014,0.2313000805259965,0.21891244060897874
438,10.284440890760338,0.8048084896834501,0,0,9.932973240619882,-1.9168469400806358,1.980346802929847,0.517141065804256,-0.2519806304535229,0.24323370968006455
439,8.384803113280968,0.7937172181228043,0,0,6.5630245803479195,-0.8320143102350214,0.20694503260283376,0.7816221602928376,-0.08679044233253994,0.30005904340973866
440,6.624179265796378,0.8071286171548006,0,0,5.009394589998608,0.4584556390891787,1.4791390144538108,0.779394788908325,-0.29816590938450643,0.4182496711072915
441,5.121255214693568,0.8418998870036624,0,0,4.283973635304189,0.055735727887796876,1.691856514192485,0.6147348391691823,-0.17826174971149716,0.5433759328954332
442,3.978348782719249,0.8930852837071571,0,0,3.1287254830141866,-1.6219487503146428,1.209242620026869,0.6583563904001217,-0.0752516518233157,0.5871880200085264
443,3.2738497539242513,0.9546667644181538,0,0,2.552589667843482,-2.4413981259674635,1.7786798598844897,0.8494470214137403,0.0482202755739589,0.4746283564067032
444,3.0563953680181024,1.0203259168764254,0,0,2.7316055609250514,-2.0644640199400626,0.9913074729662855,1.0792007548168676,-0.12234222797858803,0.1815357826114325
445,3.3410423882275513,1.0841615821725947,0,0,2.7592417193432115,-1.196455717417369,-0.3801706398008944,1.204850774133585,0.07654828416336057,-0.08260983412574825
446,4.107608519633132,1.1412706452008408,0,0,2.9354500480001287,-0.4748112129723448,-1.032435207338201,1.1298404735141168,-0.06358213996906785,-0.2185688511428613
447,5.30138690329564,1.1881272408036507,0,0,4.488223805757958,-0.04533380816627015,-0.7549191617376569,1.126979603262922,-0.4655234376708503,-0.26146879469476875
448,6.836454425422292,1.222721254334834,0,0,5.619958554305579,-0.02645826770881782,-0.14338175750567997,1.2234941776026895,-0.47800391702264666,-0.3186735167786754
449,8.601683302303053,1.2444473088844226,0,0,6.276677797106815,-0.15789479390691732,0.4153165012230409,1.2604316788954906,-0.4615353539939931,-0.3656011689993924
450,10.469284177538677,1.2537678885462724,0,0,9.616653302114868,-1.0397964195767933,-0.025180063971037104,1.186008261179872,-0.7359823442006387,-0.2864711209195799
451,12.305277793733229,1.2517124609987438,0,0,15.565833359411243,0.9057944893204655,-1.0697218834852973,1.2670783841903333,-0.5894675515303275,-0.013840529010632202
452,13.980804132827446,1.2393221438894872,0,0,15.493076945927696,4.791689080698206,-2.928763752367903,0.38547361708728844,0.1076688558002392,0.34203843877182755
453,15.382840529690895,1.2171963154395573,0,0,12.690449844432708,1.064233406221664,-3.4134736820743634,-0.19564465210450327,0.4584397572004699,0.36338932696830184
454,16.422925604868592,1.1853102561104885,0,0,18.281833297309692,2.1759103098906083,0.7732425858888445,0.5182223702213871,-0.11957940358743925,0.49519628995380316
455,17.042862445368456,1.1432108239891419,0,0,20.541986124856567,9.862187823309315,8.958694478357357,-0.1731175168922966,0.3997694152593932,1.0581982958692873
456,17.21691582515643,1.090554936298169,0,0,9.983665873592003,4.023099583042284,9.525616233673869,-1.5146822058822162,0.8670688370892524,1.1086234009819365
457,16.950653117786143,1.0277920113898522,0,0,9.14455293606764,-3.2701205143853733,4.565785240519493,-1.431465126866565,-1.030178971291401,0.6977178178868839
458,16.27727735182531,0.9567036943597566,0,0,13.442023286248705,-4.138847320207784,3.4864926013478765,-0.6749922312800829,-0.43992391725422514,0.2345158610984832
459,15.252736950811654,0.8805670610919559,0,0,15.792395277826358,-2.471321118732336,4.8564162524442445,-0.22758647666823528,-0.8520208921673456,0.1735225499894607
460,13.950676331786507,0.803874482765247,0,0,15.808978524990755,0.21684492437162034,3.694757558665551,-0.3596007131577229,-0.13827424691592263,0.1771674527431325
461,12.457568870009773,0.7317219988765279,0,0,13.474250755071061,0.3085630810774658,2.904860358818367,-0.433512488141538,-0.034115587495296716,0.05310373226990587
462,10.867786166002382,0.6690747194528118,0,0,11.093005680255324,0.6000654600150013,1.3385031001314147,-0.4251644664694907,-0.03999819516009285,-0.053166328941473835
463,9.278320778896534,0.6201098498783009,0,0,8.215593894149643,0.5932314912708097,0.7749688576010197,-0.5208065463063412,0.39908462879252954,-0.09866424118464241
464,7.783252245739344,0.5877614717041847,0,0,6.004618735199505,0.14911764858710935,1.129389947650803,-0.6129547457756489,0.2833638375091049,-0.16415123498745296
465,6.468426155045081,0.5734990605465613,0,0,5.234839548932804,0.19532207826123185,1.2287583582849058,-0.4934539588357373,0.43864421299422374,-0.2390935501760393
466,5.406919902853165,0.5773062446485621,0,0,5.230043753809241,1.125861408973331,1.6239477068721067,-0.3477107837137225,0.25527727126187816,-0.3196288884388021
467,4.655663718933833,0.5978046246195649,0,0,5.372512957265617,1.6614734287065676,0.7226321438875848,-0.42388146674313637,-0.017158920027649176,-0.30639977799347756
468,4.253238041845436,0.6324779604618963,0,0,4.8178266335620705,1.5598075417646746,0.301636797732351,-0.5438380024955861,0.20479109064164316,-0.1978484837035746
469,4.218607867958765,0.6779687705478127,0,0,4.281671685218979,1.0091622381682754,0.3248777435716911,-0.6914511934407777,0.10589534707327272,-0.03461716864965151
470,4.5505179666331514,0.7304245807320745,0,0,4.789649007073498,0.8274225865672034,-0.3741313034103115,-0.7108379692197243,-0.03726427686110017,0.10636445564077124
471,5.227430517452121,0.7858648633177213,0,0,4.660541072741776,0.8100516655766105,-0.7866479073536277,-0.6946544001918384,-0.05451998475069468,0.2036873016895806
472,6.208104596363583,0.8405309857102676,0,0,4.992125677796275,0.9060770277258983,-0.559912010055543,-0.7486194751754951,-0.3553283908714408,0.23659643167203712
473,7.433065022074072,0.8911750003055812,0,0,6.424500769587099,0.8289530359976895,-0.3850219948262613,-0.9885250728272387,-0.2784016636885326,0.23058831164730106
474,8.827211945736694,0.9352398519314851,0,0,8.885997809158187,1.0470535763273532,0.06934235020552847,-1.1517256925299604,-0.3035488146547621,0.14892059164525503
475,10.303671974952575,0.9708901412019101,0,0,10.798536402351596,0.2708554941141472,-0.24795497597146945,-1.267654067973588,-0.12237879128838597,-0.011910168228399621
476,11.768754850018016,0.9968819464795078,0,0,12.011338210791918,-1.5117776604532702,-1.6407956834249577,-0.813363395655396,-0.11179860281425928,-0.28412589596102095
477,13.127680683016278,1.0123172077458218,0,0,12.046997187879185,-3.155643361500717,0.02710739794890781,-0.1216745257578647,0.12854079470238805,-0.4437272493660242
478,14.290665338050367,1.016392105084629,0,0,12.85884842906928,-3.6221776344864245,0.5688955089842843,0.1942488374907693,-0.492348992124474,-0.4397747510519883
479,15.178964113956065,1.0082763200810358,0,0,16.125495806019575,-5.940246860350227,2.4565863592437074,0.09442876693088689,0.4697730553420963,-0.6033841447237457
480,15.730489194648655,0.987217344110243,0,0,13.49769843473573,-6.108775451311816,6.949973545734504,0.40884311946988644,0.24558085250183334,-0.8010295326774506
481,15.904623047870029,0.9528610357074889,0,0,10.661122943420777,-0.15583305832020092,7.675585391574614,0.7600753613579992,-0.9572284967969505,-0.9540252101003163
482,15.685904029404178,0.9056685947143558,0,0,13.086461074163736,4.133941732972431,3.723052494340198,0.2858848550329442,-1.2218794503226011,-0.7667865345473088
483,15.086323530403748,0.847252895110665,0,0,17.811536394518324,3.557271630958197,2.7782081288633633,-0.32509710774763223,-0.5056241660674569,-0.45109953041189654
484,14.145918164825103,0.7804880624081523,0,0,15.845612521911786,-0.47247393084900274,3.1537413702631305,-0.5325619869325856,0.15116407685557662,-0.36496489741423793
485,12.931204671863982,0.7093457764794912,0,0,13.984182293979584,-0.9122951612700216,3.708604367773307,-0.48394490044539373,-0.15364622968034458,-0.20728101704729943
486,11.531057257660883,0.6385158308487596,0,0,11.254961213540858,-0.6303033010120408,1.3119748616143692,-0.6269073494147778,-0.21626292941486458,-0.052165716867323436
487,10.050034595705776,0.5729211331996987,0,0,9.16108774690882,-1.2279751948094895,0.007746574737455757,-0.45174125285348404,0.13744468145234334,0.02607155669895067
488,8.59975556601433,0.5172335437564065,0,0,6.9957801216973055,-0.9130389767722833,1.629099194837862,-0.37515649767021403,0.25515588704404235,0.016557502274940905
489,7.2893709907771935,0.47546671968920234,0,0,6.374696790772008,-0.3608823295918638,0.950281272514191,-0.4474852436584638,-0.006904117473139977,0.03871284762970543
490,6.216294594839457,0.45069025893785725,0,0,5.996938079312623,-0.4724671751301312,0.7619759356689876,-0.47148681187534247,0.060597316674156056,0.09543935510652796
491,5.458173777159663,0.44488310489799804,0,0,5.366507144597956,-0.6289651452281471,0.5663176101821511,-0.45056647686149964,0.1260975913909735,0.09495414449196221
492,5.066761288326296,0.4589249069897286,0,0,4.898270909851292,-0.6714694377071159,0.010188039510729375,-0.37625632807563353,0.15863853414162687,-0.02519267465192319
493,5.064055096574146,0.4927138217927511,0,0,4.698808241265756,-0.5194703435262846,-0.1838956481278908,-0.264357398827273,0.14004144229154397,-0.2193033069529526
494,5.440880587572629,0.5453953345846348,0,0,4.8927426024693865,-0.17030204582709865,-0.3150301583935232,-0.20815653722175603,0.021321266987693824,-0.44157873664730385
495,6.157973001407632,0.6156801228381519,0,0,5.6973293595260746,0.030607308856459153,-0.2116698638277479,-0.21608018036188031,-0.08703335829814574,-0.6386475948740286
496,7.149513111929274,0.7022136100950088,0,0,6.924378525407603,-0.11756831225916971,0.02809442724510481,-0.3650273177129292,-0.21136703049144076,-0.6947984879831706
497,8.328932649638404,0.8039412212276927,0,0,7.9573373138187495,0.11163702682399675,0.446750605969054,-0.49043307001153513,-0.1450424165313598,-0.6527672591178085
498,9.59663700902583,0.9204045473525156,0,0,7.6572749150467,1.6511186839475993,-0.44281296108058765,-0.55949957996789,-0.29706830361048236,-0.6428508794918115
499,10.849101021240532,1.0519115003422819,0,0,9.904570844025889,2.37309596311654,-1.7603752706324631,-0.8056052248642362,-0.7339989513873836,-0.6054161296014994
500,11.98856041210569,1.1995432562206205,0,0,11.204278739865282,0.5528299300484568,-0.6633535845039693,-1.1020383485613952,-0.41975670905861356,-0.41441729283575834
501,12.932227424114444,1.3649846208195426,0,0,18.10184949602473,-0.06806422526359117,4.442434010289382,-0.8614600830735949,-0.30072407760946646,0.07611149977583977
502,13.619697701451432,1.5501868008538295,0,0,20.34297791010144,4.940890377965987,5.924749696669892,-1.6095818555281116,-0.11355570896540694,0.9079768068736789
503,14.017270760435895,1.7568853988222497,0,0,8.739427119457513,1.4812007914839092,1.1176318068220115,-2.5317555323338876,-0.1599073113886866,0.9328640442433033
504,14.118553486155928,1.9860049293783888,0,0,9.239071619375796,-2.2502551598402754,2.5151793889003122,-1.6730611969046751,-0.2633593516888039,0.35638849792775407
505,13.941779852982924,2.2370114950747784,0,0,12.129832112248675,-0.46095046126021116,4.125076221070842,-1.500732002287058,0.1849626224857055,-0.10550584417970746
506,13.525070377935402,2.5073424549798533,0,0,14.7717268873407,3.144579116189777,3.373884666715385,-1.872143885332927,0.18973822929262443,-0.17426144127468943
507,12.920853135322686,2.7920972721801607,0,0,13.41728007917718,5.341089394149173,0.4380515974109808,-2.6652771162006714,-0.2221243796824559,-0.15815107822884242
508,12.190128275515292,3.0841413343514272,0,0,11.373042972208635,3.6911522628601987,0.2881189797926905,-3.1791984061467122,0.07584534183843135,-0.31183819950540886
509,11.396835195465117,3.3746466111153963,0,0,9.68447606632886,2.4673640520369324,0.30890865761368813,-3.553196271597276,-0.23443433185269516,-0.5557595875025686
510,10.60256142957467,3.6539457087517175,0,0,9.827721627526467,1.7767899482902851,-0.24080035056104956,-3.860529912563288,-0.10438120698021493,-0.6629514631646255
511,9.86198672865348,3.9124903379340688,0,0,9.313515123468788,1.7446352890294892,-0.06429214026962898,-4.06804995906424,0.17011762828510843,-0.7381106279704495
512,9.21947700296176,4.141705923968498,0,0,8.98612275074768,1.2334350836751287,-0.11702877704299769,-4.26124165609327,0.16387988383837637,-0.8518021260651231
513,8.707068102906574,4.334597701142606,0,0,8.822566697715763,0.7449841131159424,-0.7020655007362729,-4.261601053234416,0.2701844866618814,-0.9313439370959986
514,8.343837583348582,4.486054024428257,0,0,8.193559357518648,0.917684297369538,-0.5590516355031835,-4.276390281128089,0.2517035888560719,-0.8885576040167936
515,8.136478210679186,4.5928792161912275,0,0,7.775521079187088,1.025781930007599,-0.07078095325683721,-4.390951894510127,0.3351007683416043,-0.7759216708731572
516,8.080789891842379,4.65364833681732,0,0,7.944196791092622,1.3689370747053369,-0.8562320281833035,-4.459422505281276,0.11729163875351709,-0.7048553615600168
517,8.163763041476491,4.668497152230083,0,0,8.648232159869087,1.1830246908669004,-1.967578050147261,-4.46890893848744,0.22993093636328937,-0.7183315090776345
518,8.365904000529705,4.638943467457379,0,0,8.559906949086765,0.7343809153442408,-1.364315695059059,-4.4298315740764656,0.4413662265408556,-0.7587101530429908
519,8.663461480895052,4.567793281489435,0,0,9.030864244277586,0.6152934071298634,-0.47970438433774226,-4.454740465984692,0.26900296996797707,-0.7654454448067451
520,9.030285484013683,4.4591320393611245,0,0,9.39460889630388,1.4063447981594421,-0.7587320618701068,-4.4786127515939,0.1583789771365597,-0.8137784344568194
521,9.439193060116457,4.318351109841199,0,0,9.125536174684418,2.221294086625803,-0.6901096197553478,-4.3503117878419255,0.09744810300690804,-0.9024079689217097
522,9.862892786104345,4.152125345841519,0,0,9.123832686126079,1.7835845732001272,-0.5785466288795456,-4.227451386081947,0.016045845669823443,-0.9262840696032084
523,10.274678664842835,3.968250269680753,0,0,9.287005595728168,-0.4031917004500983,-0.2830769893678437,-4.155730097287219,0.1469705681490376,-0.7859599597263514
524,10.64918812426268,3.7752719078356605,0,0,9.733166706258507,-1.6782687269483088,-0.4150688288815786,-3.83867064649623,0.10495183012904487,-0.5790718976268148
525,10.963478779614073,3.5818947972151456,0,0,10.826021256299462,-2.6470208905456993,0.16240772839536563,-3.4904752362495888,0.13173318970317932,-0.45362399112748797
526,11.19850938356652,3.3962215933568323,0,0,10.74417942528007,-3.116794670272273,1.3983471599052832,-3.182663071276042,0.37143171343465886,-0.45650554681317407
527,11.3408790389396,3.224939888061733,0,0,11.366767075665921,-1.7441726806560567,1.5213491668103765,-2.9631751407077593,0.26941662484977963,-0.5716809345253477
528,11.384488948264904,3.072604842473942,0,0,11.591894482324392,-0.7891278327105035,1.9977601197315198,-2.784701330059089,0.3655983083779505,-0.7037543080015002
529,11.331709484758234,2.9411572332288434,0,0,11.682715209462767,-0.40503735445024514,1.6618437336678538,-2.7144871330514397,0.14289193048454005,-0.7431524066806926
530,11.193664397139367,2.8297707725940113,0,0,12.251805333437206,-0.9586035014965646,0.5964873759955821,-2.715617577931399,0.1663134242771499,-0.7149193184638359
531,10.989359789444144,2.7350582845059663,0,0,11.706003497477642,-1.1863078522654948,0.5415478031938643,-2.630350918836806,0.2187196161753843,-0.6422904192932499
532,10.743578132094832,2.651603762095527,0,0,10.807560789490088,-1.2033698269030946,0.8405315274629176,-2.595356135932322,0.14441518745227924,-0.5458191605485463
533,10.483718764946746,2.572740453427765,0,0,9.738616800123893,-1.3855780971621783,0.9933564090564558,-2.5602730502849753,0.17229478888719266,-0.42721489834471
534,10.236048224181678,2.4914681415412434,0,0,8.99810462354606,-1.689870668780412,0.770869048371055,-2.518534949370617,0.08958262285527431,-0.31764953029040266
535,10.022029299459886,2.401392623217992,0,0,8.743026898314005,-2.068084809250409,0.7102108628595328,-2.44998677332434,0.0960533560267366,-0.25014802525382934
536,9.855432613397852,2.297572391307812,0,0,9.399859924330656,-1.7716857486231956,1.6604434224117228,-2.3148612681230327,0.07008052291709231,-0.23751869553529203
537,9.740777080736022,2.177168712971008,0,0,9.05659714462488,-1.1270807005969674,1.8251973131522647,-2.3240225748335064,0.16079289453364728,-0.2710265437835582
538,9.673365259515146,2.0398144782564644,0,0,8.509718549953721,-1.7154032307717837,1.0165466402266141,-2.2503660312863087,0.09291775633180205,-0.3255613678629389
539,9.640878828940469,1.8876459320766559,0,0,9.511072001859038,-2.2335016542226214,1.890594857377144,-1.9844674360385661,0.05733116272907074,-0.31350885364550357
540,9.626239130212648,1.7249840653851816,0,0,9.23508496327847,-2.864677400737729,2.1573933305361184,-1.7592016894883713,0.11712700267687204,-0.3044760032543776
541,9.611233055775807,1.557709708213948,0,0,9.466879626574675,-2.845067587263386,1.900738228324883,-1.374016304607549,0.07146262154695136,-0.29521869329892697
542,9.580276720052034,1.3924369153385578,0,0,10.228728768322005,-1.7382872990524194,2.3692218003942855,-1.1153938960672962,0.06070373870261281,-0.2665886270056033
543,9.523676725965318,1.235631378787294,0,0,9.910344191021643,-0.7934650279650075,2.4598515446399,-1.0097041957343222,0.22351934977769855,-0.2300774542515883
544,9.439867701103694,1.0928251912810185,0,0,8.81242210000888,-0.6308542959847776,1.6284965749503093,-0.9545542576359344,0.4055937436449587,-0.22344171626251388
545,9.336321828625302,0.9680436125136938,0,0,8.681958064844535,-1.0971858540259574,1.1161013758667486,-0.8527072788362368,0.29892915905090167,-0.2618101478914676
546,9.229060013325537,0.8635007450284107,0,0,9.861924661166324,-1.7253027105854455,0.95336776823737,-0.754936315324157,0.1776394901380457,-0.31873914666626363
547,9.140856743734753,0.7795643752736338,0,0,9.827064594054944,-1.9633530316393366,0.5909458893023315,-0.6278969904336951,0.35411074253137254,-0.3445201090420581
548,9.098307282878856,0.7149513965900985,0,0,9.124126684454172,-1.342836292682821,0.7753783247086128,-0.562527223403724,0.25099674683697143,-0.35284675065957444
549,9.127996481865598,0.6670948236927078,0,0,9.039260138298213,-0.9312552695259749,1.1304219433205884,-0.533135121651294,0.1155327154312637,-0.3687513363875055
550,9.252144858145765,0.6326147916517719,0,0,8.867555676986607,-0.7560531140252525,0.7002837717129358,-0.5277805179989911,0.08242061318915296,-0.40119239804943146
551,9.484279443280352,0.6078234807548194,0,0,8.585416736361573,-0.7667728873197112,0.4138134995828935,-0.5426254719263655,0.06196196402061183,-0.4207932638780446
552,9.825589805965121,0.5891957340565204,0,0,8.55413174523272,-1.2624062512112963,0.5010545513503354,-0.5356719835544896,-0.06143330573160356,-0.4262981202839949
553,10.262611808694226,0.5737452036072316,0,0,9.130685368100501,-2.4578474264599737,0.44869062584738384,-0.5458175149163644,-0.05181420201363775,-0.42335328748878054
554,10.766714140864547,0.5592637713555524,0,0,9.99774709723758,-3.558849535661819,1.9266122399071777,-0.350844679888273,-0.016969181603860586,-0.3788279651553542
555,11.295580903137482,0.5444097105034138,0,0,12.310705716512457,-1.71875912347072,3.8427649031831987,-0.2098621410983121,-0.3532715046906117,-0.1296628815471936
556,11.796586940421971,0.528659636207423,0,0,10.487058981071124,0.10484769154568362,3.556979414814215,-0.3934940307195536,-0.2275500796786297,0.15584188502021204
557,12.211772200919112,0.512157649142439,0,0,7.495428708674908,-0.9138473105748466,1.7571758549995802,-0.3838325234160147,-0.38485882240845953,0.07125283243209449
558,12.484047248811205,0.49549549507107676,0,0,12.71670547613194,-2.194210624866011,2.1095526602659462,-0.16809024893205649,-1.0257244150736629,-0.00817885244130275
559,12.564141844385102,0.47945104795853905,0,0,15.28137505854548,-1.5911784361746932,4.178953425289954,-6.269486341392347e-05,-0.23666321726790623,0.0034739900434070264
560,12.417517784235349,0.4647213136565571,0,0,13.101355590978553,0.6610461020967391,5.969655592614332,0.04342850398303056,0.08783622277255629,0.01732519853497141
561,12.03018261016455,0.4517156260260195,0,0,10.797669128332368,1.6641637466573656,4.485371145820769,-0.09159120057854782,0.002681576037961587,-0.01716543534807816
562,11.412386321730342,0.440494037778329,0,0,9.703421692506826,0.9916726974053957,2.1559717733709713,-0.34263308880238547,-0.07497856905807045,-0.06978423636107456
563,10.599594285256451,0.4309058293724891,0,0,10.958083884435133,0.7666777392944667,3.6096099104674964,-0.39943261955305875,0.020344157891845613,-0.2106267687032654
564,9.650596120977834,0.42290296878535144,0,0,12.048310912994097,0.46067027851217585,2.597875482926309,-0.43433093602803347,-0.1571633943421311,-0.4773459916376679
565,8.64289103931405,0.4169161157030938,0,0,9.230415832264658,1.3994157677428614,0.6966306725084754,-0.279780029837457,0.389708756941646,-0.5641088968637167
566,7.665675411849046,0.41413405569555045,0,0,6.689777113409914,1.5430538897213526,2.0078445631260964,-0.3059045074318687,0.4506179888115144,-0.5149919074231585
567,6.811049462819656,0.4165433746300754,0,0,5.38384496561467,0.44761681827079286,1.6451862055986786,-0.3803232265861684,0.14736913913399025,-0.446624855995709
568,6.16444132956945,0.4266579968180566,0,0,4.806779792796989,-0.7028291204783547,0.6714870741849764,-0.23755610724045167,0.03779285963970366,-0.33136753188739443
569,5.79549829594077,0.44697249921132126,0,0,4.5010968727488345,-0.43177947739105005,1.2060801602118518,-0.025580850811620145,0.18671915667691746,-0.188594483160152
570,5.750652008391751,0.47927246982597077,0,0,4.608665861686736,0.48192241051877904,1.3462956261651087,-0.038627207933257676,0.04689868076592063,-0.044107421794884596
571,6.048254013272821,0.523993759015048,0,0,5.546699045717434,1.432521109934752,1.0056118352182644,-0.1087526964855027,-0.1505096214631312,0.07417654096229276
572,6.676740802388817,0.5798179195437787,0,0,6.576754355188659,1.9100011203585174,1.0118731970506771,-0.2830955155075598,-0.28528401855622876,0.14973297085764087
573,7.595864592057146,0.6436241976345164,0,0,7.226738459927987,1.3407869988374417,0.47036511077841126,-0.4848675992613729,-0.45318402797086677,0.20522060753900695
574,8.740707522003591,0.710815159459833,0,0,7.376161260112869,0.27989623564760224,0.04495833854282804,-0.5914821068504015,-0.48342254681664276,0.26455225662744164
575,10.0279953558316,0.7759341774956193,0,0,9.116197390705542,-0.49285328887940094,0.4980949555485983,-0.7141458269142222,-0.5858431422897141,0.24037746239741986
576,11.364069975808771,0.8334327240518944,0,0,11.842276338104991,-0.6098063023085722,0.2624450345190969,-0.7884482944166439,-0.4804097566096101,0.06484911785041088
577,12.653682574450912,0.8784346190897191,0,0,14.323991054938293,-0.46353797663280366,-1.1888873989550275,-0.7926931640740952,-0.31517698829617236,-0.22475684648940186
578,13.80855210279078,0.9073708939042836,0,0,15.466368481261375,0.03343345738885909,-2.309270602874774,-0.8104009879739146,0.10919140387137967,-0.488397928178624
579,14.754544028443576,0.9184003847834137,0,0,15.638373602866922,0.38897433117156704,-0.9980894557550678,-0.8058788325078539,0.26296917646870976,-0.6587393598291393
580,15.436504277895615,0.9115702348529364,0,0,17.101734917480847,0.8452423676614864,-0.06925722935059461,-0.7457240855438597,0.15987657138455064,-0.7072079478052322
581,15.820233739226564,0.8887044797975261,0,0,17.66261145435496,-3.3666550019932973,2.828813506412024,-0.5746033754844807,0.6742916950836804,-0.6986562748811572
582,15.891694438631344,0.853046443098611,0,0,11.965064235381316,-5.217369817392432,2.4897413429329887,0.20507611961322864,0.3917820930771827,-0.3937164556853449
583,15.654162484352062,0.8087265898120017,0,0,12.18495355578381,-0.4597385066040692,4.205193378601839,0.6405445924383347,-0.41549038018096496,-0.12883740417178244
584,15.12452019125885,0.760170558838658,0,0,12.969030805417026,1.7604434499856674,4.346170307083766,0.32944167593147494,-0.26050410623655024,-0.0021675262720488265
585,14.329998237134705,0.7115799745339589,0,0,11.029281224602165,1.7409830758631168,4.9580540411803335,0.4466719066446155,0.2605796789714074,0.1299837629754811
586,13.306326636983684,0.6665956486623251,0,0,10.548217415977021,-0.8889501689943508,8.464559697532193,0.31868656604565876,-0.2275161634825501,0.0960059912933751
587,12.097569023207358,0.6281911453086967,0,0,10.725759321347866,-0.5192788821593833,3.565020050405695,0.7279544484936877,-0.22018809930556382,0.03278707147675058
588,10.7571851946089,0.5987625558992669,0,0,11.047288573479195,1.6691047481601269,4.932718441248165,0.984681835686012,0.40337708780723547,-0.06413964278480815
589,9.34932008027117,0.5803077172296125,0,0,10.88421236636005,2.576892227810482,4.674777146046526,0.8038162080038116,-0.00788833314718047,-0.05203430184939995
590,7.9490705926896785,0.5745599331626654,0,0,10.780442909801279,2.0210400118482226,2.0730455782045354,0.654881892905685,-0.047024634495668724,0.0885393698696116
591,6.640608860035193,0.5829762789202908,0,0,7.549188213752748,0.506634630192949,1.5301699332503664,0.47919267310107555,0.22348031931418155,0.20152164423147845
592,5.512566501914969,0.6065608754691147,0,0,4.8033402250440655,-0.6823885686615135,0.7584833832118874,0.3751294799783642,0.05301629166605509,0.2455700416566558
593,4.650888281500476,0.6455849171348169,0,0,3.8842210855803208,-1.0018702799909835,0.3534172449457225,0.26573321569310737,0.2287277037462178,0.33860981034582666
594,4.130155368490793,0.6993109816922181,0,0,2.0073163106847485,-0.8281839092209275,0.29042004105085206,0.23553666590659186,0.5193493529414545,0.40746941293895234
595,4.004860805324784,0.7658300889424663,0,0,1.4234544395468698,-0.8772893953557148,0.7004804911251054,0.2712829834793012,0.0745256422975185,0.4091362248417442
596,4.302162715647442,0.8420880353336493,0,0,3.1896032476503744,-1.610930845656401,0.9373712358480719,0.45864837647895,-0.40860816074387796,0.287166873158513
597,5.017301815249144,0.9241280829522445,0,0,4.289026173625143,-2.8485287255708736,1.0479617178739409,0.7377970238117627,-0.2838341887049528,0.07818776875233441
598,6.112320422474642,1.0075181255130803,0,0,5.463033908171601,-3.2736337748499977,0.6855615683308695,1.0910423581337978,-0.5772324653201607,-0.04179928487498384
599,7.5181780080543,1.087869131602425,0,0,6.509391579227278,-0.7983367642977058,-1.0658077904701306,1.271980251299803,-0.9090780167307565,0.006136687505423148
600,9.139986396797282,1.1613081047496923,0,0,7.240241935836764,2.329812602041276,-1.443180224629595,1.1520668175054327,-0.6942841358976158,0.0971203545855426
601,10.864882551195103,1.2247715606146363,0,0,8.0364568052031,0.14403536887048238,-0.49714755830443297,0.8374070350042399,-0.834344516434866,0.19090751005450815
602,12.571860450785078,1.2760447939054136,0,0,13.749971214551017,-1.2648575272456875,-1.0079091239715143,1.1626674831464512,-0.8837437876971037,0.36713347339913166
603,14.142553779556973,1.3135639776012427,0,0,17.904107442116214,1.6475860783762974,-2.0038253332993112,1.089500728683719,-0.41152994448538094,0.5084525779015123
604,15.471567709726648,1.33608391789627,0,0,18.074038031433957,3.0090985665469763,-3.567285208459406,0.46659918069326456,-0.2328546461693207,0.5849440958775495
605,16.474801343750016,1.342367791078379,0,0,16.300049331122548,-1.3874265800658292,-3.4330115227301463,0.0748577851267008,0.8538793243645464,0.5565092809741702
606,17.094552496964535,1.3310605523191261,0,0,17.632922405256817,2.6918295984594853,4.782319129559118,0.5660067236520123,0.15353925221151804,0.7924122173678058
607,17.300997557770106,1.3008523769010771,0,0,13.134660764159136,10.209560724321308,12.145196234693126,-0.8451613932911309,0.10381995528780441,1.0267748343196414
608,17.090566341537087,1.25093046037502,0,0,7.339995353512626,2.689385183456969,7.800956865542226,-1.4418382730956514,-0.09157850805306236,0.7925146190183677
609,16.482483636583844,1.181598851746905,0,0,9.36350324555321,-1.4826821642447314,5.004771235740359,-1.2489886615296204,-0.722155520101135,0.4048254369855514
610,15.51509666012013,1.0948719373081637,0,0,11.422197895210031,-3.0861572644814035,4.40152444524768,-0.976824543161387,-0.3864569930808051,0.014476135610150334
611,14.243299254896566,0.9948483500773587,0,0,16.078591839404915,-1.900787097989379,6.898778811711994,-0.8074794223483673,-1.0972082694813075,0.00545404321925242
612,12.73736685603824,0.88773587534053,0,0,15.261367694456567,-1.1555861195585053,5.26569354173027,-0.9682235398058184,-0.03314896318472792,0.09037810608702877
613,11.082331471175783,0.7814869170753976,0,0,13.77784853930451,-1.6912014057802511,3.1183789441891006,-0.715494212437176,-0.34032354896770334,0.011143869296442625
614,9.37640328542862,0.6850890062511265,0,0,11.113050960729279,-0.8579025177918456,1.8634053956994416,-0.37780222439746114,-0.05545363880247748,-0.01592338971193045
615,7.727229132326416,0.6076213040447815,0,0,6.290201043569391,-0.7539812733600888,0.4667780018007436,-0.4585670495847298,0.26660391987655163,-0.07606527035889125
616,6.24567877759606,0.5572228380926101,0,0,4.593245434916207,-0.9321402636331129,0.5118856920564596,-0.30319079356581985,0.47401354709856675,-0.21199156696392094
617,5.037787225706024,0.5401134106308286,0,0,3.43774273602889,-0.06438874691239364,2.44286618581607,-0.07493267656967323,0.5044156276717476,-0.3752905180307966
618,4.196015029686103,0.5597777150390065,0,0,3.0350633969718723,1.2177927789947525,1.714031265975375,-0.00843554458790407,-0.2793122869360869,-0.499128569366866
619,3.7910203635369863,0.616395809644953,0,0,3.451094920796567,2.229986113599274,0.10191615029447577,-0.05387637420688933,-0.07428788731927143,-0.4480544925243815
620,3.864857424542224,0.7065938414317973,0,0,3.0539982880209084,2.1485574080326706,0.5973465609023895,-0.22498069903328527,0.10901569854289121,-0.2980706715629942
621,4.426194082035918,0.8235852207284354,0,0,3.37239459115843,2.050947558840575,0.7680154284012941,-0.417177421720282,-0.10693065627216812,-0.17867068023768087
622,5.447928942940678,0.9577470727477991,0,0,4.291437747425893,2.459942220219275,-0.12666720077890153,-0.7017971524712107,-0.10068913611597337,-0.1125165365963582
623,6.8674767233257,1.0976114713337164,0,0,5.211652329447417,2.6536213154793518,0.47058399214510793,-1.0983041803381812,-0.14849716242540306,-0.11469503378103976
624,8.589893369299789,1.2311526231128425,0,0,7.4787538263363995,2.398288397655846,0.23733534381784518,-1.655125957084287,-0.5491933493609948,-0.13105305207155074
625,10.493850450082292,1.3471543520139506,0,0,8.74227464241848,1.0564248273345531,-1.5699691265945286,-1.9800860795840163,0.327442228914881,-0.21900196414808282
626,12.440211225881207,1.4363973504024021,0,0,12.254732495506937,-3.0595071679056884,-1.0762966294155776,-1.8936475548610627,0.44032056944882275,-0.4554138082483393
627,14.282626984928742,1.4924529724321525,0,0,14.336285628246465,-7.011600482479261,-2.20119817381873,-0.9019243686889981,0.36375336853358003,-0.6504904957934039
628,15.87923561886941,1.5120061240726639,0,0,13.580623518741772,-2.215885522791676,-2.6677325804009966,0.5331905820534488,0.6046345674124689,-0.49551137341452767
629,17.104317406101842,1.4947902316239106,0,0,19.877831882284433,-2.209980865693609,0.36600394462491753,0.2616297157884295,0.8267471551374411,-0.4127401337996392
630,17.85872537818555,1.4433096510063663,0,0,17.592467083729375,-9.172342501961856,10.073772996022191,0.8638572547929987,0.1482968356165016,-0.6116433853085649
631,18.078080902499796,1.3624959661303602,0,0,9.517764029158624,-0.9114022440784368,10.159539463959433,1.6780582904204222,-2.107948201975156,-0.4826772941437602
632,17.738103524854484,1.2593298212649986,0,0,13.438490976986552,5.072224217816949,6.513324099920709,1.0315086284220454,-0.5649170937809024,-0.5054049227312188
633,16.856909083091576,1.1423623249736181,0,0,15.15724344194027,3.2340660569734285,7.442025737953683,0.32509708859106085,-0.5005868696559564,-0.46475919693887624
634,15.494377229731082,1.021070643670916,0,0,18.507774155815095,-0.26220154245935834,3.279351381131896,0.3612698834365718,-0.7311581243199918,-0.32311143650108826
635,13.74860768280516,0.9050616112657976,0,0,15.823562819862426,0.5926654015571934,3.3937157098523945,0.9155518175352487,1.092492202529318,0.003908437748079337
636,11.749322065860309,0.8032098167259145,0,0,11.767069295845438,0.5986414257316812,4.700486342653786,0.4875804450249615,-0.2654035067007756,0.2064030028932054
637,9.648236006558644,0.7228406634714524,0,0,8.52521969296452,0.14702403784450022,-0.1624753454286933,0.41709319209856854,-0.19691305476872406,0.16565125026469882
638,7.606984778784357,0.6690697706221231,0,0,5.613879024744666,0.2602028131811026,-0.0979273742314979,0.21618760924028915,0.05778342138856763,0.1557110457617898
639,5.783800235400674,0.6444054604281204,0,0,5.25488992340702,0.21085615358744048,0.7765346362139852,0.09026476115214269,0.2597291764638332,0.29537656491237385
640,4.320438925111839,0.6486888258968351,0,0,2.8678453462915225,-0.12439150959971801,0.9620286555228788,0.130713918997026,0.8946166034909812,0.5126645219863079
641,3.33074510698646,0.679374313194841,0,0,0.6549647485254261,-1.6512054966149172,1.7572790928765927,0.170986744629167,0.5231972783716854,0.5273855981261992
642,2.891844552505664,0.7320753209654518,0,0,1.1017791966111796,-2.9015103870167906,1.5263030141892415,0.45332422665623545,-0.055064447698665864,0.32736846841557615
643,3.038515801747346,0.8012573649413466,0,0,1.8220002530965975,-2.8863523193814484,0.14934639115011028,0.7785559549727374,0.012174062738451267,0.0838137019046342
644,3.7609200334962885,0.8809622695041458,0,0,2.4736227964714925,-2.0818887433285123,-0.8852624222079127,0.9800857546474259,0.024247372300676737,-0.0744533140054077
645,5.005655793149381,0.9654617633435212,0,0,3.8016292055090988,-1.250677184081139,-1.0545254813007832,1.1357073929839172,-0.18189624380455244,-0.13405612191368205
646,6.680022521504585,1.0497475617234384,0,0,5.732341096485201,-0.9004920177448082,0.12488482554130041,1.2381634975682871,-0.2608655345464421,-0.19365120757391255
647,8.659319397536063,1.129778433271133,0,0,5.9290205317169695,-0.33271131486697536,0.7596058817264577,1.3393738937897781,-0.38840708483136865,-0.2345296675087274
648,10.796838196962845,1.2024435420426796,0,0,9.034602686303995,-0.5247624130298971,-0.7245822034471233,1.16978709804321,-0.7319435285167792,-0.1634330730662118
649,12.93585284744174,1.2652709061738117,0,0,16.514760187167145,2.8274483647321826,-1.5624080637988964,1.1316942591630013,-0.22658514510031186,0.07342162070493694
650,14.922417409660126,1.3159958130816387,0,0,18.286284450454538,4.975730658159949,-3.653482185540057,0.3255483614279088,0.2450752023946905,0.4622293378931244
651,16.617405292858486,1.3521750666217458,0,0,15.556885521039336,1.1476042503783164,-3.7560936899170283,-0.4655334641476305,0.7441042171359354,0.5498109833356511
652,17.906284370082815,1.3710473590568497,0,0,17.610086608045698,-4.727369948417165,-5.492637720633714,-0.40177823847656446,0.37270137111992724,0.4320572844228079
653,18.705706917568474,1.3697696481633421,0,0,19.382419716931672,4.080503370274355,3.831938080529427,0.6752061211748945,1.4977441481967326,0.707294397312482
654,18.966808787905045,1.3460180506019999,0,0,8.713001443990807,8.971972373219495,13.617327973933941,-0.8648541542489318,0.360160686437505,0.8684384229647704
655,18.675803390936288,1.298786814662895,0,0,9.374284878328936,3.107348440352158,10.269718950040168,-1.4811968892351608,-1.1824289624668347,0.7973060416389954
656,17.852857501677672,1.2291190697321923,0,0,12.068396210230924,0.20170169940676017,6.7715942692536,-1.699909619148896,0.16133226899043823,0.5710905092287093
657,16.55024508869423,1.140501940531762,0,0,13.771196313760532,-4.960871137205505,4.349419337325825,-1.4737313779292383,-0.2764936866590484,0.19918023682055983
658,14.850276965677487,1.0387598938979477,0,0,18.703521081935968,-5.621273025818094,7.042811154774534,-0.7857103481573522,-0.25428115190023665,-0.0859642170318749
659,12.862633964159768,0.9314476221627876,0,0,15.95377794880073,-2.344862842672673,5.395934586357398,-0.4065407185984974,-0.14993676477640208,-0.17046741281815286
660,10.720028970626197,0.8269084735173332,0,0,12.482560114042812,0.07316979290181769,1.7196352523925154,-0.23824940048011423,-0.16706335828296665,-0.11813686231805076
661,8.57115938453669,0.7332523954080782,0,0,7.892666514067704,-0.22624615828547778,-0.09599904345220694,-0.39382343786557955,0.43495144426423055,-0.0653486248191592
662,6.570736863904527,0.6574841802779404,0,0,4.225407884810313,-0.5663310587834717,-0.041591712953939555,-0.3699343483215154,0.6943401535121854,-0.09984728227114045
663,4.867458511355657,0.604907792262085,0,0,2.2814925345122274,0.541845497771637,1.4278310216796475,-0.1344531637956738,0.8348538967871828,-0.267980302383408
664,3.5914768693139743,0.5788162989961562,0,0,2.091757686517957,1.856904780780727,2.069794080479852,-0.021677725345180008,0.046725424943992996,-0.4989520841679303
665,2.8429811101525413,0.5804099002245656,0,0,2.690402348090754,2.5189497669096883,0.0932486971779493,-0.08187794615452221,-0.17776168237149592,-0.5004031608756664
666,2.6831116220210527,0.6088783146625432,0,0,2.178435211759183,2.0231891869651593,-0.06410805887390579,-0.28867118111166545,0.3949289013554427,-0.28900890125344453
667,3.127975589173128,0.6616063146959134,0,0,1.1249449688605309,1.1403867368572451,0.3644065925718165,-0.5402512034693423,0.23035569130904993,-0.07613622555911286
668,4.1462626665944144,0.7344760192154388,0,0,1.83686867522127,1.3642541490568387,0.2654144820179394,-0.7313268493231436,-0.20300851995531838,0.010812660550291437
669,5.6608409445573935,0.8222351938722927,0,0,3.2142346546092337,1.54550039462297,0.8053075854635547,-0.8246543732778884,-0.24082620710036637,0.0076209069798070335
670,7.554524866225651,0.918887389169617,0,0,5.531426114798609,1.1983168171234626,0.25056670890362165,-0.8940380929659331,-0.7996427100808631,0.01746954004168377
671,9.679783816538285,1.0180530942249781,0,0,9.993638545450278,0.3059296329755501,-0.11922771131283444,-1.0478835754974654,-0.6755678997611352,-0.006978592014447697
672,11.871533650539735,1.1132653462212323,0,0,14.302658291238723,-2.8146312671288265,-0.922025304484979,-1.1300754769898906,0.4221668682654288,-0.15976918105465804
673,13.96153290922282,1.1982056533382743,0,0,16.432162782161623,-3.9727641093207087,-1.7951828438521522,-0.5170286364686831,0.44581702913732196,-0.3915402232889303
674,15.792573840909741,1.266945003932832,0,0,15.222346486217777,-1.5103457859065048,-3.0624151546475282,0.3084176200636356,0.2783662349758769,-0.48099111119098276
675,17.230800803734606,1.3142924340680893,0,0,16.84153549191956,3.3037519274698477,-3.8269913155789044,0.41012395987163364,0.4293109067404794,-0.33809826036958246
676,18.175028694651825,1.3363244485522539,0,0,19.73428569359287,0.30970711148117863,3.310863269434832,-0.26112285405927776,2.1501704847830183,-0.42780212639620857
677,18.562589513926262,1.3310615325795072,0,0,13.570171995645113,-9.458804685916089,12.667409763521299,0.09539904946032063,-0.1417435646350333,-0.600489918271551
678,18.371795656480664,1.2991228374685095,0,0,7.794838882715492,-5.554753460482855,11.050409709702594,1.1448841458961858,-2.74185968990502,-0.5610405199419762
679,17.621551228163888,1.244108117215184,0,0,10.302391314982142,3.2412007785407875,5.95112226951437,1.3862234177965131,-0.7392794772963777,-0.5047265562837501
680,16.36890523751136,1.1724847158510476,0,0,15.148786296199447,4.2161509298013895,3.8141743905925196,0.5870309156592383,-0.449014520047748,-0.28056066712369876
681,14.705199283343209,1.092899130753708,0,0,19.99745545517704,3.4307697179042638,3.5498905986034024,0.5031503166044262,0.6443583392704905,-0.09811115132464429
682,12.750879259729597,1.015024894601731,0,0,14.451770277014237,1.2749942635911864,6.63792642603823,0.41977869227616404,0.7638699596207823,0.105294644617097
683,10.648477378535304,0.9482009644560059,0,0,10.808313127542991,-1.512798413233224,2.328227262476323,0.24211914246441588,-0.5949027452587405,0.1589275876632029
684,8.553319161199106,0.900146458231194,0,0,6.5249289518931874,-2.011165381883545,-0.5841019714866686,0.542469444761548,-0.325384775382904,0.20640752501596288
685,6.622217831616614,0.8759792006058895,0,0,4.099996018502371,-0.15861344595888252,0.28194078518265564,0.4878872698082506,-0.7754936847419023,0.27445213234348004
686,5.001231687527579,0.8776732165899689,0,0,4.865639240420275,0.23602332208842028,0.8150793125211478,0.4477777683409843,0.04718810354235017,0.41343793428905984
687,3.813922642064245,0.9040010247038738,0,0,2.8522669903294458,-1.1026207651053734,1.1246188154668795,0.41929941029333634,0.6780919552905215,0.4966802823465942
688,3.1513782479873647,0.9509332573699876,0,0,1.1151812390253795,-2.7773139549015338,1.505047789589423,0.5133125825293545,0.16981945197555157,0.38058452307637014
689,3.0648351151202706,1.0124099516543488,0,0,1.4817245183896037,-3.0749417199314384,0.9921273664453779,0.9691269395727071,0.06378703820749185,0.14234263820987353
690,3.5613772642208477,1.0813467698907695,0,0,0.9954601472456,-2.4160147210976746,-0.03927988135203636,1.4405957534049805,0.313212771114565,-0.060612364663802494
691,4.60298969979209,1.1506938589138531,0,0,2.3017245926776315,-1.5867473733009791,-0.6792946403356692,1.4487650401452579,-0.08506453782273805,-0.21190230311164915
692,6.109151430494659,1.2143419443598413,0,0,4.8809827103587535,-0.6779112767275745,-0.7973922044256773,1.5198988941905371,-0.09203836076375715,-0.28842261366023997
693,7.963004121266044,1.2676954748848857,0,0,7.004754441265314,0.7905439594399544,0.19783557975558147,1.4262887760150798,-0.36261732726375917,-0.24130789508752692
694,10.02082729904054,1.307814582836569,0,0,8.77042258358788,1.2272599629284546,-1.8174415850789376,1.3819185847403592,-0.20005095845810503,-0.12270484044497142
695,12.124104299888712,1.3331448596827655,0,0,12.303974156071567,1.5621916388589283,-0.8647125959348851,1.325615137308838,0.24722907887020304,0.060372534811387914
696,14.112989928295022,1.3429707798239128,0,0,17.32308083186314,2.283907173978412,-1.3688242309797418,0.9660583180065384,-0.14700701667795693,0.2768443179211728
697,15.839641952423323,1.3368138423882918,0,0,16.947643640472858,2.1137284308862725,-4.250081609680683,-6.654777179608234e-05,0.1121287975278128,0.4195354393768697
698,17.17981159440225,1.314023652895653,0,0,17.460720865156468,-1.2520690334670022,-2.755544066537418,0.10329994873900371,0.691033908153293,0.46994711326487104
699,18.04140382845648,1.2737543454637137,0,0,19.82593252513153,8.671313109639216,7.002249231924856,0.3657070851923463,0.4998322813426218,0.946602031674311
700,18.36936886372432,1.2153756831910778,0,0,9.364394713403271,9.058099064283311,11.911168866215903,-1.3542923141816143,0.110190492569101,1.1061472217094543
701,18.14709693549964,1.1391831507627852,0,0,7.525041034442953,-0.3666661735984724,6.570420772943078,-1.44612379709916,-0.6795276727509916,0.8656327617199999
702,17.395205460598405,1.0471316482511295,0,0,13.459327941000362,-2.402157737229353,5.268938240827034,-1.2254983327293079,-0.48584570807404737,0.5375249415512448
703,16.16886799712325,0.9432963390609599,0,0,17.40639034915492,-4.1873927963671775,4.89730293555415,-0.8845593489058844,-0.6680114684783424,0.3545628446530179
704,14.554373211228434,0.8338676333329071,0,0,18.595921029533642,-3.1576100810968235,5.973438363436212,-0.6834387134146638,-0.1502489181123763,0.15251492716869153
705,12.664698039517658,0.726653700947737,0,0,14.122156913851718,-1.2089705051655366,4.301209214970685,-0.4617901282812681,-0.023351443301400276,-0.007813356745128477
706,10.633297191429865,0.6302121740287062,0,0,11.359684336536722,0.16148949942606697,1.4770370070811965,-0.26578771242776517,-0.4241047304510388,-0.04244547202674468
707,8.605561926656147,0.5528107296218127,0,0,7.3965740940792735,-0.21517324534235388,0.3907715169393944,-0.3534281699718375,0.1902412038292978,-0.07011865150120106
708,6.728257903987096,0.5014178424515836,0,0,4.219373534825618,-0.5907175706831761,0.23365759287191504,-0.26227561048168974,0.17160097189102763,-0.13019895372845472
709,5.138078976269314,0.48087643823138143,0,0,3.282830860693261,0.42370051354362404,1.775427653068038,-0.04249507758539231,0.45141181425621263,-0.2884260588666863
710,3.9507930194071297,0.4933481470748959,0,0,2.598278249167765,1.5755931108306833,1.916266612886354,-0.020467551813974916,-0.26122749182531696,-0.4665726819173385
711,3.252258816179832,0.5380587515309841,0,0,2.695067099864952,2.177796903471358,0.39734951488305453,-0.12600642752941538,-0.3388827715412474,-0.46040482385453163
712,3.0921032213274566,0.6113390265733492,0,0,2.531873650615767,1.7547444814912798,0.24598061024818815,-0.32158410062761966,-0.04462036756203592,-0.2922249231979593
713,3.4803686942909473,0.7069405533697933,0,0,2.7592398178813298,1.2220697298241638,0.2993969619061429,-0.5595701467224502,-0.02764364031774701,-0.14911854684266743
714,4.387140878785622,0.8166005915860262,0,0,3.327781329783159,1.4714682008975233,-0.23600006469768733,-0.6734677616126161,0.03891493108308956,-0.021076580732013555
715,5.745022075876571,0.9308149506920136,0,0,5.036713372297995,2.0185871833724915,0.5229020113858592,-0.9642276947461405,-0.09723006826336661,-0.016096916172117354
716,7.454213214254363,1.0397451574887444,0,0,7.103553088131506,1.2247846067232395,0.6599389810364,-1.3019135400589887,-0.15471399546047937,-0.04676075231038447
717,9.389825845977983,1.13414895702892,0,0,9.440888437246285,0.2800679775519321,-0.7967360868476607,-1.5208821194121218,-0.07606101673688617,-0.09698230194880951
718,11.41087767364342,1.2062086165251713,0,0,12.475831683258548,-1.7209360753463812,-2.4607716362998184,-1.4737914327850619,-0.09004010346533406,-0.25189194569040385
719,13.370298274631947,1.2501631329344192,0,0,12.762400713633715,-3.9470479044951197,-2.689667309810504,-0.7331840572027027,0.3465953704892381,-0.3906779761622721
720,15.125249507187764,1.262724919870644,0,0,11.157486065908872,-1.6374342831685953,-2.4240112959362254,0.16350338292976557,0.12928647030263837,-0.3267357230828575
721,16.547134187529164,1.2433351372983696,0,0,17.96667527420976,-2.980107091146408,2.426032848969306,-0.14313583450867248,1.1237331671857267,-0.3981226300573318
722,17.5307186897423,1.194321506844872,0,0,16.901011941772147,-11.082047578955668,11.90519762208349,0.37207240963057886,0.518656747170572,-0.7956333654036073
723,18.00177831711418,1.1209434116185713,0,0,9.376454758379346,-2.063097397122902,8.691661843535078,1.6973785814278857,-1.874457150636625,-0.6894260230995223
724,17.922724394683886,1.0311965545060442,0,0,12.64839789061492,5.557331171467513,6.873456878132495,1.108963460174992,-0.6967281156402182,-0.5272777697833259
725,17.295877890583093,0.9352080282151171,0,0,17.631587271612005,5.545439187149215,3.7559484720367298,0.10803226548675879,-1.0415113536597909,-0.3043588108284726
726,16.164201957212367,0.8441472719988725,0,0,19.990212113643697,2.494259221232232,3.7054906609734526,-0.017015410315037904,0.4748981314457674,-0.1493764216191564
727,14.609204080934274,0.7687695945742589,0,0,16.24325285038827,-0.6028450002407513,4.5699986994489326,0.019399561653020814,0.2045333575493487,-0.0571462036299672
728,12.745625034087551,0.7178817582907612,0,0,12.726897995273884,-2.174412613948928,1.6870941178642056,0.11967280821845554,-0.10238398358586898,0.015110716313489507
729,10.71285353689121,0.6970770980556237,0,0,8.19530607311545,-2.248432398156913,1.3551558322701993,0.4158989562582235,-0.06524645911910436,0.04047653435773847
730,8.663711133299387,0.7080140855285755,0,0,6.989045666266658,-1.0289045642959433,0.30467088751347154,0.4909983978362094,-0.580662965144101,0.1373899391078281
731,6.751888230153307,0.7483582117910602,0,0,6.050273035846873,-0.18416683083541283,0.2258537652452036,0.5468523058695683,-0.4068571961004223,0.36577399576367
732,5.1195036581853,0.8123463488080399,0,0,4.509863489013471,-1.026440756726894,1.1994227625804246,0.6078909448878879,0.20586828986138514,0.5562530343890124
733,3.8860084435505016,0.8918205269067309,0,0,2.866027614709156,-2.4688963596009486,1.2816974205636578,0.7646980966073951,0.08893002685345328,0.5827134779983898
734,3.1392228251216037,0.9775286895305682,0,0,2.803373161455916,-2.4245537726910658,0.9662484308972136,0.9595372318600905,-0.2003460193503358,0.41948645564498577
735,2.928939665447003,1.0604858442714125,0,0,2.5153753659733096,-1.3557513028538117,0.2992582014528708,1.1686011297956187,0.030611003149882743,0.13260613565398352
736,3.2633519074270727,1.133207803745134,0,0,2.0606690558164993,-0.23315643239952558,-0.727628971749346,1.234935815245712,0.06917174887546551,-0.13561089724334857
737,4.108529292988166,1.1906601321251782,0,0,2.5151916368546945,0.009761965412387047,-1.3405012177510245,1.2183368570958317,-0.14799325741378128,-0.28034613712296097
738,5.391158656080038,1.2308034188395107,0,0,4.467271150340411,-0.21109312535098385,-0.3584626271126035,1.326731180382213,-0.3202978087973243,-0.3160025556707804
739,7.0046416856205775,1.254660196696926,0,0,5.950655351656865,-1.244021729428482,0.29748181507336724,1.4355501437035973,-0.21751015792658893,-0.3561120596375784
740,8.818358639667258,1.265878421269058,0,0,6.799969509832245,-1.7225860221614322,-0.5591147563776072,1.5819793012950731,-0.29686354559376316,-0.41401815078557275
741,10.689493478087714,1.2698273118222596,0,0,9.296888722937902,-1.5001788833143634,-0.7956787585755617,1.462605920618979,-0.22944039880677616,-0.41120163219141226
