id,ASVM,GSVM,walking_nonwalking,normal_abnormal,ax,ay,az,gx,gy,gz
1,9.8149132594815,0.02347029526562985,0,0,9.760133060215422,-0.14593564926022098,-0.8305638289515763,0.025240000741132158,0.0025469217718146015,-0.0070150540685921135
2,9.815524873596308,0.022169515216872073,0,0,9.776764790103025,-0.15585865263579254,-0.8292159867216942,0.023247149212401196,0.002430730475610357,-0.007774303162822954
3,9.817380318970564,0.021100809398256617,0,0,9.770873024465141,-0.15772091581521994,-0.856200317759937,0.02284025446523376,0.001238905029321415,-0.00733994640439693
4,9.82015278240504,0.020541257525347866,0,0,9.792950296830217,-0.1329462834121254,-0.8650171429190407,0.0237390614753226,0.0017441604450631892,-0.010214169964937115
5,9.82329457387535,0.020748774724468035,0,0,9.770204311512032,-0.12706706685182736,-0.8295043543024444,0.019612546569247772,0.0012879671827859729,-0.011356502473173529
6,9.826074224024158,0.02192861818041893,0,0,9.762659233950078,-0.1268623286884173,-0.8737286910518034,0.013241647534659855,0.0005341763958213463,-0.012575289960151895
7,9.827643297817854,0.024201543904231734,0,0,9.77404275173732,-0.1305066971655529,-0.850963097969101,0.010913704786744843,0.0010505192124467511,-0.01370163608399725
8,9.827131535356505,0.027578897920557885,0,0,9.786552342607532,-0.1400733857922817,-0.8445553952300643,0.01149924399269961,-0.0012763918113990725,-0.012568899748888201
9,9.823764438835253,0.03195001618787377,0,0,9.80517093777656,-0.1034987024063808,-0.8338851716550859,0.007058274252659183,0.00034911578655688976,-0.01581279403223379
10,9.816991805877278,0.03708595957547567,0,0,9.749920862290075,-0.10948020221298606,-0.8618885219157174,-0.009530845343698786,0.00921943652838912,-0.01853414040606908
11,9.806610876880738,0.04266068093805876,0,0,9.753254663914946,-0.1240934969453609,-0.8112653494663555,-0.02656202177566397,0.029756202843461525,-0.036526522567494335
12,9.792864578234079,0.04828669148085552,0,0,9.820276206355793,-0.10997658736480057,-0.6760928550835422,-0.019388705713280142,0.04173620639899351,-0.048757904229654654
13,9.776493224343515,0.05355853304469423,0,0,9.858836949610048,0.04275402995365827,-0.8029925470775795,-0.02051519908019366,0.04047641705050432,-0.04662804367615351
14,9.758718362652333,0.05809577989056473,0,0,9.854115494947722,0.10888554859031693,-0.9667756577292838,-0.04065952262055685,0.02885132749202453,-0.04776724181527607
15,9.741145739296915,0.06157896715843385,0,0,9.635657565403008,0.03984332695714671,-1.1250034314421824,-0.025072503279295805,0.007122118355792985,-0.05060012961618446
16,9.7255951313287,0.06377591785763076,0,0,9.481975883394817,0.03384096569287461,-1.2288128374433787,-0.007550473632755896,-0.011213315980206232,-0.046925398218556076
17,9.713892245611323,0.064560148328017,0,0,9.520438294139524,0.0467157602500483,-1.1555164253837902,-0.010308960741305283,-0.02998742765947507,-0.04423026879318709
18,9.707675110065349,0.06392522354837775,0,0,9.552026441084257,0.043255652972335176,-1.1720040154747502,-0.009038781638466114,-0.041519464805669475,-0.04371150751816667
19,9.70825944532438,0.061998282319255985,0,0,9.594006451441942,0.018078650486535758,-1.1858855697467399,-0.004184308741839142,-0.04507292508810281,-0.04555567115713802
20,9.716575571963016,0.05905328530618972,0,0,9.778060334390206,0.036802740939197574,-1.1965917253205653,0.0159300989492162,-0.039511840680879824,-0.042935592538731984
21,9.73315047745846,0.05552162398245306,0,0,9.925793394011098,0.14858201224585774,-1.2717897223573038,0.039145644388426944,-0.037835242934479485,-0.03208964213593175
22,9.75808444156336,0.051995981705223106,0,0,9.75280583315758,0.12322928635941283,-1.3781845892727298,0.037423974079200756,-0.02836752875832609,-0.016352040655554116
23,9.79097777417231,0.04922306067986323,0,0,9.607831606609269,0.16651881522544515,-1.5265759048217187,0.011881511698998747,-0.030247843302664727,-0.0012355818657078259
24,9.830799998607134,0.04808127531595694,0,0,9.59671025596527,0.1945501531744794,-1.464125019497791,-0.03503149190321986,-0.031081403856215377,0.007670682546290926
25,9.875741442415226,0.04953966202837281,0,0,9.598087884513344,0.14408068212169675,-1.5387224228226064,-0.07743768224115512,-0.04181046161463094,0.012511989391636976
26,9.923117152938607,0.05459379134672747,0,0,9.703727984136385,0.030898008523539168,-1.6501884908647235,-0.08854343223105444,-0.04737932196258872,0.01877346084537389
27,9.969389339121282,0.0641751876806716,0,0,9.816939514933827,-0.016398984581138143,-1.7006593854471743,-0.08659691352356494,-0.03299481205341107,0.02036412140285206
28,10.010343201588132,0.07903565550490223,0,0,9.906474322721444,-0.12309300858100718,-1.609446500939832,-0.06502589045902125,0.005086767218594548,0.020525146420404476
29,10.041411333034914,0.09961778415328175,0,0,10.002231138317045,-0.18546830690815427,-1.504854739381147,-0.0021302946168645287,0.04483663179081103,0.02356753878529475
30,10.058112064351882,0.12593409449246898,0,0,9.95193559879707,-0.12640515238448452,-1.550140675326948,0.04449895125794467,0.08405651727775378,0.02521379087446196
31,10.05655535352074,0.1574837492498436,0,0,9.717102547102273,0.1188477442689205,-1.7831504938097478,0.07642632964568222,0.1055950587668116,0.032358835061072684
32,10.03397151885175,0.19323378134107436,0,0,9.668664350458966,0.23842959870609787,-1.9768215486095089,0.029751487834826902,0.14198571500810303,0.02775510743383114
33,9.989218764702636,0.23168242014558593,0,0,9.802745461263559,0.12059509623900763,-1.9352804703856932,-0.024191232102499644,0.18005884534286173,0.01784724701127928
34,9.923210951698245,0.2710086163212088,0,0,10.026312890769034,0.030141561799215007,-1.930892972205421,0.019219390585777166,0.22133782320931306,0.004633586632365664
35,9.839179716558052,0.30929628033915085,0,0,9.993132838295624,0.11464259132096123,-1.868225070540107,0.0922615444001049,0.31247375213199863,-0.003103525327976392
36,9.74266902547278,0.34480495553192114,0,0,9.796598829184067,0.2032931828979816,-1.7756656213030027,0.12695201390911845,0.3905640622684243,0.0008349859793986198
37,9.641183882980291,0.3762436301371019,0,0,9.604977720265648,0.3089560209517088,-1.5165527624334105,0.15178653892852134,0.4365793427151565,-0.001961754544020498
38,9.543483828701314,0.4029971526317921,0,0,9.275562712951565,0.36647016950722583,-1.3781930096624566,0.1365574810036789,0.4503530745165619,0.0034016920419017377
39,9.458600716320637,0.42526053191728996,0,0,9.100401670808901,0.2816013545072081,-1.4602926474894085,0.10765724458220377,0.43061208977294657,0.01034110849092888
40,9.39473011455988,0.4440549269954593,0,0,9.173899444122714,0.13641004181504307,-1.5651448918860627,0.09138383675138056,0.40754791660800815,0.014762980655876407
41,9.358169354454283,0.4611233713713353,0,0,9.280763176127563,-0.014590081198565462,-1.6181771448518896,0.13599018124706053,0.43189188532437556,0.015142509899874474
42,9.35245339632418,0.4787248815781558,0,0,9.272566574120756,0.014549984712597941,-1.5460917704296222,0.24274132656655453,0.43752878541692036,0.02575609037628558
43,9.37779820706772,0.49935712236942914,0,0,9.372833960868494,0.08453508637826661,-1.4536477140593786,0.2827522277898406,0.44997672142669387,0.048375115026215686
44,9.430930752382231,0.5254418852650857,0,0,9.124258862667004,0.021817828169810077,-1.2883522736137425,0.2416596017586546,0.4824549502158823,0.04695002471503911
45,9.505376032286959,0.5590100998252949,0,0,8.84842703558362,0.04453920398199388,-1.1184701869379094,0.22640144935089088,0.44756384815126504,0.03532681761344652
46,9.59226617287201,0.6014272831126533,0,0,8.791138746058248,-0.13388865729454738,-1.0542645655231855,0.17588607944247261,0.43662462014276304,0.019968664221670585
47,9.68169531233991,0.6532027635928626,0,0,9.42492040993294,-0.5098926023244308,-1.2982433698814275,0.1233266790818146,0.5021096092949717,-0.003384899070500821
48,9.764536246083148,0.713918429936491,0,0,10.356717097273542,-0.27812147214090804,-0.2946209329747017,0.11073379042749347,0.6757380962101954,-0.03552244386343823
49,9.834477065951024,0.7822896883306716,0,0,10.363738287302873,0.3985122214590885,0.1872715586171192,-0.06657988505199156,0.8544632719130623,-0.05612208825558794
50,9.889901101798829,0.8563376365866985,0,0,10.022773526018725,0.5923879301652749,-0.27719065475971544,-0.37248657293995807,0.8956040398971191,-0.05762421266541689
51,9.935197443839181,0.9336222753262866,0,0,9.522470557031335,-0.04272661767578531,-1.0194998374241744,-0.6389252378373204,0.8187592749568334,-0.028017405695763015
52,9.981159522975961,1.011477083479795,0,0,10.392418172636054,-0.5436258492357655,-1.8634380091155707,-0.5452535645972031,0.7402009150137125,-0.0077847346226241265
53,10.04424443240136,1.087198470044072,0,0,11.893457462458793,-0.436396930339671,-0.21317394397315811,-0.3678277334017921,1.0002427286957283,0.007882197547855846
54,10.144584727217433,1.1581675601152137,0,0,10.852958383749943,-0.45972973050526145,0.7842068062414794,-0.26378444178613253,1.2868207818386652,0.02963446716997069
55,10.302808727397533,1.221901406409457,0,0,9.546656842475375,-0.45384072190757085,0.7395917207948072,-0.06866992608637812,1.3134713843444472,0.058716132485525714
56,10.535986376250284,1.2760432452265906,0,0,9.544732276284968,-0.5687201078312029,0.6962541975999664,0.09245476561924883,1.2263716574121297,0.14198112895711873
57,10.853313093734586,1.318315861092805,0,0,10.177472826464793,-0.6192068712848527,0.25624739274781677,0.15308905832804393,1.16293069496621,0.24366860112082528
58,11.252315954995936,1.3464816822947787,0,0,10.90284010940149,-1.074429897603311,-1.2809987819224304,0.2094252735064578,1.0664914651312427,0.3598686540257077
59,11.716322160858645,1.3583654050485818,0,0,11.199332879384857,-1.2747654982617322,-2.7266189885256957,0.620596346834974,1.023166703453938,0.49632836230398164
60,12.213728438992138,1.3519841094725236,0,0,10.945860153382636,-2.0116146465253455,-2.4368147414948598,0.7216848382272856,0.9496079704360335,0.5667150736795927
61,12.699374606639969,1.3257948053335207,0,0,11.68306197756079,-1.9913044301611134,-1.5123058428646894,0.9064765801411866,0.8118912188495768,0.5309286699806238
62,13.118113076110843,1.279025006645073,0,0,11.551009917896012,-1.6414661859050876,-2.539294520115222,1.1501388947105224,0.6125752944954543,0.4517462494048919
63,13.410445923007826,1.2120168362497281,0,0,11.45302095740896,-0.9177659901374973,-2.288110195741799,1.2335534345492807,0.424677187291256,0.4225004531007612
64,13.519811203674648,1.1265010484159352,0,0,13.062263418288355,0.02756157527396562,-2.8400513507193477,1.1431807282095432,0.3824109685623121,0.37066984898265054
65,13.40071922317529,1.0257280813739866,0,0,15.113733638897529,0.8875955050732277,0.2524291155446844,0.9782592480261352,0.4599785552102843,0.2855524279754173
66,13.026537502550458,0.9144161489396618,0,0,17.113430802828077,0.7766691457745966,4.7306758257581665,0.2563912145788308,0.6034282576226453,0.2836486386384115
67,12.395491785411663,0.798520273469984,0,0,13.636982021160883,0.9941363415619151,5.098778027645565,0.49438563433895893,0.6273890576503262,0.11085732897598927
68,11.533628909546168,0.6848624576017974,0,0,9.646807414675424,1.0418824069710744,4.661148370764807,0.25450746952130504,0.5594851294679343,0.0367431874678891
69,10.494144269986386,0.5806765464291714,0,0,7.554218160374029,-0.08865880484727501,3.3756445018018497,-0.006535764478459106,0.4578581792874252,0.061955845801656806
70,9.35334082505496,0.4931107989328348,0,0,6.831974338716429,-0.5771158669172445,3.621854294526807,-0.28692533601144604,0.5380255592006293,0.07547445474538773
71,8.204095845646028,0.428708699533961,0,0,7.14473103530899,-0.2953001279572283,4.1222648956359915,-0.34080439032486937,0.5500475993523226,0.07733695716881807
72,7.147797574303746,0.3928701190308585,0,0,8.001199954276077,-0.5861361308095667,4.033907611214513,-0.1124850696642314,0.4581757518721853,-0.0037601372360937814
73,6.285417879486775,0.38929536052552927,0,0,7.385431637972007,-1.3750354392262332,3.149537686210528,0.15376086304818812,0.3936510095893917,-0.03884035500395339
74,5.708096185488751,0.41944053203461085,0,0,5.6095976615591345,-2.0638597682453086,2.13486252501641,0.27389050315573277,0.3354100605339432,-0.07511321452250426
75,5.487622028318736,0.4820546667837021,0,0,4.228860885992669,-1.8532067102328746,1.1155201702449284,0.2237216591619216,0.17448876590052106,-0.15848200603665302
76,5.667523036318391,0.572906364733884,0,0,3.804600316371785,-0.7263339379181669,0.7841529915924287,0.04553570620300649,-0.005376007901211046,-0.20983585796030604
77,6.255848791385642,0.6848208770176272,0,0,4.409776022169933,0.1647439763954734,0.5939799486749552,-0.25609517124832754,-0.19907378707768567,-0.13437434138321264
78,7.220905608401324,0.8081236016488651,0,0,5.780591009124493,0.6806540618860909,0.5978069820259931,-0.5048478802607496,-0.29352432380571336,-0.04780793749790646
79,8.491008479796182,0.9315172898818064,0,0,7.067732864466144,1.1754627029079525,1.8819516879918707,-0.9097257522326683,-0.3660645461188552,-0.030790565355771588
80,9.958833158188654,1.043319625939349,0,0,8.746868038775576,1.4203389011595438,2.269451326387494,-1.0016313523056648,-0.46521451350228443,-0.0775528976306476
81,11.49033660504755,1.132886286771025,0,0,10.350867884184622,1.1446532024134575,0.08397464673115763,-1.3171247221496292,-0.36442537832734545,-0.17682915032820556
82,12.937612674948566,1.1919771882672914,0,0,12.114253543677538,0.6618693563384482,-0.2102216852866262,-1.6654777374201721,-0.3238817490573458,-0.36827514182259874
83,14.154523244048333,1.2158129576127759,0,0,13.185882371122954,-1.1651191480928984,-1.047317824163846,-1.5078583013452607,-0.5148095361340882,-0.53768441275529
84,15.013487162102258,1.20362262254269,0,0,15.137677717925483,-3.581299536743432,-1.5066280432240613,-0.8931003668872216,-0.6757040372924291,-0.636192199989706
85,15.421410079680438,1.1585956444555872,0,0,15.842343627103427,-2.9348119351402286,-0.9330402863837549,0.09728817392323873,-0.7334124622563909,-0.5275556148385339
86,15.332446309478826,1.0872917012426875,0,0,19.98257793607728,-3.6411738041373445,13.188801415044443,-0.2617878348625722,-0.21407800486453607,-0.7889575038987222
87,14.755266319367632,0.998677741607887,0,0,20.221561839831658,-3.9714090526185157,10.539033178560478,-0.15983912598436437,0.05690093269413081,-0.8013237748643552
88,13.75305701101455,0.9030094231596988,0,0,9.456455665125363,1.1199479117402067,6.027883434420984,0.015664266876830483,0.15578204537929985,-0.6132160294998648
89,12.435815710472902,0.8107473168162628,0,0,4.126008150502661,2.6341503970385647,6.0456429167783,0.28435320092253646,-0.00631108811490056,-0.6447235357438584
90,10.946304574213633,0.7316255967690515,0,0,4.975830800615256,0.47709008208782144,3.4606156301633284,0.8135550184179073,-0.2534762578850215,-0.7694013883620513
91,9.442438069835864,0.6739105579543779,0,0,9.792884105634373,-2.385901725455229,3.0354577082121152,0.5780761098807413,-0.21387564704618284,-0.5824413458308668
92,8.079163180598668,0.6438332062033404,0,0,8.375465636199428,-0.40938966522329756,2.9351397565280517,0.22532980532835697,-0.09021230599537605,-0.4818225612938539
93,6.992198766665682,0.6451758614841765,0,0,5.058978589832623,1.9333767910394233,1.669361426702072,-0.06776487758894625,-0.03856449016646653,-0.4831896253105558
94,6.285080624133365,0.6790266428116675,0,0,3.3247247443842727,2.0919593615159426,0.655924951524718,0.11967414172178889,-0.28089740252238676,-0.3459784494414082
95,6.020343603728853,0.7437474637948341,0,0,3.9664009399407676,0.9977503830511127,0.574371548722493,0.4193316380438728,-0.40443692243782603,-0.14676155412466826
96,6.2152991112075355,0.8351958729748469,0,0,6.041026067281525,-0.4162929021525883,1.3266994982611775,0.6504947635603733,-0.43578882896617993,0.017081943481134745
97,6.8424428888095585,0.9471968538291612,0,0,7.964416717061583,-1.598237069327239,1.5071303409303582,0.9026212092901651,-0.3593179521908794,0.0962046493750458
98,7.833995207662845,1.072201034706861,0,0,7.624561248563291,-2.0904370411000737,-1.0914864614294533,1.2476732121074412,-0.45346681755108387,0.18282278228130336
99,9.089637594099901,1.2020190223058576,0,0,9.01708472502972,0.27426350774492914,-4.601020017759613,1.6225029531826705,-0.49606657494159145,0.27392113007962954
100,10.486353857128503,1.3285110679252898,0,0,10.668968411550384,0.5104913134358944,-0.1872302500427608,1.0831776683729466,-0.3298412494357897,0.28706955817365043
101,11.889399261743772,1.444148616513703,0,0,13.446710149941037,-0.2938927909980181,-0.834003451471299,1.3018561675146973,-0.2126552111513265,0.21501827552524783
102,13.163678273980825,1.5424361174016523,0,0,11.281372759026468,0.9933891857110613,0.20767044907148893,1.320265170661131,-0.316373094069264,0.18098599920991915
103,14.185083295972767,1.6182472859038854,0,0,9.922618698383594,1.1909352798156858,-0.7490308456762445,0.19618296620383047,-1.0578410407792993,0.2803079346857513
104,14.851500099270805,1.6681482906339307,0,0,8.596213510805994,3.209619222901164,5.852402225820247,1.3317369485905401,-0.8340353924388302,0.439398880560636
105,15.093031932273425,1.6907384621611858,0,0,14.769097816526662,10.954326382474829,16.806385765376586,1.2959613309322722,-0.73364954019057,1.0739825548861632
106,14.88048781052935,1.6869586287520526,0,0,15.13587056899828,6.980515751487312,5.458598837230831,-1.6994665510433145,-0.16374880223557067,1.4159042187156559
107,14.230689617452526,1.6602426061727051,0,0,7.324011330150021,-1.6939267818410766,0.9335389088651758,-1.3409850805951726,-0.43611657370796564,1.058225906298052
108,13.207200619530639,1.6163652757049298,0,0,18.541055004633957,-2.1188506352612086,3.5524885814952136,-1.556618274100757,-0.5799473518963318,1.0436424276648026
109,11.915693786382956,1.5628901485966662,0,0,18.16837066348751,-3.8725757292985015,3.2708713851959987,-1.7811128762821145,0.21207029600041402,0.713859537719625
110,10.493937618549065,1.50822160618645,0,0,7.734526131124667,-3.887637991094913,1.966499357104864,-1.3270637814014752,0.3207106432088582,0.33526879251856667
111,9.097122478213379,1.4603870043694542,0,0,5.7059027857811975,-2.781189361664533,0.008963163507554066,-0.7998481303036302,0.29694548374694507,0.16666465305900904
112,7.880129351186147,1.425776313942811,0,0,5.523373625295887,-1.7814110160210515,0.17699499116757078,-0.8695961107612961,0.36632928956053457,-0.07399466266992163
113,6.979165228461516,1.4081127417608568,0,0,4.519632914592999,-1.6241294380289955,0.33541031256340986,-1.18204350394403,0.3093274856496381,-0.382431919587648
114,6.495462604212962,1.407886723741646,0,0,4.240976382757651,0.5873853249687001,0.8443716721326061,-0.9479816115079501,0.08374857533846697,-0.5353811006776893
115,6.483313997411208,1.422368523680899,0,0,4.466522778744292,2.4108669176305675,2.904639360372345,-1.4337230491792492,-0.012647706591331177,-0.451373662380954
116,6.943886811837004,1.4461720113163634,0,0,4.63217502415572,1.5245896383174493,-1.7014499719998488,-1.6462697205530152,-0.14845651617919717,-0.2737659485581813
117,7.825380356748155,1.4722258390137393,0,0,5.732617291731169,1.8227904898780865,-0.014311328370071121,-1.464750080382702,-0.2992225643780846,-0.13711434360743874
118,9.02929415392766,1.4929453095315162,0,0,8.82209663464225,1.3391439185823928,0.7049223348383381,-1.8750495465402295,-0.46475302095480653,-0.2987299659729687
119,10.421887218080473,1.5013941788987892,0,0,10.733003619284393,-4.20522277960499,-3.1971809878122084,-1.7743648782082453,-0.5256177022450179,-0.3691764535769309
120,11.849332232492701,1.492273386285242,0,0,11.05284417606005,-6.932891931811285,-4.794950856168455,-0.5823857780121,-0.5255346826845548,-0.33784352892556224
121,13.154703834587885,1.4626542103775666,0,0,12.79516959600836,-2.9335568679010455,-2.300100798010686,1.0928380152978607,-0.7017814750567359,-0.33483990002184916
122,14.194905810631004,1.412448932241515,0,0,13.223633989451962,0.4867945703341272,1.7225851050116865,0.710452671787911,-0.7041558592483456,-0.33667748621178395
123,14.855905158921482,1.344636918308533,0,0,11.469679887483835,-0.3453573257002,8.251687549073292,-1.8455873364307844,0.007627510315020304,-0.5118819269112371
124,15.064984840830085,1.2652259008168953,0,0,11.911975979814173,-3.18844678189186,15.365657701240915,-0.9851082872021922,-0.013458324628022343,-1.0370239774144774
125,14.798966591449407,1.1828720514118796,0,0,13.812492510514726,-1.4838542729450457,4.297735742346535,0.9006276977783243,-0.6520559181712192,-1.0825530944663506
126,14.087538480926609,1.1080714217986782,0,0,11.488196597584958,-0.5973212466165106,-0.4181008335675271,1.112470450281899,-0.34237734947604737,-0.7827891207596496
127,13.011105249753228,1.0518952280659124,0,0,17.891706323299925,-1.4862420395406433,2.6844412554222834,1.0473265934331368,-0.5782232035613358,-0.8086198620308417
128,11.692974031526614,1.0243534145653994,0,0,18.27330243363016,1.8152066866077126,0.8557779487855827,0.6092077333670657,-0.2692825117003252,-0.6248956658966972
129,10.286157304513537,1.0326009851269513,0,0,9.038249964619846,3.7292131515195126,-1.299545182871254,0.1413888733953694,0.2174020878787051,-0.46515798254226165
130,8.955770384082571,1.079314430307203,0,0,4.413898402704167,2.8067174155767725,-0.26936282366856984,-0.2272896014950672,0.3856626893167828,-0.12315573768736857
131,7.8590065829264075,1.1616184903108828,0,0,2.5117115119770275,1.3792276145096498,2.1402767857858325,0.19355507908247677,0.003787207942516306,0.23785739481762172
132,7.125587104643402,1.2708960756626007,0,0,2.6764697965696986,-1.1134816749406093,2.273891266054006,0.575885148681442,-0.059772696911159426,0.4611363462028463
133,6.841776183749808,1.3936558609721228,0,0,3.4897738853919615,-2.8929096331557083,1.0823489151450547,1.1531053687819663,0.085727016101542,0.485245703732142
134,7.040329477778126,1.5133962249120807,0,0,5.404354851183404,-3.836835617448941,0.8960251669460857,1.5213302064973875,0.3872358040213019,0.3080833746393984
135,7.697484859591197,1.613156551165074,0,0,6.3614648768751865,-3.8489428441073117,-1.3313461765691534,2.017170018082312,0.5262412335160171,0.25030194636297154
136,8.736852399093655,1.678259367009537,0,0,8.013022830726456,-2.8140291763545044,-3.557022843882379,2.5573369745854837,0.2914080333041564,0.3412181451171249
137,10.039155379756718,1.698673483598374,0,0,8.64757531738232,0.5562743396536786,-3.7304676482252455,2.9114350652228684,-0.018223209821938022,0.409258924694946
138,11.456281545645597,1.6704979397856732,0,0,10.369141338071115,3.1575722130914143,-3.436888964091842,2.563286080537567,-0.08911872870866057,0.3609402946876753
139,12.827907087829878,1.596282008385221,0,0,13.841443220650492,4.650767919204178,-0.4882134784879269,1.028204262147576,0.1236461759418468,0.20287250163392337
140,13.998910132132723,1.4842153929443767,0,0,14.126397020337746,6.750184924223973,-1.9355994492764823,-0.06865051447422572,0.06770849923418373,-0.04429126979799012
141,14.835849833005456,1.3465332683305047,0,0,11.344431225952482,5.300958717451421,6.999081917269635,0.5647924965568336,-0.2023120495504215,0.1587988499343365
142,15.240991937704868,1.1976367679244442,0,0,12.303745099290667,2.169770720396738,7.4628815223308305,0.5403587164590027,-0.8030334284688743,0.7819908705206758
143,15.16269483129876,1.052358102293676,0,0,17.368010570443033,0.6850846456499564,5.541832543743404,0.11292264107082751,-0.5749049967369267,1.0801258506024087
144,14.601311025355425,0.9245755619798021,0,0,13.324186921492158,-1.919136970295101,2.73184573649948,-0.7473307468357793,-0.11852272326044103,1.0757521096119322
145,13.610029741359062,0.8261670469466892,0,0,13.177643262412282,-2.2713257559112754,1.147564491860942,-0.6434969069743997,-0.37413601508330374,0.8814768235981162
146,12.290335982635275,0.7661928332373337,0,0,19.442059574107475,-2.4407822152776437,1.5747215651660786,-0.522883342433437,-0.10032185286537121,0.6710991703545196
147,10.78208822167983,0.7502241540583326,0,0,11.97201703307489,-3.7086688995851826,0.28523764076484825,-0.16668691805104893,0.32739235516634557,0.545198119555907
148,9.248739579621782,0.7798240179385335,0,0,6.626819314759349,-2.287585510824085,0.9580971691105746,0.1523710757676908,0.4259203474714698,0.29042347068053354
149,7.859033492678993,0.852273580583444,0,0,4.125578852128934,0.7050122645137573,2.070149801617375,0.39052493626768225,0.25828736937956226,-0.1296240493113947
150,6.76740797159778,0.9606755162611635,0,0,2.1904636747875803,3.0158728961085925,3.3913299081485078,-0.1507846963413598,-0.050520563964172614,-0.5225217343779075
151,6.095866453438093,1.0945373400674612,0,0,1.8593149690821027,2.699883947090356,1.0163198376045575,-0.7050248187973639,-0.11118969223977607,-0.6192011884554778
152,5.919898001940469,1.240849809416817,0,0,2.9293186716981525,2.568507058026886,-1.6909834366042968,-0.9901355223841698,0.11955402696667589,-0.4432150113333708
153,6.260286332977773,1.385554496991126,0,0,3.5773783484390527,1.8557142917050389,-1.1996684515284486,-1.653483259257326,0.4473855603743181,-0.17756449915093972
154,7.081677195933973,1.5151785458521496,0,0,4.924306581638819,0.3421215757691974,-2.2185932490823426,-2.1071523682246043,0.46605365344907707,0.01940562510329881
155,8.297803569839962,1.6183455035876662,0,0,7.748819382954201,1.1323137000846077,-0.3755255597599761,-1.9598902916305183,0.3009545657199698,-0.06250889421135894
156,9.782380385467597,1.6868827638029193,0,0,11.192893517794445,0.9680186761351379,-1.7838095344414264,-2.1425875401595778,-0.15460077880171713,-0.2897726791614158
157,11.383944809027794,1.7163474213904548,0,0,12.726489659983944,-5.544591503564008,-4.446670327071145,-2.034797058774738,-0.15860627121937954,-0.35011497142374165
158,12.942471322734143,1.7059569759915985,0,0,13.308328713690402,-6.804998949467794,-4.072319506484254,-0.7241428116004534,-0.16842006411141594,-0.19391964436533504
159,14.305591815123119,1.658083978361508,0,0,14.408685030073373,-3.0484077424719986,-2.897404574467077,0.9891850285054161,-0.4500992200814539,-0.2263383152202322
160,15.34273165240867,1.577584160973531,0,0,12.634833784183435,0.09629411681732744,1.1995844087497496,0.4669526585355645,-0.4235826759653853,-0.2737721693024499
161,15.956216054856162,1.4712156969649424,0,0,10.483049840127888,-1.853426789690685,9.281036324995217,-2.0828855985700563,0.4618539958687347,-0.5864109972568513
162,16.089019830182824,1.3472697741296424,0,0,14.580156142812283,-3.962835467769972,15.784663493134119,-0.3460883994919243,0.30807437316653374,-1.3180055143734615
163,15.72907692220312,1.2153484174788063,0,0,14.10033136970206,-1.3397018935895282,2.865354565504346,1.1885659109074376,-0.13230807919405257,-1.0086854459118406
164,14.910058138117313,1.0861031262177148,0,0,9.193919328444704,-0.4235951640152115,2.0524503886882153,1.4712737033434375,-0.08798575726515456,-0.4389916014182531
165,13.708549850602815,0.9707411869685542,0,0,17.908165236598222,0.1576308366276777,2.4392048291660178,1.131566480578304,-0.7135733666915554,-0.4630010634880397
166,12.237655650199503,0.8801948485572688,0,0,18.393128402636368,2.6799973880738244,-0.0902997128962875,0.6509039906018539,0.02271638648644938,-0.33824420927615306
167,10.63709220087416,0.8239829360282996,0,0,10.850273045947409,3.022259049503927,-0.2885611144174533,-0.09257013641135817,0.40779776789447164,-0.3761385176006314
168,9.06005202727643,0.8089283582880273,0,0,7.514311496643235,2.2390740259864716,-0.36013983176016917,-0.5165097834922001,0.5777938675822086,-0.2690527904928028
169,7.6577503253553045,0.8379849769728834,0,0,4.2644605556008806,0.14437264538591663,1.1690038545532715,-0.05672300166318182,0.23035214520303784,0.020766808767033944
170,6.563456151779697,0.9094460346956246,0,0,3.602231415343601,-0.63914778588125,0.704169643500097,0.411468081742459,-0.1014736575090098,0.3504633063322427
171,5.878323178952294,1.0167549335604322,0,0,3.177369525984496,-1.9470070789294776,-0.22467947084582637,0.6208966159518448,-0.07576828126255557,0.51496172857298
172,5.661122206552422,1.1490349259261958,0,0,3.258023933985687,-2.4274869122794014,-0.8070611618712838,0.8505974285784524,-0.02428063490533092,0.41816344307937536
173,5.923182924992433,1.2923189244044082,0,0,4.337567290701834,-2.2706456721764994,-1.7778615373186049,0.9937232228544869,0.08667184783386493,0.2130008509009074
174,6.628852836103556,1.431320712756699,0,0,6.948277246662935,-1.4118846880408789,-1.156804878323719,1.6524000215892234,0.290930955859965,-0.045805089797610964
175,7.700892332407499,1.5514694762646875,0,0,9.352434788938284,-2.0415111159196884,3.07465551643076,1.8378736721142377,0.595031494258744,-0.10532302911446728
176,9.02963066483221,1.640850809028988,0,0,7.891348417082818,-2.9840572920890165,-2.2720626555969035,2.446717282432211,0.33358251373109743,0.1293862902716127
177,10.484483272804955,1.6916851146899847,0,0,8.085231424848137,2.3435212415083524,-3.2074916064575683,3.024117530654255,-0.33090561721580714,0.3322159639944356
178,11.926519405023447,1.7010616107977816,0,0,12.071198473464369,6.003074095437078,-4.601812453055846,1.3239053128650295,-0.19677958645375693,0.3054522180606619
179,13.220986169775596,1.6708434865932278,0,0,13.475448672713826,5.015125931002535,-3.1371398765433973,-0.6440027479757341,-0.2782508690759299,0.09953670377753537
180,14.248892261362197,1.6069105647714763,0,0,12.43030452595999,1.7606525811937068,2.446008633351473,-0.4789723123133027,-0.43381573664111345,0.09820365445003112
181,14.916942024949446,1.5180836611521609,0,0,9.392235301636097,0.12183221302083262,7.162394062796817,0.894784131108887,-0.4406190493563369,0.3876889160679815
182,15.165305906601544,1.4150688488833314,0,0,14.83096586667003,2.957594663958942,9.118384387889606,1.3113388696548989,-0.9656403497338398,0.9627738782766904
183,14.972800868471166,1.3095811001330813,0,0,19.125823336889187,3.448510812962196,5.9115823843376205,-1.224613958023822,-0.17821847065853594,1.4043966610055407
184,14.358998646323995,1.213588156679851,0,0,9.292988856174746,-1.1938172566444347,0.8585597184494093,-1.4675214124429679,-0.08371906807647071,1.0403970358798618
185,13.382797951727433,1.1385006011167706,0,0,14.089505662224708,-0.26043501467857416,1.9712446316868877,-1.1110495641939415,-0.5138936176588684,0.7334688167707134
186,12.137255647624318,1.0941761059265585,0,0,18.279408685662627,-1.774973739833873,1.187635237304843,-1.0792824163775374,-0.15844544042348982,0.5983880469872463
187,10.740846896930096,1.0877575110606441,0,0,11.042413119109122,-3.3623474183876065,-0.8380150191051964,-0.05871049068158231,0.3484469781270492,0.3476305133836601
188,9.325715879933654,1.1225334524049024,0,0,6.659335674996388,-2.2142846871995263,0.6779419596756948,0.26815971009976325,0.43753646075814895,0.00814745872708782
189,8.024007706453146,1.1971130216315338,0,0,4.806396230936785,0.07598748983746254,2.204671335493316,-0.5632456928839952,0.19397448119233907,-0.2738853921051846
190,6.953989080133116,1.3051945941460905,0,0,4.471732550640156,2.131794376790523,1.2093294806631663,-1.2062434099687787,-0.044434010279036706,-0.4956970426216502
191,6.207978180801369,1.4360880312554545,0,0,3.977537707881083,2.80787900051485,-0.05729628115451172,-1.3821944470891834,-0.13312616326425547,-0.443471562439437
192,5.843835551809923,1.5759759291420654,0,0,3.148170021141858,1.3976440097223137,-1.635666709559544,-1.449655275131633,-0.07517399624065452,-0.2820026835889313
193,5.881059848142939,1.7097460825789297,0,0,3.57826274906346,0.5293974404466254,-2.4329118237115823,-1.4616801747356445,-0.018077642843893224,-0.15022897295949802
194,6.301694086969007,1.8231302554551791,0,0,5.644020592534172,0.386446662848096,-2.2283473289157936,-1.8840720492940857,0.05453087576532626,-0.08699319505643248
195,7.055462676905583,1.9048313709190237,0,0,8.686753864440702,0.718118599117152,-1.3081254851496549,-2.4787257482848735,0.1782287209565495,-0.07907530549720429
196,8.067914954617716,1.9482919696666665,0,0,10.86824711356564,2.009233489816494,0.2370681441674678,-2.7954458517435428,0.37903234344673054,-0.10307920988308393
197,9.249973988541937,1.9527659667233543,0,0,8.53799847317313,1.1998667875093398,-1.9404451024483227,-2.538769144414247,-0.07223132232387314,-0.09555092926299702
198,10.50730599259797,1.9234451545829634,0,0,8.321595366431064,-3.8851474121886658,-6.572335669427984,-2.622949955412004,-0.6098858949420176,-0.060710700953320124
199,11.74830181157115,1.8705811432775865,0,0,12.253926685538396,-4.828224998326965,-3.870048068222223,-1.2451723004833652,-0.5767527879310438,-0.04189047097885326
200,12.889995598719102,1.8077940691895977,0,0,14.626313764168298,-3.0370393056102936,-3.3893893648911644,0.5477959141749996,-0.29884593859735237,-0.11169342493428995
201,13.861771433709828,1.7499795587858502,0,0,10.270675243793772,-1.1522451832710574,1.254070910348474,0.7253324395408782,-0.1076150096876537,-0.15724110299025026
202,14.607192985809116,1.7113080476489488,0,0,10.078601163355284,-1.5654947459289155,0.3098361254812185,-1.4277442418854756,-0.24790820027276173,-0.2661006168615016
203,15.08465274146691,1.7036997109841523,0,0,13.534176472424651,-8.350320537282427,12.779001873618643,-0.45870190922722887,1.338345219300603,-1.0710546092976858
204,15.267587529451543,1.7359063237739922,0,0,12.309430008396923,-3.240435020673312,8.682836960228396,2.6421044609114572,0.4947795812768007,-1.436367257921382
205,15.144748784136919,1.8130795738954673,0,0,8.61501058473398,1.2248013934708892,0.5992610438688577,1.7399150189715205,-0.24753574882205323,-0.9350704168651411
206,14.72072115615802,1.936588825769168,0,0,12.327048454607027,1.7499313036664295,4.252890091443837,1.8258573750617124,-0.77896674817873,-0.7071433599888063
207,14.016660618673564,2.103909696225943,0,0,21.15578321585736,2.000174776984543,0.21621973213724854,1.7288719682009492,-0.3450071085996381,-0.5588754805184908
208,13.070900439372549,2.3085666947851036,0,0,15.354232575925527,-0.7378479021727772,1.6317535775091916,1.9204024506844075,0.278925542895739,-0.4382174369666483
209,11.938724063544623,2.5402611417808,0,0,9.577354794546697,-2.9681775829344264,1.495100116807824,2.0648399551468852,0.04549097194954126,-0.10021350436995739
210,10.690654273221279,2.78537100489743,0,0,7.930250583138806,-3.3963597092304223,2.0611330920922524,2.394898226866335,-0.17881467488938002,0.1731116379841319
211,9.409156557297305,3.0279618559017005,0,0,7.684528657276184,-2.55169324165899,-0.0648788148951536,2.7859698408868327,-0.2990173441727729,0.25246409921345303
212,8.184206736252209,3.2513291930192074,0,0,7.813126073281908,-2.284116214459139,-0.5692169576663858,3.2168831184543722,-0.22058516794278116,0.3145188419658962
213,7.108265533378909,3.4399457482515112,0,0,7.314572231655412,-1.403366173457959,-1.4451483624419916,3.5657673461008175,-0.26197141890212106,0.3863478130597081
214,6.270896853654098,3.5815567787396128,0,0,7.033652621494461,-0.7119710183543165,-1.7148502786897717,3.8453147185004823,-0.20898109406900414,0.4337191522292129
215,5.752922277265192,3.6690862309451675,0,0,6.688963793189901,-0.35396222334815575,-2.756993598466263,4.082736373843292,-0.20292412543644944,0.4555919167865855
216,5.619882416229282,3.7020052658489617,0,0,6.942949339523391,-0.1484476171417726,-2.705152291535387,4.130547851873462,-0.25582052120404025,0.551526468306684
217,5.914740119692901,3.6868739838385447,0,0,6.861648999863884,0.16564968896604426,-4.062851851930163,4.0111169959915,-0.28477515527190944,0.695003164744003
218,6.650175234738825,3.6368873207555223,0,0,7.14819872874416,-0.09941274157645569,-3.137234565844188,3.920756519955799,-0.15562814918524287,0.7328361707013318
219,7.801419459246,3.570417678238104,0,0,6.802438696186715,-0.09131616615749348,-2.5076963625250794,3.6713389398039875,-0.057268891886363193,0.8370593338173384
220,9.301248554575348,3.5087237895560723,0,0,3.381525256516571,0.3354684446822665,-1.1053420282789561,3.3136272942503435,0.08418276055814393,0.813624272760181
221,11.039262918003395,3.4731573557620616,0,0,3.0421401994098383,0.12753190646783985,-1.2920334835186476,2.161477718059203,-0.30467969671898304,0.7044076637116822
222,12.86759000397973,3.4823075994473123,0,0,6.1917558655980685,-1.343364879057263,-2.223053469340134,2.5421226174629052,-0.12473494877693303,0.5093415687824083
223,14.614279963965403,3.549529720592287,0,0,8.205552742625526,-1.5173185075477211,-4.193146975808538,3.488031718235804,0.32707485438250794,0.4646546408445428
224,16.103863962923356,3.6811796273731603,0,0,10.868135516659205,9.431273815293657,9.121202564501035,6.291883546082813,0.9719285246357254,0.2194958658501735
225,17.182208349576946,3.875684821985245,0,0,27.332562806828587,14.216873659422061,18.079508602331718,1.1164478046569537,1.280087458362407,0.8125804158169868
226,17.74079273746022,4.123455263881312,0,0,19.382706862715605,-7.700753200430074,-8.514014868001876,2.1397686503960656,0.8308973582142426,1.2725651262829394
227,17.734897010128222,4.407636883931088,0,0,15.732238168537277,-5.793896001509745,6.702155777928879,5.150430270470963,-0.08098336460601246,1.1803823224427807
228,17.19142655613228,4.705721376981732,0,0,21.50433748385762,-4.388564961978355,-0.5615686273856858,4.353900169305365,0.0868560319783019,1.0927451146410425
229,16.204669299541276,4.991922937892739,0,0,18.03822916396753,0.581250187785943,1.2099939299152693,4.908462958992463,0.5365778583756796,0.7491917246454382
230,14.920939108456693,5.240058333057666,0,0,13.583479876933561,4.701899644993735,-4.442389682456706,4.954247028235905,0.06638338512914826,0.7058327968465736
231,13.515040316461356,5.426543950357265,0,0,8.155426575672315,5.640759834656028,-3.557347608641435,6.136397920088622,-0.3456236191221413,0.7033006899412056
232,12.162741851309457,5.533086546155857,0,0,6.784993810260876,1.347680174052706,-2.6858402645469446,6.010518861481113,-0.3993697092192811,0.8814621414661064
233,11.01405334389535,5.548665567397654,0,0,4.578678387794315,-0.11103207566603326,-2.942470641072442,6.353838679078843,-0.40920982370546033,1.010511747102047
234,10.17193062444593,5.470490587988412,0,0,3.7622671723933165,3.2419306391673226,-2.217861050484079,5.862704767852477,-0.21883386741236263,0.9009827673930443
235,9.68003118316998,5.303790972093349,0,0,3.421079539738809,3.63043260701535,-2.0060306026945627,5.051444016946284,0.05198751334368123,0.9628506370869223
236,9.521460526760032,5.0605334854471264,0,0,5.334447618346027,2.618148497711244,-1.0953738122404444,4.35875478812741,0.1619209641560783,1.1882071339772935
237,9.628432468427244,4.757391443992976,0,0,7.963883028528454,2.1216518290220754,-0.35617425170200695,3.9539609504661124,0.09355845328902983,1.3263620257055684
238,9.90075590016091,4.413420273817713,0,0,12.138257082792784,2.865849608629696,-0.8423827502833777,3.665211197991619,0.12770560235660874,1.2885645353006343
239,10.229359730038922,4.0478839019719866,0,0,15.583429989272332,3.8161966150113606,-0.09605057642942955,3.632668355279757,0.33409630344339947,1.1386966804854197
240,10.519988610057853,3.678544064525709,0,0,19.034374589550765,3.3888538309070366,1.7140179609642614,3.450184855825635,0.38676100455524254,0.9949356568903809
241,10.712081549513908,3.3205365660802455,0,0,17.737668615014055,0.08480606965561777,0.7541158001561302,3.4292191696855885,0.25672494290090936,0.8732133597127633
242,10.788898222309802,2.9857868637023386,0,0,11.950438735370444,-1.2898179011600353,-1.3815224844991234,3.3450247417758305,0.07127643601065176,0.5957220065406675
243,10.777038942059189,2.682812199191334,0,0,10.094891925948714,-0.14682393406794578,-2.1266702870160543,2.9718743638356404,-0.09503926299297118,0.3320266252362345
244,10.736016754386608,2.4167390779846385,0,0,9.495756352809014,2.6600455329934634,-1.9844294431413267,2.4636865276056796,-0.02903015939038587,0.18112476536822966
245,10.740690454809046,2.18942270755433,0,0,7.65968408875627,4.699414246168994,-0.7688512542389934,1.9300929682020656,0.11291434428873581,0.07579931088119343
246,10.86063225376521,1.9996494171027803,0,0,5.347243244329538,3.8771043519777106,0.4626455441408363,1.651712760468499,0.13433515398056411,0.049209583555942106
247,11.140836005530048,1.8434791463183589,0,0,4.83706489051283,1.8184635957010211,1.2676438098245388,1.7116617637774707,0.20392151519082527,0.11191186704128395
248,11.587752892711334,1.7148018974143526,0,0,5.446190385569811,-0.27722662990631014,0.7846690348191553,1.6607595562954125,0.10430076462253868,0.19005406239840425
249,12.163578326938003,1.6061375956066644,0,0,8.503848562133808,-1.207399990838255,-0.8369190677535059,1.5846436090135099,-0.0014779412498002245,0.13426947084146099
250,12.790066946252837,1.5096358241598073,0,0,12.430320238227162,-0.8856216059683286,-0.2550806334029767,1.4225394194732743,0.0160120166665556,0.011527104978234233
251,13.361158665051393,1.4181670046427555,0,0,17.059686353354625,-0.5703530123046785,-0.2694442566898737,1.4297855198097122,-0.09198698848017925,-0.10548629950291433
252,13.761842923358802,1.3263549041821816,0,0,17.230169324133023,-0.07500754772298988,-1.5087402854201828,1.5601102651907843,-0.12236877933640451,-0.1633647534000206
253,13.889511481779785,1.231380237711938,0,0,14.981415251947528,0.9967229329258417,-2.3220630562899154,1.7100926406823684,-0.16966549849206175,-0.08484734269278646
254,13.673834339754947,1.1333903280090663,0,0,14.51399002397142,4.289985761765739,0.33751683377533176,1.5697106485880383,-0.27188518949420426,-0.03460346997241959
255,13.091785202006664,1.035396781227702,0,0,15.570840299609426,4.204478494055461,2.91068872714866,1.0493960330263263,-0.20871374237725918,-0.14543848415639835
256,12.175418956226425,0.942641814294554,0,0,15.84404293456001,2.7070439429973696,4.544207318110349,0.8436585998446657,-0.15777338096593077,-0.06076476740518218
257,11.011058401779806,0.861543263362043,0,0,14.13232201656237,0.5261444849707125,5.155589188518782,0.3940784586709057,-0.14521336409792632,-0.005501480247428013
258,9.729686431225835,0.7984383649530926,0,0,10.317219899719596,-1.3373949695399865,5.265532713311462,0.30116927665911664,-0.10830665329775722,-0.10269837844237517
259,8.489674842094361,0.7583881424403207,0,0,4.806685027404726,-0.7487706413233293,4.030497985359006,0.6386189848142816,-0.1799652490499287,-0.027448958009815394
260,7.454408790888506,0.7442613495041535,0,0,1.7051311518335628,0.9497830804660086,0.8866309784927691,0.9078177244596801,-0.22820838260455473,0.09027529411720005
261,6.768490839539641,0.7562167728578744,0,0,1.6697879356416048,0.03834277516488118,0.22082411380125858,0.688598107500289,-0.12459296377750587,0.04272187622405531
262,6.536564417964079,0.7915995660700932,0,0,4.408007957913186,0.17783417163738344,0.09531669240873829,0.7772209201250578,-0.08992947128210113,-0.010871423245082182
263,6.808185016674764,0.8452038582762273,0,0,5.955654617811888,1.0962359494235587,0.3754760290689808,0.7592082951688209,0.14954826858139667,0.008495901640921627
264,7.57084343994042,0.9098326073817499,0,0,5.0122088345926255,0.3465422759381899,-0.7323304080472891,0.7210464847498425,0.34368393389626606,0.07794561434635622
265,8.751742018943897,0.9770803726475891,0,0,5.441630414045806,-0.29529050987739014,-1.2207493205563509,0.8858238787592748,0.3396814803541089,0.24966467770507444
266,10.22763656774787,1.0382536709919323,0,0,9.736440279285448,-0.15926786193726883,-0.8969099327501598,1.0476052661329838,0.3561422973910216,0.40422342026375396
267,11.841027861933993,1.085325634909837,0,0,14.665774331478069,0.34534360404765335,-1.1836021773816567,0.9224534136216923,0.5236772121827009,0.5701895925767463
268,13.420137630785096,1.111809644933672,0,0,17.657839852791273,1.5324083690080559,-1.0753240283914485,0.6710949007103695,0.6499578597991704,0.6922023688684189
269,14.79955999253124,1.113443401028503,0,0,18.487102036192162,1.6062687561462805,0.6845286893262337,0.6868294136561911,0.8519471953486725,0.6636992284775626
270,15.838528788337324,1.0886027695208438,0,0,18.044304744609956,0.18588967465526104,0.3118018945218965,0.8604059307243874,0.4512853836706186,0.6068485540830906
271,16.434501972965478,1.0384056862196176,0,0,16.80177394882173,-1.2959424179979182,-3.970763305863136,0.9115401312675259,-0.07629465082423255,0.5890234604857596
272,16.530996765465737,0.9665106967710203,0,0,14.684925691272966,-1.4032570245612708,-3.5941612395689044,0.5859327048536241,-0.4573124573289989,0.42776185895500846
273,16.119861120578374,0.878654415901001,0,0,11.664154762168858,-1.6956193142969065,-2.088374539931104,0.2576766453511546,-0.81679399710357,-0.09848320664786567
274,15.239020865230605,0.7819998692568884,0,0,13.338567167103587,1.2173644275776785,4.441019509819419,0.6286872004339517,-0.9175945806633558,-0.3103592822085076
275,13.966972412202338,0.6843814741667192,0,0,14.004942699010877,5.762536308772144,9.309990949962595,-0.21656129391563897,-0.11001162134037286,0.15543404918753861
276,12.41497071997199,0.5935395979069927,0,0,6.603175773962744,3.2420427854883562,9.517893497847355,-0.02174604727982267,0.18061886069193062,0.12265941354535247
277,10.717374818132926,0.5164401769634254,0,0,8.11282140767188,0.3076760938978709,9.164581079911379,-0.40645204493426446,-0.06407130026750116,0.0885955446883698
278,9.020394250034993,0.45875645273186527,0,0,7.7433805286125965,-2.2793435921713843,4.416848453920416,-0.7797216266425808,0.07798062010988316,0.1200684424911592
279,7.4696557885841335,0.42453917516556816,0,0,6.89240293871169,-1.499616927220851,3.376832457089601,-0.5739736116060452,0.09801223918211512,0.10402314136550612
280,6.197383445693439,0.4160441091622201,0,0,5.412013053198452,0.029616785147333086,1.8843683151025583,-0.3188370522000307,0.2265187215828615,0.2130969176257984
281,5.31032342202133,0.43366434394903464,0,0,2.933016208073156,-1.4352235067431613,1.1978621375355136,-0.022275427105030804,0.26993893647604045,0.313391835996752
282,4.879732873784028,0.4759407225239623,0,0,0.9731710112461791,-2.275925093271144,1.811063863088532,0.21525981196824526,0.16313972635247226,0.3267605691714391
283,4.934723548304558,0.5396671082154275,0,0,0.528347234200113,-1.6077266587083294,2.318191570164488,0.0697000206890525,-0.044569782165922875,0.2674255815613599
284,5.459956195012327,0.6201328410827475,0,0,2.4278248432345078,0.17051644785549858,2.007573813244331,-0.09325609195896283,-0.1470773672007422,0.17199224111441874
285,6.398120598679928,0.7115349515694761,0,0,5.019759359098512,1.5560754586253327,2.407095330058503,-0.7260350304877937,-0.23414713706267473,0.18417502140007067
286,7.656893392792154,0.8075464415303991,0,0,8.225455832104558,2.2332929798618957,2.0763076875384283,-1.0731306136180738,-0.2561302213100574,0.26439425285802637
287,9.119302150225186,0.901961627197589,0,0,11.370003419640048,1.9017494238870656,2.3794333467805338,-1.2117877662840835,-0.177544924584502,0.215387192119728
288,10.655858122957861,0.9892930651151048,0,0,12.759434749873138,-0.10179617911705163,0.751026539880437,-0.8454647980088953,-0.30734493508227717,-0.030771329719054403
289,12.136661178720002,1.0652011424484502,0,0,13.996484673586574,-2.277415692101411,-1.7670843683310669,-1.1510135530240748,-0.4591006057457086,-0.14882916474608723
290,13.442006837701948,1.126694523828888,0,0,13.176754080994458,-3.15623459391531,-1.854206568157127,-1.2016052194097457,-0.3077115941835106,-0.18460253748936853
291,14.470708321053413,1.1721132227303155,0,0,11.93420100793558,-2.433543155841261,-2.654654584138852,-0.832514853676872,-0.47352983344046473,-0.19943656419956377
292,15.146098399389532,1.2009657348502887,0,0,11.295426220196045,-2.233455339759049,-0.43820456043000255,-0.29216220812705523,-0.6385070995420163,-0.1659577801623289
293,15.420162769906112,1.2137227675672675,0,0,12.782001171014183,0.5332697775104709,-0.0038028576711191643,-0.38914059348638524,-0.9047932005566123,-0.2517797381490459
294,15.27624340581691,1.211659975591944,0,0,16.33434056783296,-2.0605107545724777,16.956980344720137,-1.4418561846437121,-0.2575709956259019,-0.5744413898119188
295,14.730307165840586,1.1967877778495308,0,0,13.882062668257912,-5.267069657704574,11.715283384762692,-0.6294594302157174,-0.4634166372304817,-1.1260055211832378
296,13.830373924707407,1.1718373719387172,0,0,4.513931787398797,-1.537136684524278,0.322219022638872,0.18497489436046483,-0.38815271942968305,-0.7230795549571848
297,12.653816233148872,1.1402330320444272,0,0,4.761336593647886,1.354646529588877,3.3194538197361876,0.597081025038182,-0.7573436861564858,-0.8364569092832103
298,11.302691628413564,1.1059831285816022,0,0,19.173277227559943,-0.388617281695771,3.366956434842852,0.6482247226856491,-0.5758050747715392,-1.1550443574083207
299,9.897330505774972,1.0734418320083443,0,0,17.244964058789645,1.4457728716586415,4.010382300709103,0.8252261791779454,0.4241427419441486,-0.9351324437349922
300,8.567923848741435,1.0469175919667313,0,0,8.155476950341384,2.74199306067431,1.7111732712678935,0.5073980549380028,0.4384206644440121,-0.8442890071412061
301,7.443651027882989,1.0301473577506797,0,0,5.16084314234743,0.9150577875413545,2.4885883306190655,0.5859033678667174,0.3804074236302457,-0.4994082688162908
302,6.639617631536136,1.0257197384053514,0,0,3.903574651991636,-0.6263549508224929,1.8792222445456492,0.6559661802729997,-0.07720013360296203,-0.16844332165604833
303,6.243097960040558,1.0345851236361456,0,0,4.544716387678301,-1.3683597040590678,0.927854842564608,0.7271612168154405,0.03168973963745495,0.11931038170595024
304,6.301370149822418,1.0557984775383775,0,0,4.037710978194806,-1.2928260678036976,0.674939871422987,0.921864236709792,-0.057165025818314764,0.30704617048649213
305,6.813416380133054,1.086589850377361,0,0,4.402401996963128,-1.4570092721634647,-0.15706474934509906,0.9562379072235,-0.07302756282961739,0.32926795685432514
306,7.727183934253578,1.122770446653209,0,0,4.253815417970254,-0.20840177339464871,-2.0156796598917257,1.3851822213846687,-0.27303657600650966,0.24677332688354428
307,8.94329309458019,1.1593966993207188,0,0,6.20400715656101,-0.15968295208594468,0.0039982679355897895,0.9700570050478902,-0.18866915652979369,0.12931796150324043
308,10.32515958295133,1.1915621928221565,0,0,9.822189745509453,-1.4725030231195606,2.855316301301656,1.2390788335474558,-0.061522396265010396,0.11069514268265722
309,11.714505017049293,1.215175043615359,0,0,13.68883081634476,0.19186733468440575,-2.3169773542112058,1.902395952360026,-0.13068531249315038,0.21254186567885824
310,12.950287997345365,1.2275964845186238,0,0,13.920654562881207,3.807678111854355,-2.1961805845662026,0.8032379063368158,-0.2521340286720825,0.34092988475527813
311,13.888450236999397,1.2280563841699235,0,0,13.721188935383239,3.894213950980834,0.06680298388161343,-0.038904599710076315,-0.6900455174757777,0.5121195040155224
312,14.419726748572943,1.2178144753665983,0,0,12.602370000424104,4.62884877834231,10.90607080085317,0.9282637788990272,-0.5280053525667269,0.6681600613059524
313,14.483090416485837,1.2000752046520475,0,0,16.540838348322477,7.551374997250487,13.147550781344835,0.05675173396166161,-0.5970314037382163,1.0892861103834461
314,14.07306063483331,1.1796631404327391,0,0,11.932404103657692,2.0565991635667853,3.722126195584256,-1.7287472627010076,-0.021013120201153493,1.2574001391947407
315,13.240056460347517,1.162443876159813,0,0,5.1729964476916654,-3.3909547555739588,-0.43508024860390293,-0.7666679811889002,-0.1720414822580559,0.7002417082546818
316,12.084094050879582,1.1544881801391427,0,0,14.200487960848688,-1.3053201342955163,3.5030944493177043,-0.7757477409787237,-0.42469952588704496,0.4885815290674885
317,10.742996927794387,1.1610519246180644,0,0,16.998989305957203,-3.064827296210771,1.724670024164692,-1.0752889034347024,0.2413695310322819,0.3374614023572606
318,9.376575025793947,1.185543866105981,0,0,8.659085214294064,-3.7472990887705064,0.4760890897935337,-0.6381408235838847,0.4776973576849849,0.10673254435801442
319,8.14823356039985,1.2287149395476225,0,0,4.850395266446103,-0.11224188527446878,0.9420664581536079,-0.49632489768904503,0.23261034382551918,-0.1661775525963182
320,7.2057515997412205,1.2882924465163983,0,0,3.834318848508885,1.941837101531611,1.116503712880139,-0.7675995108324326,0.1532355365265671,-0.34021645030640946
321,6.663492814440577,1.359199472126362,0,0,3.4767298396329878,2.5110485527990525,0.0216783442998726,-1.1844721335261277,0.07560690205287755,-0.3312362243113307
322,6.5885086489788875,1.434358170819495,0,0,3.9074180418742497,2.60324841756234,1.0366530196678772,-1.6215589786670093,0.23459372448564123,-0.34196642497836605
323,6.9925380188350434,1.505910464110846,0,0,3.477614135601672,0.7235418911638646,1.594051918500851,-2.0754392739830108,0.2284491067125458,-0.31196812819773556
324,7.8309864986032185,1.5665610651216988,0,0,5.653265735429095,-0.25212948214833836,-0.8496551842944445,-1.8249062626930481,0.010262644440797334,-0.18170291928713386
325,9.008904595466738,1.6107102358132463,0,0,9.419339317970465,0.05602671746693784,1.7364846215427943,-2.3889455393594425,0.017019227639474336,-0.06764207588492425
326,10.392955591127224,1.635113635344099,0,0,11.567051446405724,-1.1298029622724708,-3.51294293333583,-2.0609903881797225,-0.1759171684936379,-0.07987415965489573
327,11.827499386475342,1.6389605241755856,0,0,13.704039913279502,-7.28006972936138,-2.236385688874228,-1.0309977357456293,-0.21732683137160702,0.04435198933547904
328,13.152429941403295,1.6234514007737928,0,0,13.33379648857202,-7.361751689704368,-2.8537935513493218,0.6911744051169814,-0.4847600830043447,0.19966235679951935
329,14.22047738009024,1.5911136653734397,0,0,13.1723389620368,-0.6895543429822438,1.4685885510978804,1.0298718996273295,-0.6158910267277882,-0.22130231434676886
330,14.91227909309825,1.5451455583153002,0,0,10.62973004573028,0.00667377446465657,2.5058269548575822,-1.0502056378545765,-0.3367992262182063,-0.49850479691082106
331,15.148289204560669,1.4889963130742927,0,0,8.746270583029252,-1.1352075323847843,12.455205785464253,-1.7095123019381617,0.07761102036576603,-0.8997961951185476
332,14.897070293758782,1.426226583463862,0,0,14.254058777862108,-2.5531103380791826,11.33306216533862,0.3892703519278241,-0.22271588097152667,-1.450058534725879
333,14.179500876762756,1.3605434325310315,0,0,13.331379058263016,-0.07097510190417596,1.7157969289435073,1.4016247411016574,-0.022450570092045916,-1.3113506627451008
334,13.06819921893834,1.2958385119924556,0,0,15.988457321032296,-1.2441413681823843,3.1956387228897416,1.2071865252390166,-0.3505020849023185,-0.8916540005005388
335,11.681445265653288,1.2360896130417824,0,0,19.16970444693177,1.946419576998712,2.0396136428109624,0.9887246624336844,-0.01251394556907484,-0.5738287233770053
336,10.171314785368843,1.185082940505733,0,0,10.065696280615605,3.767872721466108,0.9329478116186691,0.6131644970919727,0.42531893957708683,-0.6175171168455744
337,8.706643081768828,1.146023220338635,0,0,5.221122707591999,1.1694777543115216,0.7112811463024307,0.4563497576068582,0.30495567096254533,-0.3987512909506132
338,7.452664072090784,1.1211671368143779,0,0,2.4410591440080935,-0.47119715361937764,1.8727845316834435,0.8329145515042502,-0.10439129265936635,0.18563772199052797
339,6.5502822685184965,1.1116102034485615,0,0,3.206311723072832,-0.5987091093676074,1.2807146153878466,1.1766965963577212,-0.16940843229775795,0.45991054663985936
340,6.098337519800451,1.117285393556654,0,0,2.8096002766916452,-1.3278482314072737,-0.3646601441551705,1.2241813767639367,-0.02915490652229225,0.4492681154551058
341,6.141677890113842,1.1371380801881026,0,0,3.3879958603034224,-1.5838555148477371,-0.8327574664955699,1.1091808087990562,0.09462522089998467,0.3566900149136755
342,6.666662144475546,1.1693783301496972,0,0,4.968020666468644,-0.48048807051277204,-0.2986829103038757,1.3636531038973039,0.11445930836189659,0.13066859504136802
343,7.604346149564801,1.2117028580964835,0,0,8.433279251144102,0.8950608832160557,0.8786927406533673,1.34231999773866,0.22584587121343955,-0.06956222714954517
344,8.840391006233524,1.261413501196231,0,0,9.489981523669282,0.22390085615035338,-1.1596949870930326,1.2641672881590533,0.1706815343344977,0.09124196105988579
345,10.229835529548788,1.3154138274796845,0,0,12.132102265038515,2.7229500733768908,-2.8648651762412367,1.9396022441511054,-0.05240893421995421,0.2710586135352833
346,11.614415790669046,1.3701282081699249,0,0,14.221602903495597,4.436525926071463,-2.5976248194315668,0.5667789472422552,-0.007435362794162539,0.17738454171185083
347,12.840148660817999,1.421452371955577,0,0,13.213110913416784,1.2822559285492285,-0.010033520374308375,-0.7112167058586571,-0.4778868307837206,0.2131868508231647
348,13.773376670727984,1.464888235640494,0,0,9.724062111390708,0.5117959704085324,3.2161749717398864,0.25500526071918644,-0.3746835482684062,0.2896863792388126
349,14.314178691831449,1.4959914331483954,0,0,5.76031240491417,0.8829894820185917,7.392043086971584,1.3667059225485028,-0.7141728621238176,0.44992292739321804
350,14.406582102012406,1.5111353095424989,0,0,14.264700770825195,4.960342916774827,8.871849545343684,1.40967300180992,-0.9467017578304753,1.1082755542789144
351,14.045020887549082,1.5084083201931493,0,0,21.685005499250426,6.185358570175483,8.271986981151706,-1.618440321318878,0.13861428663361544,1.8942970006749693
352,13.27610924619566,1.4883177009401602,0,0,9.774482080304134,0.37605183816719767,1.1806483899412037,-2.0531050251055403,0.04647153548340406,1.2286279247835574
353,12.19468212569635,1.4539709414051791,0,0,15.840457197746485,-2.7574512269691898,1.7844823419314448,-1.563492187321982,-0.5343787786917112,0.47763019513507105
354,10.933665896624063,1.410571170397559,0,0,12.618712785455301,-5.1201399570998225,-0.38668929758242226,-1.1296864976628824,-0.06935353981028186,0.4899325190072385
355,9.648476951910435,1.3643237178419685,0,0,6.9881949713030025,-3.718783789145059,-1.3038867985422464,-0.05948579989136,-0.04554974721066998,0.4431801346280085
356,8.497779344490247,1.3210870673982618,0,0,6.036584065939133,-1.581950917353426,0.0085764477909377,-0.22082986139459193,0.005353121206968355,0.1030189723937023
357,7.623256886588037,1.285200934879634,0,0,4.3472918650743795,0.06600842618322028,-0.044464076946195336,-0.9960690679303043,-0.041618895722536936,-0.29248525794590025
358,7.1314302705413075,1.2588414044729388,0,0,2.4904268590924357,1.8692863274143565,-0.5175061295864978,-1.0620560323754442,-0.007126789620723036,-0.4971147331423632
359,7.080335032981053,1.242032033622456,0,0,2.401243346378698,2.688215634869767,0.11941504282023803,-1.3564356965631208,-0.01758192542627954,-0.3683311663794431
360,7.4730533373709305,1.2331898473141012,0,0,5.987049975164877,0.3396594790158943,-0.43915888921484514,-2.10323502816018,0.3698815868955229,-0.06902285460024507
361,8.258853391046962,1.2299157471810496,0,0,8.525516496472136,0.8615046558280764,2.060449021560148,-1.9072623766599355,0.4934074410106885,0.18364648221419688
362,9.341348000837852,1.2297086289498051,0,0,8.814621351647158,3.139880281157615,-3.5051818350260295,-1.0161339219703087,-0.030427010735297567,0.1200513521790619
363,10.591965680592809,1.2303879713998578,0,0,10.504971904510958,-2.7260661823744194,-2.5709838680465715,-1.1765224998280128,-0.44653154200431916,-0.18659590931687997
364,11.866366193988222,1.2301898573839576,0,0,14.683647147466187,-8.665043021760985,-3.2554803252213977,-0.3547119053827673,-0.42542139847939325,-0.08974676122681978
365,13.021298684036381,1.2276607124986527,0,0,15.773274732381756,-2.1950973710138593,-1.319297911345793,1.0216562836677026,-0.5396020376969027,-0.15284257131381052
366,13.929770057203665,1.2215377655158912,0,0,11.819488368168292,-0.8166178265493763,-0.5292950463682509,0.5805703173054352,-0.7368828003230891,-0.3480987695811315
367,14.49317303288752,1.210767358185507,0,0,8.440044629441482,-0.830033751310963,6.0566686781425085,-0.7045098082721768,-0.19397367518899178,-0.42835916202370455
368,14.649923086932759,1.1947145435340396,0,0,10.20862903916465,-2.8920550436119536,11.501108390351048,-1.0667173405036998,0.05530316768491478,-0.9567766721129971
369,14.380705407727135,1.173508707636576,0,0,14.132367973506394,-2.533893139549036,4.304164601869062,0.6680664056445635,0.05653749996173912,-1.1989905860245227
370,13.710404764368098,1.1483839257440143,0,0,13.059297144052051,-1.0864986013909672,1.2911427427064248,1.4015152140998057,0.11249754705001344,-0.9740296660883851
371,12.706438774750989,1.1218360826174834,0,0,16.589655289230066,-1.4728198286827967,2.0260010372888506,1.2196059139600481,-0.2428786369151296,-0.9848513719506736
372,11.472988639985847,1.097453285445821,0,0,17.49035996855035,3.593233621802918,0.7679562209030294,0.8076689327102009,0.10901803963636439,-0.7063682557565787
373,10.14080850718407,1.0793805648966335,0,0,10.239408657619324,4.437883134080246,-0.6823276371776696,0.20372857330130728,0.6951612697397376,-0.5784078194016468
374,8.852998178474305,1.071516562577595,0,0,4.796651733290063,1.4644043137853004,1.4328987765549004,0.13209775981582939,0.5965933267219435,-0.210810963074912
375,7.748228672822117,1.0766487182199715,0,0,3.026277154251232,-0.058690954749902775,2.430099562598225,0.6471933952921649,-0.13469561777647676,0.27907856696156214
376,6.943942466965964,1.0957664545452468,0,0,3.144509908787025,-1.5401980648795834,0.8673982652921205,0.7979714286347163,-0.17982987426893013,0.4918666267203157
377,6.522401232830441,1.1277404759449394,0,0,2.848085355262624,-1.7918639005480244,-2.018753719119231,0.7549107104629814,0.027627480539280918,0.37633762616536565
378,6.5218952091747875,1.1694492489478066,0,0,3.4426841616058366,-1.086518268566667,-1.2430079683957076,0.9480591482439158,0.24844500456441504,0.2078959289105136
379,6.9342510404843365,1.2163114301072204,0,0,6.640677948327796,-1.052600147467705,-0.10237658331315727,1.5455114201183038,0.2068479863888858,0.1251604489642915
380,7.7084455189995795,1.2630772551117608,0,0,9.426807799068099,-2.152836639950792,-0.3462950527076028,1.874947624932315,0.20403998750152652,0.17183005744024205
381,8.759002578283857,1.3046697409921786,0,0,10.164868565181365,-0.567882227420537,-3.87633106163394,1.7760338918505127,-0.3519337575849831,0.2817075182488963
382,9.977152827986773,1.3368782676027295,0,0,12.491777395529867,5.3559442064810785,-4.270273099484267,1.476951642061372,-0.3305395541177817,0.16310297178872232
383,11.242625797307982,1.3568054553410127,0,0,13.309306105630414,5.2453191165215145,-0.9682168216960907,-0.08580871589171453,-0.3080497665657445,0.055889175648092065
384,12.434451561209615,1.3631125877705568,0,0,11.299423891100647,0.4261143508901916,0.3659051422228957,-0.4418507876131465,-0.4826336529456336,-0.0006587247884714542
385,13.440096509788447,1.3562064093512074,0,0,7.8109987850475475,-0.30100477638265394,0.5318585179890434,0.43529868356373846,-0.6764284466765011,0.14448258171255626
386,14.163241112136573,1.3384775777257027,0,0,5.3374128332741995,0.3574332897694864,6.705371061972033,1.6766854376463098,-0.8304014885662304,0.475485806336207
387,14.530973478245953,1.3145415196939614,0,0,11.442087672683378,3.5230446160212057,6.409611499680861,1.5848627034789793,-0.9921711848291499,0.9187463293197887
388,14.50076219669692,1.2912509020378822,0,0,23.135220699101705,4.736622933544285,7.939727117198022,-2.11994543235628,0.17608680597054577,1.4738321651195714
389,14.066534008043938,1.2771816517725514,0,0,10.410061396159838,0.08927932117854509,-0.6882450708297831,-1.8691960606262992,0.12264013665190375,1.0816465606724857
390,13.262313352797522,1.2814159345595255,0,0,15.422698388327538,-3.7289656595807976,1.4245362271974062,-0.5283798623324613,-0.49149252353559053,0.25661168791356487
391,12.161821441231279,1.3117218441112408,0,0,17.072238807424934,-4.53885671880096,-1.1679848273409605,-0.059784720072259614,-0.19707588001014734,0.38501059635873797
392,10.87311344879196,1.3725326432311533,0,0,10.003342586318452,-1.5053402333388144,-1.9662017093161694,0.3610668648325657,0.1333412595059484,0.5481863434216175
393,9.528299513399215,1.4633041347266367,0,0,9.067625733821993,0.17247872076394266,-0.14565555214111378,-0.015755016428904225,0.15045549638774028,0.29155478928985523
394,8.269362831727928,1.5777905317726615,0,0,7.216557156826847,2.342810996454095,0.19294974193427822,-0.9608907090963302,-0.0867793235747784,-0.13658202373882583
395,7.2319067579937215,1.704550982889094,0,0,5.2318263368844855,3.1659379860760466,-0.3678044629557853,-1.6382592112593521,-0.08171990890894637,-0.3990703942156239
396,6.529137108115642,1.828675300656618,0,0,2.8543906469799736,2.5607857696060186,-0.4363339275231591,-2.0667889974093376,0.006449097653626535,-0.3767815104239962
397,6.238412482880484,1.9344045486742893,0,0,2.433605116709556,1.1348964826398955,-0.5667430221212139,-2.0622843895139114,0.21460981844808405,-0.2999466384191998
398,6.392328468936123,2.008103681704712,0,0,3.5634798147171427,1.4528901371501972,-0.005101566945853978,-2.3875582994460856,0.3032763817574291,-0.18816904713948612
399,6.97560893166695,2.0409577248448536,0,0,6.611017586517765,1.999664740749914,-0.5421538648265225,-3.3509389530043814,0.47069654181566084,-0.03872309772917103
400,7.928130584590769,2.0308048510387713,0,0,6.771694707397635,0.8729590323335599,-2.2147968634637576,-3.3270740129051997,0.35455045671607693,-0.06357993773587695
401,9.153388147102055,1.9826800743825248,0,0,6.9857394459500055,-3.0653454921283663,-4.454137419929819,-2.4989094371851293,-0.13839230545150116,-0.03045183212301647
402,10.530862085387719,1.907923827098967,0,0,10.067437253010448,-6.673615533246107,-3.9261312485169926,-1.3111054670262392,-0.40941622412090306,0.20839473290680083
403,11.93023472719086,1.8220714047503161,0,0,16.017462495667292,-5.2902341497070395,-3.5219335990926672,0.45852842129108323,-0.2552558676590782,0.2890444188833494
404,13.225278445972608,1.7420626723749975,0,0,14.21753158941132,-4.781708069010981,-3.268026473919906,1.1097620994647122,0.09483821816522772,0.013896570409736573
405,14.305578848399376,1.6834556585535942,0,0,9.862909777835675,-0.9605486162740765,-2.999588916092421,1.0827003547179004,-0.32986661427256025,-0.13627814736098073
406,15.085017180861257,1.6582395463827173,0,0,13.64734634834641,-0.5863488611990753,4.362274790214055,-0.9431423622672869,0.12495191756777145,-0.33452223244588236
407,15.506790390630218,1.6735903380809327,0,0,17.412875305205883,-7.007066276720647,12.47800933659975,0.5735931312218915,1.0386883396464646,-1.1250180475585434
408,15.545300486552398,1.7316154734058928,0,0,11.814913607148487,-1.7282966810410605,6.789556418247051,2.26167479807405,0.6754720698163373,-1.492097098821979
409,15.205491590146556,1.829888508372354,0,0,5.470889609442759,1.1439766112907992,4.678710780283195,1.692397519435323,-0.24020846452812142,-1.1795033626441245
410,14.520401256146128,1.9624452546053233,0,0,11.133095004160957,1.823670107607243,1.5584413187636976,1.8800848174824234,-0.8534070645766894,-0.9568226548445725
411,13.547730885743249,2.1209269598873677,0,0,21.057027957746953,1.4618277303720035,2.2142609988404067,1.72094088709007,-0.4296920959043436,-0.7535840704192589
412,12.365804848998009,2.2956783530607003,0,0,16.980643687839187,-0.011660865904067882,-0.41371245485509084,1.901816613718497,0.23773401352376972,-0.663866094785046
413,11.068596986443781,2.476747784421594,0,0,8.551394882336107,-2.6902252997536675,0.9454826578135134,2.0831299853302263,0.03445988475265953,-0.45187657087400845
414,9.759299151231414,2.6548128060820253,0,0,7.514525513884093,-3.6276419120021326,0.0678437027535615,2.6376369181975066,-0.31580819602858967,-0.06976455074481322
415,8.54246995855214,2.8220456697463474,0,0,6.2247215131633595,-3.6308007145538124,-0.17076927707696438,3.01416982360318,-0.2917680282481668,0.14549684547567893
416,7.515563718253253,2.97287185939357,0,0,6.237077931126863,-2.478917806660462,-1.5588603022882206,3.2814823844770498,-0.27162458539873297,0.22003297691986232
417,6.760946619975571,3.104517189168228,0,0,6.296958879553042,-0.3047664515464747,-1.9953429668813083,3.4089594261828875,-0.06976221278362268,0.180753008352991
418,6.339297408275244,3.2172313439708344,0,0,6.245027434641779,1.4175652173977498,-1.2334205495130117,3.316728165703449,0.09389782702065835,0.20503152013403397
419,6.2848981573269755,3.3141292601522006,0,0,5.971588721753813,0.6884932172964442,-1.3293698484636245,3.1258556235621695,0.14145886649257608,0.3080778813612569
420,6.60301478571393,3.400680214850424,0,0,6.006930556360371,-0.010556756544343337,-1.7422029221189308,3.138492580677006,0.18562502894740066,0.3717273681156225
421,7.269404322289618,3.483952517035013,0,0,5.885127513761778,-1.7926588497946871,-2.9719589918215137,3.0197735066527587,0.04653291759735504,0.4367515045167798
422,8.231907479400899,3.5717498955750666,0,0,7.301195851315332,-3.866242193140966,-3.7820701285923874,3.484271016129281,-0.014428174428444756,0.3993045688273214
423,9.414025918117634,3.671741729230742,0,0,8.531473333162666,-3.4725873062187294,-3.5399861823227505,4.451061553205946,0.26439207300226925,0.36080039504015027
424,10.72033717006311,3.7906205612346833,0,0,8.99878094040962,-2.5900879480854786,-1.4280419231282042,4.335203751232192,0.24758746741570545,0.46486752782098023
425,12.043594014734316,3.933278588910006,0,0,10.19406932824112,-1.2431029663321673,-1.3667194009866972,3.626389405832963,0.22223879130017477,0.647864448653952
426,13.27335333032262,4.102031855855728,0,0,10.038842417061826,-2.1112132327266697,-2.3631415973720586,2.5680834832467716,0.09622484755989084,0.8099623499969951
427,14.305848765293689,4.296012566163928,0,0,11.718025849881286,-1.7357539021658572,-8.03995334016308,3.9097261965511168,0.3788822940570734,0.8425636086182884
428,15.054448101397627,4.510894702123335,0,0,14.334103279110376,4.410121005276691,0.5717170452206495,5.3566081647166115,1.1398956893236183,0.7520379187553466
429,15.459481873509867,4.739046090935543,0,0,19.27893292854578,7.6474372959214465,6.788921551865233,5.193017388518562,1.0544163465737701,0.7890396782277074
430,15.495774086037345,4.970072239044538,0,0,19.669902680766068,6.943027291069424,8.032329415686968,3.3504631668808686,1.5853954494843405,1.1538582322204565
431,15.176235663228367,5.191656013929463,0,0,9.288131712729703,-4.719144337698796,-4.707371590344678,4.163069009900113,0.6368713322652506,1.3154438852515535
432,14.550615603915682,5.390620483967517,0,0,9.171860053053287,-0.4809922175947432,-0.2648479929980472,5.77208065348554,0.10138721789576456,1.2013665646594736
433,13.699657654932878,5.554146661004247,0,0,15.055523661312478,-1.3066588474246084,-2.9945726452456434,5.73713484334124,0.004384711484230038,1.158897148383122
434,12.725770306350691,5.671002418833686,0,0,16.805602278017115,-0.36199446601945084,-2.1986813727627186,6.281513001187453,0.49347850149933914,1.195820560173017
435,11.741460616330635,5.732555780482178,0,0,11.393153330941159,3.1554156953874823,-2.5867954536963875,5.867897646075062,0.487159794602532,1.2954377666732741
436,10.856561737112674,5.733358627978292,0,0,7.283335790937202,5.967090436865796,-4.445788120850436,5.777813808821424,0.14714257377184786,1.2096093755856807
437,10.165314669513894,5.671210334552628,0,0,4.954175660130418,6.390346676762497,-3.6406723423438323,5.368185593209894,0.10302219925161345,1.1158327628247933
438,9.734736673936029,5.5467772467559024,0,0,3.768444173617273,4.62379526340043,-1.938114723545033,4.924931273498728,0.05057546836523777,0.9381814632094265
439,9.596009477052549,5.362973271744386,0,0,5.472731704555756,4.20339010540459,-0.7302710713907149,5.020364614602777,0.09022682259104342,0.6839084586814328
440,9.740485930313858,5.124349350310615,0,0,7.597178429230465,3.094102507151317,-0.0206499018043229,4.824845636256467,0.19128227252619553,0.6150413493760275
441,10.121297395703772,4.836687993628882,0,0,9.130308031903324,1.0875640716320953,1.4754937448700105,4.476741177107606,0.30911941336230675,0.7720421020302085
442,10.66063186106602,4.5068834475926405,0,0,8.954355961165948,-0.26976364735774355,1.5460672436884768,4.347494237228097,0.3109293672987529,0.9310023614644711
443,11.261802966816688,4.143053753566063,0,0,9.67474004204796,-1.4236744807238235,3.254834734701785,4.2515485893351554,0.38143772436351153,0.9388416416958479
444,11.824419870596298,3.75471679061207,0,0,10.811971146486375,-0.043842705417458536,-0.22119589711117377,4.739090111808449,0.35566714163340724,0.9578260806269604
445,12.260330965620188,3.352803133133693,0,0,17.02320534391777,5.418727100345705,-0.6240283875104016,3.8657794706968613,0.7453196558402397,1.390877567175368
446,12.507575034063427,2.9493135449326298,0,0,20.03897259386278,8.246882428257557,-1.2667928163543343,1.6704785565019842,0.6703522334654203,1.6083678760388977
447,12.539546024630885,2.5565726206398245,0,0,14.54354738518625,3.1366398503003103,-2.2713109909774514,1.5488794371632606,-0.1792342494780153,0.6206305945266435
448,12.367308481530143,2.1862212891498087,0,0,12.94349903654062,-2.073516529625241,-1.6384980607160833,1.7701572844584774,-0.4403301895491471,0.13524865528198624
449,12.034556248768196,1.8482088452256837,0,0,10.432384271443118,-1.211159876604647,-1.3917156879012913,2.0433304678927433,-0.0030118932484009533,0.22005952257856737
450,11.60658277984988,1.5500163373640097,0,0,7.692094472550513,0.4800866036171084,-0.43191516161898286,1.6558452759029934,0.10624593058713092,0.17734811002810807
451,11.156052902288947,1.2962156875100075,0,0,6.59255325051383,2.2014133868027366,-0.07491953481596562,1.3204479717372681,0.12940149740090445,0.09136881895757627
452,10.748849682854521,1.088352590271181,0,0,8.134565384528578,3.04363659633334,-0.09600743473354664,1.0679348728300695,0.07909345180779989,0.034508294285656785
453,10.432819941860744,0.9250953767853216,0,0,9.479412308219262,2.3931171031187204,-0.34467927612740096,0.8620662939279106,0.17719566845685036,0.07992674809127004
454,10.231190982643168,0.8025979698235959,0,0,9.145192585030179,1.0197456992859497,0.03302598712932508,0.7605557133879938,0.03957001763915582,0.13877379875154564
455,10.141228547179523,0.7150403239575784,0,0,9.353530489265335,0.7736956941144075,-0.8919654732264001,0.6766423041629204,-0.06717148993332316,0.1309942692214902
456,10.137706533340157,0.6553131779847192,0,0,10.41992787396958,1.2540497751811168,-0.23643125342271124,0.5591138571971209,-0.12180456894785996,0.12384585147307932
457,10.180083934599311,0.6158057247765161,0,0,11.175961358977485,1.0417877179288189,-0.4652509858888467,0.4313864472566914,-0.10092925001601362,0.11350492379223492
458,10.221891494172928,0.5892393414764827,0,0,11.279697701517822,0.49167110237224354,0.18913332147504236,0.650358544356399,-0.033716683702353735,0.06871566055326989
459,10.220676759664794,0.5694695385158812,0,0,10.70326386293151,0.25083728309685993,1.0577515308993501,0.8327195096556365,-0.20779431082976374,0.05482240765779335
460,10.146931342684143,0.5521574510601055,0,0,10.451381925681071,0.31565181660912245,1.249919624935839,0.6091197639715767,-0.3032228367050261,-0.003888176205025804
461,9.990677453719508,0.5352066712328273,0,0,10.028561332806962,1.8400142552481487,4.862922621698726,0.4355357260927876,-0.07778933717013896,-0.09843558464834143
462,9.764727558202512,0.5188838920546014,0,0,9.557171814262517,2.9040905334002556,8.713987928237193,0.685093650793989,-0.06599751175641529,-0.02576858504001945
463,9.504012531270654,0.5055863303533317,0,0,9.884959553501709,0.13668348403283873,6.591816899491462,0.629911918434121,-0.03615027298588039,0.11278394131868075
464,9.260875289798097,0.4992666579621551,0,0,8.645339746128037,-1.6093805211116143,4.149047669462899,0.6316318775575926,-0.13335587742741123,0.36132723865963706
465,9.096928421869407,0.5045704388097022,0,0,5.802552201382381,-0.8494861429301427,-0.23791271091417632,0.448372820663512,-0.04990751010137459,0.35853633342792246
466,9.07286282583784,0.5257900305265224,0,0,4.830435377092239,-0.5684275149600663,-0.0857918206584332,0.17820671453871176,-0.10939300856142224,0.18166238328247786
467,9.238127210714177,0.5657934620616653,0,0,9.078313851406136,0.4454882190787043,0.9719349074905695,-0.13382563458417926,-0.04743591072056867,0.11161999359209195
468,9.622356183989433,0.6251260450350561,0,0,10.676366730428564,1.6979074986198346,0.7529557111611408,0.014010188864757876,0.3755692823854113,0.11765931307967668
469,10.229837828212716,0.701476786195762,0,0,8.414450408034309,0.2268932616922071,0.7761434766220382,0.09961674029349052,0.4439546632664765,0.11543378577206327
470,11.037562847663736,0.7896395240936421,0,0,9.422252349434713,-1.2428091039103484,0.03407897942148122,0.43789154040869643,0.4602008205563162,0.2010823775019108
471,11.996834248140475,0.881998214216487,0,0,11.383731549377753,-2.313737767375838,-0.3877774476914877,0.6009454075808921,0.4752807878652347,0.3315053757806662
472,13.038050545582085,0.96945940184412,0,0,12.95228050730454,-2.8671148760102434,-1.7127103322210304,0.8622219712230341,0.3308778654111851,0.47759182661977234
473,14.07794406925791,1.0426683646085297,0,0,14.387447027657236,-1.9492146572566682,-2.212401470091783,1.071023571388651,0.304559158799454,0.5617941540895428
474,15.028234737170513,1.0932925780374552,0,0,16.159698874596543,-1.319053956726615,-1.6141400406068154,1.281741952582577,0.37151781741616263,0.5415899545691899
475,15.804477026807671,1.1151455523372007,0,0,17.63868613082398,-0.7033353397265971,-1.736972231262697,1.4591716489127344,0.3487469037200464,0.47591120583522867
476,16.333936487175105,1.104962379844059,0,0,17.827318269617958,0.9346597310632903,-2.4318972175645244,1.3063413488553939,0.10836103812514063,0.40099951958280583
477,16.561640485370692,1.0627253380963078,0,0,16.18450020530809,1.1188300182873103,-4.897187302427881,0.47767266007384385,-0.11980118439387744,0.28827151666245665
478,16.45424542453034,0.99155355274186,0,0,13.780453512122262,0.40646146050482634,-3.1546297149217297,-0.08364570242688826,-0.5353119899520523,-0.08672496052006706
479,16.00190549668003,0.8972683494211173,0,0,13.271772316697826,-1.0334296202308069,-2.19479079079106,0.5520935634568124,-0.9150934315416785,-0.593454571917015
480,15.218683249541186,0.7877780800559367,0,0,13.360822767171076,0.6213293973440779,5.232806491012367,0.26441784719411593,-0.5701722742368148,-0.4287769696803967
481,14.142011285580635,0.6723914971592444,0,0,10.813994750154537,3.182432371621462,12.786363618991867,-0.47018834703356543,-0.12614486963357135,0.18317501738990083
482,12.831331457826582,0.5611142649699883,0,0,5.497728673766209,0.042339868381669254,10.861089239772635,-0.24363406739308746,-0.24189043337809904,0.05055179144483166
483,11.365601821607473,0.4639474765330178,0,0,9.645021951040684,-2.2829926101629923,9.255390662038167,-0.5572805118491565,-0.5846765506094159,0.01780811978411893
484,9.839191567019489,0.3901872634114326,0,0,10.720284308367482,-2.100511943705488,3.864054489957689,-0.5863964159114811,-0.20967719095250983,0.041950202039247875
485,8.355870045676856,0.3477115558241003,0,0,7.8918022779441115,-0.2637747227646971,3.955544009605057,-0.49286249159494766,-0.07758473011801094,-0.03675723648562085
486,7.0210253454307034,0.34224876672185345,0,0,5.375290581651136,0.10818542464497811,2.630162798551766,-0.3849269699158776,0.0418043698127491,0.005405111523566436
487,5.932757366765969,0.37666787277807123,0,0,3.0611271159796987,-2.2599085436883786,2.9046295522510466,-0.1639125416711442,0.10105693223085846,0.04910551155325964
488,5.172905331941543,0.4503933579366268,0,0,1.8926721739083523,-2.1738809856655656,2.9080801434335752,0.14867285622594958,0.027175636390212518,0.06327505542751537
489,4.799227520362778,0.559094677346262,0,0,2.152651370346977,-0.8679997157970005,2.250501068631757,-0.01754637811799845,-0.09736884096440841,0.045965067911897445
490,4.83979704960644,0.6947980257091632,0,0,3.662704794921066,0.8057217945137605,1.1854929859594656,-0.2875718423240428,-0.32326623539912364,8.569323395890285e-05
491,5.290291945073505,0.8465081126773751,0,0,5.308387687250487,1.7825265418701721,0.3402502909402911,-0.629036022072738,-0.45283999761546834,-0.02919273690352227
492,6.114378609794879,1.0013218003223334,0,0,6.2394002143300185,1.6808900887737774,0.7970239529271032,-0.958977699880831,-0.4325877611546408,-0.04878075360907884
493,7.246951730235731,1.1458962078132457,0,0,6.93088393590467,1.3134097496708246,1.0075050742714835,-1.3306044946024753,-0.4462067442954216,-0.05723593836032116
494,8.599706040621214,1.268040712578118,0,0,7.958056874088117,0.46547255020711115,1.500912355388136,-1.4540873191680939,-0.4651419560660374,-0.09866046995463763
495,10.068397860385517,1.3581632962424832,0,0,10.165058208994635,-0.24093204847206068,0.029219774836105557,-1.4843175858318578,-0.571468371640592,-0.15169710803979203
496,11.541132617597501,1.4103236752877721,0,0,12.132116635664957,-0.6742334188834863,-0.28421848844289554,-1.7078543806830493,-0.416930254755595,-0.3037732315813743
497,12.90700496844398,1.4227181705199687,0,0,13.149481230202214,-1.1266870523873025,-0.6100543197696598,-1.845751006329731,-0.3651297916540324,-0.4598361812912161
498,14.064414658518613,1.3975293873938484,0,0,13.866986694903659,-4.61723225751888,-3.8008967941192644,-1.5516407692643552,-0.3273707114432498,-0.35584553201405644
499,14.92843635536066,1.3402056919352177,0,0,14.433126985952294,-4.348810544859515,-3.344271000045377,0.021865620774818583,-0.37827958404134937,-0.1324009503682413
500,15.436768384667475,1.258369450485488,0,0,14.60662411215868,-0.6138250979907209,-0.8547137357398624,0.7239377957917142,-0.6412552132566225,-0.1498956255757285
501,15.553990934662849,1.1606400915129396,0,0,12.050000925680362,1.4341481444388595,2.09511138376773,-0.15205192071827867,-0.503621268017213,-0.3236046539441355
502,15.274027778257153,1.05564535583198,0,0,13.310192553787662,-0.14469640687973753,15.962453212574806,-1.001324950599216,-0.13384156212975448,-0.6319351727869051
503,14.620741245860067,0.9513799723354186,0,0,14.063864735642115,-4.005837619517682,11.317025802014403,0.008922261066055735,-0.05072021153164702,-0.9836044014724638
504,13.646591565107341,0.8549174910775408,0,0,4.661007334570027,-1.7706355497627884,1.7510956245926859,0.73079739699441,0.11942914581888911,-0.5734347201088089
505,12.429461421078047,0.7723616424950783,0,0,6.233335520025639,0.6935856347109399,3.8841033320874256,0.691837840953022,-0.5487140333758534,-0.6884313681049352
506,11.067985624651255,0.7088731921070143,0,0,17.359684867610273,-0.04075958515916101,4.603433806227906,0.5056493810932601,-0.2531075412986973,-0.8588239203351076
507,9.675611328960672,0.6686234046824068,0,0,15.592868163443649,2.0777035612622274,3.2449794413711834,0.40178642274487897,0.5125047399724835,-0.5779183368048376
508,8.373123394339778,0.654589722265718,0,0,7.6552146022058665,2.2132599293570476,2.5263697696496386,0.044677349550475226,0.48832371334957253,-0.42047699769596797
509,7.279178149422625,0.6682030451349401,0,0,5.951013297697201,0.08043787244862304,1.8702927997309076,0.14996543215535085,0.19802098260766413,-0.18549114755639357
510,6.499001922039118,0.708948037790401,0,0,5.284994245058987,-0.8619976336772811,0.7484064005921067,0.4852975325113908,-0.055716237763529075,0.03285023489721868
511,6.112443169436246,0.774070647206234,0,0,4.988410269588449,-0.850022958109102,0.06077518103698355,0.6548953195028514,-0.07974041182407217,0.20957325443654704
512,6.1632712916506485,0.8585390830755268,0,0,4.1586334858567655,-0.5146063738954019,-0.024774118202387924,0.6085734072670183,-0.11034294969129436,0.2667928972678677
513,6.651695761083724,0.955346158330001,0,0,3.5868908793402343,-0.7035244127018827,0.4639061536175792,0.6545829961680972,-0.11492543784139876,0.30282173454612515
514,7.531696574473684,1.0561613758998178,0,0,4.021493835064908,-1.2735930739284755,-0.9317633030996233,0.9222878261240725,-0.23357422242792036,0.28458609712995836
515,8.71409259172492,1.1522620453679413,0,0,6.385435382956159,-1.9732495639004324,-0.0035019668691489234,1.05642166665874,-0.25677551874711085,0.24059222439255323
516,10.075384728850004,1.2356009709238527,0,0,10.24137633864406,-3.0950539942483215,2.527498698412781,1.5048244566713835,-0.2203093497767876,0.27821923791607744
517,11.471384398512493,1.299812737760456,0,0,12.645900739454119,-0.7870507571830324,-1.818150226846472,2.2127348133518367,-0.4469378276832835,0.3808625731453415
518,12.753708843852795,1.3409460493084764,0,0,15.086851888874675,3.867175463876567,-4.478526814882733,1.4577435587354666,-0.6646748577964072,0.4399520171560699
519,13.786697272531274,1.3577676659700308,0,0,17.5880170626595,4.855781577878427,-3.1298622968473095,-0.47839632412694355,-0.6731350069105224,0.4544137998557938
520,14.462376165833746,1.351616968234741,0,0,13.10359732091242,0.10474641384481286,-1.1842767164282013,-0.19290813331866805,-0.49313616447958303,0.267692789847134
521,14.711750438181554,1.3259389820308338,0,0,8.767473257919404,-1.0913107946789993,5.369195408395448,0.9753652863325847,-0.39980783809359083,0.31302472512169555
522,14.511601981158176,1.2856939192579424,0,0,9.78676178266345,1.4799084700478553,11.439151764464983,1.2427867585443104,-0.45707997956338425,0.5997527598132254
523,13.886648464271865,1.2367913523919658,0,0,16.932024246002655,5.779638131802486,10.42948746062357,-0.38868133571137004,-0.17003867645959536,1.1011535440806315
524,12.90710494478778,1.1855803743077669,0,0,11.969826127105556,2.043021482213336,3.5805200341919208,-1.7876801686727868,0.5653423048543443,1.0467791609193724
525,11.681694378473066,1.1383378142878624,0,0,8.089907693776706,0.5991571557786742,0.1076170986017985,-0.802376023742899,-0.14208108454684432,0.7205278362514278
526,10.346424225562263,1.1006932808971976,0,0,15.233826470103688,-2.4344811501536685,1.0649776902268762,-0.9022994565158802,-0.018832637805555746,0.4737402048723983
527,9.049995476263618,1.0770071087893005,0,0,9.165459607926724,-6.367236340892742,-0.5520129797800024,-0.5407870188010074,0.46631759753324936,0.24954037300345966
528,7.937240886503016,1.0698188778298483,0,0,3.9644441787909668,-1.5449602629590042,0.8867274788892258,-0.2778644051250567,0.27671423157511427,0.09414213701783022
529,7.132412617642114,1.079538004000331,0,0,2.7048212107587086,1.6076530445353285,1.2206963997885185,-0.7080778429049973,0.2062231225995722,-0.312523184549608
530,6.7244773396012,1.1045114881564644,0,0,3.5080122522371253,2.224091252439738,1.6056341969165524,-1.0025506146282908,0.07295583274309082,-0.37106322539975134
531,6.756601619915266,1.1414881411145352,0,0,4.349378000218524,2.7965138976675004,0.5541409223659096,-1.2500584640039247,0.21359457341822463,-0.23150198244425768
532,7.2214724987047285,1.1863563000381905,0,0,4.577438703770305,1.3250881700684842,0.9489623630343099,-1.6709734462601675,0.337672418111321,-0.0772580220147242
533,8.063118580977326,1.2349277909695173,0,0,6.3646722616780105,-0.026777193631592425,-0.10992520364787893,-1.8225202855736526,0.1706426000875178,0.08182530870174635
534,9.184819375595483,1.2835213337468994,0,0,9.070033035984023,-0.9524694567072512,-2.091900729825544,-1.7200685184926068,0.048310670893358366,0.23564794789532031
535,10.461736769458946,1.3291766343205982,0,0,12.730980079746955,-1.4911069346629882,-1.289687868212104,-1.2646914070385158,-0.38391046042529703,0.08285356513988834
536,11.756174756565958,1.3694827094758264,0,0,15.913117397863525,-6.702919346186071,-1.772153281877844,-1.2142901490024205,-0.2622367911360202,-0.20702631785023676
537,12.933037674562133,1.402175281302579,0,0,14.137635463265314,-6.458370156566046,-2.7456060225242673,-0.06149693454424604,-0.17090161520593838,-0.03958687487218019
538,13.873321046902182,1.4247762263129402,0,0,12.969955740540234,0.21779399472619487,-0.9608783179053205,0.7666247916736209,-0.6060058939289542,-0.18254313555818802
539,14.484336997266988,1.4345511287431933,0,0,11.67262524883991,0.36273021609564743,1.063749194741548,-0.14227459445567597,-0.6251618499901339,-0.4276826551978621
540,14.706474621778812,1.4289298561897865,0,0,8.986816234133904,-0.7262470265860996,6.7070781185903465,-2.017554521351153,-0.16748712175185623,-0.610692373452705
541,14.517047238181732,1.406317717547095,0,0,10.24726320473093,-2.8124835758901097,11.795821166172995,-1.3835981589952204,0.061375082175703324,-1.2782956816384798
542,13.931840385417363,1.3670237579009248,0,0,12.671907271393549,-1.6487333431879205,6.983004753680455,0.9075059368426813,-0.0591662326739385,-1.5651941378961025
543,13.00450584315347,1.3139455633144,0,0,10.883041952073953,-2.5487438821120927,2.3651882829582136,1.34792601413116,-0.05035846167406666,-1.1677795445127357
544,11.823408737968062,1.2527068050423706,0,0,16.457618788542874,-2.370226324474569,2.899291263134853,1.553551805037126,-0.5278063410038178,-0.7248114638989196
545,10.505283120676001,1.1911033575989218,0,0,15.694967614032674,2.1333035812526706,1.1507682638976855,1.194254098117167,-0.17889282586491287,-0.37369641405827764
546,9.185221064883406,1.137912212934814,0,0,9.033234358285188,3.433042960886358,0.4563854545289745,0.8411655266711783,-0.0003831308163546759,-0.4253311321114427
547,8.003166656097346,1.1013034366168457,0,0,6.272760644317939,2.62953271410251,-0.08183708841265208,0.27467827836135034,0.0977964309023812,-0.3587336038740496
548,7.088125119701746,1.0872251033765992,0,0,3.8221674311883507,0.9036690029453578,0.6285427626809452,0.41240863343480627,-0.03857586753657113,0.06666552548616209
549,6.542325450029954,1.0981626169515768,0,0,2.3579690520212178,0.2025742075084909,0.583618553657761,0.4604610695645535,-0.09699022316415175,0.40621461417753246
550,6.428055033648207,1.1325878840990686,0,0,2.159876875515478,-1.4363172249011718,-0.3961395723992543,0.476229039184234,0.05366893877455414,0.43938819762289316
551,6.759553986430578,1.185232466976164,0,0,4.2266652244838125,-2.5251631415545126,0.7721176512991726,1.1372097983762326,0.19214193748025304,0.27493280840820306
552,7.501350455386777,1.2480971097473614,0,0,6.88536996343146,-2.4548040633776487,0.8047723883292374,1.8083271057513641,0.3900551949887965,0.13511267637173002
553,8.573105335900893,1.311914620136589,0,0,9.374973205994213,-2.2394924572013446,-1.0406037314301275,2.1040484718796764,0.4227188648215592,0.030639707399886317
554,9.85983258685229,1.3676775363695224,0,0,10.700639935794975,-0.18863100339992123,-3.2547690111336904,1.9309738024725138,0.061297382068047676,0.19877917675451992
555,11.225585774996716,1.4078701344248017,0,0,12.132815845493552,4.923673952799374,-3.3902895137067706,1.760451919825925,-0.2294957844896949,0.3975723397422488
556,12.5284706213988,1.4272019648495757,0,0,13.590969493670586,5.33633792631444,-2.0295080840784983,0.6257050581828545,-0.20222640653301377,0.27790289440279925
557,13.635093825532024,1.4228600520511345,0,0,13.96443207779679,1.0569729820751206,-1.6807120080401001,-0.6638042244385262,-0.40973102424713437,0.21641247471460823
558,14.43312929792489,1.3944731840154356,0,0,11.836950945930937,-0.3047060357676821,1.516011071722367,0.019583287483718525,-0.26507768810065896,0.18488168191545828
559,14.841345040467111,1.3440234790930268,0,0,7.999512596069629,1.7729077615792286,8.194519265479775,1.5783869398267285,-0.1443005884243453,0.47251621439010333
560,14.816891608318612,1.2758269547631749,0,0,12.032369621488078,4.13111709901406,9.297680633128671,1.468457499108351,-0.7298482404459231,1.036565248437163
561,14.359683290265533,1.1965099911542263,0,0,19.67912982215803,4.1375602839903936,8.824250105665262,-1.0566694015982272,0.07580615721370716,1.6750831976378682
562,13.513413797790395,1.1147640595331394,0,0,9.904254740297546,-1.6093053377116318,2.040603106092558,-1.3740690861659461,0.2673192248194322,1.2294520625016248
563,12.362582891305003,1.0406684055354853,0,0,12.66984670822241,-2.960182662480165,1.4397920229830459,-0.5646780363674104,-0.31987955209026697,0.4302148150301645
564,11.02519856339745,0.9845296128729843,0,0,15.051156980792802,-4.877194903618294,0.9126888340262443,-0.6606727761517918,0.09784183864514719,0.23747988434599823
565,9.641431691284698,0.95540356087916,0,0,8.39082447936406,-3.223363560287774,-1.2965968103409684,0.23918966386766194,0.25327901570757916,0.26557708617500314
566,8.359138915118345,0.9596221579174045,0,0,6.954591213734371,-0.8615172526929058,-1.1001314163355995,0.5096361292157657,0.2735596217900537,0.04411804540371481
567,7.317743337808633,0.9996779687323407,0,0,5.298325833073523,1.730244748491878,0.47930209910465876,-0.0012772997509301488,0.23512504213825802,-0.20100409878736045
568,6.632429676967477,1.073730198495647,0,0,3.9517093851162715,3.125942502088798,0.8895081430453502,-1.0711984589096843,0.02597092676412975,-0.37799390510776854
569,6.3807836825466335,1.1758334964069783,0,0,2.7575994424034924,2.3560359298093343,-0.8225186204600838,-1.0009581039248294,0.009543216449930742,-0.4297870715386507
570,6.593750408648084,1.296812162662177,0,0,3.506101775864462,0.9100786072537829,-0.38951292188628167,-1.4389624409093824,-0.007181679918552528,-0.3860492760809801
571,7.252168400167607,1.4255562846920908,0,0,5.947466908258537,-0.6337762739631416,0.027572479130053704,-2.010530534251877,0.26516654435212733,-0.1934300493704336
572,8.289297226860114,1.5504399834238622,0,0,8.71653990198154,0.45447443376495517,2.2466378317667144,-1.814194754377831,0.49495369081538954,0.016330361269482237
573,9.598834941059096,1.6605719297695287,0,0,9.512325997913093,1.0305733724405037,1.015522254383261,-2.202343168046742,0.19048035151325365,0.03919761525136846
574,11.047112115738326,1.746680754512637,0,0,10.396327889384045,-4.3675586781139755,-6.427022759626596,-2.0500535345062145,-0.22120732241706184,-0.058600460892717345
575,12.487651172159072,1.8015888654740384,0,0,12.033291148660078,-6.230613062682671,-5.072546383799317,-0.2870015737443245,-0.27824947039116404,-0.11819961085710752
576,13.77618651401204,1.8203869735538982,0,0,14.962633245198534,-1.7067209360388476,-2.9194822022548634,1.5053049319441605,-0.6376886792161931,-0.21809043154170585
577,14.784514688092173,1.8005139451157672,0,0,14.366457966942694,0.9148214924881674,0.5769506342343245,1.1446335623449966,-0.45552923069433554,-0.3942785103857748
578,15.412056853890434,1.741913517886583,0,0,10.688942794245428,-0.5034428197345416,6.648143701726462,-1.924196423780861,0.23074772138396693,-0.4641967032045928
579,15.59455573616701,1.6472962681029495,0,0,10.558656940567998,-4.461537506982375,12.465495869850768,-2.0363867491252567,0.3242143841567207,-1.124245331599842
580,15.309658937334596,1.5223747535759102,0,0,15.124334285064535,-1.973480770464751,7.7633416020550765,0.7847867183993903,0.02453755800305336,-1.5160542961911545
581,14.579183972829782,1.3758602840619694,0,0,12.651957097988179,-1.2203912741926988,2.21087797347531,1.3342966237306573,0.29588288733573526,-0.9298146776382934
582,13.467783938771982,1.2190458315163928,0,0,13.258589470697709,-2.2340390499674,4.7829844682288405,1.324926155815398,-0.40937625324967336,-0.5697714003426061
583,12.077745194427687,1.0649162551083646,0,0,18.38713394124895,2.321469362817072,0.3881652888932902,0.9097339131418074,-0.3912734872926946,-0.34138047742111993
584,10.539828772622991,0.9268635215038412,0,0,11.596612672136212,3.2230262700385737,0.044595104333142815,0.2361143790323344,0.29364198251303625,-0.37680002077107805
585,9.0004791342469,0.817194858867957,0,0,7.533180972747733,2.1108096107460845,-0.2653286209692614,-0.37799926395741057,0.45685194313904853,-0.4637966712646572
586,7.606446444358286,0.7456803479209962,0,0,4.56780084191179,0.8046251112297402,0.8734626912486051,0.021094301262726493,0.43979153464234744,-0.22615495861528034
587,6.488728345067801,0.7183834889125592,0,0,2.964271834839344,-0.4075558036626855,0.37964174182042654,0.4752516970016748,-0.029756674059044492,0.10890438222185068
588,5.748264060813123,0.7369638627715589,0,0,2.8947939841329258,-1.2043148919312998,0.24871515780634926,0.37991487970135773,0.04815867402240876,0.27945661082106477
589,5.445648533494347,0.7985580573972715,0,0,3.4915501742619974,-1.0991157526359387,-0.09188649876972313,0.5437610246883752,0.1265349542516259,0.2562846957719838
590,5.596334641932176,0.8962505956704641,0,0,4.493193501329474,-0.7208141965915368,-0.20873618389060622,0.7290111609957813,0.30551377474765196,0.09876311546782375
591,6.171697478507204,1.0200489547163152,0,0,5.325559168705808,-0.9628227101891079,-0.3524516366076419,1.0698342308788762,0.3156085820419578,0.022958884791095913
592,7.105283955562914,1.1581869523861703,0,0,8.193765012653097,-1.4808432162769025,0.33002685092402706,1.4621881774048417,0.2720764656058358,-0.03110631873293981
593,8.30276625191139,1.298517910070087,0,0,10.69809352446479,-2.214114050711979,-0.3378354544664173,1.8289095081274087,0.18781560414950182,0.10694415250104905
594,9.653660217997059,1.4297464928604813,0,0,11.238855278056825,0.5785042681814033,-2.979674236692536,2.093978880144857,-0.11963236990062007,0.3039298227099069
595,11.042826953186466,1.5423060283233718,0,0,11.989373951891219,4.028686469453836,-4.041702635442461,1.6927242785888452,-0.42057898757322565,0.31229245020022867
596,12.3601630534396,1.6288186255322523,0,0,13.455721639738245,3.283801539310826,-4.424963239320553,0.32533336232444254,-0.40715838211215755,0.3331865504938926
597,13.507609854369429,1.6842413707890878,0,0,13.886700458056778,0.5536417951197596,-0.7996331955127235,-0.9945326137599658,-0.6182014625362359,0.27660005835977536
598,14.403487819047994,1.7059213984312789,0,0,10.446385644347744,-0.8943620956934366,2.2493546813641228,-0.29076470098083324,-0.4390304847506662,0.22368125044041168
599,14.984949574541194,1.6937715977545114,0,0,6.640041436778925,0.8391856886379958,6.545994115011974,1.7868021631386901,-0.40893292745431487,0.43837372916987577
600,15.209746429014128,1.650620917030964,0,0,10.160443983790044,4.110342974864779,7.511514051541082,2.2582154124380582,-0.9548580553073359,1.1071828365595995
601,15.05825793546135,1.5825704758713661,0,0,19.33787368868403,5.360437271180819,8.975977252127562,-1.2749987857403577,-0.048949750825164395,1.7124968404267766
602,14.535910477800842,1.499034236274394,0,0,11.16896821508821,0.6109402768126589,3.580369335077088,-2.0051211931317843,0.2647331615629841,1.2746696209559085
603,13.675225402395649,1.412159905078346,0,0,13.045440949347878,-1.3486710805189956,2.0223719330063012,-1.5182903728947954,-0.48196900963669537,0.5286462774319539
604,12.536326552805864,1.3355098598632777,0,0,18.53431025179377,-3.9642939238675834,0.8018334454590312,-1.3739426143689675,-0.19724379486901944,0.28211638679364653
605,11.204869269231594,1.2821447076925838,0,0,11.696506371422126,-3.26011886388554,-0.9027760867137804,-0.09649816039475083,0.22199351102956816,0.33164047502438065
606,9.786799468118325,1.262484284690722,0,0,9.247389716723207,-1.079944348715186,-0.017828721592498417,0.38362367952143295,0.440464018894488,0.12492942771452002
607,8.400001690018335,1.282437433670309,0,0,7.216183432055814,1.1322123085545488,0.7167814505379253,-0.0337756566662633,0.36148107613391733,-0.08736857752547314
608,7.163657120291432,1.3422502520544193,0,0,5.9156504068527695,1.3747500089920883,1.364193242512641,-1.2507011930227299,0.20357219491394354,-0.27019848286104814
609,6.1867219343752335,1.4363397443965589,0,0,4.5005188420662945,1.0388893501592238,-0.5191310172385446,-1.5697820528946556,0.14034660265486454,-0.39284715772985757
610,5.557105493087747,1.5541332254287354,0,0,4.539155299782653,1.451406914833393,-1.067133812801476,-1.6726724496519807,0.1087130094081944,-0.36675804545786056
611,5.332910475701345,1.6817225724127152,0,0,4.782181675378401,0.7896331116125611,-1.4252815699792485,-1.5975182070496405,0.16319908417883416,-0.30284442090836683
612,5.5366896672481465,1.804028041798718,0,0,4.5065599100240386,0.8288467851350164,-1.2558759683590313,-1.5637016912176374,0.14143286101624253,-0.20844017679213203
613,6.153243102594794,1.9071398889799343,0,0,4.77895002178512,0.8955113287777655,-1.3526895635983656,-1.9415965141171716,0.05850864631123729,-0.10665451540011515
614,7.131100580267764,1.9805135822528646,0,0,5.894505772456163,1.1562071113953345,-1.9278182642792094,-2.2081749257472505,-0.0024721727196797697,-0.0335710120465143
615,8.387501086368973,2.018696338957594,0,0,8.527043040927953,2.1399876886561255,0.050155749349036306,-2.849235632396235,0.12436038848773368,0.031380673032594605
616,9.816356295966434,2.022270332987321,0,0,9.379876114097936,0.29845684270987366,-0.6447368174475068,-3.2625800010247645,0.11244186708207835,0.15159495100088427
617,11.298379392575145,1.9977636915061951,0,0,9.06169564223337,-4.58934525965637,-4.43399396217032,-2.9314206242892187,-0.1465996413713224,0.19059207316983204
618,12.712325097306064,1.9564553734697914,0,0,11.376847502794451,-5.874064520994273,-4.298483620761759,-0.8473448747599952,-0.36678228158134474,0.09966655984977149
619,13.946155658111413,1.9122758701235874,0,0,15.479237458747287,-5.2891156585008074,-4.94457025789981,0.8541751236525202,-0.2892992529189314,5.643195259160702e-05
620,14.906938561037462,1.8792796121771962,0,0,12.827504552498345,-1.4567478459516472,-2.628092079983238,1.768711031803301,-0.1909389656744303,-0.197029920329453
621,15.528426695462802,1.8692928066450036,0,0,13.145616450704551,-0.6514067237806285,4.736873633875253,-0.07098311670007681,-0.11774884692749282,-0.3020130720643005
622,15.775548738714528,1.8902542765671566,0,0,17.82373796558829,-9.168203673736464,13.458819746527077,0.09554671867847038,1.0429480167612277,-1.043751920696388
623,15.645362065484901,1.9455191314237505,0,0,14.358658663861593,-5.936120878476669,9.809826068840096,2.482378548198719,1.120054214442262,-1.429117808716022
624,15.164438605043133,2.0340948623356754,0,0,7.788878709195147,0.3302864346992565,4.312535124683313,2.086867039511575,-0.040732162735195705,-0.7667337557919192
625,14.383319705064928,2.1515378313602316,0,0,9.459208562123914,2.042788916894407,0.8689730592954862,2.2696082148526466,-0.8032134057368826,-0.4501972037565364
626,13.369408816570857,2.291141100101637,0,0,13.566930354699386,2.553270966065912,2.2006126441580114,2.4113459005892075,-0.5265296460654497,-0.48280613653730947
627,12.199901433453114,2.4451009549132072,0,0,13.868594169102908,1.8220930456761317,0.6939471720757466,2.5506747127710767,-0.10479408772365038,-0.485315501856239
628,10.955834562766773,2.605483827196372,0,0,10.574964861744562,-0.2705833822422737,1.110066979334249,2.4045623697189225,0.08526470298865453,-0.22661814630301239
629,9.71754280092284,2.764943827122803,0,0,8.587409425386957,-3.0915088053328934,1.4130886454003242,2.4706150115587158,-0.08838682254981774,0.06618262793268476
630,8.561324188584404,2.9172237424721668,0,0,6.853603574275062,-3.874857731911939,0.7448634226755144,2.7744945051169116,-0.20731822714394516,0.26142038116365196
631,7.557023912228805,3.0574980914588266,0,0,6.86356677313902,-2.75095237293398,-0.04335757632757749,3.175796851093708,-0.24097186598881865,0.3382804258120269
632,6.766254770763638,3.182592070377315,0,0,7.148898001801668,-1.2567962690547785,-0.8152439810983555,3.4493330309178094,-0.11062997218370435,0.3584754780311078
633,6.240909232786746,3.291066583291834,0,0,7.283973362746409,-0.019110070659042532,-1.0832136291213965,3.4999553965719747,-0.019576494135193415,0.367788998282793
634,6.02152954088046,3.383140520900154,0,0,7.00231259427146,0.4196682177723497,-1.8989375849779915,3.28067069074207,0.00022555306028783714,0.3829765493737503
635,6.1351208152695555,3.460448287606769,0,0,6.833874875700398,-0.6211518686480847,-2.5875887317939315,3.146438707837158,0.027230795321696918,0.3471284415928623
636,6.592192634064366,3.525683858491678,0,0,7.184003445424795,-0.3789695410211688,-2.075238202107943,3.4441370244850624,0.19881245348857896,0.28450094535155335
637,7.383179953089303,3.582220043430649,0,0,6.5752851863321915,-1.4876804697814172,-0.749622958207102,3.294479469722343,0.10536412920252851,0.3903734946512545
638,8.47483381884581,3.633783979875229,0,0,6.680249056794329,-4.0025191515912,-3.5815903226638324,3.3819258448421574,-0.13444307794734173,0.5611222211474175
639,9.807562218519605,3.6842201365859957,0,0,6.957048352024569,-2.950676712789411,-4.515441864791011,4.158243500347701,-0.021508357953104452,0.5255238654974094
640,11.29493289403192,3.7373073812219504,0,0,7.481818355380031,-1.2621442875781212,-2.696431105094661,4.277304812392452,0.08235068850807416,0.4965876466405231
641,12.826549104358412,3.796555184455507,0,0,7.834163682301733,-1.1697721904228637,-2.187248508066979,3.3742207725751303,0.01807905240867777,0.5604938744194853
642,14.275195091184747,3.8649177568063267,0,0,9.690999378943717,-0.3055078943454657,-2.0556094519275785,3.4514496047590013,0.11881951858132513,0.7037320850798413
643,15.508410678237254,3.944426732170561,0,0,12.988621949168156,4.892053243159868,-0.5732445787372601,4.517757588004345,0.249409801532717,0.815698261692568
644,16.403483394699453,4.035805171844716,0,0,22.94879086959578,10.584289361253203,6.982594009560248,4.219117291189894,0.8252240315964646,1.0963409650833034
645,16.86355274195452,4.138158522130421,0,0,20.498677356270186,5.9457711713550445,6.585707284810267,1.8979341125208968,1.0976047495115375,1.3317652297197582
646,16.831756127036915,4.248854817665103,0,0,12.05178672068384,-7.459179189239681,-4.1246047361486236,3.3905594165364272,0.5039029513655243,1.1712392753590286
647,16.300648330387254,4.363698936928631,0,0,14.811845796594522,0.9698581826857228,5.875575411058869,5.395172037539602,0.39140655034415833,1.055982248552746
648,15.315323118855632,4.477428364429654,0,0,17.673812099899603,1.6755467137062328,0.9109519360598798,4.023446479155919,0.04295933773811901,0.9840941101394665
649,13.969971622470258,4.584421690162727,0,0,15.851064194487249,3.8434747554778186,-2.39475363512353,4.93179886359532,0.19484920674785064,0.7441217311497279
650,12.398469588464776,4.679410314207938,0,0,10.611373426467715,4.947527638938923,-3.2344142899013506,4.843783748103252,-0.26523740146166497,0.6693915897264427
651,10.760105060991483,4.757983387080451,0,0,8.836186133091237,3.776123162207782,-3.1284626463808354,4.999152639278121,-0.3511525565051142,0.7116011897250383
652,9.222042805827268,4.8167506508545905,0,0,6.942230741330222,3.4460890580445036,-2.1948461858241393,4.906850058704818,-0.2576899606699813,0.7827713558502541
653,7.940560846158361,4.853128517770494,0,0,5.409287247657161,3.6119178985973788,-1.644415295505365,4.94980931000673,-0.1666831979388978,0.8808486716462044
654,7.0432822071598205,4.864819877680555,0,0,4.648574007192394,3.5263019055510036,-0.8800859582592822,4.670784355202981,-0.11781540615962822,0.9282416611511013
655,6.614484526248756,4.84915621735057,0,0,5.165451121239037,2.1825531383324344,-0.3583871466598216,4.336154056055949,-0.04990796723248364,0.9212588090863316
656,6.685196519682321,4.802541327575234,0,0,5.088990921235003,1.4616893357474088,-0.22709725360065225,4.120507206694304,-0.03589450405914946,0.887732528233042
657,7.229308555355449,4.720252157326336,0,0,4.6171402693791626,1.070165733982576,-0.8121749157845426,3.998164913754863,-0.09229161653711454,0.7504796494704187
658,8.166390372350177,4.596790362715367,0,0,4.49541868243552,0.2366177788168524,0.4076282792326877,4.1815947491126035,0.01638832099197277,0.7473652391813426
659,9.371286223430918,4.4268342231536,0,0,6.271883655383465,-1.3656058374711977,2.5066840952910345,4.4509274523737,0.26921586432862965,0.8559230939431168
660,10.689762550073072,4.206646874709745,0,0,9.426260627084025,-2.699112145803637,3.6305220924070793,4.581664903638676,0.5644516942472545,0.9869721588721881
661,11.958503883522049,3.935617240345977,0,0,13.686434980349867,-2.6772744460168196,2.70884432558825,4.316231043223833,0.7045513855813688,1.1724209186388073
662,13.02676618551458,3.6175146082713447,0,0,16.619113524778417,0.0024747732367915065,-0.17739358560111398,4.231258197902764,0.8662819755925399,1.1457373842403717
663,13.776342207500276,3.2610692748597567,0,0,18.733952404557503,5.1089781688849145,-2.2083156337945478,3.7724633243878274,0.7270334965861481,0.9898214063102748
664,14.136495029226948,2.879648075233948,0,0,19.420260330765416,6.477277289217138,-1.6914436538365099,2.493387118725448,0.3776714147668788,0.8603637757306446
665,14.091318540773576,2.490030379804049,0,0,13.810717628953002,2.337326826382791,-4.339561399366615,1.759859487404751,-0.20650074569146554,0.4597800816054214
666,13.678478865184939,2.1105278116094417,0,0,11.397114011114997,-1.2909382157742495,-4.011261517286865,1.6762199463154992,-0.40671710449796133,0.07845628246426553
667,12.980086066007706,1.758838496123875,0,0,10.685768837602014,-0.6862819266846665,-1.7292072892091321,1.5674617073637218,-0.28648917137459495,-0.043940162256576036
668,12.107952579808801,1.4500345758737878,0,0,9.499012462549661,1.8379637883880056,0.4275186648834915,1.3816676601593292,-0.09301514527040207,-0.12850646039715527
669,11.186239500661486,1.1949804424474044,0,0,8.35043022300184,3.6847472302943243,1.7184164539121223,1.029458491630962,0.036097154376028985,-0.21335221587636266
670,10.334404236480712,0.9993466880480537,0,0,7.599618467511652,3.823349907679721,1.6458778864129766,0.7701501701628812,0.119269192496262,-0.249474619555977
671,9.652723175139005,0.8632772623424234,0,0,8.322914872089093,2.49990078588536,1.341394917692851,0.7719991890310501,0.09553894573222188,-0.29823609104105353
672,9.21181944595126,0.7816920132604837,0,0,8.886725984391996,0.7400552984461415,1.0150621770528,0.7083128016431427,0.11699121831029363,-0.28877104961045996
673,9.046819367462964,0.7451492899217961,0,0,8.424052726627428,-0.40903821670146934,1.4361925368713555,0.6124204995484223,0.17665267350928987,-0.22975264690288738
674,9.15611452747165,0.7411468494941523,0,0,8.690606684754085,0.01233752149344772,0.5619181483926533,0.7077400622764038,0.1940875043883209,-0.18349855021529682
675,9.504252838300545,0.7557058919436445,0,0,9.694647056438916,0.8974669967307736,0.6094371475045547,0.7334064589600879,0.2952662147511093,-0.15389154282545944
676,10.028189922741396,0.7750630463200995,0,0,10.519420543176428,0.9639324333238468,1.0295580248370986,0.7287574132249416,0.39726573383453245,-0.15033252444720013
677,10.645956458776967,0.7872869599789752,0,0,10.716109908525777,0.5873785894221115,0.6796909738387557,0.8360965828082748,0.38917986939447086,-0.17936663361758998
678,11.266722122675652,0.7836409352345458,0,0,11.202184115288201,0.1858122953569651,-0.33243056483532,0.879439399735791,0.3106613172838811,-0.20322015236649904
679,11.801257161028758,0.7595339929103432,0,0,12.076844221080348,0.3143817801624663,-0.6818236644400525,0.7392324264531112,0.41959684592421365,-0.2365846245508338
680,12.171872583073414,0.7149412180907285,0,0,12.62779486345353,0.2448602462084217,0.5623439474499433,0.6728091768066501,0.5794394088548902,-0.18508257920884727
681,12.32101192193145,0.6542282654754159,0,0,12.57746708425694,0.6571742341252383,0.4515120214768533,0.8059788951258031,0.5546022118679902,0.01784930325117894
682,12.217758782566317,0.5853813294628459,0,0,12.067658977868975,1.533837175186588,0.4837028051806958,0.7454331243288055,0.2535004775154238,0.13908549647796026
683,11.861629965738548,0.5187216980971873,0,0,12.104445309227282,2.7293061259949507,1.8157628290531038,0.2678202285440549,0.06396914885744742,0.15915280155085662
684,11.283152226637785,0.4652694388911711,0,0,13.96147617842245,3.1622040039789012,4.228732817900876,0.1991034905113753,-0.09907181411112764,0.08746059693169658
685,10.540901137098352,0.43499556491929064,0,0,13.041327954953,1.217201884149986,3.6800511162451253,0.040740849375502146,-0.08607260839264205,0.0638016578368141
686,9.715016495621759,0.43523593385611264,0,0,8.393264117028894,-0.8067058376484616,1.212062095368655,-0.1774140312775441,-0.12100017337108675,0.06593222595091731
687,8.897795184493491,0.4695141201109982,0,0,5.795918201598031,-0.06712819993486895,1.7091018360240575,0.10552841333550027,-0.25546092541982524,0.02365230517611937
688,8.182675944744213,0.5369435730614853,0,0,4.819757517313495,-0.22620493820167564,2.185075271457394,0.23774063708650597,-0.23489310553234125,0.03647364578795068
689,7.65339568763006,0.6322785594266721,0,0,4.928016149251984,-1.2474073466521436,2.0114313106818114,0.5673181205254095,-0.14951712998489522,0.10827890734171942
690,7.374986920858474,0.7465834531369935,0,0,6.81058795456744,-0.8489939439041154,3.093090965359158,0.780447006814889,-0.11173923569044421,0.25588685258218463
691,7.38763495610978,0.8684059436316871,0,0,8.41387977575946,-0.7794329839240465,3.071019148243256,0.6884884044908773,0.06449052705991837,0.34505992037114785
692,7.703587052731712,0.9852801635326176,0,0,8.372953274294357,-0.7432711476226632,2.9347711028820958,0.9029955177665888,0.11015234764911817,0.3293284076341393
693,8.306714148767103,1.085352272751132,0,0,8.348853384694273,-0.4158751563112606,3.39750927358182,1.2699375033454587,0.17039796997072026,0.37359631628341045
694,9.154170445949747,1.1589084689931974,0,0,7.448221340319393,0.24606782266875551,2.9262750678036364,1.3232596590983854,0.21977365281003966,0.5619010685012373
695,10.179788768448066,1.1995920357793939,0,0,8.304322091574516,0.7953450557811746,0.4210728514142546,1.2744401967186558,0.2585526004730444,0.786238006773017
696,11.299112342503427,1.2051315337045951,0,0,9.96676931142263,1.2402442326299168,-0.9725216524134439,1.0332997636627421,0.3583824230969995,0.9297372198836252
697,12.41602763509532,1.1774756345412758,0,0,12.324295684734516,1.6556537959915958,-2.767099629154202,0.9175332955356362,0.2500465418016657,0.8658322143976128
698,13.430743325967658,1.1223329044887864,0,0,15.166365585710224,2.2178218674706685,-1.7445781149581086,0.679703670277834,0.18412493477110062,0.7832309051284576
699,14.24850481419991,1.0482215039211138,0,0,14.811127996094722,1.7607130472122294,-1.2812313586403412,0.32992124391695027,0.15628285136117548,0.7134329485531654
700,14.7882005459952,0.9652148126224764,0,0,14.172178267888576,0.008860907488203028,-0.855395502493167,0.176312730779271,-0.2744407646325741,0.6369445136584271
701,14.990056343058285,0.8836024311473653,0,0,14.718463561705725,0.6981691356309816,-3.5487159829807715,-0.007957870148595699,-0.49487945513604154,0.42954973951462844
702,14.821846473662989,0.8126650980480595,0,0,13.965807406699252,0.11800211909076048,-1.190397140888897,-0.7617934449722479,-0.6018435087538997,0.019732645010392305
703,14.283263000646416,0.7597009105647642,0,0,10.31644016850526,-2.4804566723065338,0.5028584909297259,0.3521336298017786,-0.8286020980962008,-0.22348760549098265
704,13.40811599837337,0.7293712523346875,0,0,13.796171437989907,1.4310725843377852,10.281869898956776,0.11401853096653845,-0.49540784017950285,-0.11189325538063524
705,12.26387123343221,0.7233896067791793,0,0,14.690228479026953,4.892298587052441,11.404080058115474,-0.32812836471625184,0.08436037699861292,-0.03827667379683414
706,10.947860429513591,0.7405582965628789,0,0,6.0954883400603945,4.427309339998265,6.905420703717833,-0.6208295572696708,-0.06295137145899843,-0.05516023147779283
707,9.579679501204625,0.7771389713216441,0,0,7.157900656941722,-0.4796614410658887,3.1259474720678675,-1.0846268070978946,-0.3348467090498462,0.1304613527961264
708,8.289990799554454,0.8274997237932344,0,0,8.237860374841325,-0.5906044886846891,3.5328577012355367,-0.8365202704012511,-0.07217766173076742,0.26593213082030126
709,7.206841678563327,0.8849320085923692,0,0,7.376389868387929,-0.037138455132871895,2.6423655376760453,-0.9565905242391795,0.06007737011683377,0.2620266787996498
710,6.441211310005547,0.9425113413179894,0,0,4.722685326805059,-0.7317561997511541,1.9671539281915547,-0.8934431211725598,0.16353621568599808,0.1334199181113888
711,6.073677303634768,0.9938981162836739,0,0,2.687841082896078,-1.944079976330735,1.4674007261655584,-0.9250077017190014,0.09001251398857439,0.10120843924988927
712,6.144035134994822,1.0340144183022508,0,0,2.637499990260911,-1.4014787686920984,1.4197878668444752,-0.9141205049925333,0.09943839934179126,0.06636764583444676
713,6.645475514895038,1.0595602001516005,0,0,3.83570139457701,-0.4674401888485968,2.015304950097397,-1.1300713329451681,0.03232893718893914,0.05231106540630309
714,7.524423540427078,1.0693373963929769,0,0,5.14224492696976,-0.28309840047906737,2.328752345404621,-1.226108655761785,0.01698803488494675,0.02981394975750604
715,8.686336987483157,1.064342617833296,0,0,7.447287600502006,0.3312172665523852,2.3280137925136732,-1.2065888660199966,-0.08960815841018772,-0.028152049141844878
716,10.006793278244745,1.0475872031013609,0,0,10.676330732249259,0.06827357422490322,3.083479035444404,-1.2771706254801356,0.13153376416380805,-0.06353351209287139
717,11.34629040727319,1.0236242529152468,0,0,13.179013801537621,-0.9682651294391484,1.055006411185094,-1.072694418057153,0.059602049555071444,-0.14748609988634867
718,12.56655882415799,0.9978092434551116,0,0,16.19427616603941,-2.9732047512053557,-1.5699542927970522,-0.9817341243148665,-0.11801416846556095,-0.36133626089352483
719,13.545995249391687,0.9753829218515884,0,0,15.024110704619266,-4.384571210020247,-0.14134034557749175,-0.6086108041902621,-0.17563922592208367,-0.5597492538298783
720,14.19216263963927,0.9605236121667418,0,0,13.553885006886139,-4.469943972796314,-1.8903536327507031,-0.3761382277288582,-0.30800664208893785,-0.48247079428577183
721,14.450064161790339,0.9555507867349521,0,0,13.017447427005374,-0.21525671748613628,-0.0764530969976892,0.006837249893828288,-0.4481257741072611,-0.2920117937036729
722,14.305807811226405,0.9604560394298836,0,0,12.902559658028023,2.6888939277536066,-0.9256518512859678,-0.08401251640279403,-0.7655111429401881,-0.3024571324633892
723,13.785970677869635,0.9728837428348461,0,0,12.849293349514879,0.04866587487372491,7.060701375098155,-0.46816423040523863,-0.5136429932798933,-0.4185221794022597
724,12.95325668798747,0.9885907867845635,0,0,12.897367411401117,-3.6048588690718906,13.851316284459918,0.037148104989008335,-0.3745031930937488,-0.8220864234342687
725,11.89906918197106,1.0023085770937485,0,0,7.324189436615455,-5.181352771680896,4.10745656552496,0.6043595904182278,-0.06353607099174054,-0.9157319233750787
726,10.733745178714825,1.0088394668301126,0,0,1.2182706037134723,-0.7631605891616198,2.4943507283972144,1.0327172821537507,0.03549612145979858,-0.8266038172262182
727,9.575540727865487,1.0041637028346306,0,0,6.68292627851086,-0.4064246602177745,3.128259065001775,0.7944257690149766,-0.202838898956367,-1.1355713117056605
728,8.539641084600174,0.9863249715003589,0,0,15.192760079528696,1.3366809028477018,4.024652898807126,0.944644357120871,0.014059512256310124,-0.9810226821022581
729,7.728094556762131,0.955911433134708,0,0,10.584907881577843,3.969609712045951,2.009205179274209,0.7743207710348653,0.3378736659281999,-0.6146284711523977
730,7.220914500699954,0.916048862613997,0,0,4.294070377189149,1.2895160797014278,1.6721339401007609,0.6414788591836702,0.1952536290900316,-0.27312914641717995
731,7.068401058328861,0.8719434555781655,0,0,4.687111645222041,-0.14553398936234735,0.47172824499436655,0.6184336033154827,0.05213223699292176,0.07375423368015248
732,7.285218001642268,0.8301091033075675,0,0,5.847995740854893,-0.5618906593524209,0.5118711259091875,0.6484195638668688,0.0295782463180935,0.1822939135693815
733,7.84733256481317,0.7974525494048392,0,0,5.966247724988057,0.03125541482911142,-0.6370988824158655,0.748641049095144,-0.00016002820680608118,0.1494296938907306
734,8.692975510861823,0.7803673707722742,0,0,5.426075964213171,0.25352045233054926,0.5934442331223473,0.8839706072225308,0.06918768786764594,0.11896212606990303
735,9.728256317212253,0.7839337431714772,0,0,7.448551481246988,-0.34084528409050124,1.4152337526627263,0.8909275327564301,-0.09072914512077498,0.20436314534871627
736,10.837244044620931,0.8112738431803833,0,0,11.300605414205782,-2.01030328702421,2.1724690005165015,0.5351004609179598,-0.09785012186296015,0.27306881898371294
737,11.895414097216124,0.8630938423373556,0,0,15.357546791616787,-0.15245854474249973,-0.5503378632461976,0.9151615138174752,-0.14134959181052517,0.417283929791821
738,12.78456518803659,0.9374477633684127,0,0,15.733804468768938,5.558142037034225,-2.124674228195661,0.6390292308833093,-0.0803932300569126,0.3897955819742499
739,13.406928022339619,1.0297665288672713,0,0,13.756019036377507,2.3997882233989314,0.37378836028269197,-0.5260659938229,-0.5008535597957487,0.34122326449250334
740,13.696439665655426,1.1331910765949387,0,0,12.681107983067427,-2.2866542815640183,0.3095640008941822,-0.13409225962457402,-0.8159938349676374,0.3712630202376789
741,13.62592388323982,1.2392229141421316,0,0,9.131860163374963,1.0690054619340459,8.452165868133905,0.9724648377483768,-0.6136876869461044,0.4251225040330071
742,13.209759214350019,1.338656000565409,0,0,7.6671982114179755,4.292970147442798,9.536266436187063,0.408477726282579,-0.7641048401986246,0.7673422482861452
