id,ASVM,GSVM,walking_nonwalking,normal_abnormal,ax,ay,az,gx,gy,gz
1,7.390673797329099,0.021797748336446467,1,0,7.13865285012635,0.5341855617001806,1.8353553829222946,0.008087710162120437,0.020226674557097427,0.002139186493839509
2,7.982871697040959,0.03085403797262927,1,0,10.16960189702135,0.7322713892082315,2.5455078324667375,0.007495233225030644,0.021693762388648025,0.0020145878523536347
3,8.541361416485099,0.03937332328829933,1,0,9.170953416143613,0.6092318389860614,2.249266777532345,0.006783896090831685,0.03664274976989636,0.0020175826870511707
4,9.036788360942056,0.04685877473031157,1,0,9.70726761294967,0.6592743103205638,2.4360081735161065,0.003140490285239968,0.0539508929507838,-0.001160288159248853
5,9.447504054504572,0.05291242517445227,1,0,9.396585522456384,0.663522145240239,2.35175763838241,0.0033816498083874837,0.06012479279921755,-0.0005388472905622726
6,9.761498107950356,0.057270650671110715,1,0,9.566587939753571,0.6895199206658109,2.368293300784324,0.015658729222103613,0.07224282246606367,0.0010854196116128407
7,9.976711176439563,0.05982292153112455,1,0,9.414932789028487,0.679123516952456,2.4283503011724803,0.01583366965361092,0.07406629748594516,0.0010060985788133022
8,10.099943784094071,0.06061057142145154,1,0,9.494368406457422,0.6802411478424626,2.4870368943534804,0.00226730974269413,0.05980224835573274,-7.721312963024413e-05
9,10.144782198158662,0.059806112422367365,1,0,9.45515863082481,0.6931852553777018,2.482386859203763,0.0026841088622262576,0.04822984975656895,0.0023189193378889235
10,10.129027991352068,0.05767803140976618,1,0,9.457946848336192,0.6716857119907895,2.5176113637298365,0.0024845748807427364,0.03964575382427291,-0.0029976187855253016
11,10.072082119809112,0.054549145213361364,1,0,9.464246520645935,0.6282993631901568,2.4798974831308587,0.005282931998694597,0.04440753416458378,-0.003611155441148524
12,9.99263729265815,0.05075686221947084,1,0,9.47763179857664,0.6184976001418612,2.5021712897193717,0.010526331274059655,0.051412705160668405,-0.003903633239414981
13,9.906908207729705,0.04662105580753531,1,0,9.462760351701974,0.6398062768739506,2.515176942710359,0.010400892668423612,0.05140811495993174,-0.005169982976969178
14,9.827504278782111,0.04242139575264268,1,0,9.441927537620538,0.6723022093213961,2.4833193718795736,0.008218359091704127,0.0493977555640098,0.00019979620142021866
15,9.762942314610472,0.03838308264250132,1,0,9.429890424788526,0.6943393913909758,2.5269396627200966,0.009014820651238764,0.034186201224718826,0.001719161500231747
16,9.717717476328481,0.03466909758480296,1,0,9.429002753207278,0.6564780740166362,2.4728931474631906,0.005035600478223179,0.031661343593009435,0.00040112281463684226
17,9.692802191816783,0.03137782844061003,1,0,9.408139895143524,0.6638687964962594,2.5208344572043324,0.008090206042961895,0.027986451386345992,0.001855314818634975
18,9.686421716289495,0.02854593586940206,1,0,9.420579808392892,0.6464264279229536,2.5340884554474763,0.0019275102284068161,0.023994084227481595,-0.0027222373940066547
19,9.6949564119448,0.02615659371862296,1,0,9.432355664167758,0.6236868787030942,2.5086588990235077,0.0009942874979595,0.02729826320281779,-0.002176894461081195
20,9.7138386359912,0.02415268304441986,1,0,9.461850947541391,0.6356424013071614,2.5459186069323465,0.007503230704764758,0.024707631251970782,-0.00047693244871041605
21,9.738340922920612,0.022453627936353773,1,0,9.444381083287803,0.663078623291611,2.5400693574223805,0.00795218124565463,0.02188004860995346,-0.0011485961790433518
22,9.764187406529533,0.02097387622017314,1,0,9.432562566587414,0.6766903693697494,2.527943520099706,0.006344613679548058,0.019946616803832803,0.00022536981149411242
23,9.787957792535297,0.019640812821346235,1,0,9.429976043384352,0.6597379871828615,2.5518354442248965,0.008788117636730503,0.017218201967943825,0.00046066230092366357
24,9.807287461661849,0.018410048570130882,1,0,9.415625721010757,0.6315888325454603,2.522678231662408,0.01141932090013442,0.011981506931326645,-0.0018892270682391017
25,9.820893055621585,0.017276256177530806,1,0,9.458165756620367,0.6077115910047655,2.491433578164819,0.016063564758132035,0.01315739551850289,-0.002906559537921634
26,9.82846685423209,0.016277850290302452,1,0,9.472255272030436,0.6582557436183847,2.534065670203404,0.01988446900639052,0.017805837492967738,-0.0005958579897679681
27,9.830485965841907,0.01549400488481864,1,0,9.46174439988427,0.6722203423695177,2.574108058847427,0.016596384087294264,0.0171281490044374,0.00016996636908565165
28,9.827977955553063,0.015033259082551459,1,0,9.417913720265862,0.7010596789531807,2.5805614512202215,0.010490387564896902,0.009471052083483448,0.0008978461487561765
29,9.822277959145989,0.01501463107596179,1,0,9.433617429767962,0.671378750326,2.5784333671233592,0.002407148440607646,0.001682856140273714,-0.002361634806604629
30,9.814805937119177,0.015544316476876147,1,0,9.42252118843801,0.6192738502092031,2.5862905528313167,0.0008315044674225547,-0.006171696504240921,-0.0037486153597952893
31,9.806885756732996,0.016692500856317804,1,0,9.416435054508991,0.6026894836213882,2.5815346299465616,0.006314909006878524,-0.016581866867384696,-0.0028492776379120503
32,9.79961907031277,0.018474608443811116,1,0,9.418335687497096,0.6266736862154156,2.5706688198713046,0.009582502630086993,-0.022273344055507086,-0.004859718129981454
33,9.793816925459131,0.020839742642807534,1,0,9.455109904804157,0.6415556169074543,2.5467008258255612,0.011845289965443477,-0.01546171718872921,-0.005229555006125854
34,9.789982355986208,0.023667460085000647,1,0,9.454298639948057,0.6479398747296596,2.5371688395048535,0.012881631636593633,-0.01262578681071897,-0.001496458251532103
35,9.788329962329486,0.02677330132664962,1,0,9.444444226894085,0.6620245018903625,2.5614152682505136,0.009490560574857101,-0.0146990664288143,-0.00020766789190359737
36,9.788825721846685,0.029923347892456785,1,0,9.445015863321222,0.64965754293368,2.581599248023234,0.005102107434807073,-0.022670478147396627,0.0021046695201800566
37,9.791232731272087,0.03285744381221339,1,0,9.431306799680986,0.6506165177396237,2.578668647396011,-0.0006766923144386302,-0.03537091937432872,-0.0007607648427549873
38,9.795154926671458,0.035319099556721766,1,0,9.401449873890515,0.6238011349318726,2.5519965446681536,0.002695328163337156,-0.045161459617376686,-0.0035380462669414095
39,9.80007817134358,0.037088099459638535,1,0,9.425844377693474,0.6257602463556579,2.574216178735017,0.0042481778736541045,-0.044389692236219705,-0.0034229548402158537
40,9.805413199441029,0.03801068784280167,1,0,9.426753800355652,0.6493969789745598,2.542639566912615,0.00363972239682661,-0.0354397472611641,-0.004962786351533272
41,9.810545491713349,0.03802266437624086,1,0,9.444182202313279,0.6806698206136682,2.5361014370689414,-0.002571022761129758,-0.033503864044946895,-0.004040845340133526
42,9.814893344279309,0.03716233296207876,1,0,9.475591517526766,0.6628349787509257,2.5214375802067956,-0.013516035684872368,-0.036007045526815086,-0.0059691459844108
43,9.817969548938926,0.03557182515303323,1,0,9.479897404974077,0.6317295640353593,2.4776011840429932,-0.013245692720496612,-0.04199931892266182,-0.010493059113275438
44,9.819437175036581,0.03348616387571778,1,0,9.537273225664022,0.62301751809901,2.464225699172611,-0.003717553863859386,-0.03979988803669748,-0.01383847398405728
45,9.819148092787062,0.031210018023322905,1,0,9.494061022150737,0.6359497830573451,2.4813613380074693,-0.0020494311064298957,-0.03128230841959155,-0.013350850007692417
46,9.817155220806127,0.029083361706924514,1,0,9.463065134493338,0.6308828891339944,2.4987365638180585,-0.0009611311962197079,-0.03202498213719193,-0.009717241988155434
47,9.813695656800009,0.027439447207773027,1,0,9.466846490457439,0.6208000203323152,2.4537761044417064,0.0013540384138987682,-0.01598202926873904,-0.00948879846104205
48,9.80914936060125,0.026560907879569478,1,0,9.45321938763988,0.6657966728750131,2.501543190148985,-0.004115830766845741,-0.008902598118502901,-0.007490229758169159
49,9.80398328639463,0.026641306486957585,1,0,9.482255242023946,0.6604432750448697,2.44851047457899,-0.005038387986627595,-0.01906732852648055,-0.00387599727338845
50,9.79869198025846,0.02775916646994031,1,0,9.458164647059633,0.6434553835514076,2.418997034402991,0.010199703893364847,-0.015280803872387108,0.00014956602963674023
51,9.793743949405592,0.029869295409042467,1,0,9.446965898613898,0.6339765593271653,2.446700777287618,0.010445480823700294,-0.02084755215868461,-0.0006578194615860427
52,9.7895407187383,0.03281267646213241,1,0,9.434882494263928,0.6220997206567811,2.4488547397574223,-4.2296304535654415e-05,-0.03271992004409144,-0.0014071454800330617
53,9.786392837903257,0.03634240542916988,1,0,9.453806538408134,0.628986785044367,2.462321071473192,-0.005859250203129305,-0.04153353508647669,-0.005857306762907133
54,9.784513366114124,0.040160001012250895,1,0,9.47282014372182,0.6213547982868892,2.4580536872496084,-0.007540670529709235,-0.04974353616635425,-0.010112122070171606
55,9.784024836622931,0.043954620562665844,1,0,9.464727714719386,0.6413564910360989,2.4278593169177793,-0.0042240152085938325,-0.05419490768970914,-0.010793425671771464
56,9.784972462176592,0.04743779905647164,1,0,9.473474794254546,0.6072394501831102,2.402359981578241,0.0008051365289967435,-0.05476981460610009,-0.009526805529732446
57,9.787336272623346,0.05036837295513356,1,0,9.484666940286553,0.6247080196430977,2.3368778584534917,0.003235490204487214,-0.05178365408022977,-0.007870957017513103
58,9.79103767847291,0.052565638173651646,1,0,9.478813150731648,0.6331428055804666,2.3403050174495648,0.0033360462809861988,-0.042333920345513296,-0.006125067670788275
59,9.795939586239358,0.053912331810219004,1,0,9.502737768683051,0.650976296844266,2.3591587207999467,0.004608555539173131,-0.045133903228190025,-0.0041259159833683945
60,9.801841941108748,0.05435139479180359,1,0,9.492226866585625,0.6625871274993803,2.3818194770069723,-0.004204568200196936,-0.0497052745449014,-0.0032270266600877787
61,9.8084762872767,0.05388083787969329,1,0,9.465871265148325,0.6208512059516529,2.377982805975754,-0.011027715218248229,-0.04960789434923956,-0.005683532226121859
62,9.815504223845666,0.052549562862070416,1,0,9.488323757479613,0.5746988151674799,2.3494921245536773,-0.015160763837658634,-0.05019027786344664,-0.005731271940974127
63,9.822525116806482,0.050454693259460705,1,0,9.528260110583279,0.552380819717097,2.314163632745057,-0.00960404421442053,-0.04915142495678524,4.851712525356355e-05
64,9.829096638458369,0.04773893045330978,1,0,9.544410859916676,0.5810466778243278,2.3301330423625677,0.003908132515870552,-0.05523652595858433,0.0037840516703947094
65,9.834767367579136,0.044585276244691205,1,0,9.540115787384847,0.5903868149609565,2.323334427296076,0.011358552887020083,-0.056473531081156686,0.0049839056294376845
66,9.839116039761079,0.04120641187679603,1,0,9.571647240782436,0.5709844004847446,2.296162003087472,0.005795506498084234,-0.04823498628537036,0.003685340929594611
67,9.841789877121355,0.037827301216198844,1,0,9.571824836670514,0.6189032167132017,2.2664301736821395,-0.0018464034737631712,-0.036402857389914875,-0.0004949406124745991
68,9.842535664721327,0.034662099708231114,1,0,9.556359821079576,0.6329016329628451,2.251704022371661,-0.006104051636320323,-0.02535649099662541,-0.0008853383769788941
69,9.841220911919324,0.0318893446842955,1,0,9.540658663231989,0.6339293931673875,2.2880439935894983,-0.006755924517791344,-0.01742656321680501,-0.0027332742948090556
70,9.837846711795331,0.02963124493818391,1,0,9.509842271233852,0.637343535744262,2.288403420518554,-0.005989345749056272,-0.017330758540348358,-0.006085222531329431
71,9.832556518522333,0.02794257875619897,1,0,9.517987400895457,0.5669416953641043,2.276608362877083,-0.01095633035766293,-0.015599307376979775,-0.00911198751886172
72,9.825643920435153,0.026812216403013785,1,0,9.55396812671471,0.56699646694237,2.2829780120682357,-0.018383544593334966,-0.01663996060547772,-0.014544612450293603
73,9.817557192649748,0.026176597546069158,1,0,9.588158700900703,0.5936250086944651,2.2307582573211775,-0.01998115117834365,-0.014871716955570224,-0.020023623182335963
74,9.808891589357833,0.02594104565372973,1,0,9.59754573876962,0.6012178210179802,2.1963627779607404,-0.020362793503404954,-0.007490971827080165,-0.025688198617276198
75,9.800357024034804,0.026002791602140075,1,0,9.569268427104687,0.5986035709976127,2.1564360610238538,-0.01770001988792046,0.011944401632998938,-0.029544245324316053
76,9.792713118610115,0.02626955097712309,1,0,9.526496196743869,0.6037928009037891,2.207190429891498,-0.007788086612596351,0.022825984705987176,-0.025833793189806956
77,9.786675181701916,0.02666929513253899,1,0,9.468249033424655,0.5896325555769303,2.249297363754842,-0.004301333730662298,0.01599751901331904,-0.023040676850305725
78,9.782808251295043,0.027149840856598346,1,0,9.411200143729095,0.6187222759532448,2.2968978062848793,-0.010616351546371715,0.011111568200373465,-0.02024555479105375
79,9.781434931334427,0.027670159002390057,1,0,9.455913843420287,0.6102018662538284,2.2861035237510423,-0.015866877433649305,0.002609214376382967,-0.013883569620169633
80,9.78258151699036,0.028187877182453795,1,0,9.495113077821301,0.591958124291583,2.2633802400676952,-0.016457215732004583,0.0011648832061039367,-0.0046758298596600275
81,9.78597588479208,0.028648526223089988,1,0,9.521278625224381,0.5796180510307349,2.250892873325637,-0.01901327123239942,-0.001954969294401777,0.0019759512146208785
82,9.79109513211717,0.028981322163912356,1,0,9.522657652430116,0.5783393318568969,2.2542296509571123,-0.013879728964367337,-0.011854257705794262,0.011250640975486613
83,9.797248253187192,0.02910390423303978,1,0,9.541050923352028,0.6108532196588253,2.272330340379483,-0.015753444470240338,-0.03000238562361979,0.010077929287758096
84,9.803673656425639,0.02893522754395863,1,0,9.556223552261065,0.5837104778446305,2.2357724801294316,-0.019381193614941433,-0.033281276093042225,0.008260038508672688
85,9.80963304882023,0.028412950001461563,1,0,9.54239167971291,0.5917588826548467,2.247273083394067,-0.01702174630359892,-0.025794748560333598,0.008339311154787562
86,9.814489723181246,0.0275103411659133,1,0,9.494785505437584,0.5811137429510288,2.244980469434146,-0.0076919908801882314,-0.024552859397053775,0.005169438309665688
87,9.81776739304408,0.02624832516846607,1,0,9.50350535424803,0.5903071045110366,2.2412143682384267,-0.0005268688745815902,-0.02695379472703026,0.0027258092425628323
88,9.819191494105997,0.024699951450609263,1,0,9.540608152549355,0.6034353958543435,2.2391614428287987,0.004780382771993365,-0.026413259930828444,6.716716545686453e-05
89,9.818715009045375,0.022986208265575497,1,0,9.574843364281119,0.623915395419939,2.2607811104044595,-0.0021139921757308195,-0.03492661482780078,-0.0027930998821182086
90,9.816525932245206,0.021263244238337375,1,0,9.604037718961619,0.6045766737312143,2.183921225095696,0.0002445497057186557,-0.024863917808817113,-0.002037693301711359
91,9.813028709453816,0.019702221589034553,1,0,9.54727747386029,0.5866613559107862,2.221121346722306,-0.0023715555359853312,-0.010808071670317285,-0.0059000940898124585
92,9.808793080477084,0.01846464161875402,1,0,9.539742777554597,0.6123910096131746,2.255879779437397,-0.008986932837371156,-0.010033305405581738,-0.006664831879498854
93,9.804471718451113,0.017677652431892836,1,0,9.531237692444074,0.5949056510249261,2.1976369582303588,0.0009899969226796973,-0.0020727993515506525,-0.005637831844837146
94,9.800698720837442,0.017414560764556497,1,0,9.462946597633909,0.5564751424978319,2.2545627697296697,0.008566089396081637,0.004513477468521705,-0.006161284547555657
95,9.797988908190757,0.017684877335011194,1,0,9.494662311517946,0.5664925555009603,2.2276971428830956,0.007029467127905612,0.004784558970723754,-0.006878560738297877
96,9.796659479609703,0.018435930930250952,1,0,9.495335540354233,0.6051916115916048,2.225880211419943,0.004101241736117767,0.01790680193976969,-0.0035955512806661004
97,9.796789998690445,0.019565153709917415,1,0,9.519520649643031,0.581448844099868,2.2708605746868358,0.002333338754546173,0.028706330168600854,0.002582480890105678
98,9.798226041621902,0.020939504500304185,1,0,9.516222469366692,0.5385165580707723,2.2920795795446,0.00829965841694279,0.024763964023547434,0.008520991762142186
99,9.800620619066962,0.022417041414572538,1,0,9.536057081441625,0.5237746466724085,2.316587580067198,0.013699839312353815,0.02114457763882583,0.008138589070887893
100,9.803500059289865,0.02386586358193968,1,0,9.54847212876552,0.5123359394706993,2.2820103477487317,0.01725786693659304,0.015248434403661484,0.007229736359689253
101,9.806339380760692,0.025177229675228452,1,0,9.525456766800966,0.5111397803404604,2.258675889204643,0.019800118780723845,0.01707478026032408,0.00506332617525031
102,9.808635592175738,0.026271731220618186,1,0,9.489010221664557,0.5598673218082266,2.2588078822801747,0.024064245956939637,0.01953523811315387,0.004787946210256025
103,9.809973001513978,0.027099158635731858,1,0,9.504194436601868,0.5856464166535423,2.267797986802107,0.018214897928144288,0.019422828714413157,0.0025470644152588793
104,9.810078394991262,0.02763395671035446,1,0,9.548622802788593,0.5563963845768847,2.26572642982445,0.002222210497474459,0.01963921506350716,-0.002618826827314489
105,9.808863083627374,0.02786903590781069,1,0,9.553052803291983,0.5233634157993686,2.2636809333019445,0.004334988357264565,0.01652169362578361,-0.005034830707145584
106,9.806444722807347,0.027810983921177618,1,0,9.56322503582145,0.5207976117153916,2.2885386466069804,0.013325006874443625,0.01063201408213742,-0.004163537754169722
107,9.803139318674472,0.02747887436295168,1,0,9.55798432792884,0.5764298709658008,2.2568829205725933,0.028418372796946378,0.011196255233186639,0.007306625465874811
108,9.799416971150746,0.026906752080765543,1,0,9.540625495294371,0.5794253476487777,2.2581272342554004,0.036152286834936584,0.017703249410592755,0.014172684190144596
109,9.795823925198286,0.02614736512192251,1,0,9.461020308082368,0.6062224009902795,2.321884470441238,0.032836002816414876,0.009962453076727981,0.012619770193036669
110,9.792885157774265,0.02527340448381459,1,0,9.42783061221666,0.5845228125277379,2.322622456483479,0.027107079826121813,-0.000164078900399126,0.010626350740120775
111,9.79101072263476,0.02437349190600174,1,0,9.443107912022993,0.5817824518338288,2.3235931185862135,0.019938832869671207,-0.005510298459480895,0.0022658236971699955
112,9.790430132102337,0.023542966867950307,1,0,9.488174333056309,0.5902495099830033,2.3176816087841203,0.01477143609093543,-0.0063750748285923775,0.0005097536861006314
113,9.791170286887166,0.022872453759416014,1,0,9.504137688715064,0.6089790383921387,2.3005754042979976,0.002669941906002702,-0.0060220842908083,-0.004605499192262318
114,9.793077670520669,0.02243855929059329,1,0,9.53021482936012,0.6162031215951655,2.3104785579322145,-0.011917326291362159,-0.006612941886483716,-0.006538333173646651
115,9.795872006748688,0.02230016752524984,1,0,9.53835438075935,0.6030197863444124,2.2629140518119133,-0.019957213400376008,-0.003752122454684154,-0.00960179466228677
116,9.79921203813519,0.022501097149926114,1,0,9.526224568447835,0.5599225746463764,2.2675959564992527,-0.02758511410401001,0.0020176728753056104,-0.010933496923235458
117,9.802755561282947,0.02307663663309281,1,0,9.533856224172483,0.5256472017144247,2.2675832694710483,-0.02923397254848847,0.004277967581426774,-0.011912704613994622
118,9.806202563411265,0.024059224076881783,1,0,9.535832120495993,0.5307633534809019,2.2690555082673307,-0.03197282916311592,0.007358162789030224,-0.014739474610420099
119,9.809318363867302,0.025478328169389254,1,0,9.507559624516883,0.5288849051799335,2.249998097807096,-0.031593617004813,0.010195550421003508,-0.01423940806490435
120,9.811940222191827,0.027351518756001596,1,0,9.51451301376044,0.5164913230573168,2.2805743172746884,-0.02954607142337379,0.00851119559751268,-0.014962476918795016
121,9.813974440173162,0.02966716415159954,1,0,9.537748834469264,0.46722180398408814,2.2128933035784657,-0.020155837874562547,0.00935246725248851,-0.01259835189173312
122,9.815390879352316,0.032363150838520184,1,0,9.541557121021821,0.4615738503243061,2.207930780488418,-0.0042786506258148845,0.009205372442330266,-0.008450917827431579
123,9.816218405276521,0.035309193918608595,1,0,9.569968934903791,0.4899701509824815,2.2472912043577926,0.009052328975509448,0.009963585522664582,-0.004747351312442524
124,9.816539982485786,0.03830124153615141,1,0,9.570925788958144,0.5245295849738465,2.243714157075285,0.01968366462301746,0.006794037373772342,-0.0024124609107393866
125,9.816482855939357,0.04107417941397993,1,0,9.546335384875137,0.5426045924936335,2.213353130405377,0.03313137499715538,0.010605635349253543,0.00044436019325296743
126,9.816199663622383,0.04333380444948238,1,0,9.549698127639132,0.5567814199916551,2.2113767133778155,0.05064365935507342,0.01650559555818001,0.003977475100917616
127,9.815840324657707,0.04480264378316577,1,0,9.519860697240418,0.5833150342365317,2.295335039006062,0.05790550366666307,0.016567952094308492,0.00719945413342281
128,9.81551965408093,0.04526915408184051,1,0,9.518376068228505,0.5934695927804486,2.3248444372910586,0.06610033085335103,0.01018420314340648,0.004104391887113547
129,9.815289147555163,0.04462814594103439,1,0,9.492338929288385,0.5739172324014175,2.3250075112110555,0.05486953760897117,0.010049630097213316,-0.0005975123726589135
130,9.815122157296642,0.04290250875917918,1,0,9.454633280631645,0.5649288205245264,2.353387754641587,0.04809436428149763,0.0004150518454368071,-0.004862150168220118
131,9.81491955126665,0.04024142491097644,1,0,9.518953067952403,0.5909772877763494,2.362210936201431,0.0435384335352041,2.6204907176115646e-05,-0.009590554672019238
132,9.814537515248741,0.036896276644412675,1,0,9.526201651709986,0.6142952583537302,2.3581141765569793,0.02857808937877287,0.0039728271211810036,-0.01146030929224273
133,9.81383119350887,0.03318049764795164,1,0,9.544008250983062,0.6009071700820746,2.3424547812056815,0.008873213264779625,-0.001977132630550216,-0.01367739955639877
134,9.81270091020225,0.029422572940882293,1,0,9.55587555089583,0.5663233914921256,2.268592874791876,0.0043781350216832065,0.011510999234048044,-0.010939353824438522
135,9.811126023140325,0.025921759713634647,1,0,9.539175775771223,0.5696685003355464,2.2551647867204356,0.0012771189375775749,0.025308282405831314,-0.00669871929921075
136,9.809176141461668,0.02291399348412471,1,0,9.523870657133045,0.5721686770813665,2.316134777431135,-0.002637878399526807,0.021939356634363232,-0.004137986120717772
137,9.806997755288446,0.020551848267983144,1,0,9.493922169564,0.5346473249245168,2.295641705048119,0.005764776834079271,0.013174250514512435,-0.004248214520773907
138,9.804782294368227,0.018898897800256633,1,0,9.504404927978788,0.5315657214729819,2.307866820115806,0.009100739657899797,0.0166997706082649,-0.004221083211357624
139,9.802726360955015,0.01793639234448466,1,0,9.503285557387562,0.5404861887067772,2.291967957752328,0.012256671740702751,0.018784173307511948,-0.0018039559193906742
140,9.800995331163,0.017578815839351856,1,0,9.496856102932822,0.5562217163389824,2.325362368972277,0.009531788864011426,0.020608609954559095,-0.0017439201313670602
141,9.799698436855394,0.017694327947689492,1,0,9.482958866569472,0.5728725435858403,2.328335973228398,0.011335299540444746,0.018383518615845126,-0.0021983351576298905
142,9.798878607115793,0.018126338610084402,1,0,9.516831166049888,0.5615224239335993,2.351051743111796,0.012536011010839733,0.010907995432807226,-0.0015988828584741733
143,9.79851549951259,0.01871348503782304,1,0,9.535447678075178,0.5613192526957693,2.3033644769580293,0.012947354540128448,0.009810525099774226,-0.002894427240379316
144,9.798536785673956,0.01930660725633381,1,0,9.513277995993395,0.5500895863257171,2.305653154446813,0.01314209906485949,0.010756923723682168,-0.0057785061956651335
145,9.79883232826293,0.019782273313554168,1,0,9.48167477141841,0.5595402017652543,2.3193634192788752,0.013558321899600854,0.01148996082813366,-0.0058308925033617965
146,9.799268610754842,0.020052650974842986,1,0,9.4914993230324,0.5488752512558052,2.308242036577534,0.01952014927424612,0.012536925364023134,-0.0058662882097374235
147,9.799704335666327,0.020071261292152243,1,0,9.501347840310594,0.5684193734597925,2.317314955892329,0.017744715218473265,0.01406697190421589,-0.00559997186309074
148,9.80000924535377,0.019833894818580593,1,0,9.502523052181932,0.5785628820164673,2.3180200583505006,0.017471059407725566,0.014120515900709283,-0.004209942333578053
149,9.800085992960895,0.019374171235257368,1,0,9.506513815241153,0.5734056644229532,2.3524782770882053,0.017916152212105352,0.013360435036227896,-0.0022855492767745378
150,9.799891283228746,0.018754000490684892,1,0,9.513002721939086,0.5604353524626794,2.342388935032155,0.014390872108256172,0.00870229450830843,-0.0013345459195949867
151,9.799450139954843,0.018050324847286775,1,0,9.511820862422468,0.5474257800789311,2.3448671332231794,0.012034944350298449,0.007430003597507139,-0.005620608341781446
152,9.798857380911672,0.017340546389715595,1,0,9.515667518941802,0.5541948970078192,2.3436133298174253,0.008435619952308649,0.003307866074378316,-0.007744167113917739
153,9.798263170741842,0.016689526977542977,1,0,9.510994881146905,0.5454657590740076,2.3261011086372068,0.008659314286973554,0.0008298199896340614,-0.01000076614650953
154,9.797844071848482,0.016140725918972587,1,0,9.468903386449673,0.5494448486105202,2.3248185391310554,0.00891416981228334,0.003678486964962255,-0.011068288069148193
155,9.797765854756578,0.015712983392510642,1,0,9.462952351671193,0.5708557346537734,2.364772303590115,0.0050259154160114455,-0.004697274152074664,-0.012030574591888646
156,9.798147302229847,0.0154030378464237,1,0,9.52584353694541,0.5595954450733974,2.3615355458438745,0.0037532524491352874,-0.012966575272196518,-0.009957738363092135
157,9.799033656904754,0.015192534193582847,1,0,9.50200645813858,0.5504005693652023,2.3053650378928565,0.01178652004947273,-0.005641021176593506,-0.0047732015579239236
158,9.800385022761724,0.015057336389726223,1,0,9.478503747388334,0.5626766125477806,2.3388220425768638,0.023348119511156767,0.004413055965547577,0.0005732102131537158
159,9.802081692834307,0.014976544000305668,1,0,9.46570550032906,0.564517070092592,2.351791580332762,0.02183424237398484,0.004381413209131275,-0.0001313140266139248
160,9.803946134504702,0.014938868188381657,1,0,9.509314775260705,0.5926208497877176,2.3448960320514165,0.010634853055527077,0.004411324626933303,-0.003339236435816717
161,9.805778502284847,0.014945048035066973,1,0,9.54201048872896,0.5994676062990119,2.3262907340891568,-0.008170253694151168,0.002926078352752075,-0.007203970115530655
162,9.807398217952601,0.015006491695710845,1,0,9.534833305840841,0.5886075751582563,2.300220985768978,-0.008795501784074039,0.005503248366876403,-0.012038397896439252
163,9.808680985050346,0.015141569968007172,1,0,9.53561371286497,0.5720183337999621,2.345016476885925,-0.00012340673461719073,0.00808102339137696,-0.010534042372765888
164,9.809581936111341,0.01537140786959559,1,0,9.470217022300599,0.5846908771677114,2.351071978586567,0.0017344366538776781,0.006547137461707665,-0.010252647212454403
165,9.810141336671455,0.015716703627482096,1,0,9.482071843436728,0.6042643010156042,2.3149220936378514,0.0019212729596221468,0.006776900231631762,-0.009612274338583403
166,9.810475416359242,0.016196436413013413,1,0,9.5349255012813,0.5750172068721631,2.2804048973678395,0.006196094008167431,0.01008134642187439,-0.00954847018209812
167,9.810757161777083,0.01682847370742283,1,0,9.55861965282817,0.5410368301180272,2.299033137438156,0.010743061326194925,0.012474043520920743,-0.008847520250350488
168,9.811189796027362,0.017631131500179874,1,0,9.542652999772399,0.541494556719693,2.2744345651467874,0.015698446225137715,0.016722589559757077,-0.009578289149625906
169,9.811973072997606,0.01862399161446772,1,0,9.501135768777456,0.578601907063119,2.29232262046992,0.014946164381267451,0.016635280458237835,-0.010190492848443183
170,9.813263354875202,0.01982623090290761,1,0,9.533815444290932,0.6185756973495806,2.3461811010123985,0.013053484717376204,0.011656310197049371,-0.00964602455808244
171,9.815132435739123,0.021251614919746063,1,0,9.493125749173684,0.5879790018126697,2.314589613140292,0.012820063031428944,0.011380764475153815,-0.008107276203848969
172,9.817533938011293,0.02290082918222657,1,0,9.493409629844791,0.5534047781941988,2.3099945278318295,0.015712309062842246,0.013467932439410565,-0.007266931233928208
173,9.820287320018778,0.024753217522224404,1,0,9.505092880710135,0.5596184166279435,2.309523040053097,0.019050372843615805,0.009196465679035653,-0.00782376094912697
174,9.823087244496495,0.026760663087358846,1,0,9.546395901361134,0.5537230915683061,2.3308609045333846,0.015156428273550194,0.0052676106287785135,-0.010157908872668939
175,9.82554051863307,0.02884615561693842,1,0,9.528221053019731,0.5318641305902999,2.318101436461681,0.0216120781510198,-0.00044210593481754454,-0.005903769255718939
176,9.82722595962375,0.030908663899079127,1,0,9.532975676431425,0.570451048868235,2.3097512721468334,0.03218909920780963,-0.00041121333029888997,-0.0036331903203960783
177,9.827767302275447,0.03283440763358372,1,0,9.516571052742703,0.581225853905138,2.349342949349205,0.031427452231430404,-0.002847772721483904,-0.003613472514209289
178,9.82690687769851,0.03451279907391788,1,0,9.5419709685635,0.550578367890545,2.3532994626780988,0.033066352792316914,-0.008318928621914395,0.00035456230188551105
179,9.824567142982318,0.03585375557965392,1,0,9.549017358497007,0.529588732546292,2.300667915903873,0.048309659379013076,-0.0007949652589015368,0.0005367723880100697
180,9.820887249160336,0.036802285817276764,1,0,9.572192912648658,0.5907104508722925,2.336559789583765,0.0458766174243183,0.0014308221573508903,-0.0007281119936632616
181,9.816223593655625,0.03734652857973263,1,0,9.55618807747139,0.6190310289330928,2.3362511105813706,0.03257109402075829,-0.000849882543180716,-0.00040354633888588676
182,9.811108562412073,0.03751684775412106,1,0,9.504812671727665,0.6329627062746781,2.3078831642812094,0.04099733368051211,0.007769288038914721,0.001253323352204043
183,9.806171063722623,0.03737576563584915,1,0,9.484395549304816,0.6448219765891022,2.3511867815197873,0.04357099768288505,0.009991068220121408,0.002795586622970285
184,9.80203371738724,0.03700066762594729,1,0,9.440310634640163,0.6234221058283925,2.3602258070720565,0.03594420601309922,0.0016642565241363062,-0.001309450206464596
185,9.799209884268567,0.03646287542340665,1,0,9.444564799634708,0.6279964286403792,2.3444320878689098,0.02753083693086719,-0.004748649126793517,-0.0014718559298637563
186,9.79802465426955,0.03580789719606451,1,0,9.46272068599902,0.6236542078969075,2.362663354084622,0.02051488155787859,-0.011147006671733087,-0.003968237327811835
187,9.798576344644541,0.03504220206978916,1,0,9.510234745758313,0.60663865211091,2.340227190118975,0.013718537716895152,-0.0189451792995255,-0.008649308650008205
188,9.800741983847713,0.034131046791270714,1,0,9.531316341292973,0.5860648305652304,2.3412877588387615,0.014629658689535233,-0.021039016766291583,-0.009710401396128285
189,9.804217364882382,0.033009377507499056,1,0,9.523909112514772,0.581439772946459,2.3343153953587703,0.01189014272701947,-0.028323956127339803,-0.01290425880788275
190,9.80857499550106,0.03160426232962254,1,0,9.534047077549069,0.5873403677091639,2.2653299795911264,0.009386817596979803,-0.03149692253706788,-0.01752361870379958
191,9.813323590156719,0.02986391101593253,1,0,9.524112933239493,0.598558085267353,2.2572550826776796,0.008973540637356541,-0.03127185148493143,-0.02084119838984599
192,9.817958168870549,0.027786254454324318,1,0,9.546731512430517,0.6008700539401717,2.1990423186913355,0.014613326981982748,-0.030665290377002576,-0.019453853597726736
193,9.821995961194526,0.025439907883504677,1,0,9.556678580388576,0.6259524408517858,2.2632190738659186,0.024600077567169216,-0.01534476342120141,-0.012677546477856887
194,9.824997381989231,0.02297207899640923,1,0,9.55843700375848,0.6544229915714479,2.306416127781929,0.019158839215423395,-0.012744247385024854,-0.006091536500464675
195,9.826573773435786,0.0206009486968133,1,0,9.537808311182964,0.6405889672940063,2.2966354322652704,0.008286236841041676,-0.01801139378795399,-0.007507936923768759
196,9.826386627168448,0.018593241439078995,1,0,9.51387549092888,0.619522251522085,2.2591020655073493,0.0007051244298792846,-0.01997778878925162,-0.008496398086444529
197,9.824147529036368,0.017230244857663973,1,0,9.51113240103863,0.6107204096455839,2.2454646857781504,-0.0010028602037044077,-0.013813058709772372,-0.010767859291259767
198,9.819631894266141,0.016767147867019706,1,0,9.50447931495404,0.60750049908154,2.266781454222253,-0.0010529934282962,-0.007431817857556473,-0.008758991917936724
199,9.812719056384575,0.017391442249397083,1,0,9.482441229736668,0.619216428673433,2.2925570478943644,-0.003976577453746588,-0.006605376537477873,-0.010462607274607759
200,9.803464736268626,0.019186428283190903,1,0,9.477331341869665,0.6221754077622264,2.295166649522269,-0.007782991191170097,-0.00720441965986758,-0.010790055411270611
201,9.792200617684767,0.02210546672853527,1,0,9.497513946769422,0.6250727565754682,2.3072982711099708,-0.012039040963607927,-0.009274031114150627,-0.007243630435667379
202,9.779642446393023,0.025961464839754898,1,0,9.517796217219093,0.60073847726318,2.281688738259983,-0.019894735657309988,-0.012483573640092366,-0.0081924420263364
203,9.766975921099682,0.030434422715792143,1,0,9.534864955957831,0.5926805938578786,2.248977510654802,-0.024484752691750607,-0.018921766160923833,-0.010516308599557487
204,9.75588227274421,0.03509814490618224,1,0,9.569238437518234,0.547174838498155,2.197472208176206,-0.02323185892945644,-0.013892239213930568,-0.016975462147735675
205,9.748466370411586,0.03946581017431777,1,0,9.631381933841752,0.5316761764844065,2.1806521866803896,-0.009603429555092812,-0.004702330763831731,-0.014493491323034902
206,9.747062043408446,0.04305288479862355,1,0,9.593877307626375,0.6237063551296459,2.1825885780896193,-0.00826593626404774,-0.008529668478456919,-0.006380148108170203
207,9.753913378962288,0.045453931229552755,1,0,9.50624758361829,0.565934220609507,2.1050418510741573,-0.008757882450738066,-0.043272689980572196,0.0022407481090866515
208,9.770765311730205,0.04642602732707114,1,0,9.432344286374837,0.3848658273915259,2.0233525592852906,0.015520458603190025,-0.0670454836406858,0.003385209963915853
209,9.79843353252022,0.04596606131672012,1,0,9.478819450997051,0.33800070184891445,1.9178850615433658,0.044237884750335334,-0.06403677088641338,-0.004117455868961338
210,9.83644807828275,0.04436480831963218,1,0,9.493623382706696,0.5165909452687559,1.9144405857985523,0.06690434458483079,-0.053088671617578326,-0.005851268401092828
211,9.88286441868294,0.04222093980570299,1,0,9.552566993670291,0.6840093874489411,1.986150928231824,0.056266106629947674,-0.0330238158441747,0.0002809411172784925
212,9.934308808082706,0.040404477044106046,1,0,9.610000455281112,0.8349162238615113,2.004929313557596,0.02566206785216964,-0.025845667056636143,0.006825526693742846
213,9.986280243475296,0.039969942394172904,1,0,9.659276108951266,0.8311881894161329,2.001130909425682,-0.013572948862723432,-0.03133491877418482,0.008351270792942265
214,10.0336815473181,0.0420307180639251,1,0,9.745020368728134,0.6559315988230966,1.8602847179311728,-0.031132589047944196,-0.018340247173860354,0.0072075066635752085
215,10.07150480055784,0.04761420531519857,1,0,9.85989259177433,0.5014516482635284,1.918040635805791,-0.02414587935484729,0.004857398094126787,0.009431955537696863
216,10.095555006052141,0.057520725191024344,1,0,10.227579089748884,0.3212849819748235,2.129625808211842,-0.019825818004468643,0.05847497671198562,0.016197713030444875
217,10.10306618756421,0.07220843951784238,1,0,10.323786461443545,0.2992647421170715,2.3135609470041585,-0.0006189395735881047,0.04542193320604087,0.012840599878216046
218,10.093062194793058,0.09172349242067963,1,0,10.178149574498757,0.574174039568476,2.3132194154196144,0.03249504877062249,0.03747976500775964,-0.004366404362890344
219,10.066361792225871,0.1156899450880573,1,0,9.725210073865538,0.5761377561673531,2.3775183319974116,0.024248796766418973,0.06909621579314137,-0.01334300407202603
220,10.025227986330949,0.14336729293073927,1,0,9.426200485896624,0.42897506845851596,2.3701040334824506,0.014573584251296751,0.11166086416543106,-0.01406096358057228
221,9.972781988512008,0.17377319851609307,1,0,9.167251472168166,0.41363544246339423,2.4770512826749758,0.027270612721233822,0.15848958534794425,-0.018111936113623564
222,9.912385139131551,0.2058557942853657,1,0,9.129549993413024,0.44966545535666835,2.360741704926988,0.03749355110707804,0.20523220163785963,-0.005925791466619927
223,9.847192577487377,0.23868613841970604,1,0,9.468315444370266,0.5939525141438452,2.2556176632798124,0.03671451710726974,0.2734318730920342,0.024829420405884168
224,9.779997490154747,0.27163096213477184,1,0,9.766481445536261,0.7666867218918971,2.36790639635121,-0.027105088205438638,0.35988135730731025,0.06573556888582939
225,9.713355961100705,0.3044624808649806,1,0,9.60874490173635,0.7902107643991018,2.6706592107862015,-0.14468655480968365,0.37748134075125145,0.09507131982894099
226,9.649873583118907,0.33736921453307345,1,0,9.31883594638697,0.4692255311818131,2.660441854897541,-0.2143468961849648,0.33670690231226075,0.0803630577707488
227,9.592493982825488,0.3708514382909611,1,0,9.237661431381637,0.07607599398982988,2.42292449445876,-0.2146367822106569,0.302587985442845,0.02076643992493312
228,9.544657074541094,0.4055144639339345,1,0,9.318689795639358,-0.11694955061225254,2.318390346501506,-0.163464936491367,0.29853967092502887,-0.045437407571988435
229,9.510251908958901,0.44180366292553397,1,0,9.388802701708286,-0.020879922632501702,2.2045353527372806,-0.11393669058080982,0.31038448184477824,-0.120396838247289
230,9.493337402753909,0.47974543291291866,1,0,9.40077745869498,-0.027762458366412803,2.1622783071593905,-0.029311601874769465,0.35126438643640834,-0.19816335991766434
231,9.497637112894513,0.518760407325686,1,0,9.265112074766026,0.07511160080531608,2.2684675969282635,0.1412772817775958,0.3546336394149005,-0.24682609340385134
232,9.525845759872057,0.5575992819049761,1,0,9.245006948736117,0.42363750166291203,2.310199019703127,0.2872240207393648,0.3277416743375995,-0.2626551731999975
