id,ASVM,GSVM,walking_nonwalking,normal_abnormal,ax,ay,az,gx,gy,gz
1,9.716400147122593,0.02283090989458662,0,0,9.807832265179785,0.12299331520731437,-0.23952080200753778,0.03087110949440903,0.022561672549031814,0.0029288454761145356
2,9.729631802425159,0.018059425637750752,0,0,9.686326185383923,0.2037831070040207,-0.18149739300106638,0.0349974794997973,0.0224825291161398,0.008406034901687048
3,9.748627026063046,0.01611226901412646,0,0,9.7830517215803,0.2117766947516559,-0.1647860579360561,0.026203185447286552,-0.03745528623903193,0.0041360808289492785
4,9.774158575997347,0.017944632879997407,0,0,9.990796473130981,0.15328721581916988,-0.2559892717565869,0.016432444775679504,-0.0487995028769831,-0.0022458970850984467
5,9.80657593259268,0.02437692469026734,0,0,9.929535374161556,0.1380342962408712,-0.2735956773227151,0.020522712863239163,0.009409980153074858,-0.006499208614587149
6,9.845423070639683,0.035951170734462606,0,0,9.73212644856438,0.1989899176914113,-0.06604167836864473,0.017192729946953193,0.04888359078269461,3.8154905165268254e-05
7,9.889079951468222,0.052784914891217456,0,0,9.565257117714031,0.14954190184057045,0.007474638882075648,0.004723202834223046,0.03165826719798341,0.00161458245613717
8,9.934535520882818,0.07445220753070966,0,0,9.616100431742339,0.09415844642298678,-0.023736851980695573,0.005138612486190111,0.020605781936350376,-0.0003857183569920359
9,9.977407400027506,0.09992594478773355,0,0,9.82806177003885,0.03260705887863636,-0.10638847341099059,0.012526627075587765,0.004084261070369861,0.003689019765642312
10,10.012284084132292,0.1276137684806779,0,0,9.877767767081735,0.12317154375813714,-0.37184443634497694,0.014063700638740174,0.029981348012389792,0.011206875809600045
11,10.033383984759261,0.15550835848185565,0,0,9.963345220758287,0.2842153501269037,-0.26538936859882795,0.011559787636403612,0.081224785710812,0.040332540040124126
12,10.035430595273336,0.18145119095736678,0,0,10.385780881117718,0.34271644356097014,-0.2126171995385664,-0.08881076413692919,0.05936419924036237,0.06416820271574696
13,10.014567177621618,0.20347937075047673,0,0,10.723283891300296,0.24194376358864247,-0.3299687448890471,-0.1534458237338387,0.25445594287326356,0.08429840449918244
14,9.969106017430427,0.22019522266094962,0,0,10.328447459506968,0.15895864987980388,0.23681872321453537,-0.13494038174896428,0.4216856582834976,0.06502556245822944
15,9.899949946905531,0.2310793091791538,0,0,9.695735840073704,-0.046429967352939326,0.1891143087141791,-0.16681245751262708,0.29037493518336416,0.012417538873037263
16,9.810637196501217,0.23667148586585404,0,0,9.257494814248455,-0.27834449443370557,-0.13391868642143287,-0.06801791438432613,0.27946157144556094,-0.050251541291337146
17,9.707095653264966,0.2385755200154706,0,0,9.094523013005196,-0.4051354599368961,-0.24601498624018045,0.01945255093151015,0.1854949237729461,-0.10079718044127335
18,9.597268322279355,0.2392895189779666,0,0,9.242600544368532,-0.6110774444468342,-0.7586600387815212,0.06205056450142751,0.034077392078214495,-0.07857642619879679
19,9.490735408910707,0.24190589323134906,0,0,9.52810586491105,-0.8529596059616235,-0.9661694343382962,0.1652014202154356,-0.031904198498049305,0.01216586354598587
20,9.398328794472967,0.24974396015255185,0,0,9.932314396719606,-0.7360091607021783,-0.9349932537418475,0.22939098786716294,-0.09468776854725897,0.09838876598371897
21,9.331590109223825,0.2659725307866073,0,0,10.289059265786584,-0.24971380463469103,-0.5657691245406299,0.25567334221310406,0.020108605470349566,0.1453784644336094
22,9.3018555625577,0.2932595604392789,0,0,10.237243377339718,0.2446923763373768,0.46825166222499154,0.2391138604707002,0.2149507220885087,0.14377554483553528
23,9.318820305430517,0.3334673902239394,0,0,9.835721759624942,0.02372468497163193,1.2542350371957882,0.1678608553465533,0.23272198907176272,0.11596710273771148
24,9.388647626634924,0.38740544787886544,0,0,9.024277424793155,-0.5571442740405186,1.2859667229836946,0.194946510103298,0.2021916776140055,0.12562643807940113
25,9.511983870294232,0.4546553384284105,0,0,7.547627098221352,-1.0698206825777399,0.36910905008930905,0.2559368932949482,0.10225282950156032,0.24947388721737943
26,9.682497601738707,0.5334855150740923,0,0,6.645967581612267,-0.8264836954435127,-0.14524197385208507,0.2690742446489599,0.159607229057976,0.4606162452592446
27,9.886621459797006,0.6208656178804325,0,0,7.691420734729736,0.11372169758611053,0.5453593614818718,0.14502888088238272,0.04212544564277666,0.6578545982778596
28,10.104905843328748,0.712575965810397,0,0,12.248518798584035,0.6855766662259011,0.821595063870863,-0.045176689390561804,-0.7459041747006856,0.6135310409457403
29,10.314819956478031,0.8033974650987747,0,0,14.262765291807037,0.8248777505814586,-1.049236892284561,0.03002814824434709,-0.43006031791565913,0.35254279158345203
30,10.494234882154133,0.8873723652575107,0,0,11.772987284117828,1.0319384581999989,-0.11638602968703239,0.29451218110123273,0.9860745628520389,0.07456379026856717
31,10.624595285234204,0.9581443736446443,0,0,8.11514632241706,1.9013522768138367,1.4385684354042532,0.04528779699844581,0.6620869389103948,0.03243860719353756
32,10.693093029285501,1.0094013606275567,0,0,8.43378268174152,1.6232909164314953,0.14039034928099403,-0.3396278167000621,-0.642462007524259,0.2648555103549943
33,10.693708624812995,1.0354385398690142,0,0,12.35488048693442,0.30782374474691104,-1.5307753019896286,-0.5005069743326551,-1.2982712664363898,0.19034783254665377
34,10.62732809045325,1.0318305605374387,0,0,12.932464019174512,-0.5522015508355728,-3.406934730325621,-0.45215481526371576,-0.06334529422769102,0.027716831201176437
35,10.501148172412448,0.9961587887914546,0,0,9.755439893705766,-1.1525733990829996,-0.9484822759840355,0.03739514149012769,1.7127112640725994,-0.09032273640486999
36,10.327530827716775,0.9287037315254439,0,0,6.782940381552866,-0.039214701707467776,2.2917705528659695,-0.011116906001119973,0.5007114336359035,-0.13624251987608607
37,10.12258897752456,0.8329957700366759,0,0,8.44252895221781,-0.3715668242350998,-0.6439002594681633,-0.5084059062310659,-1.1584774288792343,-0.048987166334089075
38,9.90492630727815,0.716123818987497,0,0,10.297139570635775,-0.4102155475893836,-3.2064246112350503,-0.19609490051238515,-0.42442412998217705,-0.09470692901247542
39,9.69482289363429,0.5887254163082124,0,0,10.63472373370494,-0.13337505135213304,-2.628334121442309,-0.18616230113051133,0.5701976131875856,-0.0863013846495988
40,9.51376481314163,0.4646098978192065,0,0,10.140216175067723,-0.23166150273318367,-1.8046623711224172,-0.20997105323626855,0.5383216392189138,-0.07966498817973096
41,9.383875219473673,0.35998640136212257,0,0,10.140532390783164,-0.15089011788099527,-2.2056361058473226,-0.2799522911351773,0.3919058988605831,-0.05512206674783463
42,9.326769770892755,0.29228068518097305,0,0,9.825822802716097,-0.16439509934004615,-2.209309046169135,-0.15375747614222973,0.7401796636000464,-0.06515398112460845
43,9.361610799142925,0.2785453714766681,0,0,8.839399188330459,-0.020622258901399147,-1.5048287638386815,-0.1171106649013879,0.7672251221685857,-0.09349663127306031
44,9.502497504807847,0.33352034865968566,0,0,8.563749055600901,-0.07199325588009474,-1.704822454997117,-0.11979304116025435,0.3061240458679932,-0.11536675848704497
45,9.755642669256726,0.46749560292853776,0,0,8.945982849485521,-0.3343991926992051,-2.500218446763262,-0.16290912352044692,0.015896653844348938,-0.16844876865906022
46,10.116950722510227,0.6842501161396088,0,0,9.702641892193068,0.5069320075077208,-3.306287984995934,-0.0669536670223123,0.15980998794547654,-0.24523864472317605
47,10.570600603748078,0.9794397775552399,0,0,8.963637530983378,0.4884015524270493,-2.830029177720669,-0.2322936369798138,0.449489931157987,-0.2425174698046481
48,11.089098278086643,1.3398341432797802,0,0,9.104751572119275,0.7476208835908574,-2.4772810551999225,-0.11005895009563212,0.2898002040277338,-0.2531567175924212
49,11.635054653879182,1.7437328726567993,0,0,8.988756987279874,-0.5778540471541902,-1.392107496394996,-0.5240046010372786,-0.19638789057630962,-0.28843190690406934
50,12.164649187063823,2.1627256696557464,0,0,13.285025619768536,1.1164455978841692,-3.248898092509168,-0.11701109561872161,0.20436575609280447,-0.5192995640177034
51,12.632323872188152,2.564695949553139,0,0,11.910334476457422,-0.32766940933721506,12.170633164235484,1.4003243597884059,5.218146958464557,-0.8208855297229066
52,12.995831855224868,2.9176435264089347,0,0,6.793728574851215,-7.920838702540478,10.004631752536085,-0.0949803198889314,-3.13683514925788,-0.6086829680842994
53,13.22062994063476,3.1936371286478553,0,0,11.528873731626986,-2.3158012466174864,-6.156165951118887,0.12925788633004637,-3.6609151840116443,-0.7159780916801256
54,13.282952019235067,3.372157482275782,0,0,10.333021351797044,1.5830353968098818,-1.999901303854324,1.144901775555487,3.8575450210386064,-1.1976011629513927
55,13.171548648914369,3.4422878506525825,0,0,5.991587682702239,2.454824206289668,7.931648098811707,0.8709109018195331,2.9095098371586845,-1.2509062772634685
56,12.888558737655764,3.403524191032076,0,0,10.246426352320784,0.07065606103791501,4.103497218402766,0.31145049137827846,-3.5713546614917893,-0.7090405972336055
57,12.449944357910676,3.2652647813608384,0,0,18.423137571795024,0.9229466212294593,-2.990297348111436,0.557045387988202,-2.6876204243604347,-0.44397621547598454
58,11.88544873502922,3.0452343602009786,0,0,13.301151906740465,0.8022618711049179,-2.8631707206080907,0.6051149390224352,2.5414705564623046,-0.1559309028417177
59,11.237593603105418,2.76718963792264,0,0,6.720933667966039,1.6817014028795267,5.2956960501001324,0.46035853762819,2.5958354964075125,-0.02183089952904493
60,10.559249850818851,2.458247668278305,0,0,7.6301647885665576,2.793785767776915,2.530269492992109,-0.7184140158706941,-3.025931757754445,0.36136093165511735
61,9.909741897194008,2.146110414093387,0,0,11.3016929386493,0.94316873637001,-5.454018597704321,-0.8868716449313029,-2.4705365681712226,0.585721853821344
62,9.349828889325446,1.8563962884717709,0,0,9.387060027599274,-0.9282506005428894,-5.8084440854919475,-0.0016815266516662008,0.6827968618658685,0.5085474760686046
63,8.935995177216995,1.6102884116917164,0,0,7.461310772004696,-1.2029517661497586,-0.44834500723718257,0.5801696824801881,0.7255074942950017,0.4272417246397341
64,8.714480288997251,1.4227470002392155,0,0,7.394913591216286,-1.780181866761429,-1.2984244771456235,-0.18731258215765487,-1.0009935560951249,0.5780128232618726
65,8.715609001105012,1.3015206855503558,0,0,8.137181871081877,-2.5591889628297078,-5.81292042183188,0.35352934751760806,-0.5297751816863611,0.34239649637135927
66,8.949161190366226,1.2470750300201345,0,0,6.822861005436586,-1.153720696422608,-3.2790382114188725,1.1784673779949952,1.5474922047709692,0.0810593326232052
67,9.401578117580014,1.2533781042133314,0,0,5.643993120828827,-1.765431275574304,0.6022403399347677,1.007255205930635,0.5417557478127947,0.24962715904635158
68,10.035707246711258,1.309330596053897,0,0,7.848625206538669,-2.8816216657909695,-1.819282026953213,0.32689524279074694,-1.3901426010275475,0.5299554993065193
69,10.79353310633876,1.4005588608181148,0,0,9.826202647588493,-2.882489147824242,-5.715764929319783,0.6559626459159494,-1.777136467020357,0.5729378340439499
70,11.601877863634755,1.5113057221286976,0,0,10.93008170494812,1.0336463109035878,-5.375838856829831,0.7795405676433935,-0.6009061739511062,0.3605017456252578
71,12.380471036012406,1.6262215570892002,0,0,8.481715652571083,1.0707148302401348,-4.386989303075014,0.36675256499309367,1.119766104382063,0.07800975483726467
72,13.051309390301661,1.7319309310755284,0,0,11.663507882537171,6.094543650245575,5.195045411404453,0.8289168953394489,2.074875898218454,-0.5055639830860832
73,13.54796540348113,1.8182858585327633,0,0,12.07018355244857,12.440500227079141,11.330335000842005,-0.9445159099355457,0.24792661118453782,0.19684692078621047
74,13.823426632413991,1.8792018434229822,0,0,9.585738069828123,6.62886289542835,3.5177929087019186,-2.0088071828365885,-2.362448099918769,0.9027359328531742
75,13.855221456636576,1.912939273964649,0,0,12.06121465382647,-0.08085967603749178,1.5397073286335323,-2.0695871863019155,-1.7345826741565837,1.2166912818037494
76,13.647092217000672,1.9217038559778816,0,0,14.633108598482437,-5.747484718146223,0.9419493524742266,-1.0540821814067993,-1.378615487140606,1.0580951597677597
77,13.227127910749497,1.9105503753337625,0,0,16.035462535904554,-4.491291764425104,0.14924272838259148,-0.6380711979585693,-0.42232171091893794,0.5623003046625558
78,12.642769234679148,1.8857742717325638,0,0,12.062285411667649,-1.541109204814387,0.5075804861925959,-0.43681513850128745,1.7179118415419887,0.14260842258906326
79,11.95345535421831,1.8531650385854557,0,0,9.096865715798787,0.3971341623311594,4.16223449023566,-0.4376322522448159,1.3745707917305623,-0.06416252453066885
80,11.222077948706449,1.8165617175995998,0,0,9.4236664973336,-0.07061788205421188,2.0470182905078436,-0.6046222498421349,-1.268569692148328,0.013320384462436524
81,10.506775798504139,1.777073800848195,0,0,9.348554749892784,0.18729610263693364,-2.109792641703781,-0.2953918651664412,-0.2161052137240917,-0.009668730476628588
82,9.854666232980925,1.7331659584793797,0,0,3.5764243589763187,0.614570676892471,0.07643565327484997,0.5062096409872718,1.8350969059293,0.01936681184331271
83,9.298729311641852,1.6815930349454289,0,0,5.399494804627738,2.952159193035004,4.472147672239024,-0.09391828929903381,-1.5887577556637509,0.12494023590524478
84,8.858288907822033,1.6189349302147331,0,0,10.785499764481182,0.945194080310965,-2.490589785283782,-1.1524044830651756,-3.5699832307622015,0.2819227358095088
85,8.542516692726393,1.5432856652749387,0,0,11.781547961092727,-0.9202485363735469,-6.391320748798994,-0.6291428377359576,-0.6604925153216957,0.0797505008116719
86,8.355442139690716,1.4555972045437844,0,0,10.230776935494074,-1.6305469865397353,-2.7904682990371104,0.03623561113653715,2.5676656064092698,-0.0829838526454335
87,8.300555148459255,1.3603041963571385,0,0,7.3516277384317785,0.168074709250805,1.3926778749176039,-0.014738964338640624,1.2473545453436143,-0.1150255376752361
88,8.383463060056068,1.265089743815806,0,0,8.534408547098478,0.46197241422638996,-2.1218254760843998,-0.7678831792053878,-0.9105712470652345,-0.030911378355225984
89,8.611915395496784,1.1798832940750597,0,0,8.907060523559258,0.4944831227146756,-5.209187687605738,-0.4401907121228284,0.18087059088297944,-0.1353848427957274
90,8.993322479116376,1.1153380017148509,0,0,8.425815001802356,1.109249260268206,-3.6443736923232293,-0.39530370535606546,1.415843312022893,-0.271475296749646
91,9.530423040964939,1.0810945915611603,0,0,7.9096567897721695,1.8154764830011882,-1.5115113668843716,-0.45741696101895063,0.8725699247934908,-0.37938061338432594
92,10.216078733831791,1.0841195008577502,0,0,9.150349741158344,1.1706978669927923,-2.0797884763295698,-0.5968387328621694,-0.5518808850367356,-0.429659795868199
93,11.028380137642912,1.127356267709398,0,0,10.661851317761617,1.6726096154339494,-3.864241536698961,-0.19083784187445685,-0.6864232151100094,-0.5020505647015537
94,11.92730249029941,1.208889935840757,0,0,9.369497787796083,-1.6455289924451417,-3.3405885744033,-0.0022299351372122534,0.4872831605463207,-0.23162131142464995
95,12.854019228620391,1.3217848297894672,0,0,7.832414924641798,0.4625899659745286,-2.2046417257029525,0.3779874407239498,0.8849383150882867,-0.20375304981539596
96,13.73368071501707,1.4546797068722932,0,0,9.388762593033913,-3.32215134964232,3.3628307737005025,-0.0866289707400497,1.5579350804467296,-0.027804938884511417
97,14.48193480185572,1.5930981048530428,0,0,11.31468138862363,-9.001446677025086,8.331615324533658,0.8555985161703888,-0.590218088852026,-0.6383213521324653
98,15.014644653781428,1.7212841155212912,0,0,15.724331742610882,-8.69292029038659,5.145864811690966,0.7393571268685052,-1.6040367738191457,-1.178601260454387
99,15.259347185272803,1.8242517015484694,0,0,11.650108333634494,-2.7164525017771637,-2.3045408592354018,2.0938572769311974,-1.5287969738995468,-1.7882190390336787
100,15.166413004768982,1.8896814073926604,0,0,15.267231063603198,11.408699381658897,1.536059736519606,1.7253805856027247,0.8041131352112326,-1.5646579892927295
101,14.717840476848748,1.909347385811388,0,0,13.607488821373485,12.487170912668857,5.971042982817165,0.22893339600965074,0.9180124189984246,-0.14201277238434262
102,13.932017353201726,1.8799144287694025,0,0,14.436262029724595,4.429276595840171,3.573666909821532,-0.4905203795090018,-1.566922496134951,0.6817819124896224
103,12.863464596266295,1.8031360014774542,0,0,13.13460186882384,-4.771011060469153,-2.0834780813804197,-0.6813436824566792,0.11350223195180346,0.5631670933523271
104,11.597520189083431,1.6855901648924287,0,0,8.234072314618118,-6.0964047376931605,-1.6320965469231645,0.8518633422965128,2.6183264926082783,-0.3406492783466769
105,10.240982977217792,1.5380608698661422,0,0,4.566664801038265,-0.04187706423796504,4.266652257798635,0.9642314423143575,1.534362980120572,-0.4915471082487425
106,8.910551522961702,1.3745824973513643,0,0,4.853766151949691,1.6116937090783032,1.877887210294842,-0.10925213045427705,-1.5327215456076617,0.11083051321806534
107,7.7211196333471115,1.2111334576323036,0,0,7.159446025446995,1.8751121332790557,-1.8896181026784753,0.14056713381010766,-1.379671728480562,0.3037219384850884
108,6.7755529748873995,1.0640347620024675,0,0,7.1898160924259225,0.9950137618260542,-1.43021467061595,0.11210815425936389,-0.03785531049453846,0.4465453783869489
109,6.156720396906006,0.9482275154979112,0,0,7.235296864996648,0.15644464613535955,-0.47154224958085506,0.07766939583274271,-0.22589340482823825,0.43893029127721617
110,5.921738940658026,0.8756819556854348,0,0,7.781591381548083,-0.5467140840884435,-2.4785059652763355,-0.36697094145496884,-0.48792891442851116,0.490150787911777
111,6.0979803679956675,0.8541799314124171,0,0,6.664122978534705,-1.1758659364495,-4.165159500668897,0.11421679503492053,0.48006615535220976,0.2376126597933568
112,6.680470904644388,0.8866221039814636,0,0,5.71289985169309,0.5703399901631359,-2.2358323388376093,0.6427845644085013,1.2300234931828824,-0.061497695876416354
113,7.630751954728966,0.970893014434396,0,0,4.3724285312087146,-0.7391050997918976,0.03797423285818544,0.1659468744234077,0.9420312721748055,-0.005783593504368101
114,8.877784805857333,1.1002289974488677,0,0,5.395522238887402,-3.1357416558996754,-0.30228870337124875,-0.11511810562922893,-0.6390898004291505,-0.11305419891771032
115,10.32174639954268,1.2640004657387203,0,0,8.01294356691123,-1.8503991058688736,-3.197081125892451,0.23482867468674334,-1.7395507218200337,-0.31338249331749196
116,11.841343055777708,1.4488238464203573,0,0,10.386938338647958,1.6730990664405827,-3.0797851517004258,0.22198791761672396,-1.3332441686465533,-0.16276829221046743
117,13.304601420747824,1.6399275294576903,0,0,10.059877720472135,0.8853831535365952,-3.4701690464913044,0.2543440027543733,-0.12626494332226038,0.13481183290624746
118,14.582235175674969,1.8226896263014765,0,0,12.74988019149704,3.142871854722677,4.269512251762575,1.2724332674328451,1.8135901019944345,0.06740134512399627
119,15.561874780650275,1.9842224729438005,0,0,18.903265774652805,9.047464241881752,15.067702762306105,0.0710948785760481,-0.4043654515670402,1.3964040539920597
120,16.160870464634858,2.1147849162440027,0,0,17.620039183885456,6.0081956898916875,3.6839730972984857,-1.4284778528023827,-4.007353778169008,2.6645282195542435
121,16.33532033527275,2.2087056695374234,0,0,12.164053582603826,-10.078539079016783,-3.3473211502855413,-1.6195072786616695,-0.23245554148339173,2.1103031969484465
122,16.083692938400706,2.264518921115073,0,0,12.135353019584855,-7.538557297834639,1.7995509975679638,2.321675945899789,0.6837213355472338,-0.3814704290530399
123,15.444698349953649,2.2842298110580233,0,0,16.194130968830986,3.46091079817515,4.240979226411755,0.38652013243808914,-0.27980380464232374,-0.7345129468459889
124,14.490261822167426,2.2719648678573234,0,0,14.757746692873972,4.587147106889724,-2.9586311618855667,0.05523966577582208,-0.6288713471803953,-0.6029521740284376
125,13.315129372403511,2.2325111144167726,0,0,11.325358444709956,8.014075310534121,-1.1008442988563782,0.3813091038404145,2.177639595264152,-0.3253254723395198
126,12.024910452203153,2.1702440325150736,0,0,3.1954285501062505,2.8221347634263325,3.612320234340336,0.02270166714433351,1.832470354920016,0.14200525022168006
127,10.724498992841689,2.0887110680422203,0,0,3.4250600602572714,1.812707920033803,2.5577304201129376,-0.5404872760855887,-2.3160147501812105,0.43481191482003634
128,9.508708298513744,1.9908387668882501,0,0,10.474353260889822,-1.423950096587635,-1.3669938501599612,-1.260218569465429,-2.934427942474537,0.651819631828343
129,8.456299977805136,1.8795280152774052,0,0,10.653429646267059,-1.6571669041891097,-5.0571518538660465,-0.44098188806109506,-0.5236502380667665,0.0035680175243906448
130,7.627448550355003,1.7583523587901808,0,0,9.316805702552635,0.3027210526659227,-2.0566362953016633,0.23873046619306884,2.5126045514999613,-0.21566045706278275
131,7.063663458131006,1.6321370292726887,0,0,5.706560499286375,2.216374257161142,2.710136203097903,0.10102511675798276,1.6827915145563774,-0.1994390440973126
132,6.788857116931244,1.5072872211543908,0,0,6.679629526629963,1.9362443133958065,0.0680587426880032,-0.9537471924965802,-1.1576338986351333,0.19031319576958033
133,6.8105718027927225,1.3918021260706563,0,0,6.971805852023759,0.9790300413317979,-4.476999315367915,-0.8371902061433529,-0.3577105325798558,0.25066055335224696
134,7.120906997953429,1.2949562701762511,0,0,6.530440966714513,1.8812271433415317,-3.641240016251448,-0.6768414432647455,1.4706075920539776,0.14568287188096146
135,7.697102966106083,1.2266578042901308,0,0,5.103680480961005,2.04469070949441,-0.7491662744374383,-0.5902175944718984,1.798115314917161,0.06378934944941497
136,8.502013019308889,1.1965047902776116,0,0,7.040427765559797,2.7853632182035777,1.4181712707442249,-0.680166257151961,-0.35449407728264987,0.0970977453676337
137,9.484859771764855,1.2125786812814636,0,0,10.751807209988629,1.2281483462894291,-0.7035736713318855,-0.8455488231002823,-1.7908145729027036,0.29618438231524374
138,10.582670902234554,1.2800693176222329,0,0,11.447715852918996,0.08028024165527384,-2.9726196281595048,-0.7405766785464948,-1.1814958919428882,0.16719608032305253
139,11.722664155649564,1.399915486887642,0,0,9.547829723901486,0.3067839974118762,-3.6085309486925836,-0.4060597917260654,0.0033385672616165203,-0.008215245913603543
140,12.825760828414294,1.5677374851853145,0,0,9.558050970248841,1.0502808420045546,-0.09738061931410534,-0.40556976573843306,1.0236697966054231,-0.09295008406374215
141,13.811395667073397,1.773385353907537,0,0,8.770986563294862,-1.8691725543318642,1.51826965125279,-0.6368972737337381,0.5058998164317224,-0.15122717224927282
142,14.603645728277185,2.0013731038700966,0,0,16.181743253106013,-5.558409246455039,9.535095736203226,-0.4964683318620653,0.10121502960015534,-0.8612780878178864
143,15.13822150494553,2.2322892477987137,0,0,16.966093368480614,-10.573632035499841,3.352787327683162,-1.415351573233498,-2.2708398707255215,-1.7734163459793542
144,15.369250044040076,2.445009324649597,0,0,11.500425235967048,-1.455836975003826,-6.511405767960286,0.7508799981947243,-2.2820373470875177,-2.4146648616079966
145,15.274545333189474,2.619293298840508,0,0,13.359785527520186,9.182497750727926,0.17253426343009454,0.5219478867933594,2.953167192680041,-1.5601088685733804
146,14.85844531013248,2.7382511475776887,0,0,8.59710628220479,7.448852698521348,6.276167387433399,-0.5920939585356526,2.0130773289070114,-0.14056206371063334
147,14.151953032043973,2.7902509211256383,0,0,14.546654100500668,0.8553657873502213,4.3118978820981395,-1.2129455006090617,-3.146750496140576,0.8104839182949537
148,13.210362070990866,2.7700473233348606,0,0,13.334233219363155,-7.070786955878684,-5.67010124264499,-2.2908813504170626,-1.0436841966192023,1.1248887870450595
149,12.108680772499884,2.679099562613907,0,0,7.172440318395252,-8.352911988843136,-5.8647848269057326,0.6934664916321492,2.4956507754591697,-0.1443529771086884
150,10.935257805236988,2.525167207166408,0,0,6.0210634214314345,1.6971948917127226,5.331435515146814,0.8679956622829311,1.7156665965639142,-0.8736427845094081
151,9.784242512169032,2.3213358542801634,0,0,6.209924146209104,1.8572013384866974,1.1558332487848568,-1.139981649569481,-2.563116972426363,-0.05141428283448913
152,8.747752641142155,2.0846491194830543,0,0,9.631561007646187,2.522559567848098,-3.9985832928509484,-0.5848474825983281,-2.1882424539853838,0.00403792238955061
153,7.90858657704142,1.8345222867495778,0,0,8.228965252241734,1.3715375674573116,-4.718227495114297,-0.8770475406577111,0.9316555333832303,0.1860328129010299
154,7.333979580863974,1.591109836841687,0,0,6.4777862333342675,0.523786444494686,-1.6809289368929479,-0.3646948650972322,1.1544878564359558,-0.09754985418635709
155,7.070571429014421,1.3738001897522982,0,0,6.188471585163718,0.8715172687381618,-0.5771770660728426,-1.0773281357255555,0.12943731510206125,-0.2901068527675944
156,7.140681618315392,1.1999840147528764,0,0,6.840943836770443,0.15275709228569453,-2.0425668694411128,-1.0208780464000449,0.08863770218197321,-0.6171181139313604
157,7.540094778818333,1.0841627169127381,0,0,7.696073221512958,1.3958944783932627,-1.6417277655612585,-0.9126613902115641,0.5227832262270501,-0.8789203169336566
158,8.237623724102797,1.0373590978837104,0,0,8.061194447939764,2.1021275315775196,-1.8153856620452502,-1.018952467219797,0.14024287047928863,-0.9391081368415288
159,9.176687828182256,1.0667207229696611,0,0,7.447760171725994,0.761869592995162,-2.979942891176684,-1.3198257578801493,-0.21495424236439195,-0.7166206141195941
160,10.279101693907437,1.1752074225014997,0,0,6.622805359979993,-2.6001779469680932,-3.53033803075189,-0.972287808222221,-0.40037114825565956,-0.2401269268820515
161,11.451215430550608,1.3613250938880213,0,0,7.825744201267662,-3.542718972712877,0.10119433784865312,-0.38758589427058543,-0.5633796120015372,-0.06728611931553605
162,12.592346865562602,1.6189655358112391,0,0,9.567767344482299,-1.6260676712484656,3.665347404922595,-0.7284028757819202,-1.5265828377583712,0.1582699288810811
163,13.604958313454743,1.937474600222698,0,0,13.399498740330435,-1.4069769842234336,5.1833857563493675,-1.0460092108767878,-1.647308301778331,0.7425584943300331
164,14.405293292917777,2.3020636512172588,0,0,22.687003403523118,2.426376388042175,7.809821616718733,-0.11608189131598774,-1.0014423766161855,1.4399295939571966
165,14.932529300283223,2.694620690870511,0,0,18.5000680508655,11.602981154013918,0.7671400541141138,-0.76855591507354,-0.19035105268668798,1.6092583974964123
166,15.154465958901358,3.094901746698985,0,0,7.426188041484861,6.570550243849895,0.6591289694320431,-2.5307882211987573,3.980907920187999,1.0129464581936447
167,15.0686877944076,3.482000613061462,0,0,7.238648764494201,3.521852297181506,5.722782667033419,-2.4789935686174194,-0.3456815690301148,-0.08457891557963823
168,14.69961324945657,3.8359225159083463,0,0,14.593905907517755,4.698865695177547,-2.880872403214207,-3.3666138469763296,-4.031707248043476,-0.19633447113029576
169,14.092899283775338,4.139070121989721,0,0,13.422525560141146,4.853415851396037,-8.99282100009347,-2.8659221729538986,0.2844882963545812,0.026815151171293523
170,13.308763855662626,4.377506079521363,0,0,10.203497261297827,4.202794608258962,-0.6010161272896122,-2.8201416513962054,3.580830187687606,0.06435275147247926
171,12.41530251748337,4.541933561652294,0,0,6.9527642353318795,3.7539230029578032,2.9649434107955694,-3.8257116556145143,-0.5959489606212258,0.23149096722886406
172,11.48244059560637,4.628364431502076,0,0,10.943223416407356,1.249346225787585,-4.158428239859058,-4.891804906668752,-3.5005980749976695,0.7662827088377853
173,10.576871467659306,4.638409448393146,0,0,12.077522795299922,-1.5472467752736483,-9.481095108475476,-4.493440698477068,-0.3667273287456159,0.5452037396347852
174,9.75798508171313,4.579087059643512,0,0,10.228405689924731,-1.1292374824257103,-6.042826702991381,-3.7707477537084277,3.054529652116451,0.15635509960029953
175,9.074513186634656,4.4620804349563645,0,0,5.960190974547154,-0.42938302244510634,-0.8572713347069179,-3.8796225905468744,2.5051981521209647,-0.14495729564873297
176,8.561729033023472,4.3024827136377555,0,0,5.635406453008202,0.5885125939613092,-1.655150055154698,-3.877717652528749,-0.25530039961728945,-0.1656414682355923
177,8.2394680989754,4.117195508100948,0,0,7.162867940548686,0.516467605359154,-2.8427477555355734,-3.597542866711681,0.5524830387745785,0.138117598530282
178,8.111497388014445,3.9232198364915583,0,0,7.353626832399779,0.06991330885083474,0.5345002754240155,-3.5003530479014815,1.2712848021383518,0.22094312357607093
179,8.166542085954221,3.736073232946328,0,0,9.028295227642499,-1.010612944286478,1.1683344529122428,-3.923653828159319,-0.37613727359175647,0.2520541409981707
180,8.380760476696612,3.568493548784026,0,0,10.749963799654216,-0.386153747426717,-1.2195912736439638,-3.6924897937005183,-0.44327144715598776,-0.08159882017823016
181,8.721036733875938,3.4294962901070063,0,0,10.190415481704344,0.983449727226733,-0.15890851413719886,-3.3692788544547705,0.44776163218592197,-0.36163402568137964
182,9.148388127831115,3.3237927438006136,0,0,8.370655445693506,-0.10414649481971273,0.5971017209452756,-3.3027161583783182,0.11872363830803907,-0.30169741251767573
183,9.621065464124179,3.251568578751788,0,0,7.773489780199504,0.6715117311667046,-0.06883835495153844,-3.0722129195205894,-0.049853008683759005,-0.3538666588046954
184,10.097356967408018,3.2086414908728194,0,0,7.514260158089442,-0.01147923740195713,0.23963626679185365,-3.0487839590858417,0.2258964847322769,-0.32558639052548494
185,10.538368593119683,3.187025936851987,0,0,8.87737245675484,-2.7087635485871515,2.8339659535305834,-2.66887108677266,0.4137597819053627,-0.5327913086540618
186,10.910931718667523,3.175913021078155,0,0,13.705358890500197,-3.642661460330271,1.581005946290554,-2.8086909235803375,-1.157056818755143,-0.8116347029777549
187,11.19036118880828,3.1630209836145644,0,0,13.726074418740929,-1.4880394527966005,-4.729123031581091,-2.8001860523985584,-1.4974820558363486,-1.1413903488652148
188,11.362413155753048,3.136197970858209,0,0,11.308647603982548,3.8308761162088203,-4.41700127524023,-2.7317686808400223,0.3632675377691878,-1.0370530237876023
189,11.423849505127192,3.085089238153757,0,0,7.747787456353123,2.174146071373412,-0.7660014064075855,-3.10044037347184,0.7447204370695485,-0.49834579740227125
190,11.381541446519302,3.0026396128316963,0,0,8.176826927952115,0.18297218754473088,-0.540369962365485,-3.0535959242430635,-1.430437672869809,-0.4222234169594416
191,11.250639336008511,2.886196851987633,0,0,11.337368168710281,-2.7580811802976437,-3.4387048995107277,-3.3870833332283197,-1.8685402963206725,-0.3232099874383686
192,11.052518807199734,2.7380180805875165,0,0,11.43677157873896,-3.9155012311463424,-5.282295478138106,-2.541924217575089,-0.40167715427971645,-0.6408674821876683
193,10.812912251456032,2.5650752351982717,0,0,10.22239391026783,-1.8761883182855883,-2.3741509210721787,-1.9060126277852523,0.8813300367577728,-0.7317440293435525
194,10.560226586607522,2.378199554236391,0,0,9.032702330494589,-0.4147237491073193,0.739440607452249,-1.927566485650021,0.20825572023937103,-0.4630174796467664
195,10.323890672805087,2.190740839965133,0,0,10.232755527086148,-1.6499033590830543,-0.5514457511114773,-2.2267518776349617,-1.1540815660185602,0.022547237364535736
196,10.13264279331539,2.016977593171733,0,0,10.982537262878479,-2.921070228884887,-2.7806586539623797,-1.8976490311579535,-0.7389866936028987,0.0825962062192067
197,10.01273397628955,1.8704958731162942,0,0,10.162394729058553,-2.0445258501431813,-2.0740594846640845,-1.4801650345053496,0.0733055178068974,0.03803961340039188
198,9.986026442636835,1.762710786415539,0,0,9.037010792372993,-0.9493802487637386,-1.0943569583078065,-1.5285140562548862,-0.17559239701552376,0.010592780452215648
199,10.068020003735013,1.7016696605217316,0,0,9.162084178215368,-0.3708019353020776,-2.5655311219610493,-1.700435020623798,-0.8128007941806474,-0.041095473452479214
200,10.265972203280135,1.6912394588257857,0,0,9.658948579122583,-0.6552482790610098,-3.9351868567589032,-1.6554513047810664,-0.5658256924336169,-0.05806054191986974
201,10.577376298798182,1.730732444366467,0,0,10.234477016314464,-0.34893556799588954,-3.3528403281350134,-1.4897129430227871,0.020571409635163573,-0.07709323948015097
202,10.98904627578571,1.8149806330207996,0,0,10.245823442963202,-0.4050772686231821,-2.554600335669568,-1.6749425688859045,0.0015924271796329058,-0.017049020890596112
203,11.476980647042769,1.9348438298116084,0,0,11.029990732619718,-1.0038955859988437,-3.11627204959174,-1.7755817421385283,-0.43451977770816796,0.04272962484994245
204,12.007114267064441,2.0781126530473375,0,0,10.991695876490416,-3.096096099123269,-3.108628868082568,-1.80143401971398,0.28288680515872033,0.08061658685267735
205,12.537029440436667,2.2307268934271707,0,0,11.879051169972152,-3.1911221724648615,-0.5309404159383909,-1.2578372630849597,1.6847141693693317,-0.07425839072084808
206,13.01865667581574,2.3781717510872835,0,0,9.991041614465143,-1.1498600444107,8.513006113269899,-1.4921970673829419,3.4246276891023673,-0.08514493763382094
207,13.401942488069873,2.50686306744351,0,0,8.055058310050372,5.527017027167888,8.632860490951188,-1.2915558912252765,-0.3258433959611728,0.1324060513759987
208,13.639403922770384,2.6053205333108553,0,0,8.42166639259341,8.871567013049521,-1.566886955247599,-1.9134041765481256,-2.727114364550618,1.1631900984818744
209,13.691410851254988,2.664970822390598,0,0,5.4578740397875185,-3.6926524777992955,-5.361282636926509,-3.127953294076791,-0.610556467822717,2.0771775819173732
210,13.531857327676635,2.6805074768342836,0,0,13.424917781196909,-8.594043152850292,-3.0837293296718,-0.7874448801845235,-1.4283613391250791,-0.07877400201941359
211,13.15350700018549,2.6498439859635723,0,0,19.957832357915816,0.7702041389641375,-1.2342897885810646,-1.0938824651918264,-0.5384680556278181,-0.5360324040640574
212,12.571825466102306,2.5738031629452327,0,0,13.144007763589551,1.1312635557107962,-1.4623317916658372,-0.7848240477306581,3.4136132952867975,-0.2182586692625903
213,11.825945687033668,2.4557227335506644,0,0,9.988025492763477,7.24394233517164,6.218355138629777,-0.43245005566044803,1.9345995117909494,-0.5344405849331108
214,10.975897419792204,2.301083936201451,0,0,7.56840364510553,4.812240401296066,0.6112226994363129,-2.1531500766084255,-2.1989878084204704,0.4057213039271253
215,10.09620432128041,2.117155815706267,0,0,10.343283152483027,0.6051942100107166,-2.1316553072508904,-1.5227567383415133,-1.663798497963893,0.42495101702935173
216,9.26687520221894,1.9126007732415375,0,0,9.299513364930961,-2.1412279238373904,-2.5336874723917946,-1.2735476944695954,0.11199258882741893,0.06701131179127853
217,8.563327644046698,1.6970302433426452,0,0,6.196544718535736,-0.44278285541485723,-0.12409198969463477,-0.5242348040906992,1.243414161939015,-0.45862252156561495
218,8.046908241135938,1.4805658288812582,0,0,3.985012493574473,2.2280493336773555,2.3098757279167237,-0.9397052273418169,0.11802129539598367,-0.3676751732257676
219,7.757557027503151,1.2734720699595086,0,0,5.044318546751225,2.7935500415689405,-0.0419767133766628,-1.337297898633748,-1.2919948678590998,-0.20975498532487782
220,7.709813931784819,1.0858619455471936,0,0,6.981693734057837,1.631632216914872,-1.7519907025060364,-1.275143069133701,-0.8258081649368026,-0.003861582996849813
221,7.892744546116727,0.9273902218661754,0,0,7.134401821119397,-0.6228185691251671,-1.850737778969868,-1.0728753613307416,-0.36211467099969985,0.12661275526780263
222,8.273586229484183,0.8068218924285875,0,0,7.56704648870946,-2.386668682215371,-1.7021692977130871,-0.7768008508351155,-0.2917645698064595,0.06286638224407516
223,8.804219846322399,0.7314220123489136,0,0,9.066832819345437,-1.5221013218044013,-2.6162164794333433,-0.5332891120702761,-0.4072963274638167,-0.0015466535389038957
224,9.429118433838736,0.7062181886770538,0,0,11.03736030739575,0.5413274422358706,-3.0628613825849365,-0.45097286718447016,-0.13501513487790817,-0.02278593527058684
225,10.093242684443576,0.7332736588791324,0,0,12.196999554705299,2.665893900075891,-2.7019777023860763,-0.44821321056178015,0.07495845264091486,0.02662180702040906
226,10.748450577140366,0.8111401073961786,0,0,11.962594567991644,2.5996121444360805,-2.536745542490111,-0.6734209384720155,0.02695693141827719,0.19208246790789726
227,11.357390545484485,0.9346336439305736,0,0,11.628881165491226,1.3618677460077797,-2.620457667013719,-0.8552848923758838,0.17259619276002303,0.19469476116768689
228,11.894513102907673,1.0950143747720917,0,0,10.56614908826078,0.5589405030711957,-2.6924389261272426,-1.019315998616267,0.508135932652934,0.10402521250715954
229,12.344585691536272,1.2805780812943328,0,0,10.082477424003397,1.0041197926320675,-2.7961666294345036,-1.068200596474944,0.216826468200483,-0.008404427613021941
230,12.699670497917136,1.4776107115446588,0,0,10.449318680202808,0.4897935764438643,-3.175857934412741,-1.2630166384221724,-0.13226918007778138,0.1474347916091922
231,12.955726510026086,1.6716153282552706,0,0,12.555869942911244,0.8509194699343124,-2.778682102429962,-1.0961111551293232,0.4521100662709437,0.22541088213528926
232,13.10980178055171,1.8486807531762164,0,0,13.803858037421033,-0.37600556863945284,3.8149996922746823,-0.6176953424422224,3.1212244303347036,0.23197321231987578
233,13.15836211967539,1.99681385408768,0,0,8.594591264076412,-4.77293144929117,8.966177228978417,-0.4832975322912446,1.2758576760174338,0.12370758246676022
234,13.096919538002501,2.107029494340518,0,0,9.323193835271356,-4.014491226293235,0.03727081339095678,-0.8111506918664206,-3.232682197783315,-0.2294171746287889
235,12.920924671338337,2.174023306989509,0,0,12.371142138084402,0.4041318529504678,-3.785398413237476,0.17373945066707736,-0.8688941944147837,-0.7481712119020988
236,12.627784837564565,2.1963458480691664,0,0,10.03383398043591,4.028378834833548,5.137389221473735,0.5522392096507726,3.201584206385012,-0.5830065075959139
237,12.219678959118072,2.1761100431566933,0,0,9.077518327129873,0.8788863523982335,8.795868815329191,-0.06134585121225895,-0.8494124454120506,0.003988653358692646
238,11.70653066319521,2.1183497931923303,0,0,13.778661336815974,-5.139653708272353,0.2110145408708619,-0.24272774752652632,-2.6953227270318085,0.06572249463782105
239,11.108244285007656,2.0301825137397445,0,0,14.218029345197133,-2.4062177641837708,-1.9095407806758677,1.317295964498052,0.8401793548043309,-0.5729105314779444
240,10.455329511306388,1.919913710269806,0,0,9.747090492398643,1.2265263768248935,3.6481504343945055,0.9895566749932202,2.608437246652602,0.029705155276900416
241,9.78745033566464,1.7961841691285632,0,0,5.388770910609647,0.2501406052276046,4.592177339984038,0.5463121983085508,-0.09305799194537002,0.4954051158762562
242,9.150108180688434,1.6672371997271191,0,0,7.889949360130864,-0.03455840635142346,0.5141376082427165,0.5333875650240029,-1.7461158735285565,0.6767421714675819
243,8.590251113423383,1.5403818875251363,0,0,8.421576226313714,-1.6755894089135954,-1.5506959218579839,0.8176531000930671,-0.4913886813148934,0.6158268840862516
244,8.151768522986474,1.421715909939241,0,0,7.36228626594349,-1.671536153502634,0.3066658319485698,0.9849836663120899,0.615516493473815,0.601744299553631
245,7.871586735018229,1.3161215100801489,0,0,6.2785817455916595,-1.593804032321547,0.7952224629510968,0.9600685348075113,-0.31232566513445625,0.7141175143548716
246,7.776684554229501,1.2274723926763413,0,0,8.623540953365527,-0.6608849097189713,-1.3780842626723633,1.1635570054396622,-1.2493118785227244,0.623922572024106
247,7.882009417382282,1.1589205059599677,0,0,9.821872786043985,1.3477114858877668,-2.9484896496577973,1.2515278853579839,-0.08292397874926373,0.48143938344675336
248,8.18906780665989,1.1131031649975378,0,0,8.22625465462316,2.8353475002323596,-1.5562256254624889,1.1895266781019291,1.0808956470516773,0.36436019196489333
249,8.684948666344248,1.0921461823061056,0,0,7.16711210771612,2.2786406235646153,0.044532006028723536,0.5729881543285835,0.19611333551922097,0.44531649299556453
250,9.341752940539651,1.0974320827580508,0,0,8.105364286307259,-0.45339686591041506,-2.076687688062621,0.10290322984994033,-1.009369966035124,0.29354729855983414
251,10.11671959723195,1.1292114588374527,0,0,9.35380511046225,1.702860558058043,-3.10320507735867,0.5635432632748023,-0.2674972749341894,-0.4202341953667737
252,10.953523919842201,1.186206230520652,0,0,9.59629223036344,3.174294879051015,-2.0320768055027694,0.47166739682366376,0.7808176385932896,-0.7588671122110061
253,11.785164746221275,1.2653588697700036,0,0,9.238597790987322,3.6728716958305503,-1.2735065873522566,0.40008989275859136,0.589723654467389,-0.9789295638637261
254,12.538620875882941,1.3618345477537686,0,0,9.65028364513733,2.4537555740713604,-0.09489231301087983,0.05817655130111511,0.7178879093279086,-0.6105339948575305
255,13.141124029410262,1.4693145204074296,0,0,13.852235068327008,0.21491835667954312,8.521642791964288,-0.5041230273658914,-0.017871261192992698,0.7913967249711454
256,13.527492613136383,1.5805454591139416,0,0,14.839101017379072,-0.6785009391188889,7.634876380643391,-1.2702996065911938,-1.9134917419343151,1.9692366983576897
257,13.647611046434646,1.6880369712207994,0,0,11.702976897263712,-1.2115494649851226,0.4717065026140174,-0.8024710540231098,-1.0183392492541896,1.6228517014218373
258,13.473047596324534,1.7847612376680249,0,0,11.09311196936536,-1.1689071665016726,2.862436801533138,-0.14758047238384964,1.1655044687194958,0.8049114089615489
259,13.002033417748965,1.864754093235815,0,0,13.144081354709265,1.7722123262071905,6.601968237023012,-0.2416610998164707,1.2171700140526516,0.30948368361228057
260,12.262320597243583,1.9236315355331361,0,0,15.199094181507949,0.8875629151608093,3.309832742159102,-0.7857502440288028,-0.5480500734239111,0.3612537704688375
261,11.311569753373659,1.9591169483565396,0,0,7.290431047435893,-1.8700715971336144,-0.7546509961450474,0.034840786478286055,2.1862404132210775,0.43726551647306805
262,10.234975337719748,1.9716307383886968,0,0,5.883255206108227,-1.2482397702461088,6.929427592219113,-0.015533973243949636,-0.4739094573370491,0.38684703388526986
263,9.139956436917812,1.9648367897994632,0,0,11.345826786241469,-2.111961921087724,-0.1639516078516401,-1.1537268224935369,-5.0946859250523024,0.19410724724300288
264,8.147834560404338,1.9458681896321093,0,0,12.68567440069937,-0.7433404228793692,-7.316290354729564,-0.06867429913012278,-1.9204055768247668,-0.643942235083959
265,7.382456144706849,1.9248948666285635,0,0,9.14601912819007,1.701057084991801,-6.350781493109591,0.20240439339835445,2.019104363721886,-1.084414644175396
266,6.95601264072465,1.913833292537797,0,0,5.081997829716957,2.3813651413146615,-1.6337021234358733,0.35329720085725,2.287361688438118,-1.2399667651046802
267,6.9531760138036915,1.9242992841285098,0,0,1.9661822919502094,1.9942007834116984,-1.8461200892783307,-0.18553169538986528,-0.22160410429678942,-0.6914383511992711
268,7.415875856695871,1.9652234101756476,0,0,2.493929099994871,1.8426480535274592,-3.6959972893408786,0.2630649797019604,-0.022987156145016268,-0.3671233857503394
269,8.331921603677158,2.0407340966247234,0,0,0.34280020951222506,0.6269628309306585,-0.2637374741900202,0.3833392185513831,1.38395798206312,-0.036328614229065144
270,9.630669077390126,2.1488857631504574,0,0,0.7339902164542323,-0.1965446343587962,1.49376637650191,-0.16878660182354954,-1.4142791379976483,0.0008046162500726008
271,11.18792013110141,2.281574164077275,0,0,6.165240838354752,-0.5293316246500929,-2.221442863469533,-0.7306699796936728,-3.4785616921367715,-0.11049419325375645
272,12.840383789551124,2.425641426080379,0,0,10.887727084680117,0.4408304575992703,-4.879943946585866,0.22374740158911977,-1.2860338118685897,-0.17956385552838527
273,14.407661238816148,2.564880888795368,0,0,23.675947883800823,-4.870342048943284,13.576179461478915,0.8725094577702479,3.2820951244252963,-0.3858642265145116
274,15.717526858175628,2.682497100457315,0,0,19.63832731463316,-13.245757764133408,12.877328712994345,0.5686845483836568,-2.6359278321531336,-0.9378704856888842
275,16.629236949287865,2.763547837597238,0,0,15.286278449414437,0.20768240873777574,-2.9665612484898345,1.4539495560890052,-4.381498981430254,-1.4914505724352785
276,17.05038325334432,2.7969560875517647,0,0,18.060408471128497,9.05880525384574,-0.400098116541855,0.20283839654571326,0.759200059786746,-0.8203117262486477
277,16.945088595934056,2.776824599497653,0,0,9.405502192972357,2.3351556980095274,4.583602181650303,-0.3405961154999473,3.47329230835783,-0.11675134042293793
278,16.333866446488955,2.702984302050726,0,0,11.174375425407659,-3.1274422686538443,7.529846066197732,-0.207188452493713,-1.574083728370271,-0.002176522854421973
279,15.287046625914193,2.5808680749617205,0,0,16.283235280208118,-5.206022256808174,-2.4904476544836025,-1.0237485781591333,-3.5955316475872356,-0.22381393794062657
280,13.913989574235096,2.420850703830142,0,0,15.38620218896519,-2.8649011131097164,-6.137444743905582,0.33756277040620586,0.7008909977165235,-0.9568102229925876
281,12.349876252630581,2.2371611861918517,0,0,10.275076058748304,1.3937653729870174,1.256003505515909,0.736411444976059,3.9730040796832404,-0.679649548048563
282,10.741407316756007,2.0464348566534865,0,0,4.7483288587793195,0.9475844028741374,5.512165521841987,-0.38575793879167847,0.704534003715944,0.10840736318576294
283,9.232622421592083,1.865980631253856,0,0,8.485757183340537,0.29686966484356037,-0.004160936081779164,-0.6544969495490994,-2.6510754010259747,0.5247106196654859
284,7.952036808593434,1.7118933281571502,0,0,9.74559908056599,-0.4099453740660447,-4.108656380168271,-0.8203017556083829,-0.5370294688003027,0.5088384208996652
285,7.002061151708619,1.5972103453456326,0,0,6.650331073336945,-0.6845418392421854,-2.655763182782863,-0.06726585222171662,1.4794210688153047,0.1743282683407772
286,6.451285755366288,1.5303568959896081,0,0,3.560703085995401,0.33561151223482366,1.0502122642084495,-0.3850128514738556,1.1094495801457738,0.0404898004451956
287,6.329961505304138,1.514121337166528,0,0,4.044170387327443,-0.7402474636459895,-1.167912152039111,-0.6578324438797248,-1.0479538547501477,0.16530106267804304
288,6.628929709513409,1.5453477951239676,0,0,5.68114494948179,-1.8203954715599804,-5.01262817861817,-0.5565082004478189,-0.5342278661636646,0.036794269422265415
289,7.302096573473552,1.6154327678095823,0,0,5.256107755539853,-3.311362327699299,-5.042593681963627,0.47214822210659646,1.5675481666603308,-0.26465798913713573
290,8.27220654514063,1.7115769140934343,0,0,4.284977486138349,-3.94490183523637,1.6677242666554195,0.7990861752710476,2.206585685459289,-0.34311244697046767
291,9.439309080819688,1.8185976805675088,0,0,5.064218136622927,-5.6848761341717005,2.7147207550878347,-0.3137820007993959,-0.9778892178306702,-0.08669063964532388
292,10.691070682317402,1.9209954464556367,0,0,10.877632217489861,-3.598538713170585,-2.751943836406519,0.15426265973838124,-3.303396881831461,-0.16978088811061912
293,11.913882092959454,2.0049237080904536,0,0,13.968664060644347,2.0115060668831286,-5.202194467187448,0.3839825014839785,-2.5706925929078883,0.203722104605485
294,13.003499726169148,2.059754086387384,0,0,14.705800898334408,2.113626769082612,-4.603632655758227,-0.09572906561333462,0.7548460919685173,0.49400620609717444
295,13.873919892273042,2.0790375448226532,0,0,13.463787632982761,2.718479558026877,0.3389353049732924,0.05223136013069724,3.0784779630529906,0.21700249717744918
296,14.463517721319297,2.060804110623283,0,0,11.677110817608067,2.037515880185486,7.139113572756986,-0.3706240724496474,1.5830676337224427,0.2646140837024173
297,14.738111930474163,2.007254651553026,0,0,12.576967603388573,3.5532301483263953,6.21304180812851,-0.24572709049384198,-1.71899759067023,0.541195102850766
298,14.691218601224888,1.923952275754995,0,0,14.008769858078589,-0.37960349449956005,0.92062327764853,-0.725663691769665,-2.69920040009514,1.2444839094439972
299,14.342073700983052,1.8186446129675842,0,0,13.096630507150445,-5.541669694804973,-0.7106476200847948,-0.21359661620085968,-0.7087090342523124,1.3006261120058318
300,13.732023886536972,1.699882528448193,0,0,11.568341542254414,-5.392907016052779,-0.01027960473422741,0.6138211015705752,0.7601346963718558,0.655990891447807
301,12.919744646190853,1.5756587015839008,0,0,13.1562649288501,2.442336933077669,2.8617155592594226,0.5300946947250124,0.7787526303492042,-0.10543546188825202
302,11.975571007768036,1.452335054423129,0,0,14.933817885175628,5.42160880695888,1.490964842778016,-0.573927510664723,-0.6363430177417069,-0.13020539969111816
303,10.975128045459842,1.3340952066557894,0,0,10.899811657411137,4.882434847622262,-2.415114725226235,-0.4243827408065106,0.496790272477116,-0.27001731761120396
304,9.992563276070191,1.2230179658812261,0,0,5.195972895910377,2.792878424307594,1.1789300106544807,0.022820522026333733,2.591399179755422,-0.4469125134866951
305,9.094054868047719,1.119669640419046,0,0,2.1863212095046487,1.5150741878564686,4.475853153846243,-0.04501869231920329,-0.09806009751610109,-0.517624732123774
306,8.332648448482049,1.0239526655061273,0,0,6.159620030962278,-0.10908171223860061,0.48744811161819007,-0.7023497000340213,-2.180863604403921,-0.1448710019812981
307,7.745428728816923,0.9359017570125528,0,0,8.319246648096742,-1.324106086373932,-2.379978385429089,-0.37163371884671137,-0.8104599479337751,-0.19389316211600777
308,7.353397437152888,0.8561950119802857,0,0,9.086268879603422,-0.27704655916050264,-1.8282595914042803,-0.11766764339169074,0.5189279210096078,-0.21160457337208466
309,7.1635449118808365,0.7862927475952189,0,0,8.224876122008395,0.6699624673468112,0.054459722852040024,-0.030523555038320802,0.8517590299499335,-0.06586550864458691
310,7.1719959958580475,0.7282582067477007,0,0,8.290572062706293,0.9336114825334896,-0.046720578257348176,-0.23223959283820705,-0.17703055452531122,0.12168282594783576
311,7.367039625272885,0.6843952995783795,0,0,8.506761954427555,0.2197804859337398,-2.4068954841470886,-0.30118601342792034,-0.30945102113562994,0.24700695104742823
312,7.731205303744186,0.6568419249134563,0,0,7.908975374873859,0.6912069966850349,-2.9784745734805704,-0.026275257260310013,0.6219026122390618,0.1663186379476297
313,8.242080463112567,0.6472046591770023,0,0,6.918148686399422,1.6700645543714598,-1.3680715009646283,-0.033608135152398085,1.1025078754706266,0.16491861268982996
314,8.872083358539903,0.6562521816454199,0,0,7.196236269174886,2.1986715302631117,-0.1626348840521584,-0.3436191876667116,0.31179245569389075,0.31578643352267743
315,9.587789224612601,0.6836418037778497,0,0,8.863509886390295,1.051869610097385,-1.1553302743549165,-0.6759714522106361,-0.6890101914023733,0.38706754796176
316,10.349547713514012,0.7276603092687516,0,0,9.604624889483079,0.36958080260591025,-2.6803852387071267,-0.4914380752348834,-0.6248599761057627,0.26820611430083363
317,11.112004445631788,0.7850108167452711,0,0,10.20402016790685,-0.43762498335916317,-2.179017306453724,-0.30394355646015314,-0.2629749258483524,0.17400159195279138
318,11.825850193546714,0.8507419803785534,0,0,11.457598190658551,0.17593034150752096,-0.29075723382441354,-0.08198801358118789,0.003564510135466257,0.04898052281952148
319,12.440805900527565,0.9184554494326577,0,0,11.694731824071535,-2.197106279685742,0.6105193418369449,-0.5845189802353139,-0.06918720809707125,0.02550739334472266
320,12.909580150397872,0.9809015421967432,0,0,13.08387626839834,-2.190746224755858,3.1123748878117756,-0.24471681301911952,0.03958352841550972,-0.5116295965728501
321,13.192318034092288,1.0309628459412168,0,0,13.403122291124298,-3.2599958719254762,3.3383602103233647,-0.5801942700249088,-0.8783875354070658,-0.834066597144666
322,13.260917681403196,1.0628630790250733,0,0,12.45728492221292,0.0007435766531678419,-1.799993440937266,0.1653466527843852,-2.0169307283656894,-1.244837953340278
323,13.102565579856725,1.0733023310559804,0,0,14.68392176455831,4.790368121193225,-0.626237304657649,-0.24861718256096635,0.4476235600497082,-0.915170808143798
324,12.72194837293332,1.0621913275135353,0,0,12.340830512723292,1.78937639420002,2.48875026871362,-0.4537672470974875,1.7406280311156728,-0.601672561944758
325,12.141808374729193,1.032766483158156,0,0,11.202352761087464,-0.20432496025695654,3.2729907555241793,-0.4750121262335745,-0.03306385107262654,-0.3620918893864831
326,11.401777318834634,0.991064724352134,0,0,11.481324338548522,-1.236124491968067,0.32057752401574163,-0.4005460714199048,-0.2689421338590375,-0.10536644647113173
327,10.555682831637283,0.9449253284743021,0,0,10.743701188483644,-0.5210302174577279,0.16465019380808232,-0.4383685498566495,0.6658727106216181,0.11194107327778408
328,9.66769624250602,0.9027852967015627,0,0,7.993747947500237,-1.1569778126842145,0.626987363313866,-0.5532606156204425,0.8191464509557799,0.1614604024241734
329,8.807741251703613,0.8725261356558012,0,0,7.8550803594452425,0.13344549946860523,1.0794643381799705,-0.432568345001202,0.15926853495220097,0.10776908959773929
330,8.04651961784674,0.8605547976287069,0,0,9.223332527652504,0.6261154669154089,0.058598936159850505,-0.6251560971303726,-0.6646951060589614,0.20698347728731173
331,7.450353961735528,0.8712169324085659,0,0,9.175334124141644,0.15611779559144165,-2.1943632557301513,-0.7232873040302965,-0.2977383457328562,0.2525086659735461
332,7.075879026845542,0.906573579324869,0,0,8.13791296107813,0.009541074751349176,-2.260084924598259,-0.5027542585331406,0.6240037540909763,0.10627833568703665
333,6.964597205480481,0.966521960881275,0,0,6.972626884970148,1.4590933724310682,-1.2620214213674956,-0.5328691774881672,0.681836642880356,-0.16666741374891844
334,7.137565248387433,1.049202401843778,0,0,5.679776148959345,1.2245961911421632,-1.6091824800500893,-1.0452976180186264,0.3871434419175357,-0.28627564897099295
335,7.590904556959752,1.1516040217301815,0,0,5.451489893236293,0.5794448522214862,-1.4801662796511723,-1.0075338579196478,0.31044413624384354,-0.6574433240161387
336,8.293176772490144,1.2702614728854478,0,0,6.516156125206952,1.1907754519978475,-0.9906324862313619,-1.093576895128942,0.12322663134829549,-0.9866826022241403
337,9.185716628952457,1.4019302064433121,0,0,5.838715750242883,1.677150761721423,-1.7560679720706778,-0.9406245705277033,-0.00689752165897523,-1.0604821037274925
338,10.18669022692775,1.544145080709698,0,0,7.0859290136637485,1.405720846290379,0.1299317603741978,-0.6919475024710583,-0.3427500127560918,-0.8176704828690649
339,11.198997994381944,1.6955976407609348,0,0,9.222117456591713,2.0579174156557207,2.447590563416596,-0.9488664294735293,-1.1707207104243678,-0.35711637988320577
340,12.121271217378228,1.8562857783911777,0,0,15.551967616150257,-3.140569967582355,5.348551528012758,-1.833126487844505,-1.7214954135660914,0.9399822092415346
341,12.860309456294688,2.027382127125502,0,0,18.907694396202196,-3.7706319882639443,3.969105986782215,-0.8745120736945865,-2.123593234675439,1.6170568271041315
342,13.342737909517108,2.2107653715438014,0,0,14.144115785186113,3.0525156008929226,0.30160825835497196,-1.0195133700915244,0.5504489357117403,1.0935401076050915
343,13.523827408112567,2.4082150386310954,0,0,8.37354567075137,3.646693722999289,1.3397759885703142,-1.130212206367416,2.5458060557439732,0.4500995466537992
344,13.392324160271235,2.620388258808346,0,0,11.350617208863161,7.312038681347254,4.26796925971844,-1.5850100344059619,-0.7343336390809674,-0.07424220284612106
345,12.971223148477426,2.845808558195958,0,0,11.681587157442205,6.786404944583102,-3.008543222810844,-2.485657084333614,-1.3486640988997602,-0.02628737002938611
346,12.315054123882097,3.0801324547711277,0,0,8.731860745165639,4.414509052805875,-2.9272503270689607,-2.0925220309876487,1.750257951455707,-0.014588542369310701
347,11.504320967471406,3.31590647444297,0,0,11.054606226743813,4.837476032241214,3.370761314732785,-2.399397778878236,0.40507034780797446,-0.10572652978011583
348,10.637566138395568,3.5429128931072786,0,0,11.282260813406909,3.6754215917086763,-1.6602325184139615,-3.620326092907911,-2.3938361875354306,0.2743363324938743
349,9.82140049988907,3.7490616803487713,0,0,12.293686965301568,0.9468234747846106,-5.774434576461352,-3.9477368673971203,-0.6089019733174107,0.317757959189198
350,9.158868959672176,3.9216599627569053,0,0,10.124183975328506,0.47886990977017313,-4.711313219864479,-3.56875504552498,1.813670299463946,0.030166285478641662
351,8.736831851996426,4.048828571436063,0,0,7.163940652929968,0.7566151775107338,-1.816136652000902,-3.783681274742786,1.8555121788449147,-0.1220961631021412
352,8.613665265399007,4.120859998747597,0,0,4.582368830734712,1.0226326482835488,-2.385014962261309,-3.86731269840758,0.6561694902039137,-0.09017861659449443
353,8.809282115705999,4.131387741994065,0,0,3.1669797326996196,1.3740210035909146,-2.0859281065778386,-3.7553699379585153,1.0309146314613686,-0.014975209934889848
354,9.299802721350165,4.078301965122742,0,0,2.882239027963178,1.9197164118531254,0.3644988437266771,-3.7739030463632073,0.7531301874947481,-0.09152609141448796
355,10.018797810160658,3.9643630671828487,0,0,5.368910858001078,4.202938580035232,0.20294934949592608,-3.8026552250160077,-0.9299212081825138,-0.1894710583491855
356,10.865843887941903,3.797432150276114,0,0,10.612583131904808,4.373844651208429,-0.31340543204313165,-4.365606856939235,-1.259310125466312,0.1669518447082744
357,11.721469483352175,3.5901864666004246,0,0,12.865174170656852,-2.0755975277546312,-0.7384453013272584,-4.646918369257893,-0.5138540675577953,0.37873889575295533
358,12.46594859030453,3.359177531590852,0,0,14.694536850088163,-4.3413258858937365,0.40895209566963936,-3.5665660164657313,0.17684244007734193,-0.20417648945550723
359,12.998330856534297,3.1231786283872,0,0,18.05586293782467,-10.308993866803156,4.7620257109708515,-3.288853678429613,0.8913207560676686,-0.20760099745879046
360,13.251900727739805,2.9009626001873854,0,0,14.66573384544641,-13.079169291904442,1.4465381989585513,-2.042880583490544,0.28031359080351703,-0.6965372913658692
361,13.20301456304088,2.7088764949229787,0,0,12.45848577309803,-2.478765369312014,-1.218373582726933,-0.6621890720649497,-0.6159863437954984,-0.8255635785926742
362,12.871849047600172,2.5587212533462718,0,0,11.615037684605902,2.498648518924316,-1.34307446017267,-1.8313423715354331,-0.6246982204491494,0.3677073358976051
363,12.315561867201536,2.4564137666781254,0,0,9.88696663372038,1.864222685348948,-2.435194981106593,-2.2709794793416025,-0.1755604811697876,0.7879854281967101
364,11.616016076414102,2.401700546782462,0,0,9.231248228091484,0.23194912189299452,-1.5171224075205925,-2.3741023919331736,0.551837948137215,0.6181361955617468
365,10.865028744687697,2.38889995731752,0,0,8.664186276972005,-0.7932885116814355,-1.0037484936185008,-2.5669143766639513,0.03511552886311216,0.18058883204846973
366,10.150050642009436,2.4084050310459153,0,0,7.965803789784417,-0.16846593084081127,-1.8394296402502368,-2.7601593312367707,-0.31824655852962397,-0.21234807077541684
367,9.542579979453063,2.448558816714895,0,0,7.364541920348125,0.6164172149942947,-1.8646162515263474,-2.7194410136606546,-0.025684277083461583,-0.37968742998816934
368,9.090769699750131,2.4975139614346182,0,0,7.292979934721534,-0.22985015289966657,-1.1485337039735397,-2.8187547916698015,0.07197089538527807,-0.3426847748707123
369,8.816784718176098,2.5447657613199857,0,0,8.130234585908818,-1.4004565043785733,-1.4218363540977357,-2.7221328034217334,-0.3888269407884819,-0.25324378960112626
370,8.718600123440241,2.5821658306735826,0,0,9.405391210350466,-2.6288894913617775,-2.0284000604833405,-2.7851336245348137,-0.5106839591215223,-0.09788863195387444
371,8.775195150210019,2.604355425750837,0,0,9.853505324650488,-3.2817676013907566,-2.737166784618536,-2.4878605320605813,-0.39341440589210236,-0.1379538838588974
372,8.95361798118322,2.6086820146637195,0,0,10.052908506312532,-2.211148460477563,-2.611420953153613,-2.290290118878486,-0.12115051932649888,-0.1693475437360069
373,9.216293515525981,2.594758893805331,0,0,9.792312193111833,-1.5136606672093187,-2.0986052829079185,-2.242348474410741,0.22739710007914873,-0.15834452897348839
374,9.52723042399755,2.5638730732003907,0,0,9.560378785591357,-0.9211699295667323,-1.3883873272338239,-2.3032763316658547,0.16465459144773287,-0.17379235011711736
375,9.856310153539296,2.518426855552557,0,0,9.777604150339513,-1.0061308109181974,-1.442807676625928,-2.4490444129504008,-0.1684989080234699,-0.2038333678711588
376,10.181390770489612,2.46152287891745,0,0,10.513563453584915,-1.2341833702168998,-1.966027977072891,-2.5515509513415813,-0.37516715951294743,-0.20600750833100948
377,10.488377945855305,2.396705716728224,0,0,10.631967571637075,-1.9120394934854261,-2.6686516825598683,-2.531189958311953,-0.13496885195883015,-0.17949895423747547
378,10.76968316047693,2.327797045094936,0,0,9.808287361691464,-2.740642876054633,-2.5290913539926705,-2.440489522941689,0.7345685121376597,-0.22272432889606197
379,11.021670891720117,2.258732295658278,0,0,9.325528184228709,-3.3685386304102214,-0.7125835656411498,-2.183095892939501,1.0574315084040056,-0.2951869046305496
380,11.241831068885967,2.1933273559731408,0,0,8.605166247494672,-3.456760970037804,0.39697285312741204,-2.1294984615338644,0.302121526605922,-0.3265841822275209
381,11.426446979260138,2.134958641531112,0,0,9.276043459906036,-4.115863110735948,0.024739302883060844,-2.0822544068250046,-0.42939601320674226,-0.22124590009960216
382,11.569367602771099,2.0862037834704488,0,0,11.053120797444896,-3.5604835557676533,0.737664175997366,-1.5976933323879439,-0.09145317239952896,-0.16537345755851152
383,11.662123465869042,2.04853525220936,0,0,13.358661214075555,1.8763516819329324,4.469285398582137,-1.1492295336840157,1.1746436687919435,-0.1931425084860815
384,11.695190689204354,2.0221598528522384,0,0,11.84794377733557,4.689689070314205,2.7571429013840634,-1.6698497766321458,-0.6731392045728155,0.6249003014129416
385,11.659948181072547,2.0060422731501304,0,0,8.643340625450023,-0.9813346233134148,-1.200428233059871,-2.459341611753797,-1.3563034121567161,1.3719306934779596
386,11.550915202159576,1.998066805326,0,0,5.569341081523342,-5.324318591919841,-4.858539574107066,-2.291020822180807,0.16200233130205885,0.9366389539133053
387,11.368037842222048,1.9952448125934827,0,0,9.636262978430928,-2.203273598083417,-2.3973389638968245,-0.40346919598774783,-0.06861654720375203,-0.853597999207206
388,11.118780574804772,1.9939174676532572,0,0,14.933175641648461,7.794662301600358,0.8921491115952042,-0.819284832832517,0.5637330787614945,-1.3436443453339086
389,10.819469267989556,1.9899942931459562,0,0,11.740075749802216,7.758711150655879,-1.4029032330510474,-1.521350702234585,0.7124428451824496,-0.6539738385793243
390,10.495063906420096,1.979303799973311,0,0,9.112396556077538,6.392057380598766,-0.0018893656153065094,-1.9468950708248385,0.34990529615214827,-0.511032224359136
391,10.176766723468681,1.9580650652559481,0,0,7.51975082977552,1.1332624101890714,0.1733203621691841,-2.5532572277345658,-0.6430467821291245,0.15002097558008914
392,9.897621707147035,1.9233808861518487,0,0,8.636100170396498,-2.608002156663184,-0.6915583707901787,-2.2023743810657272,-0.9855029109715633,0.17799772716200257
393,9.687059926671106,1.873601907730216,0,0,8.44554114513832,-3.548097415745631,-2.7627562473765517,-1.6362041404482452,0.022992296745111093,-0.08267074652359613
394,9.565711610111649,1.80845840070754,0,0,7.488484670988108,-1.6170390890084516,-0.7801896829129246,-1.0015613613642813,1.3181423375111354,-0.3195011544102255
395,9.541675146469174,1.7289652247297969,0,0,7.071456697438351,0.650265640667139,1.6491232287091926,-1.1882669096825826,0.62912186904993,-0.1861523244236166
396,9.609028885734448,1.6371986560043537,0,0,9.025111364351433,1.8103773276412085,0.5008311080130867,-1.3406469080957037,-0.8765536391874666,0.1310102770022542
397,9.748864822249805,1.536066684130332,0,0,10.58214676078318,1.5677423863424709,-1.5378945392790877,-1.3339153764085971,-0.46460107266782086,0.35763654096975145
398,9.932581573459892,1.4291511681362894,0,0,10.433127265227533,0.8700847102023542,-0.740946488755756,-1.252276330502411,0.5297854635551412,0.4132489874272927
399,10.126713815705381,1.320632353593622,0,0,10.1044576566954,0.05950436589885775,0.24000818730886403,-1.3213236839502045,0.033810527130960284,0.35929954256074564
400,10.298344028154101,1.2152506625507766,0,0,10.853433260073277,-0.6736539784727602,-1.0086878337016143,-1.3414364895740793,-0.6009814089983775,0.2762894370564448
401,10.420162186787259,1.1182332529717078,0,0,11.409181351463323,-0.2737684302732513,-1.9207438805918498,-1.128906477441608,-0.13366296241069886,0.15392130185542707
402,10.474404471433138,1.0351162727010785,0,0,11.217758519392566,-0.17081614963098757,-1.696375178175609,-1.0329705176553088,0.28118004277745784,0.14172819224375605
403,10.455128092857251,0.9714236449973793,0,0,10.702562162410368,-0.07572909025641365,-1.3900343580450734,-0.9263780694914343,0.33397579146466333,0.14592389895157049
404,10.368557274363937,0.9322063392915825,0,0,10.76409990383597,-0.027120698776504977,-1.265853281633629,-0.8610154375776339,0.4111450594812879,0.13793856662266182
405,10.23155608887373,0.9214854170780118,0,0,10.350371365851995,-0.6630598769723786,-1.3836439108468672,-0.7290288668515725,0.620742677866721,0.05642413972746449
406,10.068593975751403,0.9416693477469443,0,0,9.48349936230527,-0.7214907134462282,-0.995513489039581,-0.4349855861686725,0.8096226664335646,-0.09927605006192988
407,9.907808989034049,0.9930337203803588,0,0,7.8186519437259,-0.8730139629487639,-0.18341029103576992,-0.24687987501036357,1.0190174219759955,-0.08711758860031103
408,9.776890814250828,1.0733638320518901,0,0,7.5667765276505445,-1.1721367057531358,2.021777262444852,0.10203822927324194,0.652330369671569,-0.1450256209697746
409,9.699437246558162,1.1778642946369255,0,0,9.807370352510274,-2.059843127818977,4.175385150000187,0.10273279201403758,-0.16747787130233993,-0.19133001291464355
410,9.69215762776799,1.299417558768878,0,0,11.403865446121104,-4.98349265776653,1.075533064273301,0.10369526569583179,-1.5532025281942743,-0.4806626182540142
411,9.762931135791645,1.42920264792565,0,0,10.420433075053287,-1.9441045994070885,-2.5813066985774284,0.9194705310319878,-0.8545994145688209,-0.9520390181185648
412,9.9095428823729,1.5575730777884107,0,0,8.047921189703171,-0.1785866382566445,-0.8912673949151948,1.0275857226314646,2.008363047749776,-0.6906695758240258
413,10.119076666757742,1.6749976548355106,0,0,6.55027464657105,2.0050949392945596,5.099155731419641,1.2720761093720465,1.8451315806428128,-0.5679445565959634
414,10.368280732863406,1.7728624937380797,0,0,8.266456187403671,3.1107245806038235,4.697939471972495,0.39950474652423607,-1.0814855674920838,-0.213050242475807
415,10.625402554090542,1.8440337619467932,0,0,9.038772739344788,-0.48367150471561887,-0.09713326969443734,0.14938429641790946,-1.27405559947437,-0.3270666458472494
416,10.853827685988898,1.8832208031700157,0,0,6.688401007664438,-1.885818306595252,-0.6813961053505809,0.30020850988606446,0.4984583453466096,-1.0337939599041175
417,11.017415759679478,1.8872523711296676,0,0,10.465480366121685,0.2913928709091776,1.9363078902999504,0.9788084261595763,-1.2665421786146527,-1.2178492799383653
418,11.086821938641656,1.8553289646986488,0,0,17.99129706479161,3.337316008852629,-0.6906444406842738,0.06420639927258412,-3.55047987316126,-0.04570803158401834
419,11.045473402607096,1.7891936235139534,0,0,14.217331279573482,-0.2775483982935095,-6.450242797175662,-0.130062385781627,0.43628901606520826,0.4239638356808467
420,10.893578928147445,1.6930890081020582,0,0,10.259120067049048,-0.2944111390298266,0.7642583355298361,0.6873622051098058,2.8313799278643725,0.15405740468196802
421,10.648959827353476,1.5734071259843774,0,0,7.553561839957601,0.02349696839769312,3.0595666757059874,-0.3704409130978723,0.07177535387017225,0.37409872408733413
422,10.344510139662102,1.4380477215730911,0,0,8.94025674347821,-0.1276292029646178,-2.102288360237297,-0.28129770475567645,-1.920234225652601,0.42223961766706886
423,10.02309306861652,1.2955952921682805,0,0,10.170249327028952,-0.3363598228197943,-4.834146316951844,-0.07700994283294448,0.19725296415434004,0.3719313541646637
424,9.731112308295558,1.1544577201819342,0,0,8.780455449646091,-1.0243444701819555,-2.514668656637088,0.7142635430680082,1.6139259496973164,0.3039760634438005
425,9.511893587947403,1.0220888270849544,0,0,8.301940469846514,-0.5895848273924601,-0.5893959474635649,0.5045287021294865,0.9111327273643804,0.31357121098787505
426,9.399749891299868,0.9043750692013115,0,0,8.651707882164764,-0.5748032444691311,-2.904548075400273,0.3594235191735992,0.13779490309339643,0.29655395369336673
427,9.415405373304377,0.8052376797930978,0,0,8.694753066822658,0.7836701091911022,-3.5915709917423473,0.38097406028614805,0.6320965183914153,0.23045017225414405
428,9.563286324867848,0.7264942866625026,0,0,7.712155582929494,0.8824288755100154,-2.6113739480592866,0.14409788831721718,0.5905398443958508,0.30140288942580057
429,9.83098523473644,0.6680139374648875,0,0,7.790960283748289,-0.15003700927300717,-2.143649958875619,-0.07551275838551857,-0.03541572997947163,0.3333989126104123
430,10.190956542760386,0.6281644112494037,0,0,9.178478049896471,-2.7021877676248867,-2.07418821874199,-0.14158892068579496,-0.37917006127676883,0.3918229779078023
431,10.604195546564263,0.6044947097260224,0,0,12.827233174408873,-1.212213056473081,0.8637282891036672,0.5289713249603749,0.21945853137510352,0.10927841917944904
432,11.025299894079067,0.5945332003277505,0,0,12.468511387595713,1.9612793837107123,1.8769058650473285,-0.5002717331996381,0.1438298632672971,0.6821053521806492
433,11.408054904303684,0.5965274990983727,0,0,9.70364688503622,-1.9901375976119378,-0.7818888161180312,-0.7043294089513131,-0.6079503776330152,0.8756866008102748
434,11.71068687265762,0.6099292017758099,0,0,11.693597746200943,0.3785293163018853,1.192006749031439,0.13155386550781148,-0.43535622420411424,0.3919249499609249
435,11.900168213346104,0.6354607735635146,0,0,12.662213158229108,1.415820220702905,2.4185575184939996,-0.3643301130894111,-0.7234917098257171,0.6191857902890426
436,11.955225743758518,0.6746965048680537,0,0,12.561210307873722,0.281349655946368,2.2281133016771606,-0.385125589920017,-0.5522513156829608,0.577295761774919
437,11.867867208737453,0.7292169576179084,0,0,11.935421558280908,0.46913607662400214,2.8388334490352065,-0.2611811369333653,0.0059185478987710165,0.47210771842071547
438,11.643368732859058,0.7995194666968798,0,0,10.623201175709296,0.8394514977353801,2.846433868644622,-0.23249089723747104,0.09223172257828145,0.39997176331572254
439,11.29884795444595,0.8839569372004551,0,0,10.65444916115516,-0.31328392560908036,2.396509601430717,-0.2774719460261627,-0.3631828724790418,0.3267966033731921
440,10.860742684780408,0.9780105342988259,0,0,11.673250066481199,-1.269018235183991,1.232993972389659,-0.3311277203598418,-0.4378523116640792,0.1355791931206518
441,10.361631655680384,1.0741643670139023,0,0,11.257055933045727,-2.5953038350438407,0.8026474778510108,-0.14158732826064055,0.35418457838615947,-0.11257063543200835
442,9.836877457914524,1.1625451326644956,0,0,8.147248980191614,-1.0450944959675021,0.5175181318017381,0.26376132709516326,0.613104798773781,-0.3751898876976638
443,9.321621207196724,1.2323323969019273,0,0,4.042027529156959,1.7490969484666805,1.9485425440178912,0.5441139260492848,0.6664375455657293,-0.1844158036511346
444,8.848689970756753,1.2737545004447177,0,0,6.059233554167027,2.748634118411596,3.27031075739315,0.04780060419507788,-1.7322926770895652,0.17129590940687228
445,8.447798735806453,1.2802942988037502,0,0,10.389807663396219,1.185029543657586,-1.1569118811438492,-0.5663722054461244,-3.055383484872808,0.22969310963947404
446,8.145913919080742,1.250602320752564,0,0,11.011252957286057,-0.04995900523659734,-4.282414396119701,-0.3105332232035448,-1.0677687655955292,-0.11152656541735347
447,7.96802253507581,1.189628186714426,0,0,9.438016735017634,-0.2831483817451893,-2.410180679146968,0.020258134742283117,1.6496686614447615,-0.3567078969189258
448,7.9372797625222375,1.108655173086014,0,0,7.046996754475149,0.4361394531132509,1.2851381813848712,-0.04874024931596462,1.1381865793840384,-0.5083677943054269
449,8.07381603822314,1.024183250627626,0,0,7.764537729336853,0.8610629185846645,-0.6929641602444065,-0.719339683980534,-0.5414549639473832,-0.37967934912771695
450,8.392137182637764,0.9558417976570752,0,0,8.36434330630954,0.4853891414383954,-3.246178442575536,-0.604266452895373,0.07842568090307366,-0.3356383546517323
451,8.897624619958606,0.9236651665431369,0,0,7.825006301777043,0.9623242328465467,-2.9293485768589624,-0.4678267050163026,0.7807359181295684,-0.41761544690000496
452,9.582927518025143,0.9451334787995668,0,0,7.673219514371712,1.1436133110491185,-2.223003165601626,-0.3331310522715563,0.23849819389437993,-0.50947330487903
453,10.425089847481217,1.0323888000788763,0,0,9.16342385359739,0.6664601389068268,-3.1925118338307397,-0.4033962734729326,-0.7466393198736329,-0.5015923103963147
454,11.38416821399441,1.1900063518645838,0,0,10.697471820429492,1.0620800131300328,-4.714416903483154,-0.15071234990192764,-0.9230882666189572,-0.546369212304111
455,12.403897139389587,1.4136507750894205,0,0,11.102326102532725,0.031077604267985937,-4.306942912588672,0.010948021903965356,0.36745682103709476,-0.19342022025116193
456,13.41468519767873,1.689880376353021,0,0,9.536049964667434,0.6406657085397451,-2.5979913226930162,0.32448455406435356,0.47774688264305654,-0.07357993544861599
457,14.338933098817987,1.9972530108583986,0,0,11.98254963576766,3.230498862906088,1.4168389304674416,-0.2730021785052535,1.9583798711461096,0.30493704328567195
458,15.098318482035603,2.3087023881807234,0,0,10.774356308844524,-5.948314350223037,13.6641940176368,0.14949273551742692,1.644833557737559,-0.0037164959057461567
459,15.62222689732925,2.5948993241741922,0,0,14.452403849211798,-8.811525499523404,9.180371029992976,-0.7271559511074361,-4.084774786142033,-0.640582441808015
460,15.856061674366433,2.8280642316261053,0,0,10.991061039248123,-5.122742579833634,-6.9293879035722785,0.45186120438829025,-3.373374882310856,-1.547320020583924
461,15.768050811307042,2.985565672683235,0,0,14.30337174984852,9.241532512767817,-2.0916616229985814,2.098168151657948,1.2997028727629654,-2.147852502570992
462,15.353498269012158,3.0526981152945396,0,0,12.11028444208713,9.654243605171834,5.4444770185059985,-0.3007481328662946,3.6332386733203332,-0.22510298206908796
463,14.635953879164068,3.0242579584963387,0,0,13.064821535988358,2.1358773042682135,7.339940988752439,0.1552073299296746,-2.193961561495256,0.9289390440877565
464,13.665229273863067,2.90482137315501,0,0,14.607852241723497,-4.969867225797416,-1.1439784247699871,-1.4307162085167417,-2.7531394808354945,1.2866016897356765
465,12.512550474998992,2.7078540677395724,0,0,8.501590973942594,-9.006269826406706,-6.510554228285587,0.5715193740278174,1.7410248965018742,-0.19221421027210597
466,11.263519573981938,2.453901390620176,0,0,6.0967075083954985,0.2625653092532432,3.0957534824656636,2.097254180919458,3.2947178633574685,-1.225300541953135
467,10.009954687030172,2.1681394596620525,0,0,4.534375389790263,2.5266496988049227,4.691364569487702,0.12337051424805712,-0.309993563221658,-0.02343933315412428
468,8.841901161658022,1.8775683785356334,0,0,7.799757469318963,1.3062739703439006,-0.8457865453588701,0.49865524013755563,-3.105198807693658,0.5188482511063518
469,7.840918026115149,1.6081325672007833,0,0,9.590952433854948,1.8235312592344957,-3.6381701678355074,0.2043348036663644,-0.6824290205653901,0.4048904976142657
470,7.075141472867092,1.3820571317258528,0,0,7.273753704666586,-0.3446222419163921,-2.085205413108035,0.3245154547186093,1.3080186466441803,0.40230738815067857
471,6.595967961541167,1.2156772888563623,0,0,6.302670793934191,0.40894713735791993,0.6247353071968752,0.24580186677481722,0.6932185669643047,0.11093927755722824
472,6.435876127040933,1.118004059772981,0,0,6.6540403286702565,0.4092768260403106,-0.9470271468449241,-0.12492876828315318,-0.6237459842366543,0.17740134094445165
473,6.6069717473245495,1.0902041543571876,0,0,7.143971843081193,-0.7133510927138017,-3.3284204418806302,-0.2968276141012545,-0.05259221069110056,0.07465848652057644
474,7.100070584681282,1.1260595483345566,0,0,6.987398171077254,-1.2357823162208845,-3.346614481206561,0.32118201538610014,1.2408846538336675,-0.23302516993106281
475,7.884362692892843,1.2133140675010814,0,0,6.456570947274244,-1.03180993867345,-0.5441415834855877,0.6235036970259401,2.013397870437792,-0.39613927927779674
476,8.907917210276265,1.335648674080514,0,0,7.382510969956386,-2.009482251240435,1.0046475866598539,0.5714745951601796,0.7072703989278787,-0.12773319764768173
477,10.099464262528455,1.4749206110743218,0,0,8.336863320135649,-0.940456145281795,-1.3906892682717795,0.4015616536589148,-2.045357616873556,0.12719453058093763
478,11.371911119537023,1.6132991217276542,0,0,9.712495612058165,3.054721764948284,-4.444927441733099,0.057114930725396335,-2.689168713092843,0.2575925951259524
479,12.62782909877092,1.7350198707302398,0,0,11.314500030730532,0.7103409172711896,-5.108315441004624,-0.43434548161872844,-0.8841412021600131,0.46612216493953573
480,13.766752340271564,1.8276206865377547,0,0,11.5302934738966,-2.334705145273355,-3.857763435133083,0.7875172763500105,0.7487741878521342,-0.08274814821346482
481,14.693707907683994,1.88266732291835,0,0,13.207787459028289,2.0864868512535275,2.2881733520570613,0.9806374896878818,1.6431001567699866,-0.11739653314010426
482,15.3280415686494,1.896065384086167,0,0,17.15163041755544,7.728116799246821,12.100751171156963,-0.2785978895294647,1.3497970111773068,1.1266938664719028
483,15.61136432281804,1.8680373252290043,0,0,11.549929881676118,9.867790479106942,4.239673860561086,-0.7448106120996132,-2.138861713126007,1.5594005347913145
484,15.513450192880534,1.802762830606555,0,0,12.448103656619795,-1.3600771590638672,0.022538123411529012,-1.7495285665262073,-0.9619053430624516,2.1031453102524353
485,15.035284152559274,1.7076429991871456,0,0,13.327290507686563,-8.3843352557323,2.70456677939263,-0.2839781138634333,0.320538261345736,0.6581229472946876
486,14.209028715433588,1.59222081339198,0,0,17.133208713972735,-1.3394085263385782,1.9485413569362946,0.009929844321580096,-0.6258548255532762,-0.6183569101634243
487,13.09511177043438,1.4669293899171012,0,0,14.464892166862652,0.913616602365681,-0.6278638700393363,-0.7521272196600074,0.911184636402553,-0.16594937223185266
488,11.77687373924448,1.341925638370496,0,0,9.018022975690169,2.506572421184946,0.47541949259864424,0.09166296088064198,1.7235726240445024,-0.4591091299680482
489,10.353473722776155,1.2262256502937798,0,0,7.560783013977709,2.6027784751550773,2.4803636182350757,-0.5596357931404251,0.8446060181968228,0.0676561730677354
490,8.932078430399349,1.1272369484294698,0,0,4.583401089482516,0.01922699597257652,0.015552596145547867,-0.42971320029000104,-0.03969623793709646,0.1681828568326215
491,7.620442204773939,1.0506741116867266,0,0,6.281877543621649,1.4946831676014185,0.6991286075296727,-0.4079040077308534,-0.5473224831030251,0.03911063550978792
492,6.520571495585197,1.000769416830038,0,0,9.895927897739304,0.025261172731805805,0.15364050073691995,-0.9857929357742019,-1.8654477336115476,0.011169022348111603
493,5.72337499278698,0.9806159465598692,0,0,9.313020315937646,-0.7082917024123737,-4.07183514041975,-0.7499757233982164,-1.2025818701547835,-0.2129454077392686
494,5.3035036670653515,0.9924204930821084,0,0,8.067939545924963,-0.2817317969430624,-3.7482431360125315,-0.38862143794841975,1.1940292205381506,-0.45560141056697234
495,5.313493818269955,1.037465410723367,0,0,5.610086332590125,-1.0903076197968768,-1.9622622151510787,-0.48663694890076437,1.3265340800016618,-0.3253208400666457
496,5.777006608970954,1.1157100647329419,0,0,2.9318677157114528,0.04854866026003656,-2.4980560692426605,-0.15364778184303277,0.4035613193512396,-0.40536037621676524
497,6.682075063056766,1.2251448049229778,0,0,3.147611280842012,1.794338669003335,-2.0084511556031766,-0.3341519296940905,0.3986660342818931,-0.28739850112603654
498,7.976225076458054,1.3611506583992632,0,0,2.407695257056665,0.0983346128109607,-2.1944115504680357,-0.8846059827649365,0.6597706286836742,0.20319798504845885
499,9.56565648723783,1.5161522045911378,0,0,4.935640338634002,-0.23012669970930136,-0.8919668444146601,-0.1829807891453785,-0.6223437861141285,-0.16040971166843332
500,11.32020036568324,1.6797680814651867,0,0,7.969128340415523,0.9867382511948031,-1.0203585841930054,-0.22542155103317837,-2.322815531166017,0.16461236453429914
501,13.084628794745504,1.839506234326914,0,0,11.493522425590486,-3.062177110237092,-2.397751457765314,-0.45453434071645493,-2.610195000742847,0.432778914431865
502,14.695369039054011,1.9818986482163174,0,0,14.303087672460716,-1.3444057224946402,-2.948585265616873,0.22178167347518946,-0.3435560238370918,-0.030106313207936896
503,16.0001546964768,2.093890366623089,0,0,22.759061938018213,-4.8062015951260815,9.481146516285312,0.2541284217303851,2.586195251614453,-0.5300136720922207
504,16.87708363950128,2.164287309150157,0,0,21.114886623549946,-8.835918493279172,13.419645303107057,0.298478083905343,-0.8517228262449654,-1.8761398812805112
505,17.249398831890876,2.1850650367695383,0,0,13.347689552002457,1.214427628834711,-0.14489736477762402,0.6338377777083397,-3.2956807361100444,-2.306247068589907
506,17.093301788261236,2.1523267685875447,0,0,15.205498577590781,13.370524666075811,0.5070878428380621,0.26356022211680785,-0.06615769647596444,-1.4338982849758073
507,16.437924117647064,2.0667376899924363,0,0,12.115705649235249,6.766497178745971,0.5353147816518342,-1.5981067340688717,1.3378739652306704,1.0414008116307198
508,15.358382298088683,1.9333968525684717,0,0,13.516478126032476,-3.7356426159537337,1.198719480508313,-0.5543636461181107,-0.4792050026469602,0.9725749314936989
509,13.963932135409028,1.7612717339969923,0,0,13.279237504118866,-7.270357033297159,-2.4361056309728526,-0.7411956795051893,-0.41380408754542664,0.3916070164095995
510,12.383555666077848,1.5624013633175815,0,0,8.090918886736723,-7.394858410020122,-3.1277392728589453,0.3745157056048919,1.7748859109656738,-0.1234833288343246
511,10.751191918062737,1.3510253731360695,0,0,5.498678044513737,-1.343516485381471,1.2880504093831513,1.2148353084360006,1.9118842031853178,-1.0188335711101977
512,9.192547202683436,1.1426733965429237,0,0,6.130162584490767,3.4976374639977594,3.0100890230102686,0.4583259691481357,0.5268549843253507,-0.45314908798828735
513,7.815012120109786,0.9531605642490011,0,0,5.776417365194083,3.0667906994157725,1.0880058423324406,-0.23530158157555525,-0.8971885424062088,0.48367394532627245
514,6.701555850044713,0.7974498524866394,0,0,6.317406520480417,1.8346497036351261,-1.083312733186348,-0.22098109255778564,-0.7541302071645197,0.34888247418377477
515,5.9086029976468,0.6884306206520319,0,0,6.637719201355294,0.6797460161561764,-1.4729362465967075,-0.3729029640752961,0.09155977727630839,0.267637692838089
516,5.467091667259696,0.6357442428690686,0,0,6.556897242959266,-0.17739783331220446,-1.1726242386298522,-0.3553596152370812,0.1943655657267818,-0.07997783375628535
517,5.385424466007497,0.6448184114715284,0,0,7.104188670417644,0.37153521591549366,-1.143561442585114,-0.4617369865209831,-0.15621313714845853,-0.21256217380512177
518,5.652936538906376,0.7162553065949201,0,0,7.466035280196339,0.2763153117439765,-2.0945703862314167,-0.5511692842451635,-0.27137686211612744,-0.24081881749128425
519,6.242765808654339,0.8456715198960472,0,0,7.317598483247456,0.01027693145774111,-2.8283474723257096,-0.5204317327748075,0.2256641850964838,-0.3121636213750631
520,7.113532477261587,1.0240259051804308,0,0,7.204108471105982,-0.5850255533739904,-2.000806621794071,-0.1943602443164774,0.922850677179983,-0.540965886891814
521,8.209906899751008,1.2384119886148044,0,0,6.6603598172274365,-0.9334157175540431,-0.7955963939756571,-0.08799247582751714,1.2567874665794085,-0.7338614453166189
522,9.462804692622282,1.4732455998282588,0,0,6.391501783508767,-0.7138268609866691,-0.6738865861626385,0.22055699829438685,0.5797561428061894,-0.8441076243399506
523,10.790378982415524,1.711749685002885,0,0,7.4905531349410515,1.3780765787828602,-0.6328637175743757,0.04717934786572252,-1.1894777791749962,-0.41873108598117065
524,12.100980037674262,1.9376176676833474,0,0,9.993287693494993,1.318621467884604,-2.498170238744194,-0.7508778532123842,-2.6820054402514546,0.2284580195073835
525,13.29875172022853,2.13670733602276,0,0,12.070275944884067,1.4151249135060577,-4.102209996620704,-0.7284001909946135,-1.9651331918801902,0.5271619335582819
526,14.291669207889692,2.2985827930136926,0,0,13.241112397981395,-1.8815654449532688,-2.5667234607014793,-0.15881929067689546,0.7529638866165708,0.6935887129458314
527,15.000892534200894,2.4177054829882016,0,0,18.735163937121175,4.584386362872208,12.709613930908242,0.3440154968214327,3.1876807335658386,0.7900873953753306
528,15.369664262880926,2.494074172795481,0,0,14.470627032327075,7.838277650688184,9.013983231945558,-1.6117517894773792,-3.0892437492739577,2.1053255346046655
529,15.36992755621108,2.533117448691315,0,0,11.197623189370645,-2.048225721690673,-4.381673537242367,-2.2130022936129605,-2.6517615703000983,2.1188787315956046
530,15.005490619099646,2.5447086056783155,0,0,11.595714970277449,-3.750222742709093,-0.5571766081556732,-0.6392519967119242,1.1134881512687231,0.9229191230256967
531,14.311577186288405,2.541383050873001,0,0,14.210711593033404,1.239742675015283,2.855421365748299,-0.4848211002448475,0.8374794885450338,-0.3240668964458967
532,13.351334405982275,2.536137656703626,0,0,16.560773698085903,7.508136956617575,0.8961003268637848,-1.6895978171199402,-0.2172722516165744,-0.05465559675283346
533,12.210005638753215,2.5403770538583355,0,0,11.366481624486422,5.0774109316039375,-2.1622354374710047,-1.894619472276111,1.1723355516970635,0.14379091368858113
534,10.987360621016222,2.5624959786000487,0,0,6.568241565030332,4.023017937810831,0.5795138683437198,-1.8976253492817088,1.815957905156609,0.0897454247437578
535,9.789079239112919,2.6073077075135247,0,0,5.08962447536224,1.7124928398791819,1.277151820438086,-2.441178911609291,0.4311742297038677,0.3670083416840274
536,8.718049682959528,2.676226664062128,0,0,8.716234102192942,0.9090649548668883,1.0009555067534286,-2.6337003218788277,-1.9956206712190552,0.38087065256026176
537,7.866513048376342,2.767920274370131,0,0,9.606047573307507,0.2746694601077757,-3.8934779826831574,-2.9608327433295534,-1.9429268230100911,0.323086175045594
538,7.309490527649668,2.8790920321094573,0,0,8.930185574816177,0.9313883219269989,-5.025763417238949,-2.641425227827069,0.9775685636351777,0.08728217315139183
539,7.099349527131998,3.005124492768806,0,0,7.12777913824122,1.1601886146122744,-1.6919449551483678,-2.7413866399875975,1.8544257042066217,-0.026757837697188668
540,7.261208027663396,3.140456344083189,0,0,6.472396212624273,0.3774034501725359,-1.375286998819399,-2.842933400833443,0.10112464956807299,0.00976389313781219
541,7.789238297611298,3.2787279463742562,0,0,6.920223305644023,-0.027088591215980975,-3.455794424181756,-2.917344950697929,-0.5577374242113594,0.17746605016365452
542,8.64448022618901,3.4128406935171096,0,0,7.146777105402292,0.42906552280707905,-3.623673705549501,-2.8841022132011216,0.8801738706488997,0.2543740808265519
543,9.755142326259891,3.535105337486705,0,0,5.444931741093362,1.588569151007522,-0.684362903076061,-3.0381918877618523,1.9146788123327356,0.2861462977441848
544,11.020404934959943,3.637608564184192,0,0,6.106701427480892,4.218182598800921,1.3421658650382042,-3.124331681853223,0.4252039684998766,0.007984305965626834
545,12.31842225435914,3.7128344816587013,0,0,8.187229432763175,6.971187861752261,0.7582064715216671,-3.054940315579261,-1.685174839562296,0.01787632093143905
546,13.518524820305855,3.7544717416525044,0,0,11.369223921018108,2.5552690215840994,-2.0703484062903716,-4.213019951558571,-2.394396140599426,0.49647816427173513
547,14.49661005917355,3.758245614039307,0,0,10.240181446672452,-2.0748125150842154,-4.840967171850351,-3.5657095419801283,-0.2149853668788592,0.2748210888304213
548,15.151590933164234,3.7225691052555496,0,0,20.946691187198017,-6.791027281379398,7.162016079234573,-3.257056544114965,2.740164731007939,-0.49315356809122957
549,15.419860562603125,3.6488385052813976,0,0,21.625812146650908,-19.92538951156398,3.621938863867705,-3.3007900362404508,-1.6190038692376403,-0.1770999864068871
550,15.284444684586516,3.541301412867757,0,0,11.747163008007007,-7.631346172427307,-7.042853099279125,0.6640169599224383,-3.0553945861313285,-1.966165689620971
551,14.776342151763425,3.406551487635424,0,0,14.353032108230611,6.462705566864689,-2.0717921657340073,-0.9128012848062871,1.2684903087897925,-0.34070366669838387
552,13.967554761168518,3.252795018386634,0,0,9.070085767858846,1.8028708210710414,-0.5855854530979007,-3.307916332301008,3.103961697543313,1.9551510252782993
553,12.95768311343436,3.089049496900959,0,0,7.798145646762739,-1.8884905244250123,0.44121027881537567,-2.474749693357397,0.9575020788897228,0.7656639595545885
554,11.857558933488253,2.9243831665806743,0,0,8.177594708616404,0.5850907204602239,-1.2617197611985898,-2.085975907611717,-1.1844869663608637,0.002630039008779155
555,10.773606346609347,2.767249178462917,0,0,8.029643384772111,0.23042589665453045,-4.0895868976178935,-2.5939844508790864,-1.2294301563478622,-0.04221863417916338
556,9.795704691217923,2.624949566369949,0,0,7.739534884755009,0.3068610881355701,-5.332527045095224,-2.327364636821105,-0.23601202999593954,-0.40481255758625606
557,8.989901797021712,2.5032538321963846,0,0,7.825244695094025,-0.31982454553340434,-3.6647542706378786,-2.5934381742058163,1.2591197000994618,-0.2506170341496047
558,8.395995178388628,2.406162000135245,0,0,7.98014696053218,-3.018910119094522,-2.044006783278538,-2.471924068826151,1.2469076274691147,0.1300456376836801
559,8.029080140816806,2.3357670724942183,0,0,8.384866382440116,-4.809908074687404,-1.476093922088756,-2.247636574102665,0.16701670675377062,0.17260768090947567
560,7.883703342835378,2.292178592977138,0,0,8.242600013813762,-4.430462444928825,-2.694497250123363,-2.0240950992884708,-0.27233029792100033,-0.2494278546037972
561,7.9391856376085,2.2735175711247084,0,0,8.64414991017868,-1.8897722802298484,-1.77168647991981,-1.7298501096522292,0.3435560082153755,-0.44636897598947767
562,8.16491783655056,2.2760395232987056,0,0,7.731894020332287,-0.4938558384421569,-0.47908904942726194,-2.149786393239086,1.2001464259596073,-0.33329800690226885
563,8.524886924903432,2.294442431022844,0,0,7.239675458572531,-0.5537176307028768,0.4492977265653945,-2.172531178565463,0.6379399447778634,-0.3202539127603962
564,8.981171446934011,2.322368583345531,0,0,8.650612796795128,-0.8094527211157366,0.6755065051269741,-2.169125590846049,-0.4917503626361159,-0.2898599237995652
565,9.496447642778076,2.353051877891429,0,0,10.328645304303395,-1.5973023770103114,-0.2669003860080012,-2.2886009471137623,-1.0655386844528127,-0.17491492330517897
566,10.03560207667976,2.380028911784403,0,0,11.561012420951851,-2.6002470874618124,-0.4738660278236332,-2.2878315919884322,-0.003999100902515951,-0.27137308512294667
567,10.566483928117162,2.3978261039713225,0,0,11.183472551531477,-2.3272253099888363,1.1445913690329388,-1.9853551966931502,1.5421640484291304,-0.3707499133948127
568,11.059868435563333,2.4025438859269617,0,0,9.80650630035366,0.5568723636151189,3.015515562891942,-1.4106080845296385,1.9501785254124029,-0.601761985174297
569,11.488940328721744,2.392273511452607,0,0,9.416402568048769,3.4740054157338864,2.7020690551420823,-1.2783601075860156,-0.1797835687955313,0.25496819691343575
570,11.828920893383197,2.367291937324502,0,0,7.450317207271534,-0.5173569849844419,0.2078258238421546,-2.5224302367514557,-2.0726914171321003,2.0801525567871377
571,12.057598363278336,2.3299759466737373,0,0,5.90579531626405,-5.673318080505953,-4.980369972224187,-2.673649150914076,-1.8810027238017912,1.28541062266111
572,12.157261596343238,2.2843822089964783,0,0,11.120401648005878,-3.4301252734676835,-4.453488688329838,-0.7330992064601691,-0.8409750951436646,-0.8788805926227614
573,12.11786056879972,2.235513719453611,0,0,15.579393629532829,5.768174901872111,-1.4014502762351275,-0.18171430648649697,0.4437587192690175,-1.1563359986474657
574,11.940397385994732,2.188436157073946,0,0,13.991830683112331,9.576022085552717,-2.5688960271553296,-1.3505290783577628,0.2290475444055304,-0.09184020504893413
575,11.639085085063092,2.147504983649545,0,0,11.218004550847622,4.589105988639426,-3.5640046216267307,-2.3825123980845033,0.1293582981499644,0.5580350519279329
576,11.24109008710977,2.1159016757042592,0,0,9.825264538137667,0.40413976104701044,-2.380211788156355,-2.474148726373763,0.9820907665506814,0.42227404116518563
577,10.78361777903576,2.09549314327193,0,0,7.536641202419655,-1.7815060457050165,-1.2636296939974243,-2.3900789411797487,1.2621012346572762,0.055940493770503696
578,10.309156330714679,2.0868749935931645,0,0,7.349102066299277,-1.9187546436011287,-0.8884579205281568,-1.873268065664141,0.32856266336192674,-0.4933969948137688
579,9.860257394598161,2.0894426058277014,0,0,8.830529696390307,0.7915090551766504,-1.2976872709521987,-1.6686572348806914,-0.3755930669116754,-0.6323576341010831
580,9.475082813169944,2.1014288213562624,0,0,10.040858580339082,3.4964609068724863,-1.8931159016846,-1.7016488718696767,0.052829861700796,-0.36589469322969803
581,9.184321285947867,2.1199501023196476,0,0,9.734281093448446,4.432678112969816,-1.1505134456755808,-1.9249533809186155,0.7810059508640008,0.017154578112840574
582,9.009429789928447,2.1411350525081407,0,0,8.139146640359595,2.80842204385019,-0.34696752926190916,-2.2401137764909556,0.8412663047525891,0.14142341803685107
583,8.961825540433813,2.1603694855535434,0,0,8.393835439121853,1.4584031777981417,0.5150771961288751,-2.2904195676988044,0.28454595591332366,0.09247701471492306
584,9.042683943874547,2.1726359980905925,0,0,9.075588855953589,0.4970729263029132,-0.04852266182529407,-2.1569951495156254,-0.41370703139585524,-0.015476701013657012
585,9.243176929245942,2.1729041071182618,0,0,9.88006858167639,0.8904431992290918,-0.9208577608387319,-1.8570487812262813,-0.4728101375221784,-0.24325873663331954
586,9.545110615447001,2.156544689928334,0,0,9.377876412473675,1.1001557706306677,-1.4575653688494503,-1.9137692458621416,-0.05395372481814918,-0.24808511057733873
587,9.921964232741862,2.1197654342980825,0,0,9.523730246398024,1.6985623639307368,0.40413952354775473,-1.8681931088395713,0.6223447134502738,-0.30834925372213706
588,10.34036879343982,2.0600569141328333,0,0,10.089043292153931,-0.037965751758249726,1.942841924483798,-2.317338494043729,0.45151884632584194,-0.16636189813967323
589,10.762120774125666,1.9765988196759516,0,0,10.18617560882737,-1.8975889685308849,0.900515833935332,-1.9292795861426661,-1.0110678825098305,-0.48254366973828944
590,11.146859414458707,1.8705347459508457,0,0,9.699277604890755,-1.3884289606194558,-1.3589661591381736,-1.7160933294143372,-0.9896855397373,-0.6945505217623059
591,11.455497797814303,1.745020720631969,0,0,8.62810551635636,-3.7214553597979334,-1.7645112721815825,-1.57520650409054,0.40715104691325393,-0.5450032251992875
592,11.654351616481089,1.6049989218930225,0,0,9.678062530382968,-4.640232029489963,0.7920375694316725,-0.9020562116935902,0.7580182055594986,-0.8158920183789139
593,11.719622703138024,1.456718082059595,0,0,12.65963760711174,-4.732314840387925,0.7399513143104337,-0.487225426983215,-1.214457313109083,-0.4983434685854091
594,11.641500691381317,1.3070770640170297,0,0,15.001758963845033,-3.2343945451460487,-2.3040521769880122,-0.14659245174316007,-1.939305344261324,-0.2598158407762694
595,11.42683216532679,1.1628914124801941,0,0,13.8007283445012,-0.7507755505104231,-3.5154995628951533,-0.16040126531597748,-0.013213024967762985,0.13312641256159008
596,11.099352371277487,1.0301879550054762,0,0,10.833023639427713,-1.172607503337231,-0.5718722462437243,-0.2082268295733546,1.3201667760122233,0.4449245182473273
597,10.69701331977352,0.9136328543738579,0,0,9.25108860494569,-0.5470825276235555,0.5952787565680167,-0.14514922967939922,0.18281559970922606,0.3407140721734091
598,10.266771061692056,0.8161831180532108,0,0,9.115277953199781,-0.22507551168012635,-0.8666177996108108,-0.3613990484692827,-0.8758943123082479,0.31154004963699666
599,9.85789279758738,0.7390081208470424,0,0,9.009640010501654,0.10434099778976105,-2.72475110371011,-0.31423971346857343,-0.2775600382089331,0.04256750548574053
600,9.51511309285639,0.6816672983001154,0,0,8.301295465406717,0.3989328128871556,-1.8744327568478778,-0.32125602339128967,0.8985186131422744,-0.06946636018292614
601,9.272826096282357,0.64247478687382,0,0,7.600290852177373,-0.000739582878889002,-0.15212512477580023,-0.30103355221034395,0.921468450217141,-0.15900031008205226
602,9.151146294322393,0.6189478753335071,0,0,8.43434801266603,-0.3196498455130551,0.3214406127107498,-0.31793519625265565,-0.1534000505019437,-0.11892007148526805
603,9.154250881533194,0.608234747116274,0,0,9.343985530226028,-0.6181321486673793,-1.1803670509697797,-0.37226890197909274,-0.8001449733222592,-0.14737594619623193
604,9.270983577789687,0.6074470576576889,0,0,10.11950016360558,0.12048075569684812,-1.8938923652794173,-0.28674012145169464,0.027396239490270622,-0.29099153055646665
605,9.477316686857474,0.6138652839062284,0,0,9.734387407247189,0.5524820917708414,-0.7015009913522163,-0.31129651421221277,0.7859944558714486,-0.3121185941471552
606,9.740042930914871,0.6250195004435404,0,0,9.695816568766737,0.5534229032919352,0.26340630322021025,-0.3289328138737759,0.2613115334450917,-0.2741564937758438
607,10.021052862700808,0.6386720086263087,0,0,10.255988848294244,0.44690807112754666,-0.20432279880951695,-0.4339606545319884,-0.3531024213555723,-0.1251480707688704
608,10.281680007428477,0.6527462678134757,0,0,10.749958807500622,0.15378307490982318,-1.0978961855452705,-0.5116046588354696,-0.17700879429859967,-0.03333792743432082
609,10.48675129491703,0.6652567952514384,0,0,10.439622662372662,-0.3987189719292867,-1.0048354017522267,-0.5435726938444637,0.44097205755795443,0.04636714212747062
610,10.608108752938934,0.6742904594805661,0,0,9.984783864345095,-0.996983486715276,-0.1780978739046875,-0.5374860395030634,0.5329078624144955,0.09399614854347163
611,10.627468727094374,0.6780731893039053,0,0,9.972039548159334,-1.161030334012611,-0.002581328308596605,-0.48336714602416175,0.15454419878675305,0.1175507663713251
612,10.538542520516625,0.6751390198937802,0,0,10.307878615011157,-0.773557794062984,-0.3229412724783422,-0.3954894307624426,0.10834960218681969,0.07331949288680877
613,10.348319954106252,0.6646048081219871,0,0,10.608650058072316,-0.5347783017619138,-0.10164999029875285,-0.4112625446913169,0.4446353649505525,0.04522051344526376
614,10.077315217650252,0.6465327661785835,0,0,10.974272234012615,-0.11979463102202005,0.3038012097923144,-0.30689691332511854,0.48568529983252057,-0.1056762451259417
615,9.758464997655416,0.6223233457860895,0,0,11.905586307400084,1.446900941201392,0.5041573027929013,-0.2204292284851143,0.5244987497408123,-0.17581724496243345
616,9.434364257055606,0.5950304512962591,0,0,10.31332975550012,0.8677479838721471,0.19364874680749136,-0.4934431461149196,1.0666003260507841,0.0776320919024976
617,9.1527139323214,0.5694541394385686,0,0,8.955039193263445,-0.6339053204029664,0.7977373625140524,-0.4530823505408488,1.2106763381317895,0.11677189987215801
618,8.960236741617202,0.5518740377166172,0,0,8.514091353653386,-2.0255953910657243,0.49795544901482175,-0.35898408056166065,0.26484672818990407,0.21637077953896136
619,8.895771145499088,0.5493625885606425,0,0,8.142163983714013,-2.7395138853053935,-0.8938936432466686,-0.11157687083142309,-0.3894471899129688,0.1664856598182373
620,8.983605867168903,0.5687482435562414,0,0,7.646174315037268,-1.635886142497068,-2.072977328938586,0.07924549988807808,0.03372692149939703,0.09239364301352651
621,9.228265018086917,0.6154255455146854,0,0,6.316898141163839,-0.39048058016554743,-2.4260987638747102,0.06100179078963602,0.3531654860905192,0.20633589096455016
622,9.611886203262273,0.6922656540753187,0,0,6.775619276660866,-0.16497058255796046,-1.9069035750575891,0.020726927520167457,-0.24366695851459225,0.19125087611500963
623,10.095045527824075,0.798847511736602,0,0,7.665919032236099,-0.5768342012489681,-2.7796100282617586,-0.09249446782302403,-1.150769719907197,0.12255039815738947
624,10.621342785268322,0.931139856091328,0,0,8.863757679880578,-0.17766116586701963,-3.6712481919801814,0.0055103727457332385,-1.073165838417825,-0.07089337238041718
625,11.125296159458658,1.0816719280837501,0,0,11.896350357890926,-0.347537987659291,-1.0092548243726522,-0.193569087090486,0.03929097674599199,-0.14568837590855915
626,11.542273046081776,1.240171546254515,0,0,15.933635077758257,2.4731358535564323,3.740910020683087,-0.554520476835884,1.0309981287455767,-0.36559180637815114
627,11.818574502125223,1.3946127784536695,0,0,12.314905388790036,4.314893915635459,2.635931271651355,-1.3547198657104902,0.23392929971917215,0.20613246289173312
628,11.919661255356148,1.5325642661823593,0,0,11.671561071046684,0.272409564511116,1.3585635128140414,-1.1556076601467582,-1.3948528250948211,0.7493852908110031
629,11.834942355294967,1.6426579397929606,0,0,14.59556326642132,-1.4508124703163798,0.6790881677062567,-0.7874772680064409,-1.6897888794608025,0.7604736570093213
630,11.578344574135908,1.7159500556470912,0,0,14.137645951747947,-2.691126453794114,-0.02373769201401159,-0.5239690271783516,0.718850201741899,0.4461653698398316
631,11.184741145877023,1.7469583556131825,0,0,10.623596264226379,-1.4053285692072188,2.4644467696071004,-0.31317785063050746,2.898910533636412,0.2983589411667226
632,10.703108524436521,1.734217795258226,0,0,5.65903077359445,0.5644641503161937,3.5012006433498413,0.15003173410829787,2.3522410924791015,0.24266426171551003
633,10.187964650091152,1.6802777673603677,0,0,6.39984261307715,2.2315316843551147,3.999823368559841,-0.2573773793128362,-0.6645525055351713,0.5060209383447914
634,9.69103521011653,1.5911690624291535,0,0,6.85214189731842,0.6007496706126967,0.405935327177408,-0.6283837519393819,-1.4502986607920285,0.8066642040137271
635,9.25493781139102,1.475492058869558,0,0,8.421791982771438,0.08486654796391668,-0.05836469617879152,-0.45405720178065856,-0.7437642059171606,0.44976600750753065
636,8.909962030881642,1.3433642400515347,0,0,8.646572305251928,0.8416537850448695,0.181098460587912,-0.1887306733770318,-0.6933602469368589,0.0644992127543196
637,8.674060712397445,1.2054616152672812,0,0,8.849751545998577,2.4226527468848795,0.6590263456613416,-0.31486756301266455,-0.804894171593699,0.05349419877585175
638,8.555318396189438,1.0722957450125057,0,0,9.93325698092986,-0.35254451862595537,-0.24374507635433007,-0.7576845568693689,-1.537267961482886,0.17281584538064002
639,8.555641542521133,0.9537290904099681,0,0,10.075290552245097,-0.7516427999331018,-1.823773503087525,-0.4331019887160351,-1.411956326320391,-0.29106406941162793
640,8.674276462773143,0.8586117136822353,0,0,10.353571553321983,-0.40249014765471336,-2.5653649419516795,-0.5033161166389087,-0.6672195493232984,-0.37791524366898605
641,8.909970428935212,0.7943880487338734,0,0,10.095221680877422,-0.3251815279724988,-2.7725452594568742,-0.43990558179415895,0.28105204191898553,-0.4508127133252386
642,9.26107541318499,0.7665875763139324,0,0,9.867024665347957,0.28522752633747656,-2.073434050333943,-0.4484740535035804,0.6020043310821385,-0.4847334072839985
643,9.723545027463183,0.7782209532011041,0,0,8.720240325843823,0.12758315708070606,-2.619208509465908,-0.5524149205090197,0.3445308445544051,-0.4498979404919829
644,10.287446367415056,0.8291865298367592,0,0,7.483416848577115,0.1924340414288255,-4.308642091668962,-0.43919182398518836,-0.07217764592902459,-0.5679420183138404
645,10.93312600044638,0.915832083515392,0,0,7.58231182226007,1.578847143192079,-5.204344346381141,-0.25891593760163284,-0.1626557079418026,-0.720640615483374
646,11.628381713056081,1.0308271582150201,0,0,8.332435867154695,1.5211956768286352,-5.125490875968804,-0.3216257257157618,0.13002405268396056,-0.5638711975985345
647,12.32783566160822,1.1634890529466417,0,0,9.160623867196326,1.3049073865215197,-3.6986555574210898,-0.18312800583292307,0.49246480123088615,-0.4606616217970954
648,12.975227635551589,1.3006589325468412,0,0,10.227386075000513,0.7934286169229094,-2.0187890673415367,-0.08210049878124216,0.1016653222487134,-0.21873731821626707
649,13.508655778136887,1.4281274136167403,0,0,15.57610323457607,-0.44018241170480943,3.6497155560241064,0.22717226145267802,2.1021111507852037,-0.2521923584253317
650,13.86802279229302,1.5324591428060275,0,0,14.689869221629685,-8.462328956026049,8.7235662133716,0.16330725316815717,1.8006708856304732,-0.2550768038468012
651,14.003327246979735,1.6029011605186085,0,0,8.363122462481368,-7.046275070038458,4.6170180694809515,1.1291269106905928,-1.3687617016772469,-0.9294506025646214
652,13.882254154153228,1.6329576842243358,0,0,11.397860762632625,-0.0014013691068592957,1.60775278221386,1.3531591048670515,-2.7689863683008626,-1.4774631223379822
653,13.495812275374869,1.6212424675074593,0,0,15.162655045854127,6.306207718631586,0.34960725143907384,0.8296573874616721,-0.7470997812926633,-1.0699818963003873
654,12.861211198115166,1.5713922424915985,0,0,15.905368210632508,5.200829419884692,2.9649251504989467,0.6166867287712691,1.4864291215447951,-0.28080863620265867
655,12.02147417562546,1.4910926292439373,0,0,12.773840386904139,1.1707916154576736,3.810110321124216,0.5420288820055076,0.3409679698213026,0.14171107142229153
656,11.041577738884857,1.3905314617518394,0,0,10.797317263463128,-1.5886781595843529,1.8900180697404334,0.18661223372422822,-0.3451875703803586,0.5826262462449154
657,10.001478481102792,1.2807395925690008,0,0,7.653779520027968,-3.1254236759755725,-0.06463538015331273,0.18725808054604065,0.34295641388840925,0.2794498291346495
658,8.987149426918613,1.1722464491018667,0,0,5.030762755217124,-1.2068704168558169,-0.17754955961057653,0.7838463226053569,0.8625039222972469,-0.5361556908152489
659,8.081290692837522,1.0742978464599968,0,0,6.088641234132996,2.690475752774365,1.6805640069669328,0.8342110951923681,0.08674045074318194,-0.5662338118982788
660,7.355380023603439,0.9946482472493047,0,0,5.3365131307006894,2.615091112158142,0.9270906823414843,0.05675365552946167,-0.9001425540244076,0.4947546169243959
661,6.864195113014505,0.9397431984002127,0,0,6.042407636604112,0.22561711350825858,0.10842776530761611,0.18514348870719374,-1.5516819840368723,0.665104132358101
662,6.643135386800606,0.9150047054121959,0,0,7.977574023884485,0.21176751322811435,-0.789768501784212,-0.0017084951231506379,-1.4491681806725707,0.7275776295645082
663,6.707916108573105,0.9249361370062595,0,0,8.058525063384499,-1.106276919237579,-2.764208231572064,-0.01285289485629992,-0.9766581683950956,0.7435484744004031
664,7.055730176905884,0.972867227936539,0,0,8.724200843325251,-0.9813760721252037,-3.199914982829125,0.4729167476014503,-0.27271249150726523,0.4093372243655686
665,7.666886384969707,1.0603330360754102,0,0,7.957566565021758,-0.8472998334461875,-3.36734257042308,0.4456661395062384,0.6659448355311642,0.17595833242198342
666,8.50624254855886,1.1862550307422146,0,0,7.264456061040009,-0.10753248984791544,-3.124713961886572,0.8141685558483526,0.8833538299453856,-0.02966508704282579
667,9.524320279116889,1.3461958738373476,0,0,7.343412089026467,-1.4618164945755359,-2.12945867536654,0.5690380166753044,0.7551110817461731,0.21061720496643596
668,10.658550268542688,1.5319692938121303,0,0,8.062236966569277,-2.673068830136604,-1.9052895943701154,0.5744665979829499,-0.15905485916164358,0.3079278890716252
669,11.835383782959166,1.7318256403388974,0,0,10.313125245357128,-2.024685195003768,-3.5050671316880373,0.5013194186698753,-1.6492661659366772,0.6017859363690544
670,12.973896265753392,1.9313245010914057,0,0,12.085973569226665,0.7673806139341013,-4.724855377795669,0.5261644585014009,-1.3330570329131994,0.48395098862964786
671,13.991091025020182,2.1148583469687807,0,0,11.79667397416238,2.9857502947753543,-3.515316470530947,0.19131227823912253,1.2417057759468677,0.25961532606745263
672,14.808597182137266,2.267625946705255,0,0,12.422416499916261,5.813997545423002,4.837880653922346,0.7060459198998433,4.264868229014996,-0.4726453719256913
673,15.360021208216468,2.377707274164334,0,0,8.844974064598084,11.075619536469453,14.089179181968053,-0.40800831160246004,0.7080584424504139,0.4929274804029735
674,15.597934852430267,2.437806267059818,0,0,10.779321908769154,4.555294713814731,3.760197702235626,-1.3659840760923285,-4.028399050510377,1.8055184266728108
675,15.499410818283001,2.4462440968644277,0,0,16.242497041036792,-2.033051107663437,0.664664993001966,-1.8002688501952246,-2.5741661339545185,2.3274641974377217
676,15.069155155488081,2.406924715096842,0,0,17.682360617356263,-9.465178215299058,-0.5011055957350541,-0.4945889613766987,-0.6196802445063457,1.1019192099155701
677,14.33955490336016,2.328248520684945,0,0,17.00548422441225,-2.2415676019708757,1.9024145424431476,0.7018383384205972,1.8028963585438005,-0.6389293866060685
678,13.367346885606896,2.221256266291268,0,0,11.488867181387695,1.1594208296083803,3.515348149751102,-0.15787645969139213,2.2898983041775476,-0.4570154034199225
679,12.227230221311824,2.0975187226747694,0,0,9.528467198713248,2.334639405148188,2.7965350438945986,0.10543488815807167,0.11147470160711051,-0.48457407307760325
680,11.003539887058915,1.9673473168631639,0,0,9.83972776447994,2.598752382528806,0.5750174539284418,-0.32669750558759764,-1.3216023212788641,0.09882651548393546
681,9.781706811824506,1.8387857000665464,0,0,4.959117121685891,-0.23967349777427344,-2.6518627474103558,-0.41535155388969713,0.30585886601551143,0.6893259189551719
682,8.64129916800556,1.7176018460498819,0,0,1.025362077946817,-0.15985551448513358,-0.7026691643828944,0.18283049679342217,1.7593484400694321,-0.06453771982444549
683,7.651894228970315,1.6081844206025255,0,0,8.061142655690297,2.074741963697854,4.250821449732886,-0.007971250344123,-1.6862383525107072,-0.6792902120318024
684,6.871978799767104,1.5149317233144688,0,0,10.839376045128985,2.2754726604255744,-2.2962282872578577,-1.3540470314078135,-4.214377534959382,0.3377853187811296
685,6.349806662133929,1.4435212593944382,0,0,10.763815396393253,-1.1094287200841642,-7.838462983759195,-0.6387565289512256,-0.844970045088641,0.05782090489870936
686,6.124246030686555,1.4014670959056426,0,0,9.20783027297291,0.18868353652628408,-4.1279281444490525,0.16518400068704903,2.2145797094719226,-0.4893399895148316
687,6.223746805973773,1.397625100179522,0,0,4.327186633207987,-0.13662603021299569,-1.705261938467142,-0.6171720590154801,1.6732467752564677,-0.030751746746812265
688,6.662702674364897,1.4406824382481964,0,0,2.8417883509057633,1.2348651303896345,-2.28937199146001,-0.31571145346148305,0.12685084164447744,-0.2778861605051668
689,7.436021764171601,1.537006657348827,0,0,4.033138313806368,3.2433065224142026,-1.9989221010807654,-0.6894383556405277,0.5377701958707632,0.07337884556635686
690,8.51379953392144,1.6884243299282482,0,0,5.012565264797938,1.2034118941073286,-0.9975636015390452,-0.7200773761084812,0.7365202129489895,0.4649161627581995
691,9.838178403945168,1.8905150093266285,0,0,9.087948853625498,-0.6128797670369426,1.2423707614940924,-0.3985607256639311,-0.8199975589176386,0.649939795631729
692,11.323924660713436,2.1318619471141687,0,0,9.167878524489556,-5.275488102472209,-1.4299583954904465,-0.6973608628170457,-2.472141158657652,0.9995813852377864
693,12.863368465406415,2.3944677632921096,0,0,7.526007688794538,-2.8508879885467593,-4.20927260066476,0.6557373863796803,-1.8413803466136869,-0.6577806801931967
694,14.335463282158646,2.6553153812384642,0,0,12.922286337202923,1.8270843895964028,-0.7734392389134273,-0.2863198471441062,0.8520393996328947,-0.691710476928108
695,15.617922330557287,2.88888397652685,0,0,13.802490014699137,-3.985302942746212,9.682245343339131,0.3881417900306987,3.2517192749493637,-1.0459518755951371
696,16.600662407098092,3.0702925675928934,0,0,19.00073474899977,-5.941667798520185,17.050736398816966,-0.08767574930128086,-2.046282200602416,-2.245559845440306
697,17.198268304575297,3.1785990586609247,0,0,13.53766326753503,-6.812044556425685,-2.9397445399959428,-0.6429279088943578,-5.312786279025072,-1.7867257800223915
698,17.35923632303409,3.1996695670113957,0,0,16.687891925700207,8.64205883698564,-4.3241248359295525,2.050571721927387,-0.15138549453165334,-2.843140810990232
699,17.070533364113402,3.1280658881013794,0,0,15.853453217056561,10.941598341360713,1.9335985619578282,-0.45251029472862664,4.056469499678729,0.06882948591038049
700,16.35718682236637,2.967638313620553,0,0,11.556389207975375,-1.3221202466418598,5.484322131886348,0.0003067569636152445,0.8555495525193288,0.9694565050758379
701,15.27765985982902,2.7308694555690245,0,0,13.97508456369707,-5.405792129325369,2.872991620658986,-0.6269411864017661,-2.7096689816759176,0.9877878360905232
702,13.916376833913166,2.437309354353982,0,0,8.825616035683895,-9.65238391285484,-5.492963784301566,0.1374751598745448,-0.4712253729548962,-0.28749659035669434
703,12.374937917206509,2.1115340522844765,0,0,8.672246768577486,-0.42422930051427804,-0.9139612236512892,2.218606224585999,1.9553545203211962,-2.2281539724241926
704,10.763403047507632,1.7809498839729014,0,0,8.368792920948977,5.071006863844658,2.60571711689402,0.8269585581030294,1.2967154883579124,-0.909582276209447
705,9.192651825139553,1.4735785538286787,0,0,7.165645988103028,3.038293321660728,0.4663159659751339,0.5044127898124761,-1.2540129246983123,0.5119354117818742
706,7.76831343870243,1.2158395147828227,0,0,8.290671832993441,1.3752205513204148,-1.5752763394986218,0.38251765072608584,-1.8338239161008583,0.5225086782412334
707,6.586177961112425,1.0303552142735644,0,0,8.300619541005167,-0.40909368265029017,-3.5618775021614746,0.15795302113771797,-0.16091039693631332,0.2521678610782691
708,5.728509369380441,0.9338938448472518,0,0,6.775414674264781,-0.08600534339474854,-2.2308085830940554,0.39357235459815054,1.062470390364236,-0.17002245087147883
709,5.260490006470155,0.9356538222512191,0,0,5.814024390185215,1.1052117909118615,-1.12582119759651,0.2716587404131574,0.6206729366463615,-0.20666157419862752
710,5.226225634526023,1.0361383653522707,0,0,5.762127778033455,0.9663815775834288,-1.8265224216916975,0.17370402561746712,-0.32933935985962187,-0.10767663886942845
711,5.644224731378258,1.2268554841703645,0,0,5.98209482332408,0.08637756358419174,-3.3169088229309382,0.1858145653065923,-0.09026537308658664,-0.1255640295574658
712,6.502832361230011,1.4910038341740117,0,0,5.204898866632372,-1.7202574542228752,-3.0828612103956377,0.38163355305617563,1.2389982046973664,-0.21292019545484356
713,7.756598290036316,1.8051607770688263,0,0,4.234997399543847,-2.277071898665648,-0.41260022149953085,0.7594577765831088,2.3788624217437504,-0.5633740775345158
714,9.324906192660286,2.1417936329748253,0,0,3.0816614886410076,-2.500151606316416,2.186190810086056,0.47570966070783166,1.7037517164888398,-0.4531089742084559
715,11.094249926034948,2.4722373089592327,0,0,7.904918385842787,0.6079744979093231,2.166651929832721,1.0569095895792857,-2.6468253661785512,-1.0243485200396483
716,12.925130540926345,2.76969705062698,0,0,12.832618252835372,6.440037568399349,-2.135026467666265,-0.03887346501632012,-4.057592538503655,0.381717385927581
717,14.663647798034015,3.011865689212301,0,0,10.927250539114922,-2.68397929133646,-7.258062774657866,-0.6656269082826302,-1.3135334193477521,1.667985875124906
718,16.156765903038092,3.1828632045318974,0,0,13.730750535477924,0.05860768209222639,-3.283057468433707,2.238823457534367,1.3105422793400765,-0.46488706173965955
719,17.26933360051616,3.2743612696597557,0,0,15.43535972994114,6.250221903923899,10.074687756769947,0.18815061157895907,4.857915464771466,0.2596568246091583
720,17.900393206477005,3.285880275826851,0,0,17.027775242997656,7.837680521089051,16.852020515846526,-0.11812456198224998,-0.7225738515854253,1.3348362183633107
721,17.996117580590223,3.2243052214823584,0,0,20.60637599916362,8.681858655247332,3.5421077959781537,-1.242625980200459,-4.361799127554457,2.2648685023615305
722,17.557005901826376,3.102689809369681,0,0,14.253473124651252,-8.584342648992079,-1.8690734728795557,-1.569149140901723,0.9486019082518768,2.64302463078347
723,16.63792706204518,2.938458604491283,0,0,13.794012818574105,-9.075563858554418,2.692619673143303,1.3177583596231834,1.5254042833201378,-1.1220725133041733
724,15.341015152608135,2.751198605559304,0,0,15.800895590679824,1.9332336917811002,2.4524333994964085,1.2086417785937893,0.6141448755357322,-1.7881106240317532
725,13.802722894678,2.5603268032352484,0,0,13.153385279090909,6.79251171616827,-0.35683697697329814,0.7244101698730979,2.150626082091039,-0.5584426121501418
726,12.17713721155582,2.382961390726387,0,0,7.995109198509765,5.154529458684827,1.7701494014336059,0.20472936745102865,2.995255352350287,0.3646263237550369
727,10.618007301854936,2.2322737300317743,0,0,4.8257321248972875,0.48185430819146907,2.5564179016855815,-0.10230289841870925,1.3724843074327326,0.785512696153091
728,9.26197630157647,2.11650156392364,0,0,6.7827561937747936,-0.21184169985735654,1.241737872576341,0.07495829871383268,-1.3798489854845009,0.3278902360579238
729,8.215177952802437,2.038720792289281,0,0,8.196024061104131,0.630254745907219,-3.7341724274573105,0.11197167140333068,-1.3339013029291735,-0.1827761082152909
730,7.5445819608255045,1.997387804952316,0,0,6.381435095229167,1.926593743780409,-5.593086495441242,0.24313044826873778,1.2118750942581207,-0.5370596291389896
731,7.274477006003082,1.9875219736288041,0,0,1.9749250125022095,5.113055430676323,-0.5467633557895653,0.5916823388271805,4.430158249450977,-1.0220654784939975
732,7.387693352988201,2.002212201921169,0,0,0.03425543471207854,5.6972401235004035,6.951184465722222,-0.27625634068626526,1.317417518732305,-0.19793222231788002
733,7.83079485221868,2.034012609716566,0,0,4.698899329516694,2.5295933718430956,1.8918781639250988,-1.018774103760484,-3.180507441061702,0.7251542714013028
734,8.522375263540475,2.07584669728351,0,0,8.984294818319148,0.9956066683421897,-0.943151131379893,-0.9267686975207748,-2.2365741676710225,0.6210069519761358
735,9.363547216993771,2.121259517005083,0,0,8.89065349923571,0.13798454593490428,-3.281716217586192,-0.8667352683002736,-1.231172082748411,0.3285659858401732
736,10.249614965401806,2.164137182946458,0,0,9.62232998465052,2.240880567990163,-0.4800471953430571,-0.6187003830806755,0.6357398015467371,0.12567559807449932
737,11.081798089374175,2.198231700428465,0,0,9.077617659133033,1.483445256304975,3.7513525685446236,-0.8539650859577805,1.6019301833547317,-0.009081823163403016
738,11.777769055812895,2.216893635261392,0,0,12.760555650566634,-0.9035804372401824,8.081402707806806,-0.7361883304107107,-0.2270541554326546,-0.2116431119693171
739,12.27971337064448,2.213288454970475,0,0,15.432874053414453,-5.26889000305817,3.852568506836949,-1.2030364793161912,-3.5401606667308805,-0.011294491728797089
740,12.558708177098122,2.181114345805969,0,0,14.700814164508737,-2.2452941270397146,-3.949925008771599,0.04804651386987428,-2.813466913868003,-0.8647537486664139
741,12.614639409609815,2.115592851959905,0,0,12.96284950563516,3.0861355317905557,-3.0052696355554476,0.0528235786890544,1.3878175940059554,-0.37465180506656687
742,12.47174793872641,2.014402256118514,0,0,8.339216116569778,1.070014030942182,2.0824424390259177,-0.43412932504367524,3.187652370401402,0.0695586373625208
743,12.17098262331834,1.878291009281068,0,0,7.205609112059197,-0.16646312067980318,5.25706707258335,-0.4440796792818812,0.8785905580680996,-0.008488967849562603
