id,ASVM,GSVM,walking_nonwalking,normal_abnormal,ax,ay,az,gx,gy,gz
1,9.832263122365534,0.022913517898540316,0,0,9.777614146051375,0.36216127579158613,-1.0120647412810024,0.02271719974851119,0.023781041286649755,-0.010405914003063496
2,9.82484155262338,0.0225086293026325,0,0,9.820463080938882,0.36019426924699216,-1.0388955969783469,0.029092644646617864,0.017134744612184335,-0.009856131197684574
3,9.817161943971147,0.02340065125961987,0,0,9.81581091046429,0.3526342152735988,-1.0849212219110513,0.03261154743942372,0.015224110650645044,-0.012083795461425725
4,9.810247420336456,0.026097063505404118,0,0,9.765618992282832,0.45616939508981263,-1.0522879362063158,0.033412261568426416,0.02143293785862757,-0.010308516732055838
5,9.805317326363683,0.03102252350285864,0,0,9.75497343420461,0.5169191415781761,-1.0054547525136739,0.024416777999736558,0.02449792863608588,-0.006488607988534374
6,9.803669199329406,0.03845319280213739,0,0,9.734360496574462,0.4343435459139995,-1.0153148596265926,0.0019856127085745865,0.020874402008014544,-0.0050371900617917275
7,9.806523175054913,0.04846010108173962,0,0,9.713476461518988,0.34492902611451964,-1.049821295129263,-0.015970268740266382,0.01805188972694959,-0.008031862732544094
8,9.814856603052801,0.06087709751969793,0,0,9.668608920691401,0.31502352620169105,-0.9820229763492525,-0.01564348250408828,0.026440936158839048,-0.007422385557822564
9,9.82926096782896,0.07530855397305596,0,0,9.630251438127669,0.22678629998509847,-0.9793816595606172,0.0004670837210778759,0.032791836893425345,-0.00590965599226202
10,9.849846468584223,0.09118691929039051,0,0,9.823451062244366,0.2263686911900079,-1.004245306423344,0.016627079836446026,0.04739925501158841,0.00889852691414953
11,9.876200874395016,0.10788064592335617,0,0,9.984751735559172,0.19900214170980554,-1.0976975663439903,0.025632975047417825,0.08432246121732556,0.02116947979313651
12,9.90738469803212,0.12484013753891329,0,0,10.06209027295452,0.1213509948256705,-1.119043144153573,0.038384485844925334,0.14723644096528313,0.05672198268112969
13,9.941930452680335,0.14175584518756162,0,0,9.975959898879882,0.043748272861410004,-0.9669073921224829,0.02433117157720489,0.2030872580359582,0.07392483669638383
14,9.977826196114858,0.15869311977733347,0,0,9.828320693449822,0.021232467681507546,-1.0455261003669054,0.04205195558076984,0.20606566102697393,0.07182513657584473
15,10.012502363519873,0.17616821156473247,0,0,9.773696778284208,-0.06829310768161811,-1.08811605329694,0.04996234039824591,0.19354070201934664,0.06555434826126677
16,10.042883852858743,0.19514117378089957,0,0,9.733401467444969,-0.03484808430324889,-1.0548088516019818,0.05123488117173084,0.19629729524963194,0.057100839655712485
17,10.065587115622275,0.21692103647245678,0,0,9.743579659577048,0.1088950541307752,-0.9844201653613143,0.04974585819650209,0.18704886874695792,0.05468625211240033
18,10.077317749098444,0.24299920597736852,0,0,9.975888228521171,0.07062769276554894,-1.093119706302484,0.05734562856836545,0.18351882348972592,0.04218216284695215
19,10.075461726148003,0.2748417537875268,0,0,10.098572244932875,0.03262518410868796,-1.057718213204581,0.06142583889280889,0.23508086378129744,0.024557275024115855
20,10.058784348131464,0.3136764719774489,0,0,10.101919240093153,0.00740122943919299,-0.9716516479448354,0.05390483194653866,0.2728856857613621,-0.0015453823184283016
21,10.028084261534456,0.36030628149686256,0,0,10.149940382505378,0.09250720652112375,-0.957424661265928,0.03531075512666405,0.32635788301533036,-0.026750724154771317
22,9.986617971668723,0.4149695323588222,0,0,10.21862305282835,0.15468134486328053,-0.894709251155981,0.007028764252643031,0.4102465885275542,-0.04858756824673838
23,9.940120106528129,0.47725399045142786,0,0,10.261591121668863,0.20911712938813923,-0.7668189224076374,0.004851110732831207,0.5167503954914356,-0.0649012270396627
24,9.896292529380752,0.5460590712730302,0,0,10.271925292524811,0.2415188076171048,-0.45352787206367606,0.007000120217141932,0.6008509850976189,-0.09508784802314593
25,9.863717773131947,0.619594313716376,0,0,10.285405474744923,0.1886636258882531,-0.35632428619370676,0.008063761232371475,0.642581922625957,-0.12462469499880903
26,9.850267593936433,0.6954044098474911,0,0,10.044823063643042,0.2758636758728428,-0.3024856675559163,0.009704662983150944,0.689885122428224,-0.11653290481934271
27,9.861218517908718,0.7704219615642369,0,0,9.52164846759934,0.11307419408888161,-0.2878271691036927,-0.0064914038158168695,0.685138818654407,-0.06510422459318055
28,9.897430622638446,0.8410627520360076,0,0,9.1905558519216,0.2293679406673705,-0.3224692630545176,0.06650682799887055,0.7104503561368728,0.020189037396887273
29,9.954050240074181,0.903385380348224,0,0,9.064765040879138,0.4725315991710249,-0.0701144761587199,0.10726185277157854,0.880940019827555,0.08403136479468046
30,10.020206826560198,0.9533303666679954,0,0,8.498925513787933,0.8660319482315293,-0.2793534424027264,0.18878734395170288,0.987597177769787,0.12802813512565325
31,10.080045286200782,0.9870346756764825,0,0,8.458868243024355,1.1479806505223749,-0.27358944507598487,0.06318817389283389,1.0023262061384521,0.20564957862613306
32,10.115153970141272,1.0011969047507747,0,0,10.546381589413677,0.4275402600988451,-0.8047986196245642,-0.0429752817347998,0.8768840078882849,0.2636266527021872
33,10.108049850243646,0.9934569521907065,0,0,12.302918527573729,0.24761200582176238,-0.5373463431290745,-0.006146102654336424,0.8831139788085889,0.1815415317034223
34,10.045982974413194,0.9627512634656927,0,0,11.830619705065185,0.43037326149255584,-0.13220887269598045,0.033403988895180224,1.0457172430204678,0.03794007867577942
35,9.924116403587938,0.9096013592315657,0,0,10.617913256161787,0.46127982534488376,0.3991122723402637,0.06297982564760055,0.9940248519841125,-0.062169809766627226
36,9.747273863275932,0.8362858437858354,0,0,9.913400490033029,0.4036292084004068,0.2887317404145629,0.03446849700136706,0.9492976661658348,-0.08966974533164696
37,9.529879963208964,0.7468436528841176,0,0,9.230032242618327,0.7173256457530982,0.0515053524128722,0.018063069295106798,0.8402085015271428,-0.13007350279925325
38,9.29422755008456,0.6468701703648234,0,0,8.670777328978398,0.6710950638997424,-0.2675660248946914,0.003798211717672838,0.7116815099427083,-0.176116221797167
39,9.067577088785024,0.5430992348582742,0,0,8.307563158729051,0.4764950497385181,-0.4934954910001631,0.0518524082431093,0.5287214533326281,-0.1954920955983596
40,8.878737677058753,0.4428044684266043,0,0,8.371495899310014,0.49312972946916905,-0.7095725483913309,0.055623512254458864,0.3070532166648104,-0.16515238876401078
41,8.754726442167588,0.3530911040678853,0,0,8.500669627434629,0.9099803902041295,-0.8768314156748069,-0.03359306385277502,0.1970806943985339,-0.08094886476821848
42,8.717928305256951,0.2801732547143039,0,0,8.448516539963915,1.1004436134435387,-0.7436781325264994,-0.1455091954609583,0.1739438388557063,-0.017519612543572836
43,8.783965078214555,0.2287334650634063,0,0,8.909886943654424,0.852171450835579,-0.4678279524746146,-0.20226485651797996,0.11572942767453324,0.021395235006887132
44,8.960300630406428,0.20144250351828275,0,0,9.188346766876153,0.6630507921577393,-0.460658461817057,-0.18372112093743462,0.03111550193228704,0.04952192086197305
45,9.245495472885578,0.19868906618557478,0,0,9.381306248838206,0.6330686394107862,-0.37447164866065535,-0.13489717870735818,-0.04814593658999589,0.03540827777912764
46,9.628987468559455,0.21854445951357937,0,0,9.988281394756857,0.8024556023045838,-0.26652199844148844,-0.047181694237605834,-0.15742296625682314,0.03933711175994711
47,10.091305599655776,0.25697054204001774,0,0,10.469257988038667,0.6499115761376921,-0.4076324380257809,-0.08572237946575759,-0.0837480480550832,0.01668080461171701
48,10.604702486527053,0.30826433332164493,0,0,9.917438626828076,0.38622620703804633,-0.24579689513890052,-0.05290089704160275,-0.0823178681802365,-0.10046761574704166
49,11.134291339855661,0.3657109926932354,0,0,10.22484021526428,1.098476020783093,-0.15314631666163284,0.0076363192353280885,-0.31400614010306915,-0.22990995066172074
50,11.639846110521855,0.42238428615617857,0,0,10.60238212500846,2.0493411410845397,-0.5740877685209539,-0.05142237901155145,-0.4509695993687036,-0.32152827549234986
51,12.078404323262745,0.47199636328870087,0,0,11.601396998854298,2.6861511444277126,-0.7926357787409117,-0.1059286326351442,-0.5595086136555636,-0.3544148977049164
52,12.407664939592234,0.5096732865850375,0,0,12.128637972370411,2.217128183617415,-0.298260114335271,-0.08589804926107004,-0.423177713488504,-0.35869604234095326
53,12.589941244390698,0.5325352863611298,0,0,13.473010370751581,0.4735909267417283,1.9508972279222858,0.15315256402147348,-0.3022920231455742,-0.3920783986924568
54,12.596215985392533,0.5399914192889941,0,0,13.682216273048695,-0.9432000604971613,1.7845276802475931,0.48700260639304865,-0.4207724922671669,-0.3712101702992046
55,12.409756142832636,0.5337020482651547,0,0,11.61183449648466,-0.36321198523510784,1.228456964409224,0.6013725558233384,-0.483595739838101,-0.06446352434800488
56,12.028818890491676,0.5172072027807089,0,0,11.54347087342847,1.0469964940111467,1.4337342734584901,0.46192979905570913,-0.4417048880081713,0.13302656357450335
57,11.46816051604393,0.4952672803327951,0,0,11.41862618646262,1.151881465525483,2.3749065195954557,0.2843980773275951,-0.18680930614258015,0.10171923229654645
58,10.759221450687987,0.47301954865169893,0,0,10.728655190892749,0.16487101511881136,3.2188344333994445,0.24432846513207993,0.022308700178748107,0.01793923213942395
59,9.948926383370072,0.45510653306945265,0,0,9.878780123426372,-0.030859834356853754,2.294571462677518,0.18479541796985854,0.0027142713437307954,-0.00825906004584901
60,9.097048123686307,0.44495338823406894,0,0,8.75828327068341,0.4939188022988863,2.275933108073448,0.15121242567442286,0.12705497896348386,-0.04122932623507317
61,8.272119546770432,0.44434260380925317,0,0,9.72963560674019,1.689671214384393,2.1604938589079854,-0.039084130045034866,-0.12802721635671221,0.022875870393972708
62,7.545977533599134,0.4533604778374588,0,0,8.859166632059821,1.903350274834839,0.4846718726668088,-0.4666437802042221,0.1730805724054928,0.13588318777309516
63,6.987203196712161,0.4706920931454115,0,0,6.256050953164546,0.27954105181715466,0.6131121460863375,-0.6875448188017892,0.20935432491991313,0.1271320426808502
64,6.654005109625957,0.49414917428470473,0,0,5.080467270079775,-0.9355394025384325,0.1995329724807342,-0.7632507842957778,0.0086972030619082,0.08065694096104872
65,6.587422226932762,0.5212599220059752,0,0,4.591998031187964,-0.8484540780708321,0.21464612690086432,-0.7774207414310786,-0.06618224625715345,0.07000936078357803
66,6.805922012492373,0.5497540292843158,0,0,5.018547322344654,-0.7838035178292103,-0.6255385528016757,-0.6802070293432586,-0.24204983559882542,-0.009879502839354124
67,7.302359190033173,0.577837125629648,0,0,6.342466845876208,-0.8209154225052306,-0.4411715996919831,-0.4974792649093842,-0.25669533671577266,-0.11250555641708476
68,8.043829344748872,0.6042398965348793,0,0,8.978532550656087,-0.9069120397827294,-0.10534403860571968,-0.24408533548716196,-0.18266623825332334,-0.19316143073174724
69,8.974368302924718,0.6281116596946454,0,0,10.338990432626355,-1.0047748933656893,0.19720465057570324,-0.04416130824739766,-0.15844645756954237,-0.1460728018403781
70,10.019953682304177,0.6488736747130837,0,0,9.936575434810914,-0.6626890064863624,-1.091682407894204,0.16365054470154966,-0.4883581119584316,-0.10336083572263176
71,11.095037929828782,0.6661353155085653,0,0,10.012900476826447,-0.11570211596807657,-1.5661871939790573,0.2835179555121489,-0.773135467565716,-0.05835483139407229
72,12.109888375391069,0.6797145696464441,0,0,12.053693392783957,-0.2589057745045587,-2.233526143716633,0.017216100045345593,-0.765099618650187,0.1128405773393085
73,12.978164343075152,0.6897300458684958,0,0,12.789152019144172,-1.1401057176063008,-3.206584069379429,-0.1393960780503583,-0.7379226486246693,0.20327287784468473
74,13.62424870637503,0.6966864645017598,0,0,12.893535711466264,-1.330325032417657,-1.915904484939979,-0.07694937704581457,-0.8198170969848669,0.22815018894617203
75,13.98983565642749,0.7014757106277376,0,0,14.2784006243365,-0.2083721344807699,0.05374273547192268,0.13049310908784206,-0.8990144004889856,0.09700743413993809
76,14.039230489752114,0.7052499205392624,0,0,16.016354602613607,2.9415647109983505,3.3953821165494302,0.34479128667591624,-0.6455982893402017,0.011769795916495233
77,13.762821524394425,0.7091744725219389,0,0,14.537442913880733,3.8333216391297964,4.087184843157982,0.18993828835784676,-0.4300225358821195,0.25162295924877237
78,13.178314979826476,0.7141225274094434,0,0,9.628142188321641,0.535358111295805,2.1011872664240543,0.01937987979787572,-0.23040483050870048,0.3209296502874328
79,12.329615814134444,0.7204095764377185,0,0,10.482696705763725,-1.6846619813980275,1.0364109031154451,0.4258417306343372,-0.3380510957990336,0.31257486667408557
80,11.283560486778631,0.7276653309774266,0,0,14.10489542669813,-0.1249998207919792,1.0399865919349283,0.5103459846310386,0.061154125843109544,0.38001557592746527
81,10.124829760794974,0.7348971194835482,0,0,11.770088789694944,0.5796526786673067,2.2495665492767434,0.3775471174397072,0.646852195594931,0.2946431626309098
82,8.949277587210505,0.7407344908833088,0,0,9.708330384304677,-0.2833936552925511,1.6457250468442335,0.5093230853697782,0.39665714317262957,0.16412996202476055
83,7.855894683377082,0.743788061197766,0,0,7.798379104809322,-0.5225603790263251,0.07617127445187288,0.6883599065096759,0.5465390777826235,0.14036889300378405
84,6.937904943083688,0.7430233571171477,0,0,4.9369489435235625,0.061994901016979326,0.3302803458937213,0.727500289222432,0.7377507142609137,0.16444855533645678
85,6.273933992220281,0.7380453664513905,0,0,4.337336244999188,0.49257723557530747,0.09065277581247749,0.7562896866336495,0.46072390070661695,0.07559808075045216
86,5.920463999621887,0.7292125953549349,0,0,4.127782488427733,1.464943978686172,0.028034166613709954,0.7460603864285331,0.21758747388466568,-0.028551771182761254
87,5.9066895501328105,0.7175500230285715,0,0,4.691319977463504,1.9120004084521063,-0.19333543568589376,0.5835847558148097,-0.1461543627917455,-0.032109761583039124
88,6.232442251285798,0.7044948584661204,0,0,6.036381656646885,1.7263887496874686,-0.5102533696087089,0.47590727564347574,-0.3856071184955341,0.0978263368169035
89,6.869246280696153,0.6915613370224202,0,0,7.544954835699625,1.6245614889263165,-0.2812358869828009,0.23926056455108466,-0.31663441458614416,0.22972033830339633
90,7.76402827777228,0.6800293931268193,0,0,8.30980728065242,1.3774561249649646,-0.6318957417071865,-0.10812288915335795,-0.36086871352582633,0.25385951985458777
91,8.844687493467363,0.6707418202323547,0,0,8.710798213625948,0.463717007223315,-1.795319978917778,-0.2799671646684177,-0.6156019743803491,0.2140166439873411
92,10.026670471468938,0.6640449305836155,0,0,9.554638362661024,0.03383771298886846,-3.0906021245156823,-0.20317557393018104,-0.874093627109336,0.151247009113498
93,11.219810838514835,0.6598495933726848,0,0,11.358656585636368,0.5705282439963882,-2.4819084436739667,-0.08145086948295628,-0.8035979376106102,0.06847037286250046
94,12.334866970707502,0.657751130032103,0,0,13.913420371608803,1.259390957630276,-1.6194118294895106,0.1608174064130797,-0.5485320999346157,-0.12377719857260991
95,13.289354028369612,0.6571467675182219,0,0,13.913785257549376,0.571870665725355,-1.8761764993677268,0.387243173733026,-0.3801170140359869,-0.3066339188868543
96,14.012453646476265,0.6573196805396221,0,0,11.6682668316795,0.6166320454634869,-2.4438515080882586,0.3229831708566619,-0.5857080268640183,-0.24213172156830404
97,14.449024707284781,0.6574915639541805,0,0,11.071532428176196,2.424441949812093,-1.860147779760593,0.01803814366423999,-0.6514119082424773,-0.033247011751462385
98,14.562925428977225,0.6568627267855808,0,0,13.681779737736651,0.6337163644274928,3.066007351153513,-0.490839040554524,-0.04214159490624983,0.006667096980620138
99,14.339794289946044,0.6546612871302785,0,0,18.430766223742538,-3.8211655077503934,6.2904879009482,-0.4363611947442904,0.3563362049629854,-0.5437308995262476
100,13.789106255384649,0.6502183155520042,0,0,12.056264372900236,-1.0933009637941957,2.9447248572946583,0.0708482903688733,0.010770031496445941,-0.500425998942614
101,12.945010993204827,0.6430759899252446,0,0,9.786708090796594,3.1014302533014475,1.3137751861622826,-0.37151044116144877,-0.269574745033743,-0.25744331437059537
102,11.865457327916527,0.6331214412956867,0,0,12.690319713055143,3.3708096820941584,2.083521491236227,-0.729812197463766,0.00622007666463315,-0.4028968502232893
103,10.62932676941658,0.6207221254552707,0,0,13.773948915816922,1.3351552432336204,1.6304068604708302,-0.6522368348192863,0.09125744284889245,-0.3299319389953251
104,9.331470139290756,0.6068252446366827,0,0,11.028063489355922,-1.6166866303472718,0.045115457694254124,-0.4616306067567498,0.2629822894063254,-0.09949501477208768
105,8.075676127137625,0.5929835303736543,0,0,6.675749674908863,-2.171626098770753,0.16924080724955207,-0.4451847981375873,0.2772184898638708,0.08317675022967615
106,6.9659284994588795,0.5812846141311517,0,0,5.4115163712024446,-0.9867093868122554,-0.23380525922823164,-0.568908172141606,0.27629604656936213,0.11125709065199801
107,6.096821997131436,0.5741791739505371,0,0,4.746579221027576,-0.8035275373021186,-0.21369972382393176,-0.6816933552788147,0.24372898870778575,0.1347563483418722
108,5.544390609645093,0.5742136033684622,0,0,4.317224978791704,-0.8481412031222789,-0.48767646093274153,-0.655426703558213,0.0744501910669447,0.16466735463406465
109,5.358605375247413,0.5836825570122314,0,0,4.486022625029589,-0.9423470672948516,-0.18130204851539886,-0.5634537138980175,-0.04740018682242848,0.1553948986810457
110,5.558463075019647,0.6042376323649067,0,0,5.415608665995158,-1.5085133487409914,-0.3746354547212017,-0.31677558901582736,-0.24251782646420186,0.03551341025186271
111,6.130120226649124,0.6365177396423773,0,0,6.218096498905115,-1.0359094601981134,-0.2536181442735505,0.05549352954195136,-0.3491900304329404,-0.08588329995577511
112,7.028109988603624,0.6798839011711572,0,0,6.211010371204824,-0.6375771949743922,-0.5420008021611918,0.2611491796151138,-0.5027019497985881,-0.173100843756888
113,8.179393387266973,0.732326253384753,0,0,6.631654407994697,-0.7986996979575544,-1.6763178919444488,0.2399527721134402,-0.7890111812135305,-0.25569901647456494
114,9.489816432902723,0.7905650883535325,0,0,8.901847066562546,-0.5336324929421137,-3.027046872060304,0.3413198430546411,-0.9473650337648959,-0.31377488243546087
115,10.85238263307014,0.8503177259394107,0,0,12.460256765033463,0.8913411604220395,-3.104186702300538,0.26127082273888264,-0.7488361517856117,-0.27093399154872083
116,12.156565048869659,0.9066808673041271,0,0,12.737227525850841,0.7603021369648618,-3.0651492757303997,0.03430729893409802,-0.5767386908705006,-0.20562408451632488
117,13.297761755252782,0.9545902016696414,0,0,12.15149443136298,-0.0016660549889573036,-3.787290721608142,-0.04059457883233408,-0.7315488288326485,-0.16176433752130526
118,14.186060902191391,0.9893372509378107,0,0,10.521915474774623,-2.0286381096488104,-3.8505420888134405,0.36126998424616663,-0.8059441623235658,-0.23113113155317552
119,14.753675839851331,1.0071135327739462,0,0,14.490161114915855,0.9118356656865253,-1.010955775715375,1.316889168747194,-0.6621833625134123,-0.18108998196220155
120,14.960520769446754,1.0055126086431279,0,0,20.503001337255096,6.77360651840665,4.033800089125007,0.9880256421735318,-0.030048202705843945,0.4607512027787683
121,14.797336151103867,0.9838873464514634,0,0,15.876055212291883,4.9620677476268575,4.704486221320436,-0.07382457669481417,0.21404057228059759,1.0467336772301936
122,14.285800807967693,0.9434689092966246,0,0,9.60026444229199,-2.0605401636282883,1.4610823563118962,-0.38912332750196915,0.585061306427254,0.935731294571166
123,13.475502306918207,0.8872065664640908,0,0,10.736615746353177,-3.0181390800661307,0.4022310319601815,0.3582133258653962,0.2839204227816899,0.6058878360450922
124,12.43833484244063,0.8193556310123549,0,0,14.246663906038242,-0.3411116784224678,0.3083828938404574,0.6655703902235822,0.3703554000445065,0.41127770237089833
125,11.261322931791955,0.7448982202328586,0,0,12.254320207633691,1.7460583946688362,0.41914551435417086,0.4224055688793165,0.32080347691197747,0.22009004075739758
126,10.038791712714243,0.6689154477935627,0,0,9.407694238651631,2.0170373380145605,-0.7516923738575183,0.3162747330241199,0.15339941165615423,0.1601039246960068
127,8.864538301182586,0.5960345109315303,0,0,7.508491895042017,0.5413547699382241,-0.8666547530589361,0.3735218517278536,0.31908907953959414,0.08238741781794866
128,7.824558922021643,0.5300477175614043,0,0,6.827728337944252,0.3753645335387309,-0.5369032682376084,0.4252627749010335,0.31525820716265385,-0.03886492327677199
129,6.990916043711854,0.47374864545728473,0,0,6.13220093731255,0.5848856133892005,-0.35587559671698676,0.3208272944690298,0.36471769744997656,-0.15736792980091563
130,6.417255729997574,0.4289710607998083,0,0,6.049562719549191,0.8904074985217966,-0.43076212985577417,0.37346174208606037,0.06349770650115617,-0.2820532209654467
131,6.136227558192804,0.3967711979345887,0,0,6.420080308108303,1.1350852195666548,-0.6114003271016455,0.42520158945878767,-0.03311860847623631,-0.29280278690569866
132,6.15872705532525,0.3776759150044011,0,0,6.882415979262309,1.0656757663857677,-0.7159618534313142,0.4358609385236917,-0.03104914590125951,-0.21135381613108517
133,6.474623261029863,0.3719264213819182,0,0,6.9328555475069855,0.9417392705106787,-0.8773922188741284,0.34024415586057205,0.013345404781344584,-0.10335792172250681
134,7.054541935994547,0.3796709462405211,0,0,6.949751484478836,0.44844192282311485,-1.0786194157713789,0.1721319048166542,-0.08175847452431943,-0.0011023115364598368
135,7.852352047711231,0.4010874714036713,0,0,7.613502141519954,1.019235632429185,-1.3736243956208183,0.08951761192218341,-0.3409115400022311,0.04079935560262367
136,8.808174272873353,0.4364340929138842,0,0,7.721957474026218,1.906249774353749,-2.0975147973130093,-0.12252517513847301,-0.5606331117911507,0.07122678220830658
137,9.851886498912489,0.48602134226656224,0,0,9.093974809936217,1.465344374784563,-2.0559956268812476,-0.3921046707885666,-0.6062203198147194,0.08476797455285533
138,10.907165465212177,0.5500890627631003,0,0,11.340329203198845,1.1003727202262514,-1.447084189626336,-0.264052483999811,-0.6086700385534722,-0.00863815579160594
139,11.896068171306764,0.6285744597397842,0,0,11.591628062808931,1.2593934528266837,-1.6395253611011855,-0.027198646481502414,-0.6052475931850497,-0.1474546455515833
140,12.744072750408751,0.7207904820675839,0,0,10.879604333841485,1.0212780440751972,-2.0664690839104303,-0.0757715344703444,-0.5843899914322956,-0.21778319024534062
141,13.385413886722661,0.8250814275187998,0,0,11.573624168246965,0.6840019226076305,-0.36043549264625807,-0.48967695423346524,-0.32398982440228935,-0.09053115377638507
142,13.768436163418476,0.9385577612182349,0,0,15.99987343070049,-0.8834274060977808,0.7407121081182049,-0.7132549921300407,-0.29108072206980795,-0.3102568976678513
143,13.86049053161932,1.0570140868780205,0,0,15.941247594770159,-0.5895008848863436,0.9665041610809125,-0.6523730636996746,0.14099836478538844,-0.5257681737790603
144,13.651676108720647,1.1751003916001705,0,0,13.918881500084078,0.30600114165635384,1.6294708361774386,-0.7995918651527508,0.37860439658294837,-0.513981982359188
145,13.156684798400867,1.2867580866648975,0,0,12.91210544937137,1.9618148391357018,1.6193148035814147,-1.139893900651316,0.3653515783407309,-0.4706500640310248
146,12.414256427175028,1.3858646257631833,0,0,12.52069409582651,2.3012294655198056,1.4701541823150863,-1.527262334884997,0.3702046318563132,-0.478317179227731
147,11.484168404066148,1.46697083987675,0,0,12.381048844858785,1.4175005802471186,0.8226153263635204,-1.635075401138385,0.3219273132279694,-0.3497448693630979
148,10.44205534320836,1.525983509981663,0,0,10.682563841077954,-0.3408817775178088,-0.7082463722472871,-1.6324429932905609,0.3028324206912331,-0.07546398120642074
149,9.372613883337353,1.5606573944130013,0,0,8.049828596816683,-1.8209609327519602,-0.7535451379894034,-1.5463641015149985,0.43167116580456316,0.06728639766678964
150,8.361943966620688,1.5708124019402194,0,0,7.013114644302456,-1.9237766445095112,-0.4661280784803791,-1.5405286894807524,0.48734403944960214,0.0815838364542762
151,7.48990632772943,1.5582594915195842,0,0,6.605554962078284,-1.2640672226303278,-0.23083334823967078,-1.4477345384399747,0.5039405399154719,0.1246079594117908
152,6.823357423270217,1.526477572384655,0,0,6.392795390556843,-0.8694502810834684,-0.285669716184746,-1.4389244030212405,0.35537899930637434,0.18652227082710673
153,6.410923004188503,1.4801209913574116,0,0,6.211128558929555,-0.5916861338980802,-0.5977983641356241,-1.429428086675389,0.1570289637653319,0.1370166398620045
154,6.279666733160948,1.4244537276658145,0,0,6.391372097761414,-0.14017046635700964,-0.7676291377172909,-1.3520217191879444,-0.06898999299426004,0.00881772745268561
155,6.43372322625504,1.364807020385027,0,0,6.485848794042722,0.04449451531079988,-1.1753162679837719,-1.2317727452188068,-0.24939138807294567,-0.14548142026540004
156,6.854773991393609,1.3061457900989522,0,0,6.8390593260065256,-0.539609468552305,-1.1079342301246646,-1.1228712996741128,-0.2879972304449295,-0.26778252722775053
157,7.504161379949605,1.2528076641428132,0,0,7.213784154190808,-0.7567776458403245,-1.085499007300795,-0.9759394296610544,-0.3964228001169165,-0.3239508029899661
158,8.326427289664137,1.2084466171502493,0,0,7.491744958057968,-0.8423255511978983,-1.4856906922483688,-0.9037973683211094,-0.4875925569276452,-0.3542524441129274
159,9.254075395274114,1.1761711611690235,0,0,8.266239665762706,-0.5765645151473471,-1.6826999170494923,-0.8251841319239401,-0.6043488795798777,-0.4182011349157081
160,10.21332759639916,1.1588175138074546,0,0,9.443724352201512,0.7331801253882311,-2.0701288917790377,-0.9326842859335149,-0.8933587943044898,-0.48640913590782137
161,11.130533926039735,1.159250576202493,0,0,10.69982563884491,2.306123194074791,-1.941293543998034,-1.0989829760013683,-0.9365154710307054,-0.5295013339594368
162,11.938704374392094,1.1805583626138823,0,0,12.33192692269887,3.7253923924523287,-0.47471075333112206,-1.2729589966479327,-0.7720010555221363,-0.43896012740729184
163,12.583427760913283,1.226021359155252,0,0,14.055000327334863,1.337978897235777,0.4196391611527831,-1.2996172963287114,-0.39611048773491436,-0.1136509617519063
164,13.027339414626402,1.298806979960607,0,0,16.00293486215622,-0.14489319811077664,1.5906643348528289,-0.9643347845365976,-0.0056383534680953425,0.2776928022889415
165,13.252412862483348,1.4014406892284925,0,0,14.616207523152543,0.7525772137704557,0.9249768465915952,-0.9805869784153749,0.26919917347176875,0.5595450598415593
166,13.259744377011424,1.5351932876139553,0,0,10.189561469960374,1.1115607614352345,0.1251592812563897,-1.249054555414723,0.512978600642468,0.5646752590273925
167,13.067095372956402,1.6995565064251497,0,0,10.501689825041101,1.3207552589511822,0.3031847390707309,-1.3301290528220486,0.39789187208199006,0.3884843495693638
168,12.704987146624797,1.89194904583525,0,0,13.08502784203989,2.9708874456338337,0.984817214993857,-1.5722104472187048,0.3962252872425713,0.31934743448882474
169,12.212300332207414,2.107726369474012,0,0,12.620398589436586,4.44920775857451,1.2408990428143396,-2.112156612440155,0.5532368466810109,0.22938083904881923
170,11.63208430419838,2.3404877237025454,0,0,10.579223993475242,4.127859934735734,0.9122012665968718,-2.4939922307428395,0.4775528067371055,0.09679542335913872
171,11.007925173632815,2.582603296362016,0,0,9.238019321347462,3.0280576071565575,0.10147429826465211,-2.6970410281679746,0.3501137215618915,0.028367356223662075
172,10.381036297590331,2.825842817054408,0,0,9.35962272404046,1.9171840075582873,-0.46198525694010056,-2.868343094883582,0.3796426977062182,0.025505531604673243
173,9.788199705193184,3.0619875057581996,0,0,9.616380222132882,1.0221592494251557,-0.7104135288231868,-3.05604693065802,0.45424860689511465,0.01889124518379649
174,9.260607827388396,3.2833421539692065,0,0,9.596881665891894,1.3642700244466026,-0.3896429544524106,-3.2129743350374156,0.5249981879456207,-0.03304855063827641
175,8.823463011380662,3.483108814761908,0,0,9.416167582843242,2.1377036816777713,-0.3035052468279683,-3.450588349169368,0.606032037760382,-0.09553134802620919
176,8.495998533737248,3.655617744602118,0,0,9.100473084031076,2.118039036196862,-0.23733115690778203,-3.6343395875075726,0.624470620804001,-0.15539566978189867
177,8.291525954605817,3.7964299599142315,0,0,8.44487802132685,1.4644424981371653,-0.6221180610213932,-3.829835369441092,0.5338435576245093,-0.15866326960350405
178,8.217228197941589,3.9023356593791934,0,0,7.9883925958660855,0.9067314264764458,-0.8734278798240089,-3.919525726774818,0.41134577180863136,-0.15115237576535462
179,8.273641780433778,3.9712827583784507,0,0,8.011091700243748,0.7609076753202725,-0.9015033212864844,-3.850206614594634,0.4572772830600384,-0.16819185796892663
180,8.453996932953833,4.00228305650976,0,0,7.858811302968474,0.5583375077625474,0.34390481108529564,-3.75886082655602,0.5919557324670637,-0.19407721102789777
181,8.74372205997243,3.995353399120614,0,0,8.377359736343559,0.4115224993743204,0.3705819911882114,-3.762704474652456,0.48586894676078235,-0.21952494453349813
182,9.120436275660614,3.951542437535182,0,0,8.701885492294307,0.3926224770337997,1.1270171100544377,-3.876115940744163,0.5972221536427279,-0.22403938504046536
183,9.554670027984569,3.873061989972525,0,0,9.529794929194377,-0.290139180209669,0.8992950791956018,-3.847004855654769,0.48954197982095704,-0.27159493779968924
184,10.01141678250332,3.763492449649051,0,0,10.535609450092009,1.2365095094845109,0.26174822476896287,-3.6441318275784464,0.31295601413934365,-0.4382981365160655
185,10.452486151988651,3.62798296637288,0,0,9.942146131457562,2.0120810030060334,-0.21052384296558804,-3.872691572860498,0.2952233803261273,-0.5266972187839597
186,10.839546647915055,3.4733367244840134,0,0,8.918245420706805,0.1906560244482909,-0.0825203751718659,-3.77206530559753,0.5583240454332127,-0.4693412714739934
187,11.137705727213595,3.3078708357911557,0,0,9.63251737802879,-3.3585272072631307,0.1526964434205519,-3.5282399328400667,0.4846935254717051,-0.43181599120867986
188,11.319392505180671,3.140978364477899,0,0,11.179810897631361,-5.245352861351063,0.045552063335939405,-3.035644836228949,0.5168707545661071,-0.4305860166998535
189,11.36810794955222,2.9823970460966756,0,0,11.988253359648855,-3.956361109708001,1.4727863612218683,-2.6531180069754874,0.41496785445716894,-0.5613621294958574
190,11.2813525302509,2.841281473049518,0,0,13.294904297639986,-2.8285791839241217,0.8212138664231698,-2.4731252301022506,0.15461141174414764,-0.7388905387458133
191,11.071933558155024,2.725240514870909,0,0,12.263005307857135,-1.577492581559201,0.8860830504920924,-2.3957343984191017,0.38574634862510615,-0.78619175783572
192,10.767056560465575,2.6395088593030858,0,0,10.623807648188878,-1.1089334634639454,1.3659434679738705,-2.5054469467018263,0.3475397631371267,-0.6804168520320071
193,10.405091195002129,2.5863747475584207,0,0,9.879818293008395,-1.6406407485940342,0.29675181075146007,-2.6023999759495027,0.1527833213712458,-0.6144753431242826
194,10.030478526672342,2.5649173628670403,0,0,9.294237602363742,-2.060945749013609,-0.35318818752903514,-2.515012905572112,0.10831411840738041,-0.5826744464527746
195,9.6876887657159,2.5710518241049134,0,0,8.170692651069688,-1.5155893843355777,0.021578795062435048,-2.441920249035361,0.05651844429373706,-0.5534564879693318
196,9.41531991007128,2.597853091822228,0,0,8.088885588096142,-0.9969516788469229,-0.1692033636628694,-2.458823189997669,-0.1857185461424686,-0.5815945353469295
197,9.24134409512938,2.6361244709004397,0,0,8.222080633771883,-0.7318491849345381,-0.1647519967326027,-2.532943609180357,-0.12614513837193475,-0.5973931159808884
198,9.180219420119299,2.6751737138503366,0,0,8.552509868957461,-1.238529651623905,0.3807390830757533,-2.582805949809349,-0.14908007665066147,-0.6148477914549113
199,9.232170468842739,2.7037492295599175,0,0,9.326932517944924,-1.77780344497695,0.49009013732865536,-2.576666260779586,-0.21554204510167657,-0.6404372556186113
200,9.384502426457237,2.7110722501962,0,0,9.790335738013475,-1.9284627082345698,0.7219629874753937,-2.587796010589507,-0.273077761465382,-0.6569655697448953
201,9.61446398733813,2.687883980251672,0,0,9.669184156669157,-2.0986976559406956,0.2784768314579828,-2.5923685805198167,-0.338680094278136,-0.6433911311326654
202,9.892992054203265,2.6274126525609947,0,0,9.898616450324681,-2.080193845830524,0.09239512740808199,-2.6020289575459508,-0.42036404367488794,-0.5984100772855031
203,10.188663346731936,2.5261553227755003,0,0,10.433471374619444,-2.4949725959445592,-0.21065724558973098,-2.603327477986415,-0.3959285389321622,-0.5906224658559655
204,10.471286914601452,2.3843674591098383,0,0,11.050578784767874,-2.2290304358422754,0.542996953246253,-2.445980781593862,-0.28638649889315865,-0.5791682144078516
205,10.714731957154148,2.2061674005790155,0,0,10.81210110622719,-2.058255282083991,0.23490814728760961,-2.393958884074619,-0.3050467365676767,-0.5168716896935306
206,10.898770151064687,1.9991986183307133,0,0,9.8768525975426,-3.0293225051960397,-0.32534390818044867,-2.1072921737894883,-0.39375036973876354,-0.4244630842074485
207,11.009909580948591,1.773850894994597,0,0,10.516400389049691,-3.217178040815214,-0.12190445047381653,-1.7041536096693228,-0.5361558968962775,-0.3110137999139144
208,11.041368333234523,1.5421153876756604,0,0,10.797326086773237,-3.8408915626288924,-0.39491385923611466,-1.4211906572241608,-0.412073166773916,-0.21918850450085312
209,10.992432408308703,1.3162236301987973,0,0,10.557934265903997,-3.3567850508430146,0.32185250851872815,-1.0164323050813857,-0.2131975399820948,-0.20060254524805893
210,10.867470867968418,1.1072762705329569,0,0,10.229357239484878,-2.2306899359322747,1.3069328687467061,-0.7645042341947716,-0.005976729264952077,-0.2879849753090239
211,10.674891438536255,0.9240837578529852,0,0,9.562762860968768,-0.7398719030316029,1.704065623946482,-0.41249724737959625,0.21455922979931066,-0.3379177285434421
212,10.42632656572394,0.7724075874366956,0,0,8.719063900997364,1.0299050749928969,1.8842004856024022,-0.32511142502334767,0.3835251913115184,-0.278453976679221
213,10.13628608858372,0.6547108645963009,0,0,8.917902156500803,1.9896789164562334,1.1123435418956356,-0.37289431546059437,0.33556704124703907,-0.2543850306047305
214,9.822328595482576,0.5704194534807276,0,0,10.6393638922608,1.8741383957888607,1.0857348011545214,-0.4629257720145578,0.426537396027757,-0.27929638930325684
215,9.505499358300806,0.5165883774296347,0,0,11.907906265542469,0.9155140850927747,0.9366927914891683,-0.456444494627963,0.4598255143145937,-0.2809281774660704
216,9.21049586165581,0.4887914730218168,0,0,10.174299185909973,0.697155562388603,0.9685270198473067,-0.481774916022359,0.5506378172749307,-0.14649287020979676
217,8.964952975358523,0.4820248365942949,0,0,8.827376948143675,0.024978011290891902,1.2781768696557478,-0.5069015743688867,0.4901330407298475,-0.1403867989052524
218,8.797484205430981,0.49143985019818665,0,0,8.938935948357065,-0.5758963730521482,1.1752684272225495,-0.48778736310984305,0.41788107566246696,-0.222129398303809
219,8.734554961797853,0.5127882409481621,0,0,8.225745610825449,-0.7466578394903923,0.8573547870676331,-0.43952258965311397,0.3033849118452501,-0.27434403117548645
220,8.796668539185417,0.5425495697314902,0,0,7.955369619164049,-0.5502010610012502,0.6140707850338848,-0.2970577712785559,0.06092856998730353,-0.3299824485487703
221,8.99456603794929,0.5777978228292866,0,0,8.591091552379483,-0.7318208227630969,-0.2583148132167304,-0.18434778248766737,-0.10326006778607016,-0.3205811314950509
222,9.326165353713868,0.6159264345915978,0,0,8.575886441814697,-0.2463261608734084,-0.3984976973298449,-0.06542862359484924,-0.23377228225960842,-0.2543277703800512
223,9.774843775921692,0.6543731167040432,0,0,9.308591079306767,1.0134890587933698,0.038643593123057506,-0.16167710547371084,-0.4439611525398672,-0.16857001618317177
224,10.309462336920589,0.6904617821571503,0,0,9.772577421043668,1.5606906441994137,-0.2733897773237646,-0.3422961920384187,-0.6163518029716185,-0.0916958676262607
225,10.886288745878852,0.7214201058084876,0,0,9.96807453131502,1.4304747988201163,-0.5706085906593381,-0.39373311778410996,-0.6852616869787982,-0.07139357940023616
226,11.452731625925892,0.7445637803937615,0,0,10.933055098326811,0.14877673738444758,-0.6076172902479806,-0.39339621403780717,-0.6648161264716163,-0.04645221685796349
227,11.952559731600875,0.757589083835066,0,0,12.132691838057712,-0.5899429396509221,-0.8945313961128258,-0.26147702669908074,-0.6989049909147519,0.04096369113278353
228,12.332046032855924,0.7588955461960158,0,0,12.085730275135658,0.04964344626545887,-0.6178461166326952,-0.12760680597211205,-0.8062807245212772,0.18818476431994371
229,12.546267930277098,0.7478636376233091,0,0,13.827018746058576,0.05265933185533997,0.7042448455591658,-0.15467792495819987,-0.8757710322677374,0.29593348123910057
230,12.56466211128341,0.7250268141002094,0,0,15.353138421160045,-0.5496849417925971,2.6750167383827117,-0.1415790957877168,-0.531099999557956,0.2833769827336015
231,12.374950399893747,0.6920980540437737,0,0,12.711839991109148,0.7446580540921608,3.1707400624814497,-0.24308228567224924,-0.6209198081091406,0.3018323413825795
232,11.984795170046267,0.6518363965843098,0,0,10.300660392853047,1.784529192993855,2.868008257372864,-0.5792277085487897,-0.5366795427323796,0.22862697772115306
233,11.420999703167213,0.6077641585858206,0,0,10.532059133883507,1.4436392112223833,2.6266515540723994,-0.6202780469010182,-0.4382526633527739,0.048505538100384236
234,10.726569663530997,0.5637689736542628,0,0,10.296641243476936,-0.5312733274903315,2.528148499874144,-0.3861501898634964,-0.1577093682496811,-0.083459574047651
235,9.95626388386854,0.5236513900854712,0,0,8.690123557328917,-1.3524927235697732,3.110905926092817,-0.1333141190387384,-0.1116156960865289,-0.15231743401709952
236,9.171303459270309,0.4907050147239541,0,0,9.870132344933243,-0.7159931684594487,2.4393545725216748,-0.11160002603714321,-0.30804847418631504,-0.07934489825514617
237,8.433792562319374,0.46742216379878204,0,0,8.60908363710351,-0.19302155761977605,1.2448126894451172,-0.3063524362422666,-0.10781112722426736,0.05489103349550224
238,7.801294864094024,0.4553865122516562,0,0,6.786888637926853,-0.10088650964421741,1.2939220710538175,-0.41021399427240995,-0.07154359669794591,0.048208209957206545
239,7.321983390193017,0.4553525717940709,0,0,6.6155879413027865,-0.3528740652444693,0.7355025245701245,-0.5683926937313418,-0.10049947109093883,0.031438629307377945
240,7.030802749113833,0.46744672304254276,0,0,5.950258883539089,-0.8242220474405558,0.31379332515148434,-0.7091099896503487,-0.03932660952349737,0.03622785081279109
241,6.947047284233781,0.49138283242117475,0,0,6.076649555321699,-1.4680981610323023,-0.13161468390524564,-0.7623144497704217,-0.040054108169162446,0.0006797203764045466
242,7.073593184905565,0.5265837144325995,0,0,7.153078769862653,-1.9261745099823748,-0.33828338537756614,-0.6839338333909906,-0.06283139610955604,-0.06625214643463967
243,7.397753108803363,0.5721412945653312,0,0,7.9742284829944845,-1.5813821259283,-0.02270112047574619,-0.5147070509521976,-0.07943749864163929,-0.17173002326715606
244,7.893453701554797,0.6266204040632606,0,0,7.859692239296248,-1.7231779109055416,-0.11708089961316463,-0.33583472617881427,-0.2058772156038832,-0.23091755704668274
245,8.524278317742946,0.6877858186663508,0,0,7.871848951490401,-2.28139855851227,-0.3201417601413312,-0.09798355995892391,-0.4071949175017919,-0.18682496544370375
246,9.24690560165766,0.7523783347065222,0,0,9.04154638791483,-2.4509848327814012,-0.8664145161030974,0.1822026797255325,-0.5146357539562679,-0.17931211148788712
247,10.014551890576426,0.8160650481794992,0,0,10.812287519874987,-2.107257163515499,-1.0381033197924088,0.37127803512211666,-0.4747224740941492,-0.22063028831769732
248,10.780112904729126,0.8736443289716971,0,0,10.955116259768646,-0.7872714842774098,-1.3787731171311344,0.5116824600287697,-0.6144686464141905,-0.2515482168888745
249,11.498786773814075,0.9195163081526995,0,0,11.411746603880808,0.26191845648970746,-1.8550292527315333,0.49517178522205374,-0.7789935651754271,-0.2298293895842723
250,12.13008562869773,0.9483586633580392,0,0,12.11042157976466,-0.03388354954516428,-2.509349255150296,0.3613903220519028,-0.898820293264945,-0.24622831816485916
251,12.639308614333423,0.9558937698679728,0,0,11.286821970996904,-0.20115710757060495,-3.055848269832048,0.29429322601142077,-0.8479264176346321,-0.34100583766922865
252,12.998692539224955,0.9396056571312702,0,0,10.067855900760637,-1.4889634185298604,-3.7154151810380482,0.5383572221697231,-0.9024764456668711,-0.4854322542297043
253,13.188490234754196,0.8992632849637976,0,0,11.701743221554645,-0.8539944488328279,-0.983372657979123,1.0490378192861267,-0.7037391544406253,-0.5154060373374193
254,13.198078620679224,0.8371295048005895,0,0,16.024889467806133,3.279932119269525,2.679613463998745,0.9316247405259016,-0.33670292167875154,-0.20211507278964622
255,13.02688866824939,0.7577876230757438,0,0,16.10953023885629,5.4231167909093605,5.059646581150354,0.36855551494774813,-0.1146396798946707,0.34045649263806776
256,12.68469539807088,0.6675984543433202,0,0,10.952899899941917,2.583293011257416,3.2393377582574265,-0.3105301962429451,0.0970298544432887,0.654845580095446
257,12.190917710590316,0.5738862239510221,0,0,7.339158368045675,-0.7691774376401312,0.7604438766773938,-0.29065839762025003,0.282698817893954,0.3855722049230183
258,11.573078670665986,0.48400802334136006,0,0,9.624657922181273,-0.9557025682047289,1.1214931179406555,-0.0020287716841063588,0.03214794714726229,0.1584858407366974
259,10.865031042916492,0.4044752743137745,0,0,11.877824380126922,-0.3455951670462543,1.240587159482281,-0.03309241545331097,0.11843159883114589,0.12784845259031258
260,10.105497331181104,0.3402742994023449,0,0,11.884979191479886,-0.4272375695245502,0.8258837040008966,0.02736277025660829,0.1299862183317003,0.08716319017295189
261,9.336968221398827,0.2944835315512333,0,0,10.32449811833421,-0.23391221302263984,0.6068237071172484,0.12653295705424972,0.2268744764861695,0.10515535093197073
262,8.604543194344009,0.2682127945200754,0,0,8.6936628559154,0.16135355227087148,0.5428954782227211,0.14178658995089197,0.37791437854480125,0.08712632080301189
263,7.95423908561999,0.2608142015992593,0,0,7.889167135222911,0.23725549965781964,0.15820752949182396,0.14164086708106877,0.44184188260345975,-0.0036049039125728715
264,7.430565775400856,0.2702624176793189,0,0,7.18062598910069,0.7092238120688741,-0.2905332026130865,0.13367926019007906,0.2598962413715265,-0.16734979489006685
265,7.073493461549953,0.2935919675859712,0,0,6.605501688366165,1.488060789634154,-0.7517481326447922,0.10234513157253179,0.0758085740278533,-0.3098011160390988
266,6.915129798887841,0.32730678827392773,0,0,6.733546800859247,2.1610647234642233,-0.7522213156225355,0.00770934720182327,-0.07784388724956003,-0.3219470469778884
267,6.976475371356728,0.36772129173067675,0,0,6.96716359301063,2.1409642857727347,-1.1489546048690435,-0.1784329064737412,-0.22149490046030237,-0.17474405570161167
268,7.2646064578216105,0.4112305102312933,0,0,6.914999891438141,1.2511726229354063,-1.2099272159980863,-0.2707260448377159,-0.14387692808668553,-0.008591271098414156
269,7.770617661512414,0.4545275572882018,0,0,6.913741695992427,0.5456399797292234,-0.980537115108842,-0.3207658822532909,-0.08462768200552767,0.09538049166102854
270,8.468665020349887,0.4947876240515355,0,0,7.479966592670463,0.04445995420139889,-0.35343987978738217,-0.495332761322356,-0.08933472439387001,0.15819304964804992
271,9.316437108713005,0.529822496435252,0,0,8.447999291927854,0.8259028444605601,-0.6691912080777241,-0.6393988219069483,-0.36300170251574393,0.14636564037051172
272,10.257274779764849,0.5581886334154599,0,0,9.64683692481068,0.06365531645490366,-1.313286841172154,-0.6659946427956506,-0.36536663739442604,0.09203897204242538
273,11.223933701320965,0.5792229133159111,0,0,11.821188880596466,-2.154453896617789,-1.747743215606613,-0.05950165253219583,-0.1981108884361156,-0.0707123947160609
274,12.143697645733889,0.592994526864423,0,0,12.726725195490014,-1.3774706202791247,-1.9560325206500744,0.5107091683451954,-0.2266711913759359,-0.17867442423693197
275,12.944321397029503,0.6001875328487445,0,0,11.946330295435567,-0.19045206608518195,-3.5602236936603524,0.5574644693316892,-0.4042145493500422,-0.17050519943897707
276,13.560201173005444,0.6019414018233139,0,0,11.050220165041996,3.575459334545183,-4.072785841055271,0.1468671331126581,-0.6484603338142397,0.010034820751206035
277,13.938216710577349,0.599669687799592,0,0,14.125731174690339,2.6423726086803168,-2.123223752036372,-0.48530607768136447,-0.4030709241560453,0.1006136713962487
278,14.042740878651767,0.5948682947632087,0,0,14.674988583205703,-0.6158189365711738,1.5611485009478065,-0.5010813622230396,0.06995230091301417,0.05097152075696377
279,13.85929271974148,0.5889300171979466,0,0,16.351309137356758,-4.084612727909682,5.878075791640791,-0.2904228718010413,0.34818133826760966,-0.33038858889687894
280,13.396310388463517,0.5829947120200323,0,0,12.865831580472758,-1.951113589259809,3.493972372597547,0.2858906609204941,0.1358951192151722,-0.4997051164403158
281,12.684721337675072,0.5778696084659695,0,0,8.731540794149709,2.272665343570703,1.0566696244353921,-0.028015412929516537,-0.04196462409627811,-0.13889209896034896
282,11.775410806267612,0.5740440048256304,0,0,10.076456441827519,3.6136038530752748,1.1908278198822595,-0.6586970839777424,0.13530608294569127,-0.22829438805979133
283,10.735081522060488,0.5717957117245491,0,0,12.189828275108857,3.0338739412271454,1.6530873647779691,-0.7197479377380052,0.11576528913877913,-0.3146308229101368
284,9.641068670644396,0.5713491298924077,0,0,11.775684111200679,-0.13162041790968662,0.3622181357206296,-0.6335408730695542,0.2638723164710175,-0.16756041412606446
285,8.575472469702836,0.5730165419665785,0,0,7.879578686758828,-1.6680667509669265,0.19558068903251996,-0.499140864783091,0.2597425718250053,0.0707085247263955
286,7.618840411718357,0.5772569762385374,0,0,6.173239585075414,-1.2600010253114438,-0.25960256283401256,-0.5549117090999256,0.18127438955394035,0.18304106163073278
287,6.8437662281830205,0.5846202006029125,0,0,5.917012375530202,-0.8904532003593248,-0.17685814997113414,-0.6081524010102377,0.18288724926713615,0.20834341340072673
288,6.308997267013052,0.5955849207394258,0,0,5.622226163808259,-1.1327733068874692,0.012638658910193511,-0.6063831030750177,0.2656828700346296,0.1817416852176785
289,6.054684663131686,0.6103334681025301,0,0,6.286735498641433,-1.2360484754544345,0.3604374930049752,-0.42136123138405635,0.24822726417718757,0.15125504609589202
290,6.099222775148892,0.6285297802734068,0,0,6.445324831852605,-1.640728694171376,0.4968443847571918,-0.29568640538151825,0.21735804123511873,0.09449511238336547
291,6.437867242955412,0.6491829757291079,0,0,6.116551758534049,-1.2445051799583147,0.14880035465989255,-0.0005121460043189978,-0.21485691313184274,0.012841180609751828
292,7.0431576449158895,0.6706719530697866,0,0,6.077331119414706,-0.3423813156581318,-0.5940492403680646,0.25816324543941166,-0.5531152955544754,-0.06259470345633644
293,7.867127652060729,0.6909615708174164,0,0,5.707604825648785,-0.738718792587792,-1.7336219283714034,0.26676899000023946,-0.817893884458232,-0.09658896327475613
294,8.845256747310097,0.7079640742721167,0,0,7.250256418546767,-1.9977638425823874,-3.059785117912249,0.4136758743763394,-0.9876067225838666,-0.21065559428303293
295,9.901968148410282,0.7199273527361417,0,0,10.948695948210593,-0.76713049661286,-2.9410963917565054,0.7212605252694081,-0.8416736980002146,-0.28905241139736026
296,10.957183297508285,0.7257106043305793,0,0,13.001745005967209,1.8234640027844868,-1.68304015211467,0.5666743984342161,-0.55494295706511,-0.13100514406814548
297,11.9331560589967,0.72485798586947,0,0,11.677575389310455,1.634066607398247,-2.516528242418233,0.09747587527197499,-0.4307679187304275,-0.02473467952384847
298,12.76074547781247,0.7174767666034355,0,0,10.774552125408597,0.42892734418347805,-3.119529491709388,-0.11787406210449647,-0.35296830999502654,0.02252841097668393
299,13.384496315184382,0.7040122468703758,0,0,12.410334796599921,0.16040523938058707,-1.7827879905590471,0.12902448478583256,-0.6152577795551425,0.07901914713003087
300,13.766187560688229,0.6850385046115737,0,0,16.961462848541743,3.373398119538974,0.4993190495308421,0.20443410843493465,-0.5333673303295098,0.2556685642534182
301,13.88666878830496,0.6611456320302539,0,0,16.332768707568512,3.4399898999418457,1.8984955631197973,-0.2587810167217786,-0.02327069133576246,0.7018194460602062
302,13.745886416280204,0.632936345560638,0,0,11.359861686689149,-0.6587013251400186,1.581651916580342,-0.36454468548018093,0.316085504816699,0.7037161601327825
303,13.361239377395767,0.6010917244975934,0,0,9.040080945852655,-2.519107219125674,0.08789560992557663,-0.02910624119806146,0.22083132596764435,0.45294684745963193
304,12.764803276196623,0.5664490652377258,0,0,12.228368120294839,-0.5514925049235422,0.015553097263183394,0.542975149405221,0.07111405405323444,0.3374866696274126
305,12.000182087767723,0.530049087607987,0,0,13.29012311445836,1.5600430976967963,1.4327237859436426,0.43633406123451773,0.3203093530849132,0.31266649251930456
306,11.119519974315576,0.4931362091482383,0,0,11.788621134313194,1.4132968010890177,1.1461712797268542,0.2590832484848807,0.07349157311526056,0.20542825568820186
307,10.180720370214694,0.4571185450726257,0,0,11.153594238225658,0.9753207882670677,-0.33058868002532177,0.30199477886719533,0.09333638279635015,0.06305437862555122
308,9.244597735831322,0.4235061485900748,0,0,9.035281472511654,0.44787357873658135,-0.2745626593959991,0.36262497981399966,0.3071841329037381,0.03602734861369416
309,8.371719416456271,0.3938428301512867,0,0,8.105939300842477,0.4205646648484377,-0.45366164296231354,0.35361022780306284,0.31020530577374356,0.05240996133778346
310,7.618938744921101,0.36963076464649014,0,0,7.30128038655053,0.3984665024495342,-0.5757559793558651,0.3048534867560384,0.3728637978292425,0.0503806819281141
311,7.035846895687504,0.35223179460623255,0,0,6.638408108719806,0.8040766669835799,-0.3931903131077105,0.2783193284020886,0.306914686663917,-0.02335872299948265
312,6.66146411294555,0.34273074008937005,0,0,6.525301804935219,1.1903613955855872,-0.4515351550328815,0.22873750309543078,0.16067504714973285,-0.10860122143873603
313,6.521461940335909,0.3417660047378192,0,0,6.660988369394288,1.0491524331457442,-0.6655960129522437,0.25659829546843904,0.02818002450627745,-0.11225563977068607
314,6.626125768994989,0.3493581611495545,0,0,6.69097675830688,0.9691348592555272,-0.9487133859743033,0.26260349242307734,-0.061885906562210304,-0.03530030641315383
315,6.969198367266942,0.36478220933980166,0,0,6.503446142820575,0.817659779467084,-1.2004879279280722,0.2606927068522966,-0.15656542662352493,0.016768838164984614
316,7.527722514790655,0.3865263593388,0,0,6.920282404299352,0.942502891106276,-1.50312418219328,0.22856289403129587,-0.2926106512013635,0.03681312354143836
317,8.263008211663074,0.41236261933228874,0,0,7.430107314291927,1.3308557772120813,-1.5900469953570062,0.14297151152924142,-0.340292466296441,0.08135144161369692
318,9.122835923277492,0.43953100381842125,0,0,7.935700682202046,2.336579419751601,-1.5452763947581043,-0.043666133128818625,-0.42544531295381177,0.12814636537390803
319,10.044926750219634,0.46501796865731176,0,0,9.819352804410247,1.9698578853183222,-0.984621831674927,-0.3043845551687587,-0.4112342516797587,0.1698911531757392
320,10.96155909531883,0.48589539000694837,0,0,11.242876854012968,0.9582792355258534,-1.4885202831966025,-0.20410468158243023,-0.4132039647788175,0.11694364228178324
321,11.805030986559084,0.4996808100564948,0,0,10.904520305775236,0.09591038014708528,-2.7815862491387127,0.1287907880583124,-0.43406538314033366,-0.02680921210337704
322,12.5135155483815,0.5046817607588917,0,0,10.306268079490811,0.54641839020136,-3.4343601089897655,0.20884330565659717,-0.5046803456625635,-0.2046813113839147
323,13.036747234784551,0.5002926697360489,0,0,12.205394844888652,0.9912484848374988,-2.2176813300131903,-0.03485915259783323,-0.5393136801862803,-0.10193833822071673
324,13.340852621594422,0.4872184263632059,0,0,18.26662318629213,-0.9480077474094846,0.41378398591641047,-0.10695710966182424,-0.26370664156050255,-0.15941841452404068
325,13.411492471465577,0.4676037313095865,0,0,18.519000317608413,-2.6626732655966823,2.2813221303080033,0.011545164370216292,0.13892398245788679,-0.5399804189325154
326,13.254505389938261,0.4450514227484757,0,0,11.761542748201782,-0.278260880308613,1.2879984525519044,0.2128609773247215,0.1523024400922012,-0.47904505445081236
327,12.893715277438599,0.42451439747883435,0,0,8.50004632083236,2.163633816249146,0.4109853600030059,-0.06150856701227939,0.23324369117743288,-0.2511518724406081
328,12.366430430358717,0.412046889294149,0,0,10.294837467278851,0.8516743768088618,0.5462508495024264,-0.346148115348316,0.1549806161250423,-0.2880941988942343
329,11.717893424637342,0.4144069410838718,0,0,11.700356244579915,-0.8979770001300563,0.8481315159746582,-0.15565663873684904,0.4350142713724559,-0.3713214339065489
330,10.996031420340652,0.4385143610879873,0,0,11.321101467677575,-2.6668006981836943,1.4140765554596404,0.1751568392483306,0.33047013021240906,-0.3584111790992471
331,10.247361399744014,0.490787342490769,0,0,9.828559568487625,-2.4592434867874373,0.4636420831394786,0.37425272531015563,0.09934868807284206,-0.2221693552074411
332,9.51430509193455,0.5764078399186376,0,0,8.512130210324758,-1.504174861292607,0.14126231656304367,0.4033047656430628,0.15681082977261762,-0.15741707248927617
333,8.833815409214644,0.6985956548291821,0,0,7.999400878752214,-1.2353743876406513,0.2709921849740031,0.48364492947641874,0.29911078256122764,-0.19999795320549793
334,8.237087338697172,0.8579892515868528,0,0,8.460608716298488,-1.904660796734147,0.4591604895478933,0.6786475269880045,0.38776617704358785,-0.24377594000753489
335,7.750037199292018,1.0522265699512328,0,0,8.367891130281349,-1.990189984803758,0.5769127145611239,0.9253017569624987,0.4254265593738712,-0.2585755691499209
336,7.394112902013077,1.2757955703335553,0,0,7.817940759737782,-2.1149538773382335,0.1952386503526275,1.1080948164323792,0.4302622872993264,-0.25285117582958905
337,7.186924607693904,1.5201954407282188,0,0,7.309108167350714,-2.0289154594852437,-0.11434806380683482,1.359667281184046,0.42602858454307185,-0.21300658065016034
338,7.142251607892067,1.7744244690700246,0,0,7.41400443680007,-1.4453595996032496,-0.6154629949297725,1.567784335956205,0.28720655530694955,-0.20122716148280526
339,7.269179593083394,2.0257875629276305,0,0,7.5624738680319,-1.3915489709439186,-0.9281834058557571,1.7773312238639194,0.16812453587326295,-0.3012700840972861
340,7.570373232913742,2.2609861093364385,0,0,7.895982617113208,-1.4962571699944947,-1.3414925355141598,2.1147794420402564,0.0516703125208353,-0.4534781415460192
341,8.03973025334067,2.467408095792124,0,0,8.123888672502616,-2.017070461164311,-1.2280265006780564,2.4990534081678093,0.05623687813690994,-0.505921888168437
342,8.659883969068389,2.6344806180885953,0,0,7.803821261818009,-2.2457476125278197,-1.4583591426244182,2.8508161553999902,-0.0325312499864551,-0.4616759729380312
343,9.400222660655333,2.754898060598276,0,0,7.5887128647947595,-1.760545025393624,-1.708158273735566,3.1758813032073405,-0.1336194676726487,-0.3145220011789499
344,10.21623684998384,2.825523957943671,0,0,7.446445683817996,-1.3386409865642868,-1.4485949972809589,3.1207862179911774,-0.23365304201970263,-0.05704778281621758
345,11.050994841189679,2.8478028259004695,0,0,8.580476803297982,-1.4742869746719793,-1.876717752724549,2.825663936045903,-0.2539429060062114,0.1324231530449806
346,11.839277983039121,2.8276071482305882,0,0,10.012515392462472,-0.24838563770893302,-3.1682011789172195,2.653228143832428,-0.30138193115876044,0.19841638632604452
347,12.514348110617949,2.7745530276463013,0,0,10.120360094004665,0.8443038520252432,-4.187697124568574,2.617868766705144,-0.16963335062366658,0.12183088702398205
348,13.016561581381174,2.7009021691592294,0,0,13.256209814934603,2.400142269222059,-2.1867280500088566,2.9173427065564868,-0.21084949178476134,-0.020192337486500216
349,13.302276045373127,2.6202038600916784,0,0,20.62972837939518,5.214609148764352,0.14025835636893488,2.9242188215158587,-0.553689257614518,0.09219014362465476
350,13.350982564598022,2.5458339409711277,0,0,19.66855389371318,5.150840358676061,-0.36329846431223906,2.161087737341672,0.16500574709211369,0.6046444381014101
351,13.168682028348263,2.489593749539254,0,0,11.055285230908552,1.6410836479392719,-0.44254622117342357,1.541357317219742,0.8168902737604987,0.5674015724583908
352,12.786444669264606,2.4605486482441195,0,0,9.240089196719158,-0.3808105840166989,-2.008615804708908,1.9794213785821717,0.4252264397438346,0.06753393010571268
353,12.254573615617753,2.4642752447441274,0,0,10.34387331116495,0.7775311332189351,-0.9773462268765344,2.636502886731967,0.2785321928386697,-0.04638839749842375
354,11.634056506161079,2.5026110741936396,0,0,10.961009394298951,1.47634418587164,-0.44702922231869746,2.6330929368937475,0.2909939231735498,0.06515142106926206
355,10.9874037543144,2.5738801302726424,0,0,10.043065002233934,2.0598979494568237,-0.6138606459241432,2.5903740443196295,0.37180532838215424,0.11797911092297406
356,10.370604931435256,2.673467182219858,0,0,8.929087194145971,1.0493199396910113,-0.8796930960152725,2.713584531225176,0.3334270006635718,0.00984770270918329
357,9.82728667913792,2.7945762412132797,0,0,8.80888310377405,0.837556087623876,-1.102723316911177,2.9183560486809808,0.3986362579484412,-0.06771048041231102
358,9.38557758979374,2.9290238260131143,0,0,8.775216109306518,1.085156958128279,-1.1090725497979792,3.0641981394864795,0.40260246028961383,-0.05154072394774954
359,9.05771916598192,3.0679555858012875,0,0,8.911484695784738,1.0869488034486903,-1.2370136303849586,3.1760575551756163,0.3472901056290707,-0.031038253659894384
360,8.842056342805611,3.202420573266811,0,0,9.090706188090312,1.6276259877430659,-1.1390362320369132,3.2379658127162823,0.32786998080801405,-0.02698459677202781
361,8.72671298683704,3.3237893254838635,0,0,9.105244612621044,1.9472490582694744,-1.1146336195192756,3.192226830023467,0.251553723482194,-0.04014525592101758
362,8.694067602390174,3.4240535211191268,0,0,9.495113788670313,1.838940014858456,-0.8363135613177419,3.2007916077118175,0.20557797128285243,-0.044511388168173655
363,8.7251267338644,3.496080599665015,0,0,9.288228296200474,1.7326248904485773,-0.610061762061646,3.260498034900654,0.20262324311481048,0.005332423417761264
364,8.803037456591708,3.5338998444382037,0,0,9.219301042239326,1.14648372536743,-0.6187650367781375,3.407484472991214,0.2556311542502511,-0.013424059117871565
365,8.915241776420434,3.5330614537975387,0,0,9.40763364658237,0.8964812145832032,-0.1594579135414605,3.6092504695487353,0.31517054924626875,-0.02873713775705016
366,9.054092088818132,3.4910496498258694,0,0,9.305261845127873,1.3386324283796993,-0.22308203691516923,3.682659352023015,0.3128634467234743,-0.019091151956328798
367,9.216056652618374,3.4076726287221404,0,0,8.570565812508919,2.472994246019966,-0.513984485291081,3.5837157600349743,0.25424996618881995,-0.0468053384175937
368,9.39990352480228,3.285324700087745,0,0,7.80859697574403,3.4362378632542656,-1.0921326653352477,3.3507178872633614,0.21129238921239987,-0.07170147066698286
369,9.604426745811669,3.1290311658304844,0,0,8.022530100252286,3.394449996630745,-0.664765024945723,3.056531848939931,0.17877065482024523,-0.06806024976498748
370,9.826331350452667,2.9462319256837457,0,0,9.026139858795895,2.164451826761257,-0.5647612210692566,2.899720167872222,0.18264016038999195,-0.06727234664213735
371,10.058799041609085,2.7463085469785837,0,0,9.452074300336855,1.4802656635321396,-0.20186598013573961,2.8385920914727607,0.19531839297023698,-0.015311734295529933
372,10.291038167421178,2.5398909221086954,0,0,10.114231946097773,1.4793747274965516,-0.07244370811880771,2.67078104317767,0.10631414981851288,0.035120316955520016
373,10.508853264074975,2.337993766276429,0,0,11.08193969909789,2.055494212510257,0.06773494333320328,2.4501955780937066,0.16020240685309028,0.015568579384414591
374,10.69603705322122,2.151046220413928,0,0,10.962145354335759,2.241009754574123,0.2756164591528617,2.1187358537859797,0.3744336738248392,-0.07741139315245348
375,10.836258747970762,1.987902730911047,0,0,10.356509888096962,1.9645727373155495,0.3902019467731694,1.7508154541525174,0.5046096134246558,-0.1389670882247687
376,10.915120839698623,1.8549555506203,0,0,10.364137451866618,0.9522442600427032,-0.16197008202230762,1.4907273013326834,0.444470943065178,-0.12891647323334582
377,10.922137489062223,1.7554886269511072,0,0,10.631487827317779,-0.5802255170986585,-1.0000539289358243,1.4404574199962787,0.4124954840453566,-0.0639018516357887
378,10.85245645609357,1.6893982876477345,0,0,11.01154384577057,-1.2023770824192033,-1.3200451719791664,1.522909039184417,0.40487097397743266,0.010725885715324032
379,10.708140369100823,1.653351359389786,0,0,11.4833578431331,-0.9562948123556672,-0.9899620551678031,1.5699749538780114,0.4228828620681773,0.06489680533233448
380,10.49877356053791,1.6413703962589887,0,0,11.202588175950172,-0.7685681706479908,-1.0051692928875278,1.560960848034492,0.4430792935157669,0.147137754957094
381,10.24116000368128,1.6457552143511307,0,0,10.15599668829799,-1.1189781188451613,-1.29303452478495,1.5848974577592785,0.456514957243047,0.2477353549235874
382,9.95798808528352,1.6581916098899512,0,0,10.001303694498567,-1.3514833570750922,-1.2116665975551935,1.7135492240492018,0.5168965799652421,0.28017109749127783
383,9.67553637240187,1.6708693055221144,0,0,9.838174567444373,-0.8584714093580602,-0.6620463616495268,1.7772106331875275,0.6638269658338792,0.3035098144276225
384,9.420702758001637,1.677431046635543,0,0,8.935840760901106,-0.47593568139805,-0.126360382282517,1.7651268807098506,0.6277534527458772,0.3209551882843139
385,9.217791938582005,1.6736038333649974,0,0,8.53397493345935,-0.48680347390402234,-0.2033485731588558,1.7821949461894364,0.547918541189536,0.28697629395941743
386,9.085565889144727,1.6574219066351485,0,0,8.367399090751343,0.06852961016468558,0.06556197775139007,1.737367111403163,0.3749282179770965,0.30266165675366696
387,9.035034621900987,1.6290321540047024,0,0,8.402185780310871,0.748606140478062,-0.3330940781752365,1.5804413761833467,0.0896198721887331,0.2711816580710913
388,9.06833097728811,1.5901597632576274,0,0,8.620582999504535,0.5486449989404836,-0.5528431158813116,1.3643180557469146,-0.05485553668002687,0.14797493756279767
389,9.178793678557481,1.5433840538929489,0,0,9.214868735453567,0.07652314144306967,-0.9971770465819906,1.2136968814913576,-0.16379630925694683,0.026536158002683573
390,9.35213264147416,1.491410011764682,0,0,9.459884156268865,-0.5258832877964166,-0.8189744180221846,1.159249046027561,-0.1942106484307616,-0.08032173667097264
391,9.568336365276247,1.4365050183728787,0,0,10.648640920711955,-0.6901057522961171,0.5977797156540724,1.257639969189812,-0.35250438751043994,-0.14666451790132778
392,9.803863445433263,1.3802035918279283,0,0,12.087396355425389,0.5117086143980953,1.6322104159253776,1.3596623312524927,-0.239581777277086,-0.19296331676403322
393,10.033695992019544,1.3232876847319484,0,0,10.65201939344764,1.317310220847123,1.3662591365728818,1.526085617227978,0.14694637260391225,-0.09557971507416257
394,10.233064134218408,1.2659620002655547,0,0,6.475311319314774,1.8364160702152814,1.2121729433856088,1.5607893240146746,0.46388496374648597,0.2735361402457209
395,10.37902031927698,1.2080968306150555,0,0,5.5294683784164596,1.2748161958195412,1.2962932013703896,1.2631634327844852,0.23805197575055434,0.5085106756216784
396,10.452302775959401,1.1494225800806601,0,0,10.761965075420001,1.6799190370880115,0.41320722196250786,0.9806315915927128,0.05802314597061531,0.52162124813669
397,10.439772468828547,1.0896220509787313,0,0,13.558864683003405,2.5516407698796293,-0.15467468342459728,0.6442172182306319,0.2691350315149257,0.4398085166016469
398,10.337128106451276,1.0283443516807933,0,0,12.586266477747161,1.7546935016142666,-0.1012275939530971,0.6134449538370057,0.469881837675047,0.25151292889588994
399,10.15102899169175,0.9652140678713751,0,0,11.023860493559907,1.1106479872119,-0.12992115922703193,0.7478862758323732,0.40511717655809854,0.10694548738500738
400,9.899671715559048,0.8999057784366938,0,0,10.457767118760012,0.9400705114798974,-0.09426839003648813,0.8506749195413938,0.3724486138230259,0.03057791484682285
401,9.611338921499877,0.8323063866251519,0,0,9.124167664493438,0.8297380736485281,0.09147236845629608,0.8706643844746805,0.4306076636395639,-0.019041746730589174
402,9.321122983753602,0.7627296298981744,0,0,7.699302104251891,1.0207099988025192,-0.02316326946385344,0.8672814654313463,0.2754662301931556,-0.021408359096326844
403,9.066550041633597,0.6921114257480125,0,0,7.392097400312579,1.6507954019697573,-0.10940383046964013,0.7722903798799693,0.10402270296427837,0.021519906262039794
404,8.88301708192213,0.6221154664356602,0,0,8.176852767278357,2.194531788997592,-0.34158269651932266,0.6095049465274928,-0.049420180552728975,0.10195447736220531
405,8.799812869530323,0.5551082780397766,0,0,9.095116782103597,2.349279250116584,-0.6447834093332864,0.44537453053984344,-0.11069514783875678,0.17524077496822132
406,8.837148863212606,0.4940017723851732,0,0,9.483236709489415,1.8056274400384358,-0.8171603167218994,0.345878449041672,-0.1877246096099797,0.20441117331019656
407,9.004280325996378,0.44198960329300463,0,0,8.789590192588172,1.1206566962537114,-1.0515862452186795,0.32524681910295544,-0.24781815761114215,0.25188161105698353
408,9.298619682198632,0.40221314454794516,0,0,8.677568578309991,0.9541918656947687,-0.7964011691064831,0.2778097119218221,-0.26252839279447726,0.30750684037984055
409,9.705755183429918,0.3773896928331152,0,0,9.273924191298846,1.081644094968404,-0.6181455703053857,0.190170061402291,-0.20644275188610428,0.3132698690741534
410,10.200369674123499,0.3694330940668884,0,0,9.880866651913736,1.0673705016249688,-0.7653197315928426,0.15098666346973855,-0.22336884670258292,0.24349532633601909
411,10.748076884168706,0.37910416162434935,0,0,10.613515904536966,0.717898919662424,-0.7213440526784201,0.11892030284049218,-0.15029683667915789,0.12485977506474849
412,11.308121724661708,0.4057411430400068,0,0,10.988784968976278,0.6408333054505992,-0.9440601051484656,0.23407306855433804,-0.20337093586670998,-0.006818205105460164
413,11.836774362743773,0.4471262233873376,0,0,11.706154407233623,1.390703364998838,-1.3580481201728898,0.3703480217968104,-0.2523478375223118,-0.09116567445441551
414,12.29113930381822,0.4995329110304904,0,0,12.520453225408394,2.0829896982331553,-1.2634908118848966,0.37351052664902595,-0.18359218989275103,-0.14204276999700233
415,12.633025036485293,0.5579735682231778,0,0,12.335984188611649,2.464051484312084,-1.2838734922584731,0.2778397138400149,-0.2481257923034778,-0.20944263534607468
416,12.832487117905298,0.6166364293361091,0,0,11.985186616759217,2.0458517904031943,-1.8889180870853903,0.21833501471182742,-0.4461633427778166,-0.2365649367712774
417,12.870666792863085,0.6694727509689163,0,0,13.001232271540268,1.5016800180926295,-1.119490170036091,0.32350454569403797,-0.5719229897974017,-0.22333936440287197
418,12.741575326618353,0.7108658914706236,0,0,14.783604880773883,-0.4021297370633927,0.8267567508023786,0.5556020240161571,-0.4376921262235992,-0.20867899035852058
419,12.452512457282532,0.7362866096782825,0,0,14.155712993226771,-0.8331165514399537,2.2195707869781907,0.9431384364196301,-0.2968002515898332,-0.07368518171980551
420,12.022920444168676,0.7428228170529099,0,0,11.678572426331264,0.02694394073889519,1.8259776922409379,1.0388043997206733,-0.29212755395164736,0.08079473407520875
421,11.481753563362389,0.72948152019162,0,0,9.454421654782639,1.1347285237431113,1.579194361321041,0.8648028572384432,-0.3047065000927086,0.1643920605133017
422,10.863846807040911,0.6972054389014332,0,0,9.10155186018291,1.4856966544468884,2.475057289573427,0.45783231167719746,-0.2601358694324611,0.12644908534249905
423,10.206080245669769,0.6486211488335019,0,0,9.018588926955342,1.3765453260707023,2.43510196366174,0.2622424379929865,-0.03377817571867201,0.050334602166889085
424,9.544145857677822,0.5876102861078918,0,0,8.794806828807243,-0.27568227265774015,1.9727140131017722,0.32386453127273024,0.10637223291011509,-0.05901139524206857
425,8.91042780320139,0.5188292698440358,0,0,8.531418624325678,-0.7253500003783613,2.11388077512397,0.6041503339897464,-0.017440333628641107,-0.08841342079571492
426,8.333085985319464,0.447276460262431,0,0,9.165837648902528,-0.2593294017396435,1.7078166709968914,0.5907209410301171,-0.13385557662437786,0.016291758791220377
427,7.836078858652349,0.3779420783056965,0,0,8.099581438804531,-0.04436904923311082,1.084939774801541,0.44165236036220223,-0.029110405262792592,0.09111188764004569
428,7.439675582177237,0.31552298418637537,0,0,7.249028520975324,-0.22982524106414515,1.0038155573478005,0.3296784930545965,0.023976261558019456,0.08950983016712456
429,7.1609987858829935,0.26417102593487907,0,0,7.554686408379903,-0.37265655252960006,0.718105815284211,0.1978787779001563,0.044298230673953096,0.08715214469262011
430,7.014248055314043,0.22726255119974548,0,0,7.753328131821367,-0.1959921469761413,0.22851438674480704,0.05992311375843502,-0.005438872860597673,0.13601517978800826
431,7.010400945377558,0.20720122913928143,0,0,7.414058676874557,-0.2748398632638434,-0.3218748032074601,-0.05371982809903341,-0.03652929577416725,0.21355807615472228
432,7.156338509864836,0.2052776887160872,0,0,6.98625105918351,-0.23522152808860866,-0.5052836367302809,-0.07778251120110193,-0.08081955020145572,0.19546205725475538
433,7.453505942527796,0.22160603120311256,0,0,7.308085683476885,-0.2598465997911651,-0.5808568924061037,-0.02356144943595733,-0.10404084520364121,0.0995235233995315
434,7.896385093440049,0.25514725143975453,0,0,7.453458005799642,0.07080360463642751,-0.5113068120852432,0.04810425966576481,-0.09787415077540046,0.02543400940968923
435,8.47117232661544,0.30381849832566177,0,0,7.517754329588715,-0.1861571904561503,-0.8058245289324169,0.13607322628181234,-0.28435199682983986,-0.020345885193853955
436,9.15507326061144,0.36467281777069577,0,0,7.940937116785282,-0.48313144737429764,-1.3032881455076133,0.2781885891203233,-0.5082496069190956,-0.08461345808790881
437,9.916526645952787,0.43411643261525934,0,0,9.662036781741143,-0.1523187003962864,-1.367834233368388,0.3697594688721801,-0.5868852105226109,-0.169774067073667
438,10.716463198258573,0.5081226013827029,0,0,12.100915548847931,-0.14809404644556257,-0.8429867510368563,0.30760437652586664,-0.31117517620411184,-0.21501925916862172
439,11.51045105623571,0.5824197076779547,0,0,12.257609674722467,0.9938581232184014,-0.5988257059858333,0.19985656968456475,-0.10391822029418937,-0.14242754274217317
440,12.25139816892258,0.6526729702423789,0,0,11.797244136112859,1.4418081801549003,-1.3856851138915895,-0.14403684991007273,-0.3016176822184245,-0.03368802734567782
441,12.892478186640218,0.7147116305130213,0,0,12.070951544981037,-0.10023484228816013,-3.3866386358870417,-0.22297635464198137,-0.6382464843494366,0.011818426054872601
442,13.390096153417353,0.7648420440260884,0,0,11.911751788903866,-2.2856612394298184,-4.021449231962448,0.04286927946905242,-0.7289206376854381,-0.0996954351126555
443,13.706867345958406,0.800230263296991,0,0,12.000347052597489,-2.3321133115123316,-3.809918402627243,0.6029197104316968,-0.8472326414910247,-0.26174856515730577
444,13.814610692172565,0.8192704342268893,0,0,11.777829225236227,-0.5584671036687793,-1.6093069679381333,1.022128823037467,-0.5179965315024633,-0.3509428854394341
445,13.697220084291509,0.8218207320565621,0,0,16.21174393313385,2.977490309760272,4.186107130580843,1.159657424106003,-0.09246882664036267,-0.09420656869645402
446,13.353038858211743,0.8092110254595644,0,0,16.23204072596724,5.183026288851041,6.166929774079536,0.23486580718898467,0.040925728374887775,0.47443624333561485
447,12.796206328605129,0.7840001896049098,0,0,8.469088382210211,0.4063364272289644,2.5175651521474727,-0.16656674436626703,0.25367209784725253,0.5205042034510576
448,12.056585342209894,0.7495490196626119,0,0,9.33012073286369,-1.5251295263480111,1.0573365413567843,0.4163219734970552,0.0736776878991905,0.2401070636968419
449,11.178284971256549,0.7095275082072855,0,0,12.230537742888307,-0.660210318889018,1.0920083448176277,0.6864405261268792,0.39325550990970637,0.27003570045385955
450,10.217100281000963,0.6674685250163334,0,0,11.513627337772315,0.3988518366094661,1.9304182730439505,0.41779069199645086,0.5697382565782985,0.19016258049331772
451,9.237136341861016,0.6264339341892113,0,0,10.502093662235932,1.2060810982987475,0.3943434851386226,0.17853253918262726,0.34605835090775294,0.07533213761385583
452,8.306660980970594,0.588813260693886,0,0,7.982950539197979,1.9909386704905687,0.12791880748127837,0.037061261938262764,0.6068388962044309,0.026063635726840773
453,7.493204658487691,0.5562479354669702,0,0,6.866866464046777,1.4122486213372798,0.2561919975656157,-0.028660016930302144,0.6508716249219192,-0.07050093382701907
454,6.858163696295021,0.5296585554521454,0,0,6.24834060548311,1.0214136065391026,0.2448394630826275,-0.03790851487876866,0.6729385256652078,-0.1698296310456537
455,6.451444256322642,0.5093418954564793,0,0,5.717848763943941,1.1759761570451965,-0.002469279193090177,-0.023330289856668192,0.34087420232723,-0.29065464838238647
456,6.306807505771578,0.49510549465335113,0,0,5.550548524975598,1.42116867494394,-0.15825884511086769,-0.12100992441768813,0.05249631225299321,-0.34193740833684133
457,6.43850837459096,0.486422905557536,0,0,5.845745923771089,1.6707184746817647,-0.6745114222218698,-0.20195934371723354,-0.24022683137711173,-0.27313107362639066
458,6.839633558213073,0.48260723138908784,0,0,6.510260791129554,1.5028025073428375,-0.4640639779870384,-0.3129820078819622,-0.27270130630423356,-0.1354787055001657
459,7.482320926072184,0.48299750633857613,0,0,7.186958382059105,0.8753920241726495,-0.26095947762466565,-0.47820841521310004,-0.288415637048874,0.04681090309037766
460,8.319835991029484,0.4871324344358632,0,0,7.553887529358465,0.29056537026998397,-0.5747822898097469,-0.569139844872884,-0.20328994269431408,0.17371448978377027
461,9.290309738076205,0.49486577460608505,0,0,8.562495357608777,-0.1279148184713036,-1.0441457324146555,-0.5307855864451878,-0.3132133250677684,0.1640839641356446
462,10.321786957140308,0.5063751536385931,0,0,10.427786274022509,-0.5740473039734725,-1.8488146328692259,-0.47184697650717644,-0.514515411653211,0.12927965773469863
463,11.338068168151445,0.5220393485048372,0,0,12.808209070970529,-2.023429365937347,-1.8340617840373448,-0.2947952243443143,-0.30328976150601417,0.10384751374021667
464,12.264678576914214,0.542202976925997,0,0,14.054037829802954,-0.6906263642383298,-1.7279035496071056,0.206771926472581,-0.20180539728968233,0.00241099308964287
465,13.034271282430273,0.5668940027509293,0,0,13.357048914956502,-0.03707091962627474,-2.3107174496502614,0.3694871975405448,-0.19014167035564794,-0.16027375293924032
466,13.590972652893562,0.5955838316857577,0,0,11.18923869012097,1.725616114069964,-3.5728246892698414,0.2741476068273862,-0.5250459909093411,-0.12512155259757626
467,13.893564288987749,0.6270675262527616,0,0,11.6125547794118,2.774484606941089,-2.2147756939750067,-0.17716128416431837,-0.5582834900799029,0.08445741517468357
468,13.917746706016208,0.6595022466073789,0,0,12.607199989773873,0.9184329093312442,0.9141835599960774,-0.5585957299140206,-0.1191935510283711,0.08806183078701563
469,13.657799783681408,0.6905992669832984,0,0,13.418119892837902,-1.5872927893424715,4.897877338151853,-0.7135291736888979,0.11466289368722599,-0.15245713948677625
470,13.127698131104337,0.7179342653384937,0,0,15.670060950023927,-2.967551338603431,5.9701600882335635,-0.3302310224955011,0.21980149895575266,-0.7095777438216416
471,12.361376749239597,0.7393229226425705,0,0,10.83315588639324,0.799672746595378,2.244302284906782,-0.17412539241704325,-0.012834176633913869,-0.541534692944408
472,11.411684660332982,0.7532007829168299,0,0,8.779254122323739,3.2617844062344132,1.8624810361736295,-0.7140608471292625,0.13637027107785143,-0.32306145695681754
473,10.347718243391434,0.7589442862570341,0,0,11.555747809815761,3.3233581527629243,1.1760910791784116,-0.9015524600360216,-0.039074457743256644,-0.28904645201329265
474,9.250498885215826,0.7570700876609621,0,0,11.673938280125224,0.000825802037710303,-0.3090204708565303,-0.8591302592583775,0.3570784461757688,-0.10049358927935578
475,8.20713838363543,0.7492554151325449,0,0,8.262242574860434,-2.3804347862070334,-0.013279799269534749,-0.658273046187691,0.5101123497045627,-0.01932885334205705
476,7.30377506209457,0.7381444215617259,0,0,6.2522165613374225,-1.4783642736279619,-0.315414757462746,-0.6435827142326899,0.42917287711438146,0.06996486229170497
477,6.617829914480836,0.7269482688965634,0,0,5.075297041918637,-0.825225301537883,-0.36045584127426067,-0.7728813444945896,0.3288220699008515,0.14668053177139398
478,6.210470628750653,0.7188988136977902,0,0,4.746286530869515,-0.9682202698304949,-0.37324939557787434,-0.6589174526242059,0.055419469042734246,0.16862611947993633
479,6.120336231490875,0.7166620205022571,0,0,4.793896301914157,-1.5681947773092442,-0.06447962927986518,-0.3758397565626701,-0.01667544660511595,0.09797685447568703
480,6.359421542990532,0.7218465918852354,0,0,5.7358485220726925,-2.6355848365268457,0.013209434750394064,-0.004076080778302561,-0.12733563033719617,-0.011416457754376946
481,6.911626239590474,0.7347410834490351,0,0,6.889540876698787,-2.4394794897229124,-0.6113950982875977,0.4228992261801907,-0.2859399463103322,-0.11464209699192211
482,7.734028456638062,0.7543601151435494,0,0,7.492210379892926,-0.9439920389079067,-1.2656114734003419,0.7945902227449643,-0.5482848812566277,-0.2489307121012974
483,8.760608097411406,0.7787786151410999,0,0,7.727862873893116,0.009671462816628887,-1.406130112035362,0.8655712408236361,-0.6297327018915774,-0.3358015409330784
484,9.907968830370548,0.8056247227524939,0,0,8.953142260139115,0.23982800168479393,-1.9355770299833224,0.8682242641525059,-0.849513374561592,-0.3394294474288748
485,11.082520471955734,0.8325487224259334,0,0,12.218054872457664,1.4805104059820395,-1.6313270902594192,0.6495844371164525,-0.7558281432662222,-0.2971739755013973
486,12.188491222024023,0.8575192072761952,0,0,13.238673165397252,2.0374871071676375,-1.9379250264471273,0.11579648905634568,-0.6431478643153054,-0.16115434225745578
487,13.136048716619145,0.8788962516162315,0,0,12.040113168174107,1.2144192327033183,-3.1932842122980527,-0.13701761424162454,-0.6393770150552859,0.0070550174679117296
488,13.848815104724766,0.8953365771476217,0,0,11.427210014717184,-0.9493981203036642,-2.6689748433673963,0.08448128970772505,-0.6243259789032963,0.02455609113296538
489,14.270180126090196,0.9056430336263491,0,0,14.588326314529864,0.055822130766581976,-1.1075460710843552,0.7691912228200681,-0.5971759122108273,-0.12786300222437663
490,14.367915294551105,0.9086621352187041,0,0,19.465930863012538,5.0111829994293355,2.5575074325739187,0.8924381844315517,-0.2920396336405608,0.2393211871634958
491,14.13660085978559,0.9032832613422942,0,0,14.898364602234336,3.9524101142187815,2.798057677895395,0.09903333363234439,0.1728794696583491,0.7749657624192207
492,13.597483016718913,0.8885421196504766,0,0,8.70340914013345,-1.6610236765094635,1.176780619175419,0.042271012354896734,0.4498383174754379,0.7012209959528496
493,12.795794849540588,0.8638012680914782,0,0,10.356649920332034,-2.637768597908908,0.6460178733132267,0.652414788369111,0.20829976181168414,0.509000859470134
494,11.796120951876452,0.8289663710126848,0,0,13.823140379886281,-0.11124505839238959,1.5760417442077939,0.8443031720875331,0.4386736278617101,0.434498961211461
495,10.67661264091358,0.7846870278398,0,0,12.434231444281615,1.209114576110785,1.5780948988268588,0.6504372361825773,0.43681286189298824,0.23084352307366982
496,9.52265448921212,0.7324877338242246,0,0,8.806120538502205,1.6607680426865945,0.4676920020200982,0.5790308716770488,0.2919010153048047,0.123685412299744
497,8.420319742612222,0.6747857416363753,0,0,7.306810291327091,0.8406564009971367,-0.3423033050409251,0.6211511329933871,0.29362084122825693,0.14342666203062385
498,7.449954792436377,0.6147744893047667,0,0,6.6002301356011515,0.21913977583358882,-0.4440069071055039,0.7037994950626554,0.351393077836847,0.12993501988888992
499,6.680391690497648,0.5561720449599191,0,0,5.771627261003377,0.9700097729454955,-0.15405940131291104,0.5869272335951133,0.3243436112610662,0.07172397723804042
500,6.164318332360822,0.5028519525416248,0,0,5.573589357269694,2.1713056143400458,-0.28538569295317096,0.4664757029583793,0.1338482684074219,-0.012068270526343128
501,5.935148861922151,0.45839798152878297,0,0,6.123677042171206,2.460701848824619,-0.29800082911244297,0.3452473895551695,-0.01468998705842375,-0.06467492805751857
502,6.005455574936098,0.42565551950311986,0,0,6.476240065865171,1.7564672776466,-0.4374462510249161,0.2169645661380249,0.0011070132731321324,-0.024689936557699
503,6.366810276040073,0.4063747316797876,0,0,6.222744141859092,1.6788908269622802,-0.2920644639488491,0.07865115709563975,-0.019949655027877555,0.03191871025267401
504,6.990825141532068,0.401033945067827,0,0,6.338890043520125,0.9087549770920211,-0.32990025829112984,-0.16963128502360617,-0.2144946105175629,0.06679895655092224
505,7.831259214754302,0.4088879478612084,0,0,6.7997179626992645,0.5768749370893373,-1.016977756817526,-0.23580435938627467,-0.5510844818403337,0.0861141630911606
506,8.82715477095123,0.4282171763437462,0,0,7.655959022511304,1.3269387415824891,-2.3592209971998317,-0.23456428206923033,-0.6967609788548511,0.06559306431475656
507,9.906966452593617,0.45669143468820295,0,0,10.315588700330483,1.2191146180552064,-1.6362525007754065,-0.27347719171654616,-0.5146056778430519,0.008414640910963722
508,10.993512999802046,0.4917402024267053,0,0,12.50019058088632,-0.06089612536793897,-1.7156637370394048,-0.11528945841859085,-0.36978176839522103,-0.08292202861195065
509,12.009408509784715,0.5308502927583367,0,0,11.617098524158623,-0.518777739918012,-1.899085430996704,0.1599914914361962,-0.35261213295497706,-0.1375619560521583
510,12.882558044441003,0.5717643706542185,0,0,10.032428685711922,1.1421600689980491,-2.7946747892507924,0.062180655142206165,-0.5928832075666387,-0.19544346368561322
511,13.55136539730824,0.6125926047720751,0,0,11.493705573509509,2.139348480270017,-1.0887123665588996,-0.36920607809845685,-0.42776808105381847,-0.10091308992484703
512,13.969353016430185,0.651858663988288,0,0,18.13193823042567,-0.8085837507351482,2.5464531474698417,-0.6098074189621826,-0.10701602614462925,-0.36061008788621757
513,14.108787945059433,0.6884927653370696,0,0,18.081879919533883,-2.5922771227118377,3.373825365180753,-0.23901992428960436,0.13864438939297635,-0.7845026558584982
514,13.962770443927347,0.7217781971073091,0,0,10.658638594854589,0.5086918408181206,1.3178763521969714,-0.08878461960688028,0.23271073063290762,-0.4645479952093253
515,13.545393149072767,0.7512619673273669,0,0,10.081653712333697,1.9753054442539582,1.9471323175129347,-0.5936117619555794,0.12770241397020846,-0.2914644885302805
516,12.890056494865853,0.7766490252379432,0,0,13.48121007608948,1.7153399226310397,1.6988943561261252,-0.8589186719313078,0.06872699341571616,-0.4660398657917704
517,12.046426811219963,0.7977021484799179,0,0,13.710302736784971,0.0848176429320632,1.6048579945740002,-0.6628592166204518,0.41261234989684076,-0.38248811811134875
518,11.07651469425718,0.8141654479715854,0,0,11.788895901701979,-1.0332235116644348,1.1691640314126828,-0.5628168918709688,0.1237675991615106,-0.15714576614597514
519,10.050110595919543,0.8257287702928425,0,0,9.863640714999041,-0.23809809263536336,0.4202195416729348,-0.6439021716497929,0.12453352298496853,-0.008897073094846318
520,9.039731204030868,0.8320541452536602,0,0,8.022255574584817,-0.0754109382321723,0.5536024368709667,-0.7576839269039135,0.34888578602883236,0.06395061310641413
521,8.115392045781594,0.8328783585186864,0,0,7.1997442872103985,-0.2245208941156225,0.2537662084261379,-0.7910318901698706,0.31234798686073173,0.17262574659523042
522,7.339704671945502,0.8281788523613234,0,0,6.509715074972929,-0.30921094564072055,-0.039984204782086065,-0.8063261884676739,0.3259929654950985,0.2337686995636029
523,6.763793653560246,0.8183576687341269,0,0,6.84551875951486,-0.5725434017871597,-0.013846041025152135,-0.9107853931088904,0.19882542533679673,0.21188827226978485
524,6.424327884686498,0.8043819720725751,0,0,6.863817501963961,-0.5822730886614,-0.5605284813449087,-0.972848211049613,0.01095303909546327,0.12983437383202018
525,6.3416897588173855,0.7878295168004188,0,0,7.020865478813194,-0.19303047256116088,-0.9069251132294583,-0.7654353227145302,-0.16379170910827384,0.046827889083963126
526,6.519111350633502,0.7708192334341728,0,0,6.999084848874389,0.05740461631909307,-1.1760349523969515,-0.6113041624502974,-0.3254276920939355,-0.050044879991447896
527,6.942572281634913,0.7558485707448541,0,0,6.643044680862215,-1.1856634042025391,-1.5212059581904933,-0.5221259171776064,-0.37709247335403473,-0.14524490847991317
528,7.581369512057553,0.7455928289594613,0,0,6.901323077525195,-2.0402179211483813,-1.433720536733286,-0.2716900117458895,-0.49537127238611384,-0.1919469349849707
529,8.38945138005985,0.7427319541472015,0,0,7.797030349274412,-1.054378298975654,-1.1208848191991874,-0.07460883968874357,-0.5321486709777541,-0.2640029710413579
530,9.307753010295336,0.7498524084881284,0,0,7.989004315681091,0.6206378526746721,-0.8904030671543097,-0.08408188319408486,-0.5462451175534331,-0.37501054612494467
531,10.267802027727242,0.7694324694230786,0,0,8.593697697340104,2.3848531045093146,-1.4305012101613617,-0.3760909980203366,-0.6985597246733544,-0.4833974185657888
532,11.196745853005035,0.8038727158494295,0,0,9.109669429606749,1.9076380468625571,-1.625240157627147,-0.6497089186880792,-0.7454912841814794,-0.44709442912997105
533,12.023672849077393,0.8554995992223992,0,0,11.02340611299879,1.3651533064514847,-0.7853545468444494,-0.6670977922264876,-0.8428367630062564,-0.34039824942248775
534,12.686674775324196,0.9264703127013262,0,0,13.948899744775474,1.5069031549629153,0.20279623911816677,-0.6316134013270546,-0.6490666579519986,-0.19673857967259317
535,13.13961204296839,1.0185497498589142,0,0,18.03359550536516,3.698149625010917,2.654384854518814,-0.5183084445922723,-0.396350864213074,0.11055141237486985
536,13.357203813921458,1.132795865828943,0,0,17.994064182862985,3.5463591756440747,1.6828759761385395,-0.9024532014283558,-0.17631127208549455,0.554759685941536
537,13.337173640368784,1.2692391806647731,0,0,11.738692005193279,0.2543068642908537,-0.05789501575708189,-1.1218159229662068,0.6307249112625021,0.6310063446035838
538,13.098907692004897,1.4266490248444137,0,0,8.288280715391283,-0.7260750388700117,0.9192528149693413,-1.0781705989606287,0.5906728135757445,0.49785396698827394
539,12.679163746428104,1.6024531492387555,0,0,10.947875200126218,0.9148133686460731,0.2633758864412482,-1.1433970192983922,0.15110052759166545,0.40544878001540363
540,12.126165745180382,1.7928451010223065,0,0,12.230673927134246,4.021481424693616,1.4493646837998353,-1.6062060404650207,0.48495171758483135,0.3355008666624618
541,11.493471700620397,1.9930817983788585,0,0,11.510070181790224,5.311391840025218,1.4437071690017085,-2.164570509516199,0.30982253560956374,0.2115611207670208
542,10.83448555925035,2.197931526049329,0,0,10.101056152050033,3.8104206735706616,0.16963074682423396,-2.3699667117373227,0.3441581859493749,0.07832177658253943
543,10.197954852622527,2.4021876040009573,0,0,8.580103316040999,2.1956824720504744,-0.1956713685594266,-2.4576807173843265,0.40988094351599397,0.00842555719189068
544,9.624588247235703,2.6011438551679427,0,0,8.573052394943483,1.504201575563329,-0.515397415638194,-2.5371200978579727,0.44305868120221703,-0.00703629059080097
545,9.144929596459763,2.790948667359207,0,0,8.945222816684508,1.666557858221088,-0.4426769865476012,-2.7387552783494975,0.4492977032778781,0.00723590337206178
546,8.778577393933869,2.96879664264697,0,0,8.751419620319217,1.9121987626585046,-0.6351956126130762,-2.982464133291209,0.4377361622720621,0.005954117045759259
547,8.534653868114875,3.132952883918054,0,0,8.47010833730724,2.093441933097116,-0.7056355269269321,-3.146658538677697,0.39323446806008405,0.0009198080087808163
548,8.4132128300287,3.282624410524278,0,0,8.482362868265367,2.0312354459518134,-0.706784729917527,-3.3239634574893033,0.38751953341156065,-0.006316245397615157
549,8.407154296594472,3.4177035798721813,0,0,8.715725756198163,1.5086290094067407,-1.0145253159226266,-3.420720340515388,0.3261356545941887,0.003055835984920013
550,8.504217670591931,3.5384199069850935,0,0,8.759926183241301,1.3088328116777102,-0.9535042391986394,-3.4988951225538583,0.3131912013425674,0.021095168556390206
551,8.688718752289645,3.6449516381777176,0,0,8.817039018342731,0.963369024556355,-0.9789237435996643,-3.602772194711977,0.2469351226256008,0.05274528897635021
552,8.942838961656863,3.7370620346516725,0,0,9.142281280928767,0.6071097025713778,-1.1035625795665467,-3.6917609314036754,0.23026338221154755,0.07025469555635613
553,9.247437407260328,3.8138315050489675,0,0,8.915126470515544,0.4365294743264805,-0.6999087728580081,-3.69252388215857,0.3362189196362245,0.04825995401300649
554,9.582506689288985,3.873552206478707,0,0,8.957201720846626,0.9062227797916753,0.05095176778899689,-3.645788297217518,0.3660532352796343,-0.011541876658246606
555,9.927495938760948,3.913834827230723,0,0,9.272482834734843,1.7788378293797977,0.3679446702927649,-3.669528575735354,0.45644489531633853,-0.033544165922847355
556,10.261745595335665,3.931944761080264,0,0,9.807458943319693,1.5906481170217863,1.138370458910639,-3.862724772495281,0.5057321291215946,-0.09459227961661942
557,10.56520499726282,3.9253346186482014,0,0,10.841472814078442,1.2754868891971827,0.41237756151187327,-3.896528545790891,0.44135232224412246,-0.24871891442712682
558,10.819468057521082,3.892279079121605,0,0,11.070782685301333,2.6011925169637227,0.4027365428793381,-4.054450646635806,0.3672474060868414,-0.4675430867500429
559,11.009035638399183,3.832465772837133,0,0,10.327046647417488,1.947209149431867,-0.9356428319190001,-4.2920893562264695,0.41399539502690175,-0.4960873452932177
560,11.122655438617018,3.747376875652636,0,0,9.397442331014346,-0.2420862926214625,-0.8415754602386343,-4.112749787894987,0.49614193587279926,-0.35132940994631645
561,11.154585972250812,3.6403304761046744,0,0,10.713131891570507,-4.16978662940186,-0.9667803680909294,-3.7228606239758557,0.35777537323173825,-0.20154378117049354
562,11.105596404826183,3.5161422532334545,0,0,12.19790059340043,-5.685383219142851,-0.4824171160481732,-3.1947683913089064,0.42180334036502665,-0.09052743073585802
563,10.983414636922312,3.3804903659065952,0,0,11.752758594583963,-3.6685117128911604,0.297140337291493,-2.882011499551957,0.39557323412613477,-0.13085632923492566
564,10.80228817413019,3.239165500329471,0,0,10.559543692965592,-1.4600813941531696,0.010998045882517174,-2.8416896245449785,0.33450737885608456,-0.21889201542992628
565,10.581483414375928,3.0974120512437526,0,0,9.661716737143113,-0.36796549558759095,0.20791721641873917,-3.019587886017772,0.3801640257494388,-0.2713403148560075
566,10.342897266664421,2.959504124894732,0,0,9.148843605605578,-1.3771728022913126,-0.2204085388084117,-3.1529447567727433,0.3162574127327455,-0.3184966457754452
567,10.108270407745831,2.828590771166439,0,0,9.387004478568912,-3.167629042069359,-0.5475166676424207,-2.9767294947031395,0.21510308232452882,-0.37461587596482526
568,9.896578252450011,2.706750839526778,0,0,9.520039239497052,-3.679986377362782,-0.4181556582438393,-2.7016935066234318,0.19336658801323067,-0.38252422137581715
569,9.722037288171016,2.5951607561357393,0,0,9.101001228821733,-2.799775877909306,-0.21349338802591297,-2.5299473519963627,0.0824874439574174,-0.33548850044180417
570,9.592951182662912,2.4942952247942625,0,0,8.946978976796617,-2.1584627621847607,-0.2669818433344181,-2.454973122952554,0.011390065229355479,-0.32455335177549655
571,9.51146234959804,2.4041174164782255,0,0,8.823898291950387,-1.9971710573154646,-0.2225781293202758,-2.3643194983737446,-0.0025464851420597253,-0.3576211407959598
572,9.47418354531163,2.3242410892441576,0,0,8.849757752575862,-2.1051828869458977,-0.05256348437319304,-2.331438813325355,-0.05027067744085123,-0.4203240221171019
573,9.473599535322846,2.2540550098869936,0,0,9.245120006587062,-2.661684644606072,0.2227607948247375,-2.2609594826666766,-0.03421556400155804,-0.4766575788430888
574,9.500012450433124,2.192799896445007,0,0,9.680290180563372,-2.6090925892716617,0.4781232891264985,-2.175654224541678,-0.029564413585693887,-0.5023499013130358
575,9.543683188307957,2.1395912830311232,0,0,9.844165545385396,-2.250273702755904,0.3343834927136023,-2.1078212298144563,0.0013481433767749012,-0.5131097318669783
576,9.596757986590843,2.0933925500144324,0,0,9.768178249979107,-1.9229794895674408,0.253802807026502,-2.0206971959449795,0.04464006367090238,-0.5058536347543479
577,9.654608096628495,2.0529580229180096,0,0,9.78656715681178,-2.021957867243295,0.018920222051044672,-1.9346095158099597,0.02818740401604263,-0.5115122001534961
578,9.716343525907455,2.016780094161208,0,0,9.78885184200025,-2.267523226430607,0.08278410502238595,-1.8159366876004377,0.05881724603658909,-0.5531930447689812
579,9.784441027599412,1.9830799969344495,0,0,9.365998477751031,-2.029904668199505,0.15327845525041328,-1.7825388865169922,0.03746691781394017,-0.5836693448895012
580,9.863599380799696,1.9498740360516629,0,0,9.068056925110891,-1.619435609797209,-0.34115015845614693,-1.8290834104246239,-0.0018150312246722885,-0.5927222842512816
581,9.95906129801175,1.9151246121496224,0,0,9.894223951386369,-1.5139199290784053,0.7419887105247605,-1.7581597827023607,-0.12539427692380384,-0.5756031813119282
582,10.074694133500358,1.876953286029021,0,0,11.430358161594352,-0.30167140733226966,1.1118377634944852,-1.8663818297932626,-0.19431683232309477,-0.4812315065811188
583,10.211112818385168,1.8338615289728601,0,0,10.32254994866716,-0.5570892664467523,0.46154825436283,-2.0916670962514474,-0.088423183636961,-0.37408093430849126
584,10.364127401248991,1.784886042078504,0,0,8.621078609942307,-1.461355558370533,-0.5037616692876591,-2.021824580568815,-0.337798139360484,-0.31876131741745817
585,10.523858541590085,1.729622978104194,0,0,8.157754923264106,-1.850871382857735,-1.299515310314564,-1.7845124447542708,-0.3514664587670316,-0.39467931204185513
586,10.674915241646858,1.6680980724368402,0,0,9.267874834350717,-2.204086702301636,0.3036064633708986,-1.2911743823844806,-0.14333592714449353,-0.44159185899460235
587,10.797906336447284,1.6005279976987377,0,0,11.715702319990255,-1.0684680408975427,2.0304649393292533,-1.1404698564864424,0.008800342404355063,-0.3097859601413558
588,10.872202069454628,1.5270768633559264,0,0,11.500173004598972,0.5020063590696029,1.8387755722572756,-1.3531366856511813,0.21616856102590043,-0.16612099380474643
589,10.879433802277331,1.447719934117751,0,0,11.008996742413801,1.9229160122481952,1.3857709029189558,-1.4933117399563127,0.2827448322476442,-0.1477690842603177
590,10.806960189112173,1.3622747542972482,0,0,11.467392079316951,1.1104891326013555,1.188757525665767,-1.465025079694766,0.4336377585732509,-0.16864530099533026
591,10.650541259470582,1.2705824622540862,0,0,11.800540361571846,0.1577012845429182,1.0798641316299766,-1.194127737770289,0.5114748444762787,-0.23399587720986345
592,10.415676080270202,1.1727678440516307,0,0,11.164358053731247,-0.404774676687233,0.6954832489104065,-1.0089749568805413,0.5303470301523119,-0.2948493732990188
593,10.117365564122224,1.0694971724138593,0,0,9.916150266481138,-0.06096128856615749,0.307673814450354,-0.8969595521924832,0.4800017847361154,-0.31828965803942916
594,9.778399720091628,0.9621735643997718,0,0,9.306976060947887,0.5452121161033537,0.7711957733116802,-0.7714480276232485,0.458916710102595,-0.36231319083145447
595,9.426583383333183,0.853034374293278,0,0,8.644732650195435,0.3410672585566633,0.9898988560366366,-0.6635963130325268,0.4896043006772306,-0.3721325936247734
596,9.091520286351239,0.7451307680677104,0,0,7.825298400796434,-0.025034937997781566,0.863314056856723,-0.5887571188621619,0.4410623260864276,-0.3361077601843978
597,8.801602689818472,0.6421787292085871,0,0,7.963601307101999,-0.01061835834906917,0.6942345758752985,-0.5323718524462555,0.30234143293776533,-0.2959368612401606
598,8.581696813282585,0.5482811728297208,0,0,8.362421628329454,0.2298646124639461,0.5318942988717562,-0.5005611748760184,0.23518503059551915,-0.2489901551531514
599,8.451726521022108,0.4675367234066399,0,0,8.879798314100729,0.25421112471466273,0.42250064942374643,-0.42782898172571976,0.1602484485857514,-0.20497903487781094
600,8.426034479821935,0.40357086212217835,0,0,9.574839752533675,0.0662951560443884,0.05105409026051551,-0.34402762884201704,0.06236314479151095,-0.1726602397231366
601,8.51315964128178,0.3590457180225512,0,0,9.526642885284254,-0.12603865363577574,-0.2379037600129713,-0.25979195504080566,0.050566012590699934,-0.14832633060222655
602,8.715610498716883,0.33522108539447193,0,0,9.250940743798683,-0.2627604966566803,-0.4243229750372539,-0.15563450633564152,-0.026877685501209173,-0.13273521812584876
603,9.029360317159254,0.33164574445200473,0,0,8.794658123096832,-0.226733549278818,-0.4950695099141974,-0.04515138910086935,-0.14175262945028977,-0.10610442242796317
604,9.443074310238435,0.3460491901628656,0,0,8.7531752734792,0.3603772795124191,-0.31381759350567145,0.005565265301172039,-0.24013882444257967,-0.044889388228549786
605,9.937366375549598,0.3744767029901406,0,0,9.19259022952499,0.7920125556120761,-0.09926675155840946,-0.06766210821339066,-0.2981941858854809,-0.022190937247346113
606,10.4845466282514,0.4116687783281946,0,0,9.713302730293838,0.7152847420120496,0.08035667619701466,-0.11246271937166019,-0.4124566174520801,-0.07689810043584651
607,11.049302109949153,0.45163929803520286,0,0,10.4028132251944,0.7908483605356454,-0.3235951492100524,-0.12010546761062524,-0.5181656324052832,-0.1322889714272513
608,11.590576631386783,0.4883685206685075,0,0,11.3695546493042,0.905395562706934,-0.5524185390979269,-0.117462002715719,-0.5171722057416113,-0.18832598278166504
609,12.06465533379517,0.5165074642939398,0,0,12.003197966502006,1.2738547133697316,-0.41364226999696324,-0.07494560962238878,-0.4592047469699985,-0.25414981351409266
610,12.429194118817614,0.5319924883686091,0,0,11.836305215443605,1.9535369205613131,-0.9841399566038972,-0.048391123232823005,-0.4961713498650558,-0.3161972042318521
611,12.64771856918483,0.532487045233474,0,0,11.957624348758214,1.8875414540880968,-0.9049364041349133,-0.03000772141568838,-0.6331324778322247,-0.3281073505587645
612,12.693966140745925,0.517593206246259,0,0,14.397335838474119,1.232563637445123,0.543442984374783,0.056489542715294994,-0.5971480148698006,-0.33170367648666893
613,12.555354525829092,0.4888064280835215,0,0,15.175935058740674,-0.5068926336758474,1.8289452589761683,0.21254231441920637,-0.35283110393235145,-0.21461895457189628
614,12.234872126775258,0.4492260321296579,0,0,13.514313604685947,-1.5600413403389894,3.1009844112350553,0.29649619918008835,-0.060669165395994304,0.07905602820229553
615,11.750913697868283,0.40307704884323153,0,0,10.74192846090452,-0.6542009394475714,2.7586403891397264,0.2706449866454691,-0.14478918724596426,0.2122654777482387
616,11.135071680434978,0.35513110748185306,0,0,8.303905343409504,0.3398279033975709,2.447446314837865,0.032817602870479676,-0.2568326755842906,0.2011747308812902
617,10.428472465553893,0.3101219342005991,0,0,8.376220883021539,1.0309582512288613,2.1195100509569125,-0.14520695838499773,-0.19603909280882684,0.058308815513921315
618,9.677596420406314,0.2722373985156939,0,0,9.021266088264776,1.1107562201617631,2.1099612345769887,-0.02103589645040433,0.028791441257669085,-0.11451760755536951
619,8.930437564483343,0.24474673889879442,0,0,9.28820386874059,-0.34198039893144694,1.9781069951309698,0.13023094826903725,0.11977650698346021,-0.17071777122909138
620,8.233441350667503,0.22979532984835907,0,0,8.821587919696544,-0.32949364274060233,2.3021105720683663,0.24118808489187504,0.015114929092809657,-0.07302103384960953
621,7.629209577777355,0.22837111955658448,0,0,8.139338806111427,0.42285355904869043,1.7698417861883766,-0.06190833004910282,0.0031716228185118124,0.03608273944712499
622,7.1547307263154,0.24041945644017373,0,0,6.408054049479604,0.39141556457552595,1.0365832638542165,-0.26129598710199814,0.09465863323903134,0.05629994465485967
623,6.839921430058918,0.265060205200149,0,0,5.98044855423531,0.28546149279043637,1.0772220254112868,-0.3751133967760073,0.07198262734574394,0.022010068787485244
624,6.70641188503899,0.30084427948908954,0,0,6.7132070865298585,-0.02252553193797345,0.6587685206948677,-0.4700145461172981,-0.07536554961340786,-0.005055660949994171
625,6.766603003566276,0.34598027435494205,0,0,7.146605713692289,-0.7948585660319774,0.28181324871502833,-0.47790418133055157,-0.16420582533618402,0.008686543844280244
626,7.022998964102308,0.3984751138898381,0,0,7.673779510531798,-0.9715272037301996,-0.047719763471376346,-0.3545107967633698,-0.26342801254421105,-0.03781996826037913
627,7.467746370993177,0.4561693802474011,0,0,8.02074176416097,-1.0092527640513858,-0.34183067415635837,-0.2032597314430591,-0.25638376593768836,-0.09955797226813888
628,8.082307681371292,0.5166968425174355,0,0,8.347744004447712,-0.5322636765209868,-0.0268481767543976,-0.10077758433363937,-0.24509529516603162,-0.10402144005018626
629,8.837311615204836,0.5774357766520827,0,0,8.257202870092412,-0.3090395303487496,-0.5380969569880402,-0.033740499849048665,-0.3684960532037212,-0.10063298717268002
630,9.69280784605015,0.6355257812117713,0,0,8.196682164970822,-0.6055075736119097,-1.0864955723145033,0.16911579695157727,-0.5567045900223843,-0.18457746025360203
631,10.599299001524885,0.6879923683969835,0,0,9.47148435333224,-0.7752142469951444,-1.3070245022381382,0.39114258037392113,-0.7318292292932208,-0.3234527148200352
632,11.49992162923773,0.7319694969398831,0,0,11.030461595136723,-1.06666595928753,-0.860229374042576,0.5113560398039579,-0.6488104959526323,-0.31943596379139455
633,12.333955770078816,0.7649683584102005,0,0,12.18444720494594,-0.19500796454379718,-0.5839259678361787,0.2755889293068029,-0.5532450829435507,-0.193477595746473
634,13.041520269063767,0.7851313757013189,0,0,12.859865422428765,0.46243529942860495,-2.268206470188316,-0.03935373327071684,-0.7174569449239154,-0.08606503050164188
635,13.568982975139123,0.7914284634906893,0,0,12.987464472386446,0.49593080789900656,-2.9225147697664777,0.005439590909653283,-0.9000240963606816,-0.022427351757399384
636,13.874377823112976,0.783774164674442,0,0,14.027911567751916,-0.11618606438574106,-1.8005699400395343,0.27491570406276594,-0.8317863546107316,-0.07818807188101828
637,13.931996914202694,0.7630548907834015,0,0,17.132664814059595,2.969166130979408,2.330547171500757,0.6068609502336646,-0.4572393401020103,0.10325717216709027
638,13.73532729772953,0.7310621119767186,0,0,16.706762699216792,4.850761369464543,4.81443499256706,0.06035368065983531,-0.20524602544079223,0.6317625582053108
639,13.297718142771535,0.6903403034298906,0,0,9.282978613952269,0.5815815882137955,2.02213057409928,-0.48113144936908486,-0.023272496869971338,0.6370642747980566
640,12.650678955109884,0.6439748272608969,0,0,9.017869290702738,-1.8472238635386262,1.1160825691101288,0.009530990975853214,-0.20461696267878654,0.34650697679721326
641,11.84035933328679,0.5953546406713359,0,0,12.523751732018937,-0.7350957717862091,1.3199373508391834,0.34995106646783797,0.024748093612497697,0.4288106269060403
642,10.92312992715894,0.5479418896834422,0,0,11.226277570376572,-0.10069106143723941,2.901943174466015,0.25415283107408615,0.44443223315395647,0.5350471777459812
643,9.961040830673102,0.5050660518368365,0,0,9.834073835148414,0.21332049008503529,2.485124744210155,0.1877586098605141,0.13338817935026545,0.39383816418936235
644,9.017523202590622,0.46974301925350936,0,0,9.371614131029185,0.10205395956922672,0.7827819913656542,0.3301528801172823,0.1569539182009555,0.23426891288415347
645,8.153424154316406,0.4445112928168287,0,0,7.608552579755625,0.446667211795892,0.43184616897115063,0.44990577474999743,0.19666850448112486,0.14391801043574123
646,7.423440787399651,0.4312810796198046,0,0,6.652987068925913,0.8145040170235952,-0.06629980457282965,0.4060200916268899,0.23844437816800612,0.09113729922052288
647,6.873094225985723,0.43120021950966847,0,0,6.746935644984641,0.7882312642758487,-0.30578297969624607,0.37505701504571765,0.15456466823109194,0.03232513048606918
648,6.536400886947418,0.44454866103649726,0,0,6.512679050937794,1.2174624201260256,-0.649363026629289,0.36414694444942786,-0.01091379772062793,-0.07878960548660895
649,6.434319949993021,0.47068060943425305,0,0,6.289767911172067,1.712513599605786,-0.9470200844005722,0.3037168848006387,-0.221182216723974,-0.13125782182145426
650,6.573940570562748,0.508036972242178,0,0,6.489997439107392,1.3989370397729255,-1.4201586114067013,0.278428729619851,-0.4084802360109488,-0.11299498311246672
651,6.948295757498228,0.5542445690211069,0,0,6.974504774278912,1.3363178769119113,-1.3588084463245957,0.29300291359846686,-0.46685562244867856,-0.015947922266580625
652,7.5366855348385675,0.6063031484329183,0,0,7.419779010072751,2.4392402609283015,-0.5874601481700805,0.09199443420549751,-0.44301337833900406,0.08960850599190759
653,8.305447074472339,0.6608425724074728,0,0,7.903476607011822,2.4093742462457595,0.18036768814835255,-0.4249387181632662,-0.42092066209920515,0.20947917321659157
654,9.209195060883829,0.7144143048818951,0,0,8.321197923622943,1.9802779536417345,-0.3857207572202494,-0.7860488962954236,-0.6515296774933681,0.2548915962718641
655,10.192636779050122,0.7637659478399194,0,0,9.157397779820684,0.7249418013972939,-1.5051185590602973,-0.8151492946525711,-0.6399992448302511,0.1539558636109123
656,11.193095496675515,0.8060457613999765,0,0,11.115440469022156,-1.6068061261444757,-1.8868090881155306,-0.25239051681181685,-0.4878886228198814,-0.06240284692371413
657,12.143814666134379,0.8389095889629413,0,0,12.831471484993378,-2.316753376406539,-2.513417655762818,0.4118042957920123,-0.5298305164641295,-0.21428845838119195
658,12.977988765114375,0.8605477957203383,0,0,11.985878054925239,-0.2338895423293098,-3.5425824204778094,0.6048584884555005,-0.5537264455307819,-0.1998256112485564
659,13.633361465833463,0.8696825499714572,0,0,10.108586027061902,3.481582208720386,-3.9260737279583258,0.0802814015481055,-0.7243646242367392,0.029280966986908914
660,14.057190005935588,0.8655826321988592,0,0,11.309699567278837,3.201259193273688,-2.1182399763837467,-0.675845716854236,-0.5594038216368501,0.2437359518635253
661,14.211295648232614,0.8481125799964713,0,0,15.090192345640062,-0.17050839498725595,1.9226734587778092,-0.979905403049899,0.04222057235164827,0.06963475386290527
662,14.076670471505514,0.8178003352516867,0,0,19.025351932682263,-5.755040817633979,5.546702593133533,-0.5515926563376159,0.4160730018666174,-0.5532903711301613
663,13.656780552287257,0.7758911271944583,0,0,13.968313528012017,-2.1046919289501287,3.4743470804081737,0.27738556987047136,0.06063836237635504,-0.763701475489298
664,12.978646074603844,0.7243604330862142,0,0,9.360580024616684,2.922660568779984,1.0240738915655032,-0.15785737947321196,-0.031742657891148135,-0.334042520272326
665,12.091222320276422,0.6658763908890946,0,0,10.831756903794561,3.3681852807564994,1.3434948613393218,-0.7598463393322009,0.15365010690576833,-0.34040818511959325
666,11.061300316082141,0.6037131254967739,0,0,12.389514452404208,1.4450237090454996,0.732480516337367,-0.6979134298765947,0.11662037920993072,-0.3667765566121018
667,9.96759828377742,0.5416117526544517,0,0,11.200748199887114,-1.6322413805976437,-0.45705279641215774,-0.41511713154125235,0.2662358519549551,-0.2524674074709951
668,8.89377491312486,0.48357880565689226,0,0,7.988349258060588,-2.494089176926874,-0.13516041890923422,-0.16273744778507188,0.3537264911990451,-0.10188882500420758
669,7.921042360767417,0.4336208185554707,0,0,6.277978531756698,-1.6778463044822611,-0.20666592539201675,-0.15189755173128308,0.3860993202292276,0.036868570582082844
670,7.121123003524304,0.39543573968546153,0,0,5.284938617772457,-1.0978743288677797,0.09248035541887004,-0.2293868164823325,0.403081783088798,0.1455150433168251
671,6.55037959999692,0.3720987641135321,0,0,5.3890807660813405,-1.1068999781670752,0.02095490268445402,-0.17374507756212015,0.24765977819927382,0.17112102311402935
672,6.245834204774177,0.36578498738700505,0,0,5.845730144873062,-1.2375959175304299,0.026893447596002006,-0.010128080558224638,0.15232807371528584,0.13405685671069892
673,6.223427663274665,0.3775698895052423,0,0,6.536490850214853,-1.5090191103538557,-0.2190317804079539,0.13388539773621413,0.05086581980476666,0.065943062862632
674,6.47840832682052,0.4073411276657311,0,0,7.033325140905046,-0.9522793913325082,-0.79852556596943,0.34763619470625595,-0.1739161814441938,-0.015235997667057912
675,6.987373980214599,0.4538323510352673,0,0,7.480009194576316,0.07975215221683617,-1.552039965704197,0.4831740141794055,-0.4014327113394651,-0.10629696888625154
676,7.711339510653789,0.5147517929620632,0,0,7.702874256362418,0.4745428746049355,-1.8698129011470566,0.4558946384744987,-0.45021445133127086,-0.17979547121815612
677,8.599258406837075,0.5869451273288019,0,0,8.238448459893293,0.14699499665733418,-2.161030741274466,0.41770941361457525,-0.602060401850655,-0.27020259035842153
678,9.591600142170952,0.6665285712275414,0,0,9.99543058944639,-0.2051946470136474,-2.670268496639913,0.5495915942718297,-0.6205580960495843,-0.3181411059643444
679,10.623779888425231,0.7489631184233762,0,0,11.333834242369084,1.0915285624504696,-1.8696475697421762,0.46854128266958306,-0.4596392735680111,-0.20669320812674344
680,11.62940943058275,0.8291012883075682,0,0,10.703186183526704,1.9943992266475004,-2.4985125184611823,0.08200973783204824,-0.35541394810878885,-0.08259931923773925
681,12.543501538669895,0.9012963395730601,0,0,9.59592314490331,0.7481665642527014,-3.2516264605423895,-0.07556454189092095,-0.45036672222739416,-0.03650167933239942
682,13.30589566447549,0.9596848054875832,0,0,9.566055460751162,-2.074945828404452,-4.0719951472731495,0.29281459326280007,-0.43663722736042765,-0.15239544219252013
683,13.865155118394657,0.9987077168794377,0,0,10.641664455432235,-3.2388621370798365,-1.4880013632510989,1.2353070293994683,-0.2255524605384599,-0.28933096166701977
684,14.182860573694754,1.0138293797651965,0,0,18.45473799682208,3.583093401682778,3.669682021385762,1.6795716261567544,-0.1001548811754622,0.08317697004157606
685,14.2376327535872,1.0022971203226663,0,0,20.67246344622533,8.691094064982124,6.245249898476435,0.39323605084071583,0.12702606066438868,0.9239189096570095
686,14.027749034151533,0.9637308213602545,0,0,10.58062792671997,1.4576239400402577,2.9835979383504556,-0.5633113399645392,0.7711703903684206,1.0568071767157536
687,13.571388214924706,0.9003705225080411,0,0,7.401150426497508,-3.247451799693218,0.8858058078132667,0.029126504265585353,0.6032005234217628,0.491763415679329
688,12.904388621119933,0.8169156008089415,0,0,12.871130742620615,-0.6921863465467994,-0.8134237995108864,0.6791764707705509,0.04264721488757223,0.2225354108962764
689,12.076278519466399,0.7200016470284888,0,0,13.772525495843038,2.211543269291223,0.4318759878247487,0.4503986803332126,0.5472700021344192,0.13418468922871132
690,11.145560782499153,0.6174375525455583,0,0,11.548323690144324,1.5564728078690746,0.63573068355592,0.18741254386621803,0.2529821372911963,0.08448415573117635
691,10.17488640631752,0.5173517841195086,0,0,9.77725650523066,0.3378269385845979,-0.15964522638945525,0.22346008008455195,0.2494980976028561,0.03592913705435582
692,9.226413100245676,0.4273798926274175,0,0,8.31967519099438,-0.29442878641014747,0.14696531621733136,0.38083640238159505,0.3608689157153132,-0.039162107210294714
693,8.35760259461992,0.3539802856470674,0,0,7.428467899926937,0.7336291802458045,0.44094013375886604,0.341631033613094,0.38785137844386375,-0.13133146984997693
694,7.617783042176576,0.3019135234492861,0,0,7.156638186781846,1.8799336187157418,0.2977983222334649,0.17293127953816492,0.24404246340658012,-0.18235685824188463
695,7.045755021406334,0.27388716302867827,0,0,6.9405702211223534,1.8836637335633324,-0.013825717031728638,0.027008453827665143,0.12651152931998946,-0.1909512626682596
696,6.668528047893879,0.27036727712066194,0,0,6.519199761549823,0.9473292227179945,-0.5283021834523507,-0.013441026863669154,0.038492627293060216,-0.1500864818856075
697,6.501055647334422,0.2895771866736461,0,0,6.80138012609103,0.16849344009446784,-0.7623202740590714,0.007374516966875991,-0.03535568482234081,-0.0748991773941696
698,6.546692886697983,0.3277161320038245,0,0,6.970893890332929,0.3579110281855633,-0.80761795381432,0.007858342628241147,-0.09316916330025149,0.05529464409350503
699,6.798059346455033,0.37941534586965364,0,0,7.089260601599824,0.9294054875039706,-1.0095155108222276,-0.060877871781035174,-0.2603889249843821,0.1871640985313753
700,7.238036906691172,0.43840421544084474,0,0,7.294365076352719,0.75457449090694,-1.308573465371452,-0.17114625237978295,-0.47434744088459113,0.3129795706756799
701,7.840741488388368,0.4983000462004588,0,0,7.456273720187409,0.39396854224062644,-1.9824314021074514,-0.28081381178138215,-0.6225736287444361,0.39615184991389235
702,8.57244931310582,0.553388414458604,0,0,8.148644241211244,0.8737631239448705,-1.6628056593212295,-0.3023402333084608,-0.494597116480848,0.43486430089648237
703,9.392585763099172,0.5992534695281208,0,0,9.318170919466763,1.1171008939282834,-0.6328713781302623,-0.44880732880337176,-0.42212327986177295,0.4467423422895358
704,10.254959863057442,0.6331567684167486,0,0,10.63196653004399,0.21126760094095506,-0.22245637539046664,-0.4213650098544347,-0.3065872130792677,0.3227641105955302
705,11.109446600869411,0.654132137419416,0,0,10.60893921363018,-0.5416951882415126,0.01701354605402351,-0.13940785425205565,-0.3189744804103971,0.10509138523794888
706,11.904309664952343,0.6628310696154956,0,0,9.557092259645225,-1.034107005380348,-3.565886576759084,0.08847826088720198,-0.7030040189754929,-0.052356295051236366
707,12.589322259271881,0.661190782682177,0,0,8.849112668502046,1.4935020606200662,-4.602620327765914,0.03493402239394799,-0.7359870010454785,0.0017856378088392424
708,13.119714942148189,0.6519982263227998,0,0,11.841701718214866,2.435042362592779,-2.605415622515965,-0.49409292939744176,-0.5162079232768876,0.06750997938816752
709,13.460663801739857,0.6384058170674577,0,0,16.169508247971496,-0.501629662703936,0.1591048983136823,-0.5842651744498462,-0.17867823629112523,-0.06524120948828989
710,13.591564656843099,0.6234437441907941,0,0,18.159767663524022,-3.728109333807485,2.5809413385539144,-0.39711173498657304,0.0821611599654115,-0.3508061495969239
711,13.508985755693077,0.6095774623989993,0,0,14.729958685958415,-3.5739294431352664,2.837508235513746,0.019704352416348343,0.27215393413749334,-0.5559076912939005
712,13.227307410070575,0.5983659364260819,0,0,10.863448581622862,-0.6087803672076283,1.7026860837326387,0.17762443423299565,0.18073076536495547,-0.36111265003517884
713,12.77673133714589,0.5902728858180841,0,0,9.947999452908903,1.920265058405471,1.367584008279764,-0.29867946901405085,0.15135401837197204,-0.12550334840194494
714,12.199205342835922,0.5846648632326642,0,0,11.159488896451403,2.1353451522232554,1.318438801563626,-0.7376697928208349,0.08066784651976922,-0.15739873425879314
715,11.543314041976078,0.5799981875067166,0,0,12.716971794865161,0.483479180132647,0.6188443225388192,-0.6222866169106182,0.033158284263132276,-0.1550309958125637
716,10.859120362542761,0.5741604422387735,0,0,11.337615528653753,-1.195907440472774,-0.20971368828738438,-0.520418436688434,0.20494137550739533,-0.04481787319783832
717,10.19357224267303,0.564907200883777,0,0,9.102755376464128,-1.3461135053706603,0.15231920666864363,-0.4044349824929761,0.1805618613087971,0.05608750906598675
718,9.586800606373824,0.5503291194633552,0,0,8.573828288374852,-0.9020653856509926,0.19546426965694752,-0.46882883758103794,0.15953624186409218,0.08473375271640395
719,9.069544107010875,0.5292880669272151,0,0,8.441536564413703,-0.7606924042299761,0.21691750501259804,-0.5888586365782988,0.24986065469663873,0.08448059919770501
720,8.661889975823538,0.5017584860531482,0,0,8.308496495146047,-0.8536825126227101,0.013747107161983336,-0.6667566643906669,0.25202341863676914,0.08530757009178089
721,8.373368184831655,0.46900386953205814,0,0,8.534458055808066,-1.059104892213587,0.37516319510898977,-0.6741980185760106,0.18522848723660343,0.06627018103359851
722,8.204194481403002,0.4335267117893263,0,0,9.088680885096325,-1.1256890546170184,-0.025105344291887724,-0.5266244765421315,0.10521533041462124,0.02451319668733126
723,8.147247254168299,0.39876803576897163,0,0,8.538811919886491,-1.6424774552674737,-0.10994480476341326,-0.3487736740241666,0.14655777291418245,0.004571858770630178
724,8.190284779510257,0.36859388647728103,0,0,8.06574702592478,-2.1842340521643573,-0.062256137061297366,-0.15785944689117162,0.09082765643041978,-0.046659262341950405
725,8.317986464738674,0.3466671579986364,0,0,7.988572339955888,-2.2728983070738566,0.061063859687331606,0.026768882694344562,0.07612280778830592,-0.10167006304731667
726,8.513577986495832,0.3358368356447531,0,0,8.065482120509593,-1.4436894145321029,-0.181090344673817,0.15934897513515628,-0.03728333891318801,-0.1431376651528672
727,8.759978640511545,0.3376690548274261,0,0,8.717959089916045,-0.25278191859631227,-0.6169356049125589,0.19586308581173126,-0.12191424835841576,-0.21426259401159858
728,9.040516964729838,0.352201533118954,0,0,9.504903509547436,-0.11600457167748318,-0.9640851435894453,0.17012602622890657,-0.20593945559319357,-0.22503671001599812
729,9.339292155084577,0.37794661683079495,0,0,9.700325138744386,-0.22795630877387782,-0.8933582429778416,0.15839031394433153,-0.24796165103024365,-0.1989026806346875
730,9.641265410870483,0.4121206667014153,0,0,9.53854379953914,-0.46943827948242817,-1.397374304288797,0.19481675781997304,-0.27977120886689044,-0.2188112989170324
731,9.932203766509648,0.4510482819479381,0,0,8.946451521569285,-0.6023837935142505,-1.3854751899538593,0.26213306600116876,-0.1813404228299932,-0.2545832879736817
732,10.19867132396771,0.4906749130856525,0,0,9.019709116537678,-0.7721134921289056,-1.4339556989789868,0.3313325648559172,-0.2525628850606807,-0.27064715296835395
733,10.428300843912425,0.5271125722051699,0,0,9.648143394406835,-1.040925841663124,-1.0933240688833714,0.4653779956219014,-0.23981712001630257,-0.28960686313510986
734,10.610499861411068,0.5571370686468413,0,0,10.647640277819749,0.050980162007090706,-0.7538525258394102,0.603417403675527,-0.4510942161111421,-0.26653804263431985
735,10.737535628653111,0.5785557928956624,0,0,11.010916939225517,0.9076216817224574,-0.7627829353850479,0.6059488614614381,-0.3647867310000215,-0.2197309040252829
736,10.805685207074905,0.5903822389355647,0,0,12.589335761639322,1.4193363514632726,0.7499881590351833,0.522910354955119,-0.4362339787216307,-0.10072051203411793
737,10.815966561402318,0.5927932331079985,0,0,13.184735859366768,1.816794468939068,0.2325715435713903,0.3500859375006878,-0.0819935922482587,0.04760264632263066
