id,ASVM,GSVM,walking_nonwalking,normal_abnormal,ax,ay,az,gx,gy,gz
1,1.021984313372804,0.3345655359698326,0,0,0.9995328735020341,0.05325134692765807,0.05673508813791104,0.07379223153982524,-0.301241080936624,-0.08630529195144025
2,1.035359546371979,0.441292612838288,0,0,1.0308637817070854,0.06624452192568224,0.062331008131868655,0.286591159111359,-0.46611093805205717,-0.13572419973766478
3,1.0481595116433142,0.5615885082680543,0,0,1.0237138409730213,0.13111962491360638,0.04795834740702381,0.1316937781441804,-0.5492695072922514,-0.14884508733862953
4,1.059105884073879,0.6909480941284475,0,0,1.03386282284516,0.13057961788765993,-0.060248915589897895,-0.032592508247985014,-0.6319268560182442,-0.10557017390337615
5,1.0670159202739866,0.8234110019335821,0,0,1.0910185752891493,0.12079855077819282,-0.1282611793829363,0.3079486367148779,-0.31413381176967053,-0.05011493109017309
6,1.0709429182116232,0.9519033142463624,0,0,1.1091009423754172,0.1384220929043391,-0.16313616145646054,0.3982456704896237,0.3345862153375507,-0.006907191777637218
7,1.0702885237199238,1.068826823230534,0,0,1.0560956754879296,0.1378701419343672,-0.22218776981328564,0.32596367689790745,0.9950409479891638,0.05883108520671969
8,1.06486808864558,1.1668720514121724,0,0,1.0342058763536999,0.1300530830373412,-0.1701783344760969,0.261829362327733,1.3607402230046572,0.13926079378644288
9,1.054919230778662,1.239942941075072,0,0,1.0722193563411722,0.10225688785631183,-0.037716874482884966,0.02385905240658498,1.6292378729761219,0.17812834370782238
10,1.0410553544201293,1.2840043705881328,0,0,1.03865932196403,0.07093202004523583,0.04558810713958344,0.09706986798633223,1.7334181703722376,0.161791350316011
11,1.0241757080543654,1.2976478728417156,0,0,1.0090781631090504,0.05684614590137268,0.06296503144675766,0.26069919554645343,1.3788592549708778,0.15705395376205866
12,1.0053496951527765,1.2822334195084348,0,0,0.9779900245387775,0.07044443805505113,-0.0029124173972653856,0.5062840058001953,1.1646027062999103,0.1723587955446892
13,0.985695959491268,1.24157923028792,0,0,0.9240804527006077,0.15977008533497988,0.012991289634142447,0.5490469940367506,1.0225955473986885,0.21696026334285454
14,0.966276024376234,1.181287142564463,0,0,0.9557483304589601,0.09886553104392565,0.016266101782188784,0.03447061698449509,0.89159722191764,0.2742014741049666
15,0.9480171639058927,1.1078662041631977,0,0,0.9720187644646623,0.04797411426831427,0.01911986427626031,0.2913932273236581,0.871597884300578,0.293975441324394
16,0.9316707839276261,1.0278365147226336,0,0,0.9432859365906129,0.021871315547990086,0.05123477543664,0.3566698201378061,0.7714893392406584,0.33006315257219315
17,0.9178046892244099,0.9469673935727188,0,0,0.9164559750745646,-0.04857544625645583,0.07447369082023413,0.41910136614827975,0.6671525657731016,0.2778240376950904
18,0.9068239594488161,0.8697488451826839,0,0,0.8282686724636322,-0.02385817693509782,0.14662424145346703,0.4039435626558701,0.8855938315997454,0.18041385343730593
19,0.8990154340295832,0.7991352971396112,0,0,0.7980382065458408,-0.002825075104767574,0.20519155772576428,0.11824898387306493,0.7058609370624012,0.11973589502169187
20,0.8946100626914834,0.7365530242672976,0,0,0.8927994622446058,0.018453457016568548,0.2973937270591267,0.21760973648852924,0.5943678988802501,0.08569146965591355
21,0.893850931970201,0.6821340793576046,0,0,0.9387345870199878,0.13897358876220145,0.4121868096190575,0.2626238039234283,0.7962517148973797,0.03299663944695145
22,0.8970450621271061,0.6351248534774417,0,0,0.8512807468805137,0.24755187740890197,0.38209944121023054,0.18116665486555875,0.2670752386771345,-0.04731984729551682
23,0.9045741713487309,0.5944065302973544,0,0,0.7698713715727996,0.2455881569167203,0.26459298438058093,0.049508812015685084,-0.5541297484260479,-0.09853229201731396
24,0.9168510922164301,0.5590502558968575,0,0,0.8196488169388115,0.11394586963680567,0.13018327523908277,-0.26650976241590496,-0.987965029517783,-0.056762379557324785
25,0.9342288101007052,0.5288126725716145,0,0,0.9833578345026063,-0.024547265375462146,0.05367029707841015,-0.3478743719565555,-0.7563110036548589,-0.002408889874795228
26,0.9568840473519874,0.5044732918430657,0,0,1.0263591108618086,-0.019860450432387804,0.03181668964177546,-0.1780772094006632,-0.28667727500300016,-0.06340942393017587
27,0.9847003539764394,0.487945497570812,0,0,0.8937507306882214,0.03013032466882409,-0.025747364528350254,-0.2489359362663421,-0.14570179441165848,-0.07867495409016952
28,1.0171730424995373,0.4821533512247309,0,0,0.9183440131142663,0.016557978089850357,-0.04859392804030295,-0.4640524654168838,-0.008413797648930115,-0.053586726599302574
29,1.053356458464028,0.49071880191229056,0,0,1.0733528552235516,-0.022521393008652458,0.016214644797339618,-0.61335497793342,0.018329703234340654,-0.08168137315717573
30,1.0918698496367034,0.5175182621577032,0,0,1.1073911797117182,-0.04361741266030613,0.039006488198984786,-0.43075990575199563,-0.020433397308551076,-0.13555769933093248
31,1.130966808583539,0.5661537268495842,0,0,1.0778428637714454,-0.052819003982033215,0.01166450918300656,-0.37085909577919074,-0.3109347870875885,-0.19446044900241705
32,1.1686586241102754,0.6393695590755707,0,0,1.1786193449751352,-0.10968439251270298,-0.06654763542270381,-0.36879390153182734,-0.7481275164849194,-0.25332537281765793
33,1.2028709300758915,0.7384442771783785,0,0,1.230794016880177,-0.13366498891523695,-0.21971600843200045,0.2769496586694573,-0.8163116156956256,-0.27313603163300393
34,1.2316078645779185,0.8625969736770173,0,0,1.2651802811183557,-0.10048507262053108,-0.33295951602964824,0.6620734197878179,-0.5595454005467555,-0.1900706194656492
35,1.2530983598907643,1.008472343933916,0,0,1.2824547365259495,-0.11044508912066855,-0.3535546187047796,0.5378182256592584,0.04513084481326562,-0.06831644475818449
36,1.2659074955330583,1.1698018747086953,0,0,1.1879533194658067,-0.07520646303129222,-0.25155341231234934,0.9688704330800726,0.527600575484749,0.06588529127086527
37,1.26901287440248,1.3373582089788838,0,0,1.1009538106061265,-0.0023980312050576806,-0.10060432517843394,1.4174048420989382,0.6896075578685779,0.24717614779743055
38,1.2618644219666109,1.4993046735959716,0,0,1.1206812491363816,0.017479303308863152,-0.051091478594612744,1.4807364763925612,0.4265390434481583,0.3201879113055394
39,1.2444518897456613,1.642004356370533,0,0,1.2123106409002642,-0.006400703972692751,0.005486367765802445,0.6082952122074908,3.6391549470442905e-05,0.24783312068418553
40,1.2173878166966572,1.7513163694298755,0,0,1.2829845884157047,-0.021514550198714278,-0.0004970251455232125,-0.29983416848510963,-0.2684812116233692,0.07076528339046727
41,1.181980508698529,1.8143491585120302,0,0,1.6548337859728934,0.08723477663699879,0.22976400958444265,-0.95704872362416,0.7284909445837162,-0.0232333512143427
42,1.1402442646673858,1.8214993567317035,0,0,1.048469019279586,0.2880529936888391,0.44023292507988837,-1.0499435758161628,4.558771945280585,-0.21831542598956682
43,1.0947984212743014,1.7683826231723114,0,0,0.04645303837541271,0.3917790929398239,0.7513423522025023,-2.3437110196074347,1.9874863100411804,-0.25152345129409015
44,1.0486486962537875,1.6571078252802216,0,0,0.6447027974712513,-0.04870128511261559,0.7237589345403577,-1.6824993538806396,-0.8185160538763272,0.07616076382727459
45,1.0048970072871524,1.4964398673018244,0,0,0.7528505181728352,0.06593380858274493,0.42298192062860057,0.9746198152125515,0.14326325679438118,0.10703951303734535
46,0.966450692300671,1.3007402036095121,0,0,0.8489192383926333,0.08962251509046554,0.36249462332566423,-0.7813740603854555,-0.6658039994694382,0.06321950895402419
47,0.9357853088253508,1.087957853164353,0,0,1.0697379288994486,-0.12873591394693096,0.2825759415344395,-0.7374844942774931,0.21080717129722193,-0.05548410450326033
48,0.9147771826808687,0.8771605684979666,0,0,0.9496927703315765,-0.04910915388374156,0.38919121546488433,0.22313332023578097,0.31127199282770557,-0.15417731259010864
49,0.904592819208822,0.686108834541254,0,0,0.7985175122877326,-0.02578768012349995,0.33493057612911314,-0.03985918953529075,0.21997883177161373,-0.02716984011804716
50,0.9056188913157533,0.5292654050456961,0,0,0.7447721921172016,-0.03398931686974004,0.21404920466098437,0.21140527466737538,0.1803130333064547,0.15112087986861064
51,0.9174334522595783,0.4164764404807362,0,0,0.8297307287213154,-0.008907248806930442,0.18585642030689048,-0.11500499121462833,0.3088954713114297,0.19000032885532728
52,0.938835237223562,0.35239611540140836,0,0,0.9049579343755149,-0.08747244593199179,0.1559757119766219,-0.14256598936717266,0.5603709650143457,0.1038451403058444
53,0.967945948489963,0.33658520643535067,0,0,0.9387775199092322,0.041805955713981824,0.21043772870622457,0.0819608514112268,0.6486037841264901,-0.01891219957393548
54,1.0023813227177922,0.36412727658187005,0,0,1.0233578079807066,0.19874554018673196,0.22276301700938578,0.013436549268145186,0.24633153731252558,-0.002514864328021263
55,1.0394650148629894,0.4265881425911579,0,0,1.0969581465590528,0.25199775480948744,0.18654825978559247,0.4655612113614186,-0.05533678217774896,0.0768422579831623
56,1.076448115924701,0.5131771804261794,0,0,1.082687300225866,0.1433649517690642,0.1329636779005262,-0.03344630982849346,-0.04567749626842801,0.005487656689097744
57,1.110701269489719,0.6120099402164827,0,0,1.0995587340774697,0.04911318982854913,0.08732316390936395,-0.22111213058286475,-0.5386008904935511,-0.15100209797703754
58,1.1398627753152366,0.7113817131099599,0,0,1.1577276127287761,0.04956158361765173,0.09845187600440666,0.023180255321163287,-0.987971008124551,-0.2403994465080862
59,1.1619463073606675,0.8009351025877857,0,0,1.0426804245190633,0.09212138686789706,0.04885713465804791,-0.026136128458004206,-1.4844774976340547,-0.053662315041242185
60,1.1754263429237275,0.8725763488996743,0,0,0.9832218998010465,0.11010465692950848,0.09385951158459087,-0.24174880311148414,-0.9704470327671763,0.20586592694096878
61,1.1793206678299175,0.921015841423652,0,0,0.9717245522931647,0.20395574796496277,0.31874566255743647,0.06651825144189522,-0.7532698890620552,0.23725480635238794
62,1.173273099800857,0.9438949046114807,0,0,1.428000447266114,0.267926475931015,0.8793822771425922,-0.5732295736454898,-0.07750146224346303,-0.0647795107217578
63,1.157611363242604,0.9415707096214407,0,0,1.0472298573677365,0.10177571758944572,0.9930527447360815,-0.3050043946879719,0.3529281298678616,-0.3154348676168777
64,1.1333383591347297,0.9166962169175497,0,0,0.6070652285850012,-0.034134614939030625,0.4011740858033559,0.21447277710023863,-1.5881334175008976,-0.16012139402620873
65,1.1020349188733836,0.8737232201899181,0,0,0.8704769642732066,-0.127857486778248,0.19577685861326505,0.1009444688250339,-0.09523109957534277,-0.16248591155845668
66,1.0656984539809178,0.8184048508754731,0,0,1.029704801389968,-0.08418629294430548,0.3726646006757037,0.22881164692542874,0.92549759809475,-0.07432481165454773
67,1.0265707742840444,0.7573268483732568,0,0,1.128032794991905,-0.02287746355763764,0.5669699987569234,0.304137837097069,0.8746905762216248,-0.015089645570283396
68,0.9869955783821666,0.6974698515575607,0,0,0.7718993687628073,0.0662853766811353,0.38065973759100113,0.6166952713452499,-0.21573912167997722,-0.08922754001109104
69,0.9493158922395205,0.6457897337560277,0,0,0.8001107512108452,-0.0037692877253890176,0.20274426522058994,0.4588897722075954,-0.6239078019348856,-0.11914419744533764
70,0.9158064154732584,0.6087999498401128,0,0,0.8536047738340282,0.012722477743977582,0.16937271495415848,0.5202366259008026,-0.3365550557629909,-0.19559715610337275
71,0.8886341245935396,0.5921540495090102,0,0,0.930588562739048,0.054619038471842955,0.18269741586641947,0.01309537218412558,-0.34537145350908904,-0.194521247635311
72,0.869833120432214,0.6002495790259557,0,0,0.9233104200521879,-0.0015387508838196687,0.1283074572379954,-0.03243706268479457,-0.3591878268369828,-0.15184542964303205
73,0.8612636133151845,0.6358882320686119,0,0,0.938829521955158,-0.04435783721364076,0.12571407455567274,-0.0191600967392845,-0.5658779902311232,-0.13219050119120862
74,0.8645150305015679,0.7000166577599191,0,0,0.9999024730347331,-0.09162521962228898,0.05361039177132503,-0.07810883170669722,-0.9542188563247215,-0.14908604416057644
75,0.8807214820177002,0.7915408299482204,0,0,1.0083312112362321,0.0082237461799043,-0.06972595496690809,0.8090608241445988,-1.3295765111077997,-0.21693798963022604
76,0.9102847332797599,0.9071844082518079,0,0,0.963198792771244,0.10060294516839267,-0.20447753142914626,0.49971652650509996,-0.4939640544781624,-0.2216691134318468
77,0.9525399786596571,1.0413871030298019,0,0,0.8286655600370995,-0.04259568269727946,-0.24273670486751414,-0.5657075905463119,0.12508097941514276,-0.21818361183724616
78,1.0054444398551128,1.1863149400282118,0,0,0.7753448525557084,-0.01274387336371771,0.05305116506043112,-0.36500540440624046,0.2622369597230788,-0.2915314564596003
79,1.0654035663831334,1.3321231349848404,0,0,0.6532121974572002,-0.009874351519784266,0.3183893548884005,-0.46710381843486604,-0.601332015250004,-0.45478179980887995
80,1.1273553077475884,1.4676007627167562,0,0,0.7540790549085089,-0.050342720140240715,0.37927617717441287,0.5773601010980042,-1.4953899981897583,-0.5347748864147234
81,1.1851942784618965,1.581218335386677,0,0,0.4872886900075472,0.046989851365020735,0.14540612030598615,1.3732122122473776,-1.7404811552935098,-0.3237822930668129
82,1.232531707327911,1.662455569555004,0,0,1.7791800674272327,0.35856791467272525,0.769544509979523,-0.1227362663142191,-0.36940375890085714,0.34982805804603884
83,1.2636712289127436,1.7031874198931736,0,0,1.6451623819373102,0.6808453755559736,1.1902752294139962,-1.493467177629112,2.9388244857247607,0.558594147634742
84,1.2745821047614523,1.6988826618270574,0,0,0.48164778113525536,0.5232931721622609,0.5199348562456284,0.10393822832095054,-1.0206291545247095,0.45543871782882
85,1.2636315013758677,1.649400278304252,0,0,1.3738328064931165,0.37614112664249816,0.32239349458200356,-0.9125759328883737,-0.15989586229927405,0.8880164168373439
86,1.2319130674961143,1.5592279924626729,0,0,1.424919872535987,-0.4128721520800621,0.2975320039424032,-3.033925133618666,1.0929468379409069,0.5577966126123917
87,1.1831266345662896,1.4370808807129165,0,0,1.0251581372319216,-0.4961412251516083,0.23693303075590313,-0.9910135547720814,0.9335518304572512,0.3354058004455653
88,1.1230605544785315,1.2948686296728156,0,0,0.8566159000416822,0.00407781962796484,0.2858197418018964,0.5203475111263832,-0.32735801152013655,0.2707736106972265
89,1.0587892763529925,1.1461614898118524,0,0,0.9115282928211028,-0.02624269230185761,0.0006875612670402856,0.6259511130121959,-0.5770341095580431,0.17309713359357098
90,0.9977320132405689,1.004413846275792,0,0,0.9501447196797919,0.13829390745499467,0.0537252745583876,0.8193796830923848,0.08499803089193594,0.12179214202096945
91,0.9467199160025263,0.8812677029076829,0,0,0.9551161570269844,0.1163076343499214,0.08707470998360199,-0.685965125417941,0.34225874115632654,0.07583408372714277
92,0.9111900933167382,0.7852189010378933,0,0,0.8637840291512405,0.03960533204670209,0.06158606119792714,-0.5108977595988552,0.3182888406999227,-0.04233064318927631
93,0.8945851121131025,0.7208295916915215,0,0,0.7636989667899896,0.19903009787371995,0.09508726500458836,-0.03999401434290709,0.06170801567740992,-0.1987129090502891
94,0.8980053476211606,0.688566800112423,0,0,0.742548788848209,0.32016476872577837,0.006962659857023893,-0.022002150588809614,-0.4411204189169716,-0.2331280616916428
95,0.920139375017534,0.6852488652280065,0,0,0.7760359419755738,0.24022373165817937,-0.06928445125096687,-0.5906273041102731,-0.6357316576240838,-0.10761565398046086
96,0.9574742188943353,0.7049789174420404,0,0,0.960688610882669,0.12961066296335477,-0.0014456324112323022,-0.8560314590850893,-0.6124920946372778,-0.007680709203799447
97,1.0047572488030996,0.7403520653785096,0,0,1.071602759003128,0.019185503071674066,0.06716465741368235,-0.6556324558290014,-0.8466546375165395,-0.00870532868017551
98,1.055650021526132,0.7836795218521972,0,0,1.0344940459444636,-0.0756736328715061,0.0629586766003768,-0.3612860078983006,-0.836927331209599,-0.18567208746294137
99,1.1034914305508805,0.8280027510412005,0,0,0.992316720601103,-0.03308573430117765,0.21878710726986864,-0.40764253714105636,-1.0001326238735166,-0.3141894397783367
100,1.142077880107117,0.8677589245403737,0,0,1.1971126832158636,0.11748324484260812,0.5112848474744919,0.00794746924939634,-0.6666278072645653,-0.4513336121383695
101,1.1663683505817601,0.8990672591672543,0,0,1.3452427861375198,0.17437675650892243,0.7060806121166174,0.4065217297862953,-0.28467044358709825,-0.571059991790322
102,1.173030529310346,0.9196996598075076,0,0,1.0625304276140541,-0.0014494348933544261,0.3769431610893133,0.28900391704319056,-0.7047602859026523,-0.4544515916140182
103,1.1607681649323311,0.9288568959964143,0,0,0.8596653599337925,-0.18189936330400597,0.038955957341416415,-0.33532480986946445,0.053165470087177036,-0.28928563386039186
104,1.1304111128526526,0.9268829212388441,0,0,1.0782521600998738,-0.10195793635977793,0.22289847197689153,0.2256312097327549,0.7177326976968232,-0.38555283986315486
105,1.0847878786401126,0.9150156439947241,0,0,1.3243012100813707,0.22218934192303286,0.48945270459950607,0.7629654470498981,0.46776177011470016,-0.5049529811006158
106,1.0284134447318007,0.8952064897794701,0,0,1.0089725828460663,0.29223510544472425,0.23370973188804922,0.7904005453026762,-0.8190034496114843,-0.3664351009738367
107,0.967021193442132,0.869974067590118,0,0,0.8569292435626746,0.27853648049670493,0.017812079711146848,0.9259257234562083,-1.138013666623402,-0.16434622978085775
108,0.9069751983470639,0.8422295280888945,0,0,0.7096629621011956,0.20889397494171064,-0.08420850360006762,0.059164367467258776,-0.3157896450848816,0.026247497064361667
109,0.8546241396799276,0.8150442688830537,0,0,0.7083893114768345,0.03747229668863015,-0.10544140219577705,-0.5899492203887693,-0.19628047782161975,0.12240195881328819
110,0.8156761809914077,0.7913985572419605,0,0,0.8065931335252493,-0.11590886648873147,-0.03720546910159726,-0.24569761744974253,-0.27759079728203595,0.18389496216831272
111,0.794664241485063,0.773991596926172,0,0,0.842736697987323,-0.16287800890965667,0.0038944537759210787,0.5293449199105902,-0.27871363563870516,0.1816910870009491
112,0.7945393273469803,0.7651673356961481,0,0,0.837742136722338,-0.13204174759660645,-0.04353763110696144,0.8485411055064136,-0.36878264323725224,0.08888891296044232
113,0.8163988102954346,0.7669302013258017,0,0,0.848058282962197,-0.11314499838757021,-0.18740007186905233,1.1394373064935683,-0.7986033250369968,-0.05557244926968666
114,0.8593440401513848,0.7809476713410766,0,0,0.8349150488357976,-0.038455051426207226,-0.26892145500530473,1.2576272047531107,-0.6581668745709714,-0.13585263003801787
115,0.9204687346269913,0.808421533416152,0,0,0.7763239301240094,0.0919443852886763,-0.25782128666721327,0.5011208986249857,-0.09813063102180097,-0.16966865549726937
116,0.9949955182578543,0.8497819206964186,0,0,0.828990265000396,0.2462492322039127,-0.12587243447204335,-0.2980529171026862,-0.34777489320087496,-0.15148516336259674
117,1.0765886866951706,0.9042831453398695,0,0,0.9137054550157009,0.294889396483284,0.03503541166783351,-0.8181937133203322,-0.33871415060886445,-0.24621940417988097
118,1.1578655419495705,0.9696808195084453,0,0,0.8700527324673697,0.36760065296409017,0.2631894637034577,-0.1182791128560441,0.017785400851642572,-0.33430618983378024
119,1.2311015221863315,1.0421881702722988,0,0,0.7843549396072786,0.11122876405539484,0.15789378304273124,-0.2910866311891139,-0.6665899402143082,-0.1395943692663365
120,1.289076779538564,1.1168448779709683,0,0,1.8078990207524834,0.22543081622778607,0.4316250952802592,0.5460451184515854,-0.3879179242650159,0.21964829572207703
121,1.3259523972205978,1.1883137274431372,0,0,1.715210925166686,0.6049865707039205,0.6738472202378994,-0.1679526858752415,1.251364812503717,0.4647772303246481
122,1.3380190315838112,1.2519784331077726,0,0,0.7849715009559802,0.42683085066269744,0.355042547631835,-1.3432867119380256,-0.02624204871410926,0.5991398971960122
123,1.3241663125617684,1.3050848943919677,0,0,1.452306595271831,0.2876071918805118,0.38664871031235926,-1.5961795808817405,0.0688096618361772,0.7719473637778612
124,1.285985984957426,1.3475931647471262,0,0,1.5265315701263442,-0.2275455506822252,0.3299291321093462,-2.9307684547860213,0.8753460543725514,0.3949836740697704
125,1.227507878008116,1.382431870422813,0,0,1.0544450083322603,-0.2091384037580828,0.13686806175804592,-1.4332337217242395,0.16279872232856918,0.02082284625967469
126,1.154636493561983,1.4149948472494287,0,0,0.9556011190791929,0.23539222913148367,0.13738126818691956,0.3136831740524351,-0.820946486353106,-0.022974700404404788
127,1.074400920600466,1.4519647354829694,0,0,0.8380683049281532,0.26804939296113667,-0.009344953597463481,-0.5261776946071872,-0.2713649737672547,0.04110509783374993
128,0.9941530274401139,1.4997864145946438,0,0,0.8189729296341839,0.19319573347453212,-0.1323402108021178,-0.9815269132500092,-0.14712764755524851,0.10061228701449124
129,0.9208384911767065,1.5632153403744025,0,0,0.9127839982704882,0.13098162986810405,-0.01781199141957022,-1.390196619254913,0.04055260690973752,0.09291565633707055
130,0.8604219627805316,1.644287388240079,0,0,0.9137806598675603,0.0607371975770625,0.061394708811935046,-1.9246420775551667,0.22533350235015276,-0.03160890056541513
131,0.81749236228269,1.7418734175993318,0,0,0.8429777133198484,0.12765801643752347,0.08780677881364027,-1.7214700427210308,-0.0208241001047129,-0.1574063464182763
132,0.795031917825506,1.8518107668092605,0,0,0.7937398032798584,0.26324823800238006,0.0511933277390171,-1.6390180155314285,-0.424650310778057,-0.22282332185049486
133,0.7943149540209044,1.9675104064227946,0,0,0.7791687703825154,0.2731074089305355,-0.08944379896098728,-1.8338308194807553,-0.6547848925298656,-0.269221270136441
134,0.8149061598074782,2.08091174167563,0,0,0.7654692621146759,0.29960962630575744,-0.1413638472368013,-1.9081014412647286,-0.5315229759494257,-0.27494237630110563
135,0.8547424923287227,2.1836521654689585,0,0,0.7610608779700405,0.30499555710136766,-0.07748024451661428,-2.175645327871059,-0.4721928787703265,-0.2947314306220144
136,0.9102985342336799,2.26830774690669,0,0,0.7989452371076446,0.2507016015271516,-0.04410266076750379,-2.3564746748637706,-0.7094750552333968,-0.3246565973049078
137,0.9768456701880163,2.3295482741634026,0,0,0.8451244004293552,0.19000590433688175,-0.06753702832849774,-2.1055455465121864,-0.8650022808961151,-0.2881622083118281
138,1.0488157184113234,2.3650486608596784,0,0,0.8751949280329352,0.11384660861095075,-0.041970730724267956,-1.985101747470197,-0.6701776766844849,-0.2858669576657292
139,1.1202654407341093,2.376012487977986,0,0,1.0955391478678835,-0.01660359042955266,0.014784467998100334,-2.5692471241193053,-0.5366962696570439,-0.3186983610481673
140,1.1854097134571169,2.367181557728122,0,0,1.5699963346166306,-0.27507224782485257,0.3148359383576961,-3.4253740488386843,0.43816610484706703,-0.5841523896859968
141,1.2391587080150965,2.3462300136897505,0,0,1.2671542316617965,-0.3468721596617645,0.568807709617414,-2.7459399121176657,1.3437132572936783,-1.0949772374532205
142,1.2775807260284802,2.3225119275623136,0,0,0.6875304270733088,-0.07905317401624345,0.4927793657882237,-1.173338640572308,-0.20795165400733812,-0.9614214115168104
143,1.2982331109312735,2.3052862603148476,0,0,1.1417938410722541,-0.19237984563784252,0.22900194785052702,-2.4273320851501015,-0.9918574171950085,-0.7011258802350343
144,1.3003422480367337,2.3017498305680255,0,0,1.6364825339602111,-0.00011189200375229774,0.12440877651835869,-1.161867925862402,0.007688498982571015,-0.4238666814684893
145,1.2848338430802282,2.315364424850164,0,0,1.2674196708712642,0.5023911985261735,0.20204680690889482,0.04901966592551206,-0.19341610564187656,-0.19274792460570364
146,1.2542083313663754,2.3449736629212423,0,0,1.142471025116384,0.3478317718187042,0.04086573531635371,-1.801267420906922,-1.2829676447022327,-0.2996805576526999
147,1.2122526989931606,2.3850327694770312,0,0,1.275910956879846,0.16683601259044323,-0.0872341626840241,-2.4576038704595473,-1.1799784253161174,-0.3487444454970392
148,1.1636001358753156,2.426959245726915,0,0,1.167008823445603,0.1511472399377229,-0.25794004755585404,-2.53044471669232,-0.11202377829579754,-0.23595126531046007
149,1.113180979576023,2.4612769855893197,0,0,1.058703270105447,0.10081921604314531,-0.32303762221046844,-2.65043874462745,0.2524990618670318,-0.07696282770877493
150,1.0656340699353692,2.48001016937256,0,0,0.9530711241672564,-0.01928940618061587,-0.1721136497354689,-3.219339873319364,0.8433370659334196,-0.00019127541342098703
151,1.0247627021261219,2.4787379822900393,0,0,0.7874373089523232,-0.1880889497823804,-0.0453773513692947,-3.5397297820176887,1.2000217340994432,-0.06314779597393855
152,0.9931228172397158,2.4578156312345354,0,0,0.7712848983353379,-0.3253022148791735,0.059287526850831836,-3.1441371652709207,0.22786158074914037,-0.325720928815023
153,0.9718157594616224,2.422470890389647,0,0,0.8795672800910733,-0.2208409738146774,0.15896010324788648,-2.1520869437064105,-0.22876365373721858,-0.6013917636586454
154,0.9605195721229566,2.3817746730736213,0,0,0.8967858427859471,0.1257418283403485,0.3042902893934264,-1.3976614773224543,-0.1432651141392338,-0.68211675845616
155,0.9577401343108174,2.346782763778637,0,0,0.9816833174940904,0.32899942803025406,0.21961880396435038,-1.2788521014690215,-1.0301707881739712,-0.4756508097649461
156,0.9612153761605342,2.3283345443045746,0,0,1.155583501246853,0.28792560481907037,0.11440891277465311,-1.8531005939801628,-0.9179665447087183,0.07631826986894111
157,0.9683802063066284,2.3350014370432217,0,0,0.915039586929618,0.13069094066272918,0.0016321214831497264,-2.2510175041293436,0.5903001150629344,0.2903337293695427
158,0.9768039419177056,2.3715384293079644,0,0,0.8054667011863069,0.17509551365213716,0.02216533538289615,-2.1422009957220176,0.3129569367649781,0.14040112471388724
159,0.9845378757258381,2.4380098465925366,0,0,1.1075751764495496,0.16760338759429524,0.12935338410984565,-2.8288127885345618,-0.44708661234391506,0.08162238608994209
160,0.9903386870580988,2.5296214872445586,0,0,1.1909609449454932,0.08276865416799661,0.04038179450134978,-2.3589051226898565,0.03964569024320154,0.006283144185357468
161,0.993750788835484,2.6372207522263964,0,0,0.9416043832789804,0.27065232357457464,0.05714634532545227,-1.4999713850129262,0.2812869357273484,-0.017893346656367347
162,0.995044400146817,2.748397664834335,0,0,0.8646418008753605,0.29435399754148184,0.008078328706201635,-2.839505007184257,0.02411622574540278,0.10817032148224151
163,0.9950283864631856,2.8490789137255788,0,0,1.0055498094302258,0.09814333267453919,0.0006787937215167573,-3.344373778460504,0.06060627565753595,0.1634824008437122
164,0.994783273287933,2.9254206765816977,0,0,0.9445605380597117,0.0590113837699373,0.15637166705244585,-3.0361703189329434,0.6933175618489926,0.10998195274007291
165,0.9953751653570221,2.965707954391646,0,0,0.8058116391546847,0.08511239548036979,0.2558801789828042,-3.2415073514173263,0.4673465910613615,-0.005440437639052795
166,0.9976093943483756,2.961931428798381,0,0,0.8636106619548618,0.07440026687717737,0.27533841186255953,-3.4523576499814097,0.1556447995960574,-0.034281510168087954
167,1.0018672721747701,2.910768795870471,0,0,1.0160715261596016,-0.03816093227255739,0.20324619159679155,-3.320242524681787,-0.3760039673363297,-0.1429137968337275
168,1.0080446768401283,2.8138193820874124,0,0,1.0865068029324412,-0.06840801862302541,0.1912411009395722,-2.6784815415488397,-0.6428568922867475,-0.33868777429372243
169,1.0155838529876209,2.6770906517749045,0,0,1.009395622659361,-0.11945069997632062,0.07347816902361974,-2.56893052484634,-0.49769517188778467,-0.2829498217690654
170,1.023571233738429,2.509882208265748,0,0,0.9817408861823059,-0.15629401009787078,-0.041869769733193285,-2.103306480115604,-0.3230349421689179,-0.261650384217781
171,1.0308714351553352,2.323321529334366,0,0,1.0251031115247895,-0.07875635732271112,0.027585176750812075,-1.8789253307990057,-0.2345364059919079,-0.23177947666819204
172,1.036275469847856,2.1288441450407736,0,0,1.0530387733867077,-0.07453899384587383,0.07143170762288145,-2.054606822762726,-0.11947236818156991,-0.23488479477749905
173,1.0386488442547006,1.9368729713125263,0,0,1.0462192411833886,-0.04205624448298278,0.10445784758465436,-1.7465492865989205,-0.10208428705305214,-0.2479509705026836
174,1.037068182722546,1.7558611967546065,0,0,1.0346631547777023,-0.017293200302223245,0.07775242966680936,-1.7206134469085477,-0.22481085832437064,-0.21521623967010015
175,1.0309363452555484,1.591760186868209,0,0,1.0326346301953178,-0.046291341789025824,0.006282407579102522,-1.598731876022004,-0.3592528771626438,-0.14459367245296723
176,1.0200686695329593,1.4478909944999314,0,0,1.012005289418477,-0.10223685326223354,-0.035692784684263,-1.4095177125759277,-0.1168040450431958,-0.09474341037251179
177,1.00474642890992,1.3251473562219211,0,0,0.9907743120951656,-0.1378111731320492,0.010617724272542503,-1.277984429138645,0.015897526097234098,-0.14223273582435733
178,0.98573612084261,1.222434748077621,0,0,0.9838590154230566,-0.15064892485441975,0.07032409210454328,-1.4242002423105435,0.07191789044419294,-0.1940373953338316
179,0.9642742824182062,1.1372443784016206,0,0,0.9381776401653824,-0.13868222458970553,0.0900946231661245,-1.2379393782469315,0.1708921779641302,-0.22583545392187016
180,0.9420177555529207,1.0662681597155341,0,0,0.9192484483651405,-0.07015361236158642,0.10362805205522262,-0.9542689244644472,-0.08982277273896531,-0.22328062262479878
181,0.9209591736388674,1.0059817547720924,0,0,0.934279644258279,-0.03854188059990756,0.06691884558004507,-0.9687507101392878,-0.1778089368586905,-0.17157011690926463
182,0.9033068489377148,0.953153607366747,0,0,0.924962223227467,-0.04689112768557852,0.02040808560974729,-0.8959792065936928,0.04202089475070155,-0.09094164615975504
183,0.8913275357748178,0.9052641367975905,0,0,0.9153213116781094,-0.0850396709854994,0.02514291129697734,-0.9069779226909483,0.2126837668700115,-0.06947264334939748
184,0.8871514429624153,0.8608295660280738,0,0,0.9456915228599583,-0.11179895297411692,0.057684381281662506,-0.86697600398336,0.11877539852351937,-0.13354317956581727
185,0.8925438186706699,0.8196221381900891,0,0,0.9677952361601139,-0.10334946612599083,0.05894986234477558,-0.7555241827394578,0.05159971022558403,-0.18712124719393095
186,0.9086582127247401,0.7827730601130244,0,0,0.8799328309178833,-0.042172719303350766,0.06117256437380506,-0.6286455630441513,0.24649494207089015,-0.14257816052817535
187,0.9358027965195636,0.7527412998579538,0,0,0.7565678025221712,-0.05069707715254636,0.02734421298675656,-0.9095595542832127,0.33316054851450055,-0.029502504983651118
188,0.973267541902615,0.7331292734297152,0,0,0.8109657332273948,-0.12350177946372375,0.026133297390241235,-0.8428068185623957,0.21616105142386702,-0.010504069557663033
189,1.019265082299783,0.7283278522023168,0,0,0.9705799335283288,-0.09222936269515704,0.08629158808378157,-0.5587991172118352,0.021445219594179447,-0.12072257429899055
190,1.0710213717870025,0.742985337701966,0,0,1.0960478908331126,-0.08690882161806217,0.03803766522007641,-0.6939223449626305,-0.41561699670351626,-0.24180796903932464
191,1.1250165577075852,0.7813186175553523,0,0,1.1555355663183244,-0.10860955980434782,-0.011925286575842265,-0.9379204404951318,-0.3482131371680617,-0.2808820910345825
192,1.1773383470798717,0.8463113202210787,0,0,1.166329497428504,-0.14628052610020456,-0.07302396643815888,-0.9546040531757929,-0.2803490451745285,-0.32919225216239456
193,1.2240860580387707,0.9388728111500448,0,0,1.2929330689343157,-0.17475288387237475,-0.11688034000820621,-0.7302587839308772,-0.4878509719827643,-0.422841817812643
194,1.2617581632191062,1.0570738628050083,0,0,1.4061977958570562,-0.22351773231750216,-0.20167297793463976,-0.5583893169696588,-0.31845279126487896,-0.5064552277517386
195,1.2875657174752242,1.195628235523845,0,0,1.3017830295777184,-0.13740793983127372,-0.18231270294870025,-0.25537736649033715,0.21901859663742698,-0.5073599964540144
196,1.2996355443147043,1.3458251026953503,0,0,1.165031295729619,-0.014557972505676916,-0.11526845649472435,-0.6714658975094845,-0.049822527990414,-0.4286509505199657
197,1.29709666428404,1.4960943126885622,0,0,1.1498528366919196,0.07361552264572473,-0.16935718869301836,-0.852421986063804,0.020376461812646292,-0.34411769061502423
198,1.280069249480299,1.6332794247235107,0,0,1.258892915861008,0.044822419467677704,-0.22356823145056356,-0.2390347954978596,0.0939340575557495,-0.12160806742245733
199,1.2495827688050294,1.744503642080942,0,0,1.6647631690037539,-0.07770381860396187,0.2660246207063181,-1.1004176606133402,2.43776776627627,-0.02349046981582445
200,1.2074400769301805,1.8192746837157951,0,0,0.7452754885641126,-0.21600923056125457,0.591427929910509,-3.897865427315744,3.822198206927066,-0.587869254820762
201,1.1560375692957852,1.8512827229824387,0,0,0.5764371830642744,-0.11920566770256968,0.858036036947498,-1.553867744789641,-0.7493765518680406,-0.7322252233161662
202,1.0981628908638774,1.8393579779710338,0,0,0.8652608048666,0.16355466197777999,0.6392439514993965,-0.13698069383192812,-0.6572129452960981,-0.5415143667415495
203,1.0368081852086815,1.7873459043016802,0,0,0.7490817924119955,0.20795175422832152,0.26062384189409726,-0.900366145223507,-0.2765873495013895,-0.5149114936689528
204,0.9750345873199681,1.703068574701598,0,0,0.966583708589901,0.20649558112888977,0.3757110819528433,-1.4149359223286644,0.11145552437209433,-0.517561951615431
205,0.9158976943198931,1.5967963873493,0,0,0.910107718847859,0.19149392651054772,0.41297582929323284,-1.6024154310613061,0.15688154651485034,-0.5306790928772585
206,0.8624103190840655,1.4796491187408432,0,0,0.8545990345054815,0.1760739770416461,0.4434455751988382,-1.2475890477826894,0.2524026228959734,-0.41861205922592976
207,0.8174978536663211,1.362199711252123,0,0,0.7733689700867851,0.11277085599547752,0.34814915696202237,-1.133832083974745,0.046588273492369374,-0.32007242049820334
208,0.7839041646774434,1.2534190642369347,0,0,0.7864539061989863,0.03593185747873251,0.23584844821860218,-0.9571417542375029,0.11441701619610037,-0.24957597556696223
209,0.7640293291211717,1.160018195759539,0,0,0.7179041486312644,0.06497245133723333,0.21347065667764842,-0.9743327028719652,0.5031738425626207,-0.24245787548412848
210,0.7597111554758288,1.0861848578806719,0,0,0.6845085368395183,0.07455367200550377,0.25039297854632153,-1.2306652544049521,0.5566229215973083,-0.2893441391825952
211,0.7719869577752931,1.0336536679814852,0,0,0.6625348212611993,0.034215911862943135,0.2801046784422084,-1.0341946719332087,0.47496866458199205,-0.33691981930220305
212,0.800884326179016,1.0020066663883478,0,0,0.660632718819098,0.05376118208235088,0.2732211780824348,-1.0782412668390395,0.17443097432458635,-0.364393967645641
213,0.8452890247764596,0.9890987187993664,0,0,0.7266875753371715,0.16751662181198892,0.18191227109791064,-0.6224978936258423,-0.20834898051050604,-0.28890038694770553
214,0.9029259365371922,0.9915372610506421,0,0,0.8589953976078513,0.2587172575509368,0.15875508602445434,-0.5106659748968312,-0.3656187712893269,-0.09892526097251787
215,0.9704680218679709,1.005184641850685,0,0,0.9608993376222663,0.15974573410125079,0.0936911514004087,-1.198368950788827,-0.24527433429868906,-0.05945336650958547
216,1.0437642696517004,1.0256578837083694,0,0,1.0187237551618076,0.03081885502176799,0.04387551560017957,-1.4282570695351346,-0.12700880193310657,-0.20841125566731653
217,1.1181578455449723,1.048775629648796,0,0,1.1616784115976173,0.05198291415367298,0.11006591084800511,-1.1510048681937972,-0.10428014854030696,-0.32769188921375164
218,1.1888545284235867,1.0708856973354337,0,0,1.2084482396275424,0.20318765239146475,0.13681415294768728,-0.6692588415708063,-0.34497060490704257,-0.2954565241908438
219,1.2512990050733812,1.0890328356297745,0,0,1.2355405660399719,0.2496902144097849,0.07197772965255232,-0.7222338370687317,-0.6141082494278918,-0.14927943024148835
220,1.301520921121529,1.100979328647339,0,0,1.3131420890987924,0.18945682471224903,0.029294785952684116,-0.9919264719559405,-0.7619623126461503,-0.052218472262201596
221,1.3364220498304025,1.1051268639433598,0,0,1.3559254189946828,-0.012089143927798448,-0.055411428643949795,-0.7989886932558479,-0.8763135374934335,-0.04861830343755894
222,1.353987788457715,1.1003900261855761,0,0,1.2903439569744657,-0.10993207794068091,-0.13770018511139726,-0.46660141615669165,-1.0134190511880252,-0.13242556897414698
223,1.3534166543202084,1.0860629088707718,0,0,1.2393289361091746,-0.09516701346554066,-0.07893087170469842,-0.06064079318613636,-0.9305048639064092,-0.20774000083507102
224,1.3351663350241785,1.0617228562421293,0,0,1.2190419889855724,0.09352775885610314,0.2058248242796928,0.17690616662922826,-0.6591697104424409,-0.11388661838419235
225,1.300910436202572,1.0272213246664592,0,0,1.525210431476419,0.13964577382234974,1.0663352169545308,-0.2570765650884146,1.1211547139441895,-0.054590083819182615
226,1.253390331529121,0.9827972893946347,0,0,0.83981715431478,-0.09825392465718598,1.238427427176627,-0.21235306085679895,-0.05194380879200234,-0.07903469890809262
227,1.1961505913614348,0.9293017987586475,0,0,0.6368762961347963,-0.14344478252549858,0.28599503308679963,0.7730314057629417,-1.783632431223946,-0.06366126829610703
228,1.1331820944615714,0.8684568645270173,0,0,0.696450505091225,0.08415336187069265,0.24178105168580366,1.164263330839099,0.40423774568694637,-0.12858846368978566
229,1.0685457825151183,0.8030258882797834,0,0,0.8401427199935715,0.1702991174856948,0.49837883677893746,-0.2613752393831214,0.5163728565201933,-0.11077413899726737
230,1.006062374777215,0.736788174269185,0,0,1.2060406429172414,0.1030613795809709,0.6810656522052534,-0.613232282441673,0.6332758405948086,-0.030795661989671444
231,0.9491079090066484,0.6742888917550464,0,0,1.0293347176797478,0.050295701276024125,0.44579657430849917,0.18580433934042964,-0.10480410772500627,0.02313160416393584
232,0.9004928515949532,0.6204253971873086,0,0,0.7722840760723455,0.028597728084990975,0.23281817847368985,0.8259722823751657,-0.0050259061516379835,-0.06098698119973472
233,0.8623799518111299,0.5799750252845938,0,0,0.713044496361878,-0.0470614345165267,0.1521934801384184,0.4066392072220971,-0.22850606433129128,-0.19328913694860447
234,0.8362205234704158,0.5571612733059298,0,0,0.8227673638775825,-0.03680286760945039,0.15790183828770982,0.1667621243123309,-0.36686500177443776,-0.22711094696909137
235,0.8227220269406987,0.555324600512425,0,0,0.7994127813196891,0.025971908701676455,0.16810994220836833,0.14053718912793794,-0.2305067763992221,-0.16413938346624612
236,0.8218694517138694,0.5767336799684336,0,0,0.730469157115011,0.12622167026390663,0.1756826189373015,0.17719407871431192,-0.42524492104045997,-0.1500295248068877
237,0.8330104190385982,0.6225411358131265,0,0,0.735569028004482,0.13943284754498017,0.12374180240851006,0.007118337343315387,-0.7546104320646465,-0.11110805040136347
238,0.8549953189862062,0.6928472513698173,0,0,0.8738613699541977,0.010716259817381866,0.06673275788564016,-0.08768440240722354,-0.9682805390790332,-0.025992514728075757
239,0.886346857478149,0.7867967913782055,0,0,0.9943854026899241,-0.12547504082643152,-0.0215471007091092,0.3696412241916406,-0.7900931656834259,0.03303449268677806
240,0.9254192207742242,0.9026230240900164,0,0,1.0307942763113447,-0.21830178027665095,-0.07551615655004543,0.7200781261351319,-0.8621524830393972,-0.03384047465456769
241,0.9705014594431904,1.0375825336183933,0,0,1.062266308160435,-0.22732946209271557,-0.09944109867923559,0.3570042996236538,-0.8188775102702401,-0.11039924650437083
242,1.0198316263568115,1.1877817234515728,0,0,1.0494265951939263,-0.11902397361877395,-0.13001997796605028,0.9288724384391844,-0.6103621636585435,-0.04279603732307696
243,1.0715193438435457,1.3479530701203741,0,0,1.0010125103182395,0.06138889524665718,-0.020954845151396492,1.0958040618104334,-0.8181075842929888,0.03998492038180271
244,1.123414760593613,1.511273682654587,0,0,1.04084142708335,0.10652351025978009,-0.01928074304602886,0.4768570003442973,-1.597495813146448,0.011998516667631482
245,1.1729949889649607,1.669327539896642,0,0,0.98718062747732,0.16990022351083042,-0.12568918704141258,0.4222884111912662,-1.4947112624328094,-0.1507560077557133
246,1.217351171600208,1.8123099708013986,0,0,0.8857636360835247,0.19413849548088,-0.20385562231893245,-0.00879630669799626,-1.3826677219580483,-0.27307074432018724
247,1.2533429446170066,1.9295672773327783,0,0,0.8653577792523417,0.05998662683916035,-0.11342820415046304,-0.3502732815722151,-0.9618703669327535,-0.2265990973105928
248,1.2779398167036327,2.0105352665285556,0,0,1.450225000658852,-0.09129240128941438,0.139826743932541,0.6002132677879916,-0.4694537903038486,0.11165443814915461
249,1.2886959741637503,2.0460468298047583,0,0,1.7750500430986875,0.30016471129777456,1.103246374613289,-0.30098920718539235,4.837205294445881,0.48313678805540616
250,1.2842323982192159,2.029817413938888,0,0,0.3659556382251993,0.49817590874927264,1.2076217294238623,-0.7247470743174307,1.1038570784441415,0.35954149731609547
251,1.2645750370007633,1.9597741711240626,0,0,0.8975328064849981,0.3287253448722005,0.3159331839523907,0.835146807143117,-1.8129562256190295,0.5144156502237001
252,1.2312471192969732,1.8388814214318019,0,0,1.149866852061003,0.4073308963005838,0.26848876300247654,-0.7015158783275924,1.6842768080113266,0.8955560024183291
253,1.1871047156152954,1.67523561195303,0,0,1.3481316658268643,-0.21622840926391687,0.34678401202803266,-2.6917956198057116,0.5600549576491964,0.5843240461038591
254,1.135975993120427,1.4813606233023182,0,0,0.9774099963652427,-0.3807157015204313,0.23066061339993646,-0.7999988857663454,1.2687529510495101,0.0890502620278198
255,1.082193437887869,1.2727760921403428,0,0,0.6610853780763586,0.0965519836358698,0.20455338816951735,0.9791605286934273,-0.000504428068806098,0.0901593857002239
256,1.030113671222403,1.0660572826413413,0,0,0.8479977918407888,0.15553857160210988,0.167467424883194,0.08022762031536551,-0.24336440120292666,0.16032779182309756
257,0.9837112627630381,0.8767401722888534,0,0,1.0046441667117532,0.17044028559078447,0.10096684772209275,-0.03260417402893348,0.05377446237903109,0.25212256547067785
258,0.9463001549254658,0.7174743093752007,0,0,1.0564854227568223,0.14791354967003736,0.10153830184083656,-0.40657541591508556,0.11514628002639427,0.23378804110884735
259,0.9203828138571507,0.5967428948075069,0,0,1.0029766448757302,0.0743336240998628,0.07020641942519598,-0.6635344073733438,0.3525441552203855,0.052441225244238644
260,0.9075824772309254,0.5182950599604561,0,0,0.9635361036457876,0.0673328535669409,0.11526788228503593,-0.5845795449619514,0.3314438455482012,-0.0935881580752135
261,0.9086022811338634,0.48125940280140883,0,0,0.9930381621995932,0.06629981504648248,0.0896646272934662,-0.3275179073022528,-0.09069050957005471,-0.18760001971677384
262,0.9231746002890326,0.48079885736443495,0,0,0.9600768871692278,0.04153877306579145,-0.03995770107494815,-0.026136742742158384,-0.43524438464428045,-0.17141524006217093
263,0.9499975428206817,0.5091327673991038,0,0,0.9244760930223499,0.030253044801043884,-0.05637875267547326,0.08657105965058194,-0.5728246091751421,-0.11893998777210908
264,0.9866887709417665,0.5567570402890994,0,0,0.8048240514112893,0.059851071396221214,-0.04053872475349652,0.18626003035242164,-0.5516727131610353,-0.14535134974108718
265,1.0298102655040733,0.6137044556833231,0,0,0.8053695915059231,0.13474724506395905,0.0977732266343014,-0.19949103093382684,-0.6611738674075641,-0.06879072409693253
266,1.075021712294324,0.6706983524029334,0,0,0.9034945303039598,-0.011004779559739126,0.1854247594842151,-0.9375015554968716,-0.6343883253815223,0.06407219604145642
267,1.11739698034777,0.7200742960147586,0,0,1.0996193969725878,0.051260184238374515,0.5581421333962454,-0.5767730734263569,0.24020235572938026,-0.03501061445487683
268,1.1518915325863228,0.7563851019887888,0,0,1.220331383076691,0.013981348257951417,0.7833583674005329,-0.25019269933572474,-0.28307201649273167,-0.4435781082859547
269,1.1738998304721184,0.7766613979637184,0,0,0.9854351157185467,-0.1322935157844038,0.22939463120248954,0.27938876857701744,-0.9521099106444971,-0.4912954073611124
270,1.1798172820179542,0.7803546399825023,0,0,0.9636701151909275,0.02563033554787181,0.1895238594377895,0.5363619399709847,0.12005374711070031,-0.4640861108239692
271,1.1675273746640842,0.7690260739812348,0,0,1.3737107950587526,0.146457404945155,0.417484109089339,0.17008501427401035,0.2248590105289951,-0.5061889443893528
272,1.1367516249365144,0.7458652908377092,0,0,1.3533437801285995,0.11720109384209103,0.4507243610733499,0.5480748551680149,0.265013347874295,-0.42831270430498924
273,1.0892117741168108,0.715132637312852,0,0,0.9414753635262302,0.14137283468100345,0.27891139896546946,0.8086142810480624,-0.42487753436238385,-0.2625877401555247
274,1.0285703936582569,0.6816194798035672,0,0,0.9235754032228847,0.0999679815021874,0.16176982712882415,0.008757360975267995,-0.2187108485979574,-0.040740297968440184
275,0.9601502304900312,0.6502087511268638,0,0,0.9042084150521033,0.01611563086699906,0.09484902690172811,-0.11652826250913312,-0.06937467965425528,-0.029601653554515436
276,0.8904701217697867,0.6255940192581404,0,0,0.9153954392755235,0.04164832508592349,0.13210033156509318,0.41437256456295835,-0.34502947970220127,-0.13554625319423388
277,0.8266524534102025,0.612164107221698,0,0,0.8494803398587416,0.09587259070906808,0.12420265930645297,0.6887441153479593,-0.7872307529551875,-0.20522788546126247
278,0.775752392338354,0.6139779478206886,0,0,0.8047770040418871,0.09856262870176591,0.019335054220484447,0.6792359350091351,-0.9548478764257591,-0.15013812421032888
279,0.7440502062795644,0.6346819649839748,0,0,0.7844632416128472,0.0782714283806498,-0.1286953792270076,0.7439454717724291,-0.828752718125706,-0.08568529659888953
280,0.7363485755567519,0.6772239387483021,0,0,0.7854382210281233,0.0500268796972139,-0.22204786759386572,0.797349481344062,-0.51634260903022,-0.05463318440488717
281,0.7553283197879538,0.7433171999093935,0,0,0.7607418891878769,-0.016882957633630017,-0.2033106279868655,0.09969088677494871,-0.0042353434478470215,-0.07774683811723175
282,0.8010343939709756,0.832763272799519,0,0,0.6405470695978434,-0.07863400609628342,-0.13826394065377762,-0.3489768289779427,0.17963770430772932,-0.17577859127306952
283,0.8705835999884936,0.9428666541770725,0,0,0.6227463505288,0.028254245000909044,0.07894213920656148,-0.32730904707134534,-0.20111344112322288,-0.3437260916875626
284,0.9581953395782675,1.0682036363228624,0,0,0.5227503308780976,0.13628108603785308,0.22837422190062792,-0.09412520569694724,-0.5537730677633835,-0.4866964987209379
285,1.0556303314723796,1.2009258457922098,0,0,0.6097456451174089,0.1540038083706184,0.2663980792375372,0.4578905503980879,-1.1501589297158172,-0.4310262048665262
286,1.1530648065527775,1.3316338106150183,0,0,0.6749070041824672,0.05288703251703984,-0.011338541510387464,0.48185479777653595,-1.073209597923178,-0.2974292012445757
287,1.2403268240197403,1.4507094114366965,0,0,1.8924920107005625,0.4678654866018104,0.5040636297894219,0.9841706658134375,-0.19727466905846772,0.3274472591153445
288,1.3082986894082456,1.5498872083769097,0,0,2.1390523937800365,0.8673594321549792,1.0977377878538659,-1.4415652972278985,1.7361847411481943,0.8056535258672165
289,1.350201105325552,1.6237783704862825,0,0,0.33142633711481395,0.5727292669765206,0.38480283034940693,-0.7127674801774595,0.21764961373301803,0.7378013379310409
290,1.3624868361994056,1.6710314630371061,0,0,1.350686950851758,0.3317233491499038,0.2102041992998727,-1.8175765760428673,-2.134141271859097,0.8270541229848932
291,1.3451911203664804,1.6948297733834183,0,0,1.7676240082374322,-0.3142010533187657,0.06239103815929471,-3.376921051535582,-0.01726761080684977,0.41091036499801964
292,1.3017366147371197,1.7025130810208524,0,0,1.0771329335270452,-0.23705040933010713,0.0016697612061720053,-1.0164531603288158,0.5091577368460576,0.17077213266945948
293,1.238295253202761,1.7043015411766185,0,0,0.9519264412664954,0.16082315163714242,-0.03289857216448416,0.5846595185629352,-1.0662037018743924,0.016960936404090594
294,1.1628592154641908,1.7113632305963922,0,0,0.9955126993406975,0.3596934082771607,-0.07275333728365202,-0.015744080771142553,0.16011772547987702,0.02422636867572203
295,1.0841886963774645,1.7336821412486603,0,0,0.9952141257068822,0.34494523369791347,-0.060055008986576064,-1.5781886085475334,0.46146204712231087,0.03129001802265001
296,1.01078808400097,1.7782138193558852,0,0,0.9865799921744922,0.23826744687708631,0.08555407000721181,-2.296318959298952,0.5147211617277061,0.03109045835902308
297,0.9500195658142085,1.8476540615014532,0,0,0.8887258548177035,0.15433410427153876,0.15433136533638023,-2.0644166113047517,0.37551043914115856,-0.12215639689309346
298,0.9074175597724816,1.939929226330745,0,0,0.8513478443951402,0.17427899062778549,0.12773701497594758,-1.3669076011994916,-0.37020171457791273,-0.24784647549041847
299,0.886236974265737,2.048386455158509,0,0,0.819461379101103,0.1830891053850693,-0.008840747283560999,-1.6985976256974864,-0.4986987038955292,-0.279588239426119
300,0.8872515983297103,2.162636183750551,0,0,0.7772344801446249,0.23419077184150788,-0.13164006131539993,-1.74219683162801,-0.39926140125188886,-0.2474232021899493
301,0.9088059785317111,2.2699926669241464,0,0,0.8108335363011934,0.3321652676643298,-0.14676146442083207,-1.949383207963162,-0.4243944314061135,-0.12321862732516191
302,0.947108890130889,2.3573993343189334,0,0,0.8695648008875841,0.3133474341905132,-0.18840868137218855,-2.352764778516569,-0.3964609560181374,0.0060935360279589105
303,0.9967387692395464,2.413617687180054,0,0,0.8984881980452775,0.21055886592287681,-0.19439219214671158,-2.600563295745034,-0.23148860662223172,0.03589000397985256
304,1.0513138823717871,2.4313477395509566,0,0,0.9107169574415421,0.12926274292742948,-0.133960164490728,-2.9749456546566417,-0.09005056304062958,-0.024396818966524448
305,1.1042634722400868,2.4088817870851065,0,0,0.9903904077040923,0.058382462584327006,0.029671646949528025,-3.1214163010022986,-0.16382389718136856,-0.21436272869763714
306,1.1496172648008944,2.3509059760204525,0,0,1.2968686691931506,-0.07554397220449173,0.2869019949170635,-3.2008069365948013,-0.17817334433712095,-0.4832299680010752
307,1.1827080042337506,2.2681754412038666,0,0,1.7355043385349294,-0.3563629194488908,0.4669081913639069,-2.95013293102011,0.15329697418717805,-0.9506569044192758
308,1.2006683160737088,2.1759977529734225,0,0,1.3570260657393702,-0.2623099412032208,0.40126846078078293,-1.3155227011832593,0.13881414796299296,-1.037570066226962
309,1.2026271229059646,2.091731932078768,0,0,0.7898443195775608,-0.03259928230506348,0.22410122359949916,-1.3139896561097313,-0.4734426115305128,-0.4901324953255726
310,1.1895850559653762,2.03176934593822,0,0,0.9553023391161578,-0.07309704718260046,-0.006657889119308027,-1.796994541569413,-0.712454825618901,-0.24846878927598653
311,1.164039859467786,2.0086140278883486,0,0,1.0920264920293081,0.1338513612544104,0.10220629792125784,-0.4090090411980033,-0.284238718844565,-0.24101676492636498
312,1.1294834793083044,2.0286699670573807,0,0,1.1740382061276073,0.20498171075070365,0.22136209180589414,-0.9736925807771986,-0.46140986154244623,-0.29200470038714466
313,1.0898791097732192,2.0911814311878283,0,0,1.1728468271263581,0.13249014102563444,0.05137336280814406,-1.899750185289019,-0.38244271560439463,-0.29943006811970135
314,1.0491812985079894,2.1885019062861613,0,0,0.9982228025115912,0.24571878139124972,0.05257304419682722,-2.320927897172826,0.23777455866087654,-0.23137817308387545
315,1.0109300523939382,2.307552638775758,0,0,0.8061264514492383,0.2461774596993479,0.04834836098232444,-3.126188662814025,0.25660022111972436,-0.09676620024399642
316,0.9779433768234792,2.4320709403911174,0,0,0.8261425286518832,0.1384871444062069,0.02627172228229778,-3.0017443682736995,-0.42769788171147094,-0.08524431112637568
317,0.9521332040778678,2.545134208026677,0,0,0.9917822797918618,0.06821175219350104,-0.012450016299654677,-2.6527121439183574,-1.0158663863976318,-0.11303171367377571
318,0.9344565949522791,2.631501439215819,0,0,1.0276093744599102,-0.020372948173940565,-0.1725210724517651,-2.2670278515727436,-0.7355801650216282,-0.11199469690563887
319,0.9249871692855081,2.6794790079878466,0,0,0.9388029388803533,0.030777309848350757,-0.24607518560117145,-2.2446339124212145,-0.10431359553435429,-0.14383662099626937
320,0.923068692557519,2.6821891330360277,0,0,0.8811496285108912,0.044915244863724786,-0.2347545500184198,-3.187023355388776,-0.14652113914068854,-0.18591001784087852
321,0.9275085991319926,2.638220561476564,0,0,0.9202186525536991,-0.0269590038904754,-0.20348174882522177,-3.007089181212206,-0.12398891108975613,-0.32458360564150374
322,0.9367815368509337,2.551669909837035,0,0,0.9034778713675214,0.04299859999259807,-0.08365600612281453,-2.3129176749627978,0.31070210494184036,-0.5114530817944231
323,0.9492283073102002,2.431597222357618,0,0,0.8733010008854865,0.13919923396686557,-0.02659863113678296,-2.3375401470648476,0.2539117185219951,-0.5861420757908733
324,0.9632436370268956,2.290963478556376,0,0,0.9210496218361046,0.119090749708931,-0.029194037679597447,-2.1715816712494123,0.09463814943201172,-0.45347208285539864
325,0.9774446042168614,2.1451742946474983,0,0,1.028154873808335,0.011202889578807562,0.020087845111510204,-1.9213295406696724,0.09795045689857451,-0.2386097808901062
326,0.9908029450697118,2.010384219122649,0,0,1.1707122767691893,-0.058800511599525894,0.15001021725700528,-2.1650361560460074,0.33294036167061225,-0.12675838206517265
327,1.0027164600581162,1.9017111931734667,0,0,1.0812484676216292,-0.12832965727852594,0.18191945415320024,-2.336606093791151,0.9647061250500445,-0.1330282851369628
328,1.0129986397479172,1.8314968240721872,0,0,0.8765154352446284,-0.05642856465300086,0.22377700156348854,-1.5438060708518149,0.4391156582047495,-0.13280535685799896
329,1.0217869672875204,1.8077589060519637,0,0,0.8326352559965764,0.10278369790030256,0.24762367957030126,-1.3224547977067258,-0.3216650370850103,-0.04199449519533103
330,1.0293986957447656,1.8330253218536734,0,0,0.9407242477891987,0.1361407584744563,0.15838615359245836,-1.5335514492638478,-0.4009126827077466,0.06614148540536237
331,1.0361775289910755,1.903774524934011,0,0,1.098260168701422,0.2048026288092615,0.1382642102836208,-1.2190723915381427,-0.4426639094499156,0.013932828820395664
332,1.0423653177495835,2.0106828491552418,0,0,1.1024567318383256,0.34690407911480176,0.13498843599617857,-1.1946858333089247,-0.49535614428521424,-0.14396429072148934
333,1.0480117988691235,2.1397711919743547,0,0,0.9743453472098804,0.4668815727359426,0.04827922985560698,-1.8375507450833477,-0.4550793187854712,-0.10088743075287072
334,1.0529244271660239,2.274370358126616,0,0,0.8468768543071031,0.39257785803641043,-0.09358841589984031,-2.461218181698645,-0.10747291026044213,0.08051987266831358
335,1.0566678466621842,2.39762366864315,0,0,0.7670166053401732,0.23233090804092066,-0.1029813762291662,-2.8828294923918607,0.17368437492538233,0.1559101271573435
336,1.0586345443221306,2.495074113793618,0,0,0.8428491577511757,0.11184161003949757,0.04665045868589747,-3.4800385520305603,0.26025881763835035,0.0855083446603224
337,1.058201220679311,2.556808203724565,0,0,1.1189539695270005,0.013652077023464373,0.223451113866661,-3.3632233831028544,0.73598384627715,-0.08688184360861007
338,1.054948995558222,2.5786954503571535,0,0,1.4062386043098252,-0.04214439953124329,0.3986464314910939,-3.066941622101158,1.0842867971068575,-0.4091647004007426
339,1.0488773274352563,2.5624696587298543,0,0,1.311053535975606,-0.08521261243850345,0.46338207700187123,-2.1037878940342574,0.8135479388063525,-0.7432456904455149
340,1.0405195989487381,2.5146909268138367,0,0,0.9035226210921736,-0.01093613396228916,0.38264337383753055,-1.509859825429453,-0.01577379044904749,-0.5391365639528277
341,1.0308999927846227,2.44490720739564,0,0,0.7323193567115329,-0.12291477059345143,0.15711782601065602,-2.3767112159486494,-0.5827962898836396,-0.26361611683416825
342,1.0213423736380713,2.363499641251954,0,0,0.8610771661623293,-0.09525543724781009,0.04067530028815692,-1.6062307305390937,-0.886231187237248,-0.2865838959405322
343,1.013203570072604,2.2797031585789425,0,0,1.0183614657019817,0.10700608154269382,0.08019841470264097,-1.2056585952031056,-1.1797597378273195,-0.2420987503186444
344,1.007616805531047,2.200180064072727,0,0,1.055426686280076,0.04005729436155624,-0.09549270726528748,-1.6506973612846876,-0.7075893361625967,-0.09454976417945321
345,1.0053009923378682,2.1283546257445245,0,0,1.0493859427978165,0.017015457811395587,-0.15794685031237735,-1.7033463963108932,0.1926441202303181,-0.09864650213585427
346,1.0064532362276453,2.064528703801156,0,0,0.9224911066616385,0.08927725253246685,-0.018813833263877165,-2.458201517514322,0.46708307327802456,-0.11568511394797165
347,1.0107215918279515,2.006613819040266,0,0,0.9300127940529286,-0.004241123772860067,0.06357951113149365,-2.859488065139383,0.3709343851944711,-0.17866898845812246
348,1.0172520065204511,1.9511773589074555,0,0,1.01142963165994,-0.03361575391971963,0.19523075136725632,-2.3532140099201317,0.30909749496485717,-0.27430611387947773
349,1.024802095802101,1.8944681268510557,0,0,1.0402573166793352,-0.0470873571824369,0.1939370977519008,-1.9077688140320095,-0.18566496912277738,-0.2846759168876632
350,1.0319061642995728,1.833179686924647,0,0,1.0650774005169068,-0.023862828072460537,0.12219294182577407,-1.4076303840035844,-0.6058430332564074,-0.27444110062003274
351,1.0370655964890998,1.7648753835272875,0,0,1.0696862230079534,0.018205199355660187,0.06721934145628983,-1.3257931221873105,-0.5576038789312556,-0.226941818983154
352,1.0389355501428192,1.6881405705787165,0,0,1.0637437823661515,-0.010962265862818711,0.015530921779674623,-1.5251715662474277,-0.13605692370030434,-0.16960546607440713
353,1.0364855237700252,1.602580515953715,0,0,0.9979280785690793,-0.020592652201356008,0.06682966811694037,-1.6706413035823275,0.3376929121683921,-0.11570861650076786
354,1.0291231764409183,1.5087518700480504,0,0,0.9630115910202444,-0.05467526877067919,0.13296351185488536,-1.777715252998297,0.2704988684159834,-0.08938475672868479
355,1.0167806924763174,1.4080552013460883,0,0,1.011484424241181,-0.08786803517724662,0.1631260341210304,-1.4239666319802315,0.0569925118978258,-0.09837382959417156
356,0.9999659088790743,1.3025801843879043,0,0,1.0108455982913698,-0.07565382583864866,0.16987396924664613,-1.134716976547054,0.0007578058967292336,-0.10882819666075226
357,0.9797763313068896,1.194901820838628,0,0,0.9900652110235174,-0.070492581766071,0.11623534471320016,-1.1313415935945628,-0.08779081721266088,-0.10176694017512973
358,0.9578683996454661,1.0878533610102188,0,0,0.9646443208600229,-0.10044062759166182,0.06741005589611616,-1.0402936548756196,0.044283016918365815,-0.06590520184226298
359,0.9363728501087069,0.98431598685828,0,0,0.9166535614773988,-0.10740674131341879,0.05345136130968218,-0.9609026765731112,0.1741890018590783,-0.0732497008877957
360,0.9177508728464413,0.8870553602887513,0,0,0.9262451794888715,-0.10208838029655712,0.05496372655868856,-0.9781117132373622,-0.003779670636536831,-0.12344290344603642
361,0.9045917906711618,0.7986144068543538,0,0,0.9675903182578742,-0.10243022063324936,0.03210851854462407,-0.7612801730986994,-0.21070050270950816,-0.16836912191142378
362,0.899358776986064,0.721257782169825,0,0,0.9549922090647416,-0.11000893418143125,-0.023974749550822766,-0.5085335278474961,-0.10400694517979857,-0.19048089993316314
363,0.9040962595972121,0.6569609780058043,0,0,0.8999431363383844,-0.12218698734235024,-0.037957873536021106,-0.43418083745498054,-0.018867306985797687,-0.20123583550737303
364,0.920124253740971,0.6074357287110154,0,0,0.8642552828070384,-0.11041096476126284,-0.008681662307653451,-0.6915877524203246,0.04702373396946216,-0.18708347475922685
365,0.9477600706571825,0.5741700653454288,0,0,0.8675899583806919,-0.13146875660338664,0.04138301026247892,-0.8761172034421806,0.03847514998095993,-0.1837116385682119
366,0.9861198169441394,0.5584389042771734,0,0,0.8673898910157205,-0.13175221301337087,0.08470051514152399,-0.607768117517577,2.3581040032421016e-05,-0.21867271236811825
367,1.0330525355777902,0.5612320122302563,0,0,0.9117381132440108,-0.09606353978396942,0.06991295352142173,-0.16921382912059196,-0.21891444447650282,-0.21967299871749596
368,1.085244719767404,0.5830674043856069,0,0,1.0101715725994762,-0.09994877309254588,-0.0015746766876576011,0.08033462008164467,-0.6042242576706648,-0.22006000298927186
369,1.138504065054384,0.6236974306638585,0,0,1.1514899773283582,-0.12428054736968329,-0.08279513281532401,0.09929736641313215,-0.9410940400193414,-0.2791007494881244
370,1.1881952707007573,0.6817479872054971,0,0,1.2232862679102103,-0.11425506503942104,-0.206544486392434,0.06615831190217529,-0.8167771705058713,-0.3181027052057967
371,1.2297675796584762,0.754357926443186,0,0,1.2812947211310195,-0.09160127926399415,-0.2811107092944746,-0.021484667387166746,-0.43827323559187165,-0.2519945264696989
372,1.2592941640517232,0.8369229872503812,0,0,1.295203361306455,-0.13954596220714743,-0.2915285252414751,0.10683415549017501,0.010599854307087956,-0.1449394714159503
373,1.2739430371389262,0.9230884763015746,0,0,1.2273431379918174,-0.11380045821940607,-0.16378680409496654,0.34784288648931583,0.48186338802761725,-0.07602319378498519
374,1.272314697138721,1.0051331894392252,0,0,1.1496503333745736,-0.09387772982973239,-0.06978536421648233,0.17063223464819757,0.4884732188825225,-0.006241807697233746
375,1.2546026129013457,1.0748060304728684,0,0,1.5598459626589734,0.040807472601524064,0.23357052838089679,-0.19942630519670107,0.4113733829660504,0.0858363325834109
376,1.2225499097704515,1.1245249427360202,0,0,1.6024932853956964,0.1627387919556604,0.4023527396913245,-0.4071752029417635,2.544435075528159,0.05897601526374142
377,1.1791942718417623,1.1486789485034736,0,0,0.6552036328646028,0.2971128085629155,0.427999520052893,-0.7917985792598488,1.923687511314259,-0.13076852668478578
378,1.1284288895429329,1.144672517599988,0,0,0.8014883651820278,0.04365677470143689,0.5249824754884265,-1.636943313662944,-0.04659697627753399,-0.11616924555126949
379,1.0744589348717541,1.1133980033774655,0,0,0.9025504703445824,-0.015460675346886965,0.5049207649045672,-0.18035725943820097,0.6151377503550296,-0.14461332293888926
380,1.0212696224965936,1.0590196266464038,0,0,0.7024274072076832,0.10376256060977974,0.37158577999234843,-0.42397582053687094,-0.20102322492418598,-0.17390794314701785
381,0.9722152487385296,0.9881910094015217,0,0,0.8138043471229031,0.09433475861052532,0.34105470084357153,-0.7902467480702188,0.2745131337799456,-0.1798800278438593
382,0.929794168573075,0.9089691016489168,0,0,0.8278020681809963,0.1788142725021421,0.45101275984148137,-0.7195416145675393,0.5860267182251014,-0.2854142813901414
383,0.8956178309407957,0.8296847308998005,0,0,0.8660534528149643,0.1910650977955065,0.40795624904802286,-0.5961614458766054,0.1845127683082702,-0.37010563862247225
384,0.8705331194937902,0.757945417056343,0,0,0.8769072869474522,0.11414688760963385,0.3483330783817241,-0.7245295223639252,0.2263547721804968,-0.3481935330022171
385,0.8548283541593482,0.6998630896130065,0,0,0.8398906546255712,0.06823780005399013,0.28218199658715887,-0.4998725906436321,0.3011249042669612,-0.18843659706532773
386,0.8484493703853682,0.659553002592804,0,0,0.8549563738066631,0.07672199213970314,0.26316323856942303,-0.45055093226019866,0.14066984718278897,-0.048159649206571814
387,0.8511679524444364,0.6389287350584899,0,0,0.9183237116919918,0.05412985935004158,0.22801776955012903,-0.46416609402344666,-0.005719997271738429,-0.08427866388349814
388,0.8626696677185514,0.6377974162054765,0,0,0.882714104942221,0.048446083632883934,0.16857177112989158,-0.44235644487138925,0.07368711693596353,-0.19780617087222876
389,0.8825543661264572,0.6542235401486611,0,0,0.807544144523972,0.03364275746319881,0.10089219958406755,-0.629820725035147,0.3841277045595805,-0.23641165227185534
390,0.9102672502179148,0.6850796640493855,0,0,0.7806245274097282,0.056459483909891146,0.12030562934813704,-0.8294040983528388,0.6649905665655963,-0.18451378506572433
391,0.9449966520931925,0.7266577695636149,0,0,0.8879254520832468,0.08348450006114387,0.19156369990356473,-0.950589993916336,0.4381258313906569,-0.19005738465367358
392,0.9855788851406602,0.7752062276867672,0,0,1.0064138066104575,0.11734526251544597,0.20639579052287654,-0.689511029903328,0.19145814933896765,-0.2474874308693257
393,1.0304388312075745,0.8273010115065071,0,0,1.0221430422170663,0.20848773628661285,0.16633047856432495,-0.4045737158878668,-0.06987836675902044,-0.25344092999128204
394,1.0775765924192613,0.8800372595390932,0,0,1.097392778513512,0.2169970538949306,0.15190237121587288,-0.7107936977419098,-0.22372038986634002,-0.21515112351739588
395,1.1245989465675574,0.9310906411333053,0,0,1.0919015089580533,0.12891281151623327,0.0794169483018162,-0.8207168563615661,-0.2661426151249851,-0.1458209171476422
396,1.1687950338425916,0.9787101678035364,0,0,1.1108827497443574,0.0820301835980436,0.09855951809869024,-1.0303696782699172,-0.4793760764854216,-0.17530999135355602
397,1.207263335140608,1.0216721943057263,0,0,1.1147007255470243,-0.05249272648361129,0.06981981254054041,-0.6545942147767342,-1.1221842804258184,-0.18267322341154946
398,1.2371014167766832,1.059189730700027,0,0,1.0823552534454008,0.08620466652150949,0.21952841478316995,-0.3196717211219385,-0.7296976226133185,-0.09184804662400087
399,1.2556625709223428,1.0907649642739974,0,0,0.8685770278487733,0.35426979452121654,0.4242188750059903,-0.7745077521347601,-0.811680949603015,-0.03551115156785882
400,1.2608605847116812,1.1159949886321847,0,0,1.5170031058734765,0.16573695582770842,0.7862002087633203,-1.1890099497202913,-0.4396115576420099,-0.1150997838261761
401,1.251471172194359,1.134366356600082,0,0,1.3684517585663594,-0.06685499196312863,1.1513578155861959,0.14524329059010024,0.7545655271938627,-0.37667899008245265
402,1.2273582178904852,1.1450861656344882,0,0,0.4669527134352041,-0.38752037896685687,0.5012682529626242,-0.3387992886804249,-1.5626204435752626,-0.2311970105553673
403,1.1895717989125612,1.1469998224037787,0,0,0.702285873513306,-0.47464837947589567,0.026152970855050296,0.4139242008452165,-0.31951320730178157,-0.11159503440629402
404,1.1403173130322828,1.138646353096496,0,0,1.0010901019175855,-0.254743711487339,0.2769636295936445,0.7209136677122571,0.3761632637382608,-0.15332637865836612
405,1.082832523170308,1.1184934410721679,0,0,1.4073555168553273,-0.04895999180168945,0.5335171320711192,0.7516013971345471,0.7071486914623789,-0.18767070458673815
406,1.021196356310586,1.0853560660514951,0,0,1.0479780612464462,0.20334154235914687,0.5642052177644903,1.0103469522938886,0.3509698613786214,-0.12928690841008897
407,0.9600569162258766,1.0389290205047514,0,0,0.8693188840722941,0.14837224361308857,0.259963661446076,1.2026440476085645,-0.9439768796151892,-0.1308082142184137
408,0.9042606118067936,0.9802858241303212,0,0,0.7381084860261063,0.2681912149301978,0.177600323878402,1.7086091170259432,-0.4139972752457908,-0.15751913454397307
409,0.8584019564261869,0.9121675916328313,0,0,0.6775801481021447,0.25381314562284046,0.1177947815453889,0.15896189893709484,-0.5942533525285132,-0.1942057664472852
410,0.8263582078838759,0.8389377255798767,0,0,0.735206273157533,0.14065178866588754,0.057488896355570036,-0.32204282419173125,-0.5588796678013689,-0.23216954655589148
411,0.8108884435823588,0.7661909756494201,0,0,0.7427957675093123,0.07047939541840167,0.072024119672636,0.06248066952385073,-0.5420433587540927,-0.22154988391553837
412,0.8133585562165285,0.7001119484793032,0,0,0.7919934254368239,-0.009887126367723096,0.0814920805528068,0.042708429380276934,-0.4952488911068737,-0.20440290516068055
413,0.8336192672953787,0.6467205627851648,0,0,0.8540180901245732,-0.06609125544703731,0.03396255583426373,0.08626150644268372,-0.6561883369202408,-0.21230790982453496
414,0.8700312570929198,0.6111184859449464,0,0,0.9977857981270353,-0.0348181949035764,0.009525020047231667,0.29350206574106785,-1.0302058671599255,-0.21779720790262758
415,0.9196103582767188,0.5968058628013803,0,0,0.9918206345975241,-0.008164900258826536,-0.06876263532277956,0.31496309004099066,-0.5962419131062648,-0.16590751419356006
416,0.9782614809334221,0.6051193286796177,0,0,0.8558341264051029,-0.025536024704767346,-0.16417972261849947,0.059001076198607026,0.03514958221010716,-0.11619248547078269
417,1.0410813902314648,0.6348656299118672,0,0,0.8948121811851655,5.019591880643701e-06,0.0375467379680736,-0.044179637439871244,0.01531331637683644,-0.1524938820471367
418,1.1027267548631006,0.6822574882114352,0,0,1.0527393446619702,0.1085635257957101,0.2847376553589071,-0.08910190085520356,-0.1437617946977919,-0.23498631415263257
419,1.1578485258653397,0.7412423754811721,0,0,0.9670466832849808,0.11739804437734715,0.28786109100966534,0.3181898127741123,-0.6078789455824016,-0.19666093732142076
420,1.2015777793872215,0.8042261256286161,0,0,1.067735587423052,0.024714465651501063,0.25126030492192375,0.9108163387781661,-1.5017134337897964,-0.03906071393410603
421,1.2300173469290903,0.8630734336794332,0,0,1.719936138026536,0.21752899054096322,0.661891902691967,0.16876186829417014,0.537659795572663,0.22540510382125878
422,1.2406643117520073,0.9101920373357293,0,0,1.0314465086176725,0.47093419685541754,0.6594366684086591,0.0876856183706971,0.8655685878524,0.30809695718118735
423,1.2326827634737485,0.9395166591573795,0,0,0.6621797579503625,0.4410018938369173,0.4671661745526728,-0.21464486770500033,-0.7304743125785115,0.38272049365183164
424,1.2069773930675407,0.947270301458787,0,0,1.0635363994637526,0.3494013425834038,0.34623837717518907,-0.506445760276964,0.17899685168500462,0.6523207385460189
425,1.1660694653931074,0.9324315260613709,0,0,1.3798858043569293,0.05714797884675978,0.4007202101322981,-1.4905511304436792,0.04426238182778293,0.4752970335276772
426,1.113811518809073,0.8968543759120752,0,0,1.130384494880984,-0.3633603687257307,0.15973982198508502,-1.2182751035178463,0.3364675093828487,0.00747401022637809
427,1.0549856468144152,0.8450047444553633,0,0,0.7371684284053985,0.08175459880238899,0.22136312492818405,0.6322594318182974,0.25142564925766403,-0.028103502991842538
428,0.9948342580782384,0.7833319124990554,0,0,0.845719154572143,0.22688189940180692,0.1957571190268998,-0.2852199604181249,-0.39501469132388367,0.08661150949782775
429,0.9385821087538622,0.7193804367407663,0,0,0.9126408586558178,0.17046582058609597,0.11698241724559076,-0.26136277817857934,0.2599445782671588,0.18652389625439583
430,0.8910071193140465,0.6608138258867434,0,0,0.8955767050553496,0.15647709630743514,0.1297353635926284,-0.46361761753021646,0.3038255109201564,0.17210062099767895
431,0.8560943057736867,0.6145226082352109,0,0,0.8821081329564812,0.07716265654621257,0.06922447019030135,-0.6938745500028533,0.3249338424627725,0.06556511384345752
432,0.8367770853557877,0.5859328396283645,0,0,0.8891330626806105,0.011415202954456001,0.04583224066100486,-0.5730917735392036,0.25721581860646386,-0.1205039518849898
433,0.8347532137771004,0.5785632468487245,0,0,0.8526576060248623,0.11508026287789237,0.07059699656675399,-0.05784958190391965,0.00953072901654099,-0.2385263950432372
434,0.850363241821304,0.5938363626869525,0,0,0.7922256360366033,0.22216559414306536,0.03620768690071267,-0.17428558863841326,-0.38674283845381346,-0.21230083241617786
435,0.8825302442765286,0.6311282392006088,0,0,0.8117939844581682,0.2537452801308237,-0.09334485127676798,-0.17255712596163517,-0.7714910891001843,-0.0842262749934667
436,0.9287716167099476,0.6880182436779303,0,0,0.9418270120139656,0.19605779258469053,-0.1160837353835394,-0.302026606758445,-0.7205721492197807,0.07441948147675456
437,0.9853010727665437,0.7606684593443135,0,0,0.9869963660055706,0.0070663358728663295,-0.023305786796792252,-0.7582029989679222,0.009548568618414193,0.1435177651268988
438,1.0472406790624915,0.8442412606227586,0,0,0.8224848719082044,-0.15269564087332804,0.25718517234859356,-1.2452239546129908,0.2282977658025212,0.040101504751504105
439,1.108960103119777,0.9332725179681379,0,0,0.6085024046492931,-0.03935629758383651,0.48928463316367227,-0.28988121142056106,-0.7807444206645169,-0.14615447525149497
440,1.1645488093621592,1.021956418354903,0,0,0.9571844352600454,0.19218103765440583,0.552580773948564,0.3156676707399231,-1.1382307502510738,-0.41199656419394476
441,1.208396981697231,1.104354187109882,0,0,1.6556031539401082,-0.09877118677211202,0.7208830110481833,0.10878534725478557,0.13884169873667637,-0.6629676601951788
442,1.2358159877569308,1.1745950040507145,0,0,1.166600005489466,-0.18554747084667048,0.6702862723870844,0.5895207904387864,-0.35232886437737654,-0.5394683309745667
443,1.2435988115009389,1.2271669841822201,0,0,0.6663154970325468,-0.24314207247202266,0.052588808544304394,-0.0830512245241738,-0.5644574702220078,-0.2725507160636614
444,1.2304327312010477,1.2573725531130755,0,0,1.2751820083171852,0.09634943743352889,0.18265328823921526,1.243803151116211,0.28115691848378765,-0.3498191891286272
445,1.1971152450210507,1.261938019425693,0,0,1.6138373772387904,0.5882992282574092,0.42265009230664735,1.5464996383924001,-0.1582387213877631,-0.3237945509755552
446,1.1465499743620735,1.2396511844129126,0,0,1.0992966108398605,0.33719183961078525,0.11752469702405983,1.5728355510271066,-1.777928878642125,-0.10975068213073289
447,1.083508209215903,1.1918195397651574,0,0,0.9122300092006478,0.20716524498879108,-0.05034146689065072,1.0031638813999626,-1.0504009127887888,-0.11081218133004397
448,1.0141657411763132,1.1223614610015973,0,0,0.8905149083725946,0.18478199227099315,-0.09025178279439355,-0.3425722069951604,-0.44617358602328705,-0.06769721283284202
449,0.9454698019253873,1.0374712130878365,0,0,0.9525093593475079,0.03336696532020655,-0.09620140220563501,-0.565364034429728,-0.3661249389961135,0.013780354596651842
450,0.8844248432016032,0.9449574784539305,0,0,0.8940719553904654,0.012884227479698295,-0.004414123475292149,0.5928600943821744,0.15485732793272394,0.09317249668831325
451,0.8373875029962378,0.8534383383286568,0,0,0.7118897267374984,0.08810705695235956,0.038664742829236085,0.9312602803138985,0.2624400316157328,0.13773114032860734
452,0.8094428688020952,0.7715441986183348,0,0,0.7216757696478101,0.07627685122799485,0.00433609713684789,0.8490715919850687,-0.27423764392957733,0.1091579539654055
453,0.803913807393877,0.707187170042756,0,0,0.85662265915405,0.0026381721204385413,-0.08305409395478332,1.000741200576649,-0.5752227067434983,0.037567820747368356
454,0.8220357432661762,0.6668833751919007,0,0,0.8940722282361198,-0.04154191693475289,-0.17138732636073944,0.8571547278511562,-0.37726575044635513,-0.08094767329705614
455,0.8628104061657178,0.6551103878280481,0,0,0.8541623355788454,0.010930472396005662,-0.2018824597603659,0.19732765288671247,-0.026945522401966755,-0.18940955728327216
456,0.9230405701625793,0.6737390585211033,0,0,0.800334691167997,0.09810191613569108,-0.170887545194246,-0.11565899847607784,0.07647570354108162,-0.20902947383470422
457,0.9975487484530725,0.7216492056143596,0,0,0.8279811184245064,0.25749883276025737,-0.03824595691788831,-0.41569191721621324,-0.26328623950122665,-0.20208660723449395
458,1.0795881112632868,0.794663049091314,0,0,0.8691170617582296,0.31691340802434187,0.11133583262891918,-0.7580931169976584,-0.5181654651664324,-0.20711526679646913
459,1.1614474923789448,0.8858855473305055,0,0,0.9714927112671863,0.2535119917827445,0.11222161587450681,-0.33426034257391035,-0.7522488617478431,-0.2138086821948906
460,1.2352243327552728,0.9864588484816589,0,0,1.0697800099068753,0.08480483509403865,-0.013618656712199055,0.04307559223557429,-0.5888758226453952,-0.06646324258882087
461,1.2936926147038124,1.0866654587574562,0,0,1.777089059473722,0.18530339957216962,0.39416940674145867,0.5044347177398535,0.15137293092232665,0.22171411887715775
462,1.3311429801255412,1.177260282656109,0,0,1.5073548336595781,0.42705649372043913,0.8301034216108725,-0.8964014481583839,1.967382894842582,0.29680288890362777
463,1.3440475136893064,1.250855496070367,0,0,0.6259164478763632,0.5015770821022312,0.6686856137844135,-0.8268736026963643,0.25448902147723756,0.24312506860052152
464,1.331427911040686,1.3031285092462521,0,0,1.230104118238348,0.49463146267808816,0.4039425533422826,-1.1594102790510932,-0.8211707285726282,0.4271668367097944
465,1.2948757854375195,1.3336074481764741,0,0,1.518828867471253,0.09606863781808309,0.26377487366751645,-2.4051443961610652,0.5448914363607394,0.3240897202995521
466,1.2382471467521898,1.3458335975679838,0,0,1.2087587423207138,-0.07684196764783655,0.26030017645701975,-1.9949946108372116,0.5965692911078975,-0.011405824312242496
467,1.1671008658542736,1.3468083519126883,0,0,1.0060051097409088,0.1740969978394251,0.2129969046438674,-0.5057451898851578,-0.3644239773600623,-0.24823687945496242
468,1.0879795971790336,1.345799711671436,0,0,0.8249594584351773,0.3356515476504963,0.10232128653188984,-0.3482806993610718,-0.25139769151627667,-0.2715315733171243
469,1.0076510352292496,1.3527655786204762,0,0,0.7902035787650028,0.27471072367537197,-0.029352418170563145,-1.0990307593105517,-0.18119057453406553,-0.1513937134561121
470,0.9324271834055805,1.3767494583489364,0,0,0.8767208672254575,0.21635675008671007,0.004898911672895312,-1.1926863048850889,-0.03634698634626316,-0.08925940846461373
471,0.8676490726179731,1.4245563481200914,0,0,0.860751375197874,0.1788434733408462,0.10086761805747903,-1.5422835999986408,0.24406286379747902,-0.16179107879400562
472,0.817374340027191,1.499871162152533,0,0,0.7822920645526595,0.1690644572885992,0.13176675331415824,-1.6703876904874488,0.06734905513591564,-0.3186505851139074
473,0.7842575891395729,1.6028430492301664,0,0,0.743245297929591,0.2612052569556362,0.12671800645302445,-1.4522915046795155,-0.3123796870904289,-0.3729137229142596
474,0.7695835904633362,1.7300880080973475,0,0,0.7452391575106767,0.286953023400997,0.0638126740830647,-1.4395793102809908,-0.5960608077441477,-0.30890710118202935
475,0.7734018880281842,1.875052364738016,0,0,0.7486574363237686,0.2866504236832184,-0.039642026274741095,-1.6366198694659733,-0.6666713988635218,-0.21289236536010062
476,0.7947115434526143,2.028689757345148,0,0,0.7894642037706083,0.3246856031121728,-0.07271400253753087,-1.83731453100999,-0.5875480469912782,-0.1279560200062624
477,0.8316514979053998,2.1803995650994437,0,0,0.8337525603997525,0.3647131500877716,-0.09219005152650338,-2.065546157424775,-0.5243277367702539,-0.07857648549147146
478,0.8816643000545143,2.319147355878366,0,0,0.8433189454428482,0.3829453551514669,-0.11231471225716773,-2.3155920722354724,-0.48102230367007465,-0.016124132442871152
479,0.9416191079702197,2.43465122017306,0,0,0.8559359545682139,0.346879497709753,-0.08398104427988878,-2.621139844050685,-0.3378349562744846,0.0452829954540202
480,1.0079024702788433,2.5184905357966496,0,0,0.9155474207125741,0.2786489640672082,-0.050301967322610934,-2.9954086059997485,-0.25560986254470347,0.03545185538427233
481,1.0765070748794159,2.56499380277727,0,0,0.9740250421519333,0.19782181778151264,-0.04072808938553543,-2.843767324200299,-0.35868499616501914,-0.12942617946263765
482,1.1431614228147033,2.5718050863743827,0,0,1.0082129437965734,0.16166061712981722,-0.04319150836591758,-2.1417360083137185,-0.7285447193835731,-0.4233055209308463
483,1.2035407180453361,2.5401127625993927,0,0,0.9695273105280118,0.18340972016343218,-0.09237387135195581,-1.5677879928715528,-0.8144959585228669,-0.6359579062927312
484,1.2535783419917599,2.474612041972656,0,0,1.0573682048581745,0.2814115743494051,-0.0928037285887759,-1.3889310881704455,-0.747477889994386,-0.6821853064124457
485,1.2898583731340338,2.383298929077718,0,0,1.4677969551991137,0.21903159541046074,-0.010497373321026574,-2.1970412544693207,-0.28157877391312464,-0.4631305718410781
486,1.3100194983331253,2.2771155956910736,0,0,1.9263915502705908,-0.17799938634038087,0.15209818796524452,-3.544101931472051,0.982102221210756,-0.4898983812507799
487,1.3130614688402733,2.1693245083578767,0,0,1.4304708275652187,-0.45979249053273635,0.3602997358611206,-3.176122167042991,2.1636007925653393,-0.8980721295544435
488,1.2994508638661872,2.0744058978597524,0,0,0.7146767092527746,-0.18374091944257126,0.6590797301528732,-1.0410945302886516,1.437543245315314,-0.8032525903003679
489,1.2709878361868863,2.0063732564798027,0,0,0.86837771323405,0.03056810078787525,0.6290282054567238,-0.9792538979904243,-0.5821534943218305,-0.5459945502786643
490,1.2304857649003431,1.9766751353603969,0,0,1.0918055381042853,0.08411768872965326,0.27963660590197853,-0.854284417174689,-0.6575034779848596,-0.31305196694009185
491,1.1813715468787367,1.9921298962153517,0,0,1.1526424350658624,0.15281173483906224,0.2343915880878094,-0.8560313097075871,-0.05782003929057677,-0.19829492325781722
492,1.1273080627823366,2.0534358262033594,0,0,1.0866847747556738,0.14595564778372072,0.23704015920095056,-1.9241623098447067,0.4437107402343937,-0.16049444135132432
493,1.0718963511646145,2.154663342512217,0,0,0.9681375452929667,0.09785173683624136,0.2780937679634355,-2.1758194108388893,0.6672816620204062,-0.1575760636620524
494,1.0184717054448271,2.283867926489093,0,0,0.9248103015208953,0.19472195006755358,0.3320239915287328,-1.9118691716432101,0.09482784891759488,-0.2781631203722035
495,0.9699813555826611,2.4247013823188035,0,0,0.9860861317912258,0.21370220314460164,0.2188731694129295,-2.4612097983336456,-0.39642911428279515,-0.41096600868597666
496,0.9289172357594613,2.5587254273066375,0,0,0.991373554192928,0.1284644585443991,0.0667924059350785,-2.6674920644790174,-0.3165499120793107,-0.5112049392238401
497,0.8972705220602202,2.668045643115004,0,0,0.9803301008595079,0.06836001459461798,0.04290913150311864,-2.7777111456951205,-0.11598072029774287,-0.548939691130159
498,0.8764773382154255,2.7378543674619884,0,0,0.9337501926367352,0.00886130943237572,0.04917314298903815,-3.043563169934493,0.41078513031499725,-0.6485023036388715
499,0.8673401709927568,2.758484698528941,0,0,0.8021482067915101,0.049259618316992576,0.11288677418365689,-3.2747991569402783,0.47745866069657816,-0.8179612665476191
500,0.8699333679930208,2.7266403419704033,0,0,0.7455656132546221,0.012395003038012574,0.21667213536083943,-3.4294969155224733,0.07556761809436538,-0.8326546942900432
501,0.8835232376323886,2.6455869883021355,0,0,0.8081803335758899,-0.08475412394663374,0.26052895772013634,-2.774691232621444,-0.277931317947643,-0.8083369298843263
502,0.9065428497497537,2.5242724026545,0,0,0.8603387109079473,-0.11260084776545835,0.17311427838309779,-2.1230137581234816,-0.5489046299199158,-0.7124433849892172
503,0.9366547993541116,2.3755601283291683,0,0,0.8351982573850315,-0.10596068004866208,0.09478231935212268,-1.8229036248627855,-0.4958634315013521,-0.45277042512967425
504,0.9709169558642697,2.213954148222586,0,0,0.837327723625003,-0.063880585544621,0.06139858889294817,-1.6401882454121528,-0.38739830347477777,-0.3455644672766431
505,1.0060436215658213,2.053289703494288,0,0,1.203160183992142,0.005593588757045656,0.22057067847914785,-1.4286783675296004,-0.424005751160746,-0.4399076548287613
506,1.0387316973607115,1.9048386826998822,0,0,1.1055973684945783,-0.05948514173515765,0.16232301866751586,-1.3091476026335331,0.5999110035581252,-0.2242340380626164
507,1.0660043568922548,1.7761481253163816,0,0,0.8678259476660515,0.17693878664415222,0.31275950999169144,-0.9292743686097771,0.7021477022425174,0.09421799439905987
508,1.0855220549588112,1.670743018023505,0,0,1.0183674771792426,0.2525507356631679,0.4463620975825222,-2.1841178601407507,0.25008788027226153,0.3422994334277673
509,1.0958223725672323,1.5886250910692186,0,0,1.0296736577868768,0.1465200284258973,0.33928076117288986,-1.636813444304964,0.200286014973659,0.33478621554953003
510,1.0964641221281153,1.527333306248444,0,0,1.1076704934120958,0.17410640244457729,0.36493395484981095,-1.3964107344787173,-0.06707287086437616,0.07486005320052933
511,1.0880587285623324,1.4832395203119935,0,0,1.1187116177538474,0.05417957317070162,0.29554492021319545,-2.1905924025886447,0.21887290825702763,-0.16640157672073774
512,1.0721778865783136,1.4527455126962416,0,0,1.0518381185968542,-0.011182447564874964,0.3872470326036214,-1.9206742686584992,0.6944124543761682,-0.1725065827300231
513,1.0511392056824567,1.4331086252625205,0,0,0.962766157758123,-0.05899818595122511,0.45185873177647157,-1.7230682513314444,0.5064010221678626,-0.11998846228734816
514,1.0276919708415728,1.422740288197392,0,0,0.9186531983277686,-0.10520030668963931,0.3037183612735669,-1.3718268070271646,-0.03527017116963082,-0.13388460870651622
515,1.0046469137690233,1.4209844743095144,0,0,0.8936621120360992,-0.058903680033885894,0.21097964373781183,-0.8107587802080588,-0.19480428871038255,-0.1864833950834221
516,0.9845082681576197,1.4275485616541643,0,0,0.8757742524558035,0.034861659856083346,0.18269142742313105,-0.8471287130065361,-0.2161292572943504,-0.20509722648855006
517,0.9691667576998008,1.4418565527691551,0,0,0.9421228840271427,0.1205206202932278,0.21013745508853418,-1.0806422657108938,-0.23975176839587556,-0.1812866873694877
518,0.9596977737730837,1.4625782921959625,0,0,0.920460857641183,0.15340212652966775,0.2637225914222931,-1.4213019474839927,0.10132744396030671,-0.12646704407935633
519,0.9562861846454602,1.4874743215054818,0,0,0.8239594089634873,0.10737128352635872,0.26411687544588247,-1.6862042878070382,0.14140960493709087,-0.1396290126595961
520,0.9582772137789051,1.5135498885244898,0,0,0.8950387655923395,0.038849555768797554,0.296505879638943,-1.8033536538002697,-0.11160326643801248,-0.22321877284096125
521,0.9643363728591771,1.5374043945694418,0,0,0.991886585088604,-0.06864766479316636,0.27961521081434354,-1.707907537423789,-0.19342675498944356,-0.3192280084703158
522,0.9726893591060757,1.555631628288674,0,0,0.9668156506381845,-0.05577647315472016,0.24490417885720875,-1.2943987330366882,-0.4354055891955461,-0.4173878146816096
523,0.9814044846104081,1.565163264693295,0,0,0.9323787587496701,0.010213133814985358,0.2233860003119546,-1.2772554876120672,-0.6389093649565325,-0.4677276517892372
524,0.9886782434368849,1.5635130523628507,0,0,0.9894659759799473,0.005347346599779708,0.19832440948095856,-1.4306968282620045,-0.5044501610164708,-0.45739300891244533
525,0.99308941825541,1.5489289467201446,0,0,1.0149879016735726,-0.012493460022559872,0.1809130287996668,-1.3359481872942884,-0.2613063766145922,-0.44233194420498856
526,0.9937945633516311,1.5204767761254308,0,0,1.0038226588489907,-0.043654640787501024,0.1997725281111752,-1.4950605206010743,0.018126891268036696,-0.44408271173724934
527,0.9906448538525984,1.4780709448746827,0,0,0.9781905213667192,-0.0700780473067071,0.2439477398987534,-1.5470306403906722,0.15202017604483126,-0.44463299968067926
528,0.9842123360633251,1.4224537771707724,0,0,0.9531613260001156,-0.08398719547680342,0.26095704625298005,-1.413103139922093,-0.03117055095748492,-0.4296804011967648
529,0.9757237739728531,1.3551195743006874,0,0,0.9517827610795153,-0.08043793546779336,0.23673863160365857,-1.213651886753342,-0.2401565282045766,-0.37681784711725175
530,0.9669109648868274,1.278187944721997,0,0,0.9459592090784307,-0.08940254528871917,0.19552798713745603,-1.1157396268874316,-0.25901704695513444,-0.30335596218308686
531,0.9597951566217425,1.1942471554377907,0,0,0.9352019785407149,-0.11988302281255706,0.15082145425783153,-1.0607442723261802,-0.17591209297196309,-0.2703604778633309
532,0.9564290704715028,1.1061970508384191,0,0,0.9311328514762051,-0.1563759962598237,0.16271193633427716,-1.0541069405223653,0.04200234398305263,-0.2843391599134506
533,0.9586233680073324,1.0171126383243534,0,0,0.9207988612702551,-0.17674084603588355,0.18972180539233618,-1.0471791740350966,0.11531108930159233,-0.32371757389607353
534,0.9676858764371458,0.9301289196670696,0,0,0.9263526178746999,-0.16951856083353467,0.20767400158677338,-0.9678316722869708,-0.09176138486174194,-0.32735604670309404
535,0.9842021203042073,0.8483301757336189,0,0,0.9302462479066737,-0.15616554102376365,0.18704217586999244,-0.8526373314549469,-0.18000208336829868,-0.3058375666467826
536,1.0078849444410218,0.7746254031871092,0,0,0.9339992116304938,-0.1388489486690626,0.15638031635500663,-0.5607428453001567,-0.23849610345972086,-0.2727294006350645
537,1.037518489625471,0.7116065022479041,0,0,0.9573342324714766,-0.13983053231140483,0.1251787995185924,-0.504770424724725,-0.23116078592628392,-0.2673694670217834
538,1.0710155295164676,0.6614046192421701,0,0,1.0035384539511254,-0.17033803059154937,0.08555370447676873,-0.5015621589817745,-0.24430944036000427,-0.30148731008713225
539,1.1055952164341207,0.6255669751120361,0,0,1.0562804790589615,-0.1655286348306246,0.08264845081561432,-0.44087736262163546,-0.30173265291376117,-0.37024911820499484
540,1.1380706721008516,0.6049664796490027,0,0,1.1333791354741356,-0.11566528159278457,0.07706531779819725,-0.3338931482488024,-0.4847917718180339,-0.4287937813141549
541,1.1652157170273856,0.599739863084953,0,0,1.18779123631546,-0.08832907209383768,0.06288141721372872,-0.30734719892517665,-0.49157733366305806,-0.4293734947981764
542,1.1841624530248993,0.6092436614934672,0,0,1.2266236471731913,-0.15096044036291836,0.011044275143182469,-0.4005864448826989,-0.483319386201615,-0.34678854588353053
543,1.1927712672320065,0.6320308084274912,0,0,1.2566441306102951,-0.20119230586429052,-0.03591296747311185,-0.2242609284125646,-0.1538234795347836,-0.25872890938520854
544,1.1899150514546024,0.6658783053160031,0,0,1.20415749020432,-0.15243970678240218,-0.007472680321630152,-0.028849842174499433,0.1836799492500458,-0.26650991326571727
545,1.1756302492435087,0.707917012266897,0,0,1.2496375872263743,-0.08286085226678551,0.07960481905232104,-0.4569748865428059,0.10730017268780767,-0.21042672578979918
546,1.151106528904921,0.7549014011467106,0,0,1.3195097620750427,0.07123098381127392,0.17594784642512518,-0.2690908333791312,0.6288704779286259,-0.1671977571522957
547,1.1185119264363221,0.8036010872811485,0,0,1.0395140293103982,0.1152931699940841,0.32750527304301497,-0.8771299378130094,0.8973887866032226,-0.2145714294183786
548,1.0806802286201103,0.8512222805165532,0,0,0.8693751644294365,-0.06278683299070317,0.3686596793916006,-1.4014889751253248,0.11994445448981814,-0.37230377834915396
549,1.040718863026684,0.8957254306463391,0,0,0.8153163998361387,-0.008819487700191994,0.46432954974635743,-0.3921233110324898,0.3449448390641301,-0.5019100356132934
550,1.0016176143830695,0.9359333547450555,0,0,0.6148221914855021,0.08278375223864075,0.6211471577357426,-0.65849489343581,0.44471224040302676,-0.54648811682969
551,0.9659377415231732,0.9714131354348585,0,0,0.6062982788428559,0.08567560324515827,0.5363162100554858,-0.6809417645993148,-0.17772412143927818,-0.5050639472789119
552,0.9356342361596279,1.0022119345784555,0,0,0.798837379156992,0.2580299387778831,0.45922434367258486,-0.4353076370824693,-0.16143965571945967,-0.4295676616253849
553,0.9120207372179268,1.0285789747042657,0,0,0.9233803800446,0.3665602583615585,0.36457371177576586,-0.499370619437482,-0.31242606427252095,-0.3633030100394039
554,0.8958431621777823,1.0507954569154023,0,0,0.9060086227632766,0.3330395069620325,0.3125836157503968,-0.9602243811633685,0.007764565826526626,-0.2786456027558342
555,0.8874013935020495,1.0691719639194093,0,0,0.8613797307620527,0.20393475857433627,0.32462581975000177,-1.3487051125976284,0.15179107421996096,-0.2811257659142646
556,0.8866592974318406,1.0841863480483689,0,0,0.8337118543879848,0.09860235879674743,0.33526121602668946,-1.1443068009832222,0.1618045544921636,-0.3249559606418589
557,0.893308605001017,1.0966649574725635,0,0,0.8090643427106353,0.06508718891739686,0.32001619246223817,-1.2234380325695768,0.1351147322629113,-0.3814578642354547
558,0.9067857276179165,1.1078909085930937,0,0,0.8114354150677487,0.0656993449847008,0.25397473138744797,-1.1328099718801148,0.1098055673059201,-0.45646952418989867
559,0.926266024206792,1.1195574440417322,0,0,0.7907383736755346,0.14576383167872764,0.22979893675852203,-0.9252141225654196,0.10644500157062468,-0.4147090565325249
560,0.9506694667954204,1.1335451900752298,0,0,0.856129072461676,0.15491095364163046,0.19532666274143473,-1.0874938220044512,-0.03067896878337985,-0.307904883305565
561,0.9787048629595412,1.1515580716674458,0,0,0.934235032617371,0.1318033161882544,0.18576617809067958,-1.14061618328545,0.03475891631589512,-0.2765858133763842
562,1.0089610211163471,1.1746867614636687,0,0,1.0153004476095038,0.03721781921477698,0.1724675742611077,-1.3150016927545616,-0.023712024100251628,-0.3473033233894413
563,1.0400300359958823,1.202982644200242,0,0,1.1180447974718097,-0.008489360263005606,0.1444856250516208,-0.965634924147617,-0.10360273756388226,-0.38740803788132855
564,1.0706296594569475,1.2351323694642635,0,0,1.161271093625719,0.03749098491859551,0.14121058867530814,-0.7846673153234839,-0.28901140310672585,-0.3703447755772729
565,1.0996865135224445,1.268328144796282,0,0,1.1461195835464848,0.062253039390561184,0.09438770178809235,-0.7737159274853915,-0.46405448499364194,-0.39111381217087055
566,1.1263527975411316,1.2984168655639625,0,0,1.0980870072950777,0.1156705774990021,0.13725975069531055,-0.7546366586552503,-0.5273777390966097,-0.38133578887790903
567,1.1499522623684602,1.3203615530439214,0,0,1.1070147717675316,0.14730007835277154,0.08856692409668186,-0.7114404576049529,-1.2636038444366027,-0.2968646052709584
568,1.1698768142331235,1.3289634658362859,0,0,1.1815698006573299,0.12017713691071706,-0.01148335388449371,-0.4155837594340495,-1.7562782116235478,-0.10174772395443948
569,1.1854732341960528,1.3197069683788958,0,0,1.1378901081018118,-0.016875337848512324,-0.13949118950860392,-0.3194107220339623,-1.4820623422990071,0.08067418364892365
570,1.1959659048079139,1.2895473783289944,0,0,0.8465184831523543,0.09259431220286547,0.0732344640406905,-0.5887253155043902,-0.1843679231649486,0.027180486545591454
571,1.200455285524981,1.237482333011032,0,0,0.8477184833020235,0.2300023631132867,0.5116513568639668,-2.216667086843242,-0.39139156843025913,-0.1656169309347881
572,1.19800943358307,1.1648031931656602,0,0,1.5629443332969386,-0.10468552442543796,1.049301193727278,-1.0632023469973544,-0.04716944557950173,-0.6113156832252533
573,1.1878285227400585,1.0749819738215451,0,0,0.8862242212440312,-0.23389365064940232,0.8745333714216003,0.2729439353711636,-0.562538385441379,-0.5209152599126051
574,1.1694329109810266,0.9732115801664772,0,0,0.6020486887956535,-0.17371368020086467,0.14373608118286274,0.03870021488559301,-1.262582963867904,-0.22888450784828485
575,1.1428312009225043,0.8656897091545683,0,0,0.9330521285028249,-0.023794327112485122,0.26936071480921964,-0.13096353029126623,0.1402202303134317,-0.2341392543670835
576,1.1086538342802377,0.7587968291670496,0,0,1.311593122017983,0.08429264049821358,0.5452322100711398,-0.15005051688620125,0.6303832471687411,-0.3089149353731941
577,1.0682459641234698,0.6583357793012851,0,0,1.233303525868384,0.23906351648022361,0.6413797580526839,0.26682604047834074,0.3915282760413696,-0.2553372370429607
578,1.0236904264364317,0.5689702819082504,0,0,0.9409468030762649,0.1995285520691476,0.30920702230346286,0.17236274137098087,-0.5611847463836075,-0.14749633064515769
579,0.9777194229729518,0.49394141129378083,0,0,0.8748598536662655,0.1276575440649332,0.14299802402864992,0.43365688596054786,0.08215785341979838,-0.08832986467929542
580,0.9335032638283451,0.43508130447823656,0,0,0.7705330485229966,0.06598388426847253,0.09392044937691817,0.06935299045067611,0.07503126925725334,-0.09490344805505369
581,0.8943541768194937,0.39309826888953137,0,0,0.8625945389871171,0.008785875431490186,0.12299770150246404,-0.3995384105674979,-0.10573852490122333,-0.18493279026965168
582,0.8634112446578744,0.3680725200414156,0,0,0.82645744260538,-0.02531710587396233,0.11437653182523885,-0.11881491943285105,0.029775048306202787,-0.19316597391946
583,0.8433652804091177,0.3600644253564088,0,0,0.7920888289496529,0.04671823627496321,0.10454747786582039,0.21278655014585673,-0.20960700769505664,-0.16420755203525292
584,0.836255826427345,0.36969585644686664,0,0,0.8142259808982499,0.07587269802828114,0.04650030372312282,0.2587567225087786,-0.6212464550903207,-0.07496278137946774
585,0.8433456952654133,0.39853255478194044,0,0,0.848762642648572,0.0508601701793429,-0.03156992103507357,0.6738042569534582,-0.8272991529685781,-0.015560422326759292
586,0.8650590580868696,0.44909285426631773,0,0,0.9137350170075941,0.04134830080612945,-0.057057735837320905,0.8077402485636452,-0.7518835910269348,-0.13051666168319054
587,0.9009572102038773,0.5243633361765295,0,0,1.0482301707984532,0.026238392373170837,-0.052389530265519485,0.24093859275820143,-0.6120938914583253,-0.1526949262738577
588,0.9497234060379409,0.6268307760622497,0,0,1.08969934479278,-0.019327546106861323,-0.06654477323113761,-0.13894903823731883,0.024562130608497938,-0.07548472367140098
589,1.0091391578616067,0.7572141957539655,0,0,0.9889874485481344,0.07312072445733254,-0.02384368909019266,0.15346820572604677,0.19736341483627853,-0.04024711010157419
590,1.0760610944262252,0.9132263630842958,0,0,0.9400078379767738,0.17511153010480335,0.0341562198607475,0.19925134657955143,-0.4083512923342481,-0.0012741246660418679
591,1.1464419259660887,1.0887367040061207,0,0,0.930811024387094,0.07261548993654904,0.040236690516602176,-0.08386266955873094,-0.5077946033841865,-0.01814378573023711
592,1.215462750236579,1.2736275320242312,0,0,0.9453091108168867,-0.06290288902378288,-0.028121882998924985,0.42067594235758,-1.2343991578191158,-0.06808755416794975
593,1.2778374409319109,1.4544721711600053,0,0,0.9694000570770118,-0.12386270962228715,-0.08475197560022502,-0.23455858993082054,-1.0111889811626333,-0.06896744502267588
594,1.3283045885701885,1.6159774233080884,0,0,1.331729773097732,-0.06397463847519887,-0.06284675041113856,0.6607902686692873,-1.4059553954946453,0.01448718641273702
595,1.3622472358314137,1.7429684968889012,0,0,2.1333821639256016,0.6414982033207681,0.9421748150038209,-0.1480753613216781,1.8546127086758002,0.14746538231371578
596,1.3763074527090093,1.8225721238846289,0,0,0.45071696042430537,0.7131253891985625,1.3172778166340864,-2.484915296504383,2.008681474524611,-0.010405359777626225
597,1.368841906508993,1.8461899569977203,0,0,0.4780160112789341,0.3645635156953189,0.3255577535228707,0.21802468040844114,-1.9986490102256795,0.33112152830843333
598,1.3401231537928424,1.8108798464221678,0,0,1.1634311231826182,0.4842497095315933,0.22149644132990293,-0.8840607547171038,0.4168263635296064,0.6760283021262151
599,1.2922873845798468,1.719888408307164,0,0,1.49061550735562,-0.0954445428671341,0.3504205216662998,-2.857699043898639,0.6326189374786253,0.6103576390511658
600,1.2290856891353168,1.5822568678822861,0,0,1.4861161633600808,-0.5372017675976708,0.40240990754123696,-1.790920382771573,0.8878355291520201,0.10422242234771871
601,1.1554927487552438,1.4115905213931659,0,0,0.7735906071751454,-0.13481754166189772,0.3396250604528839,0.3402263170702148,0.43068233306423226,-0.11684935171139843
602,1.0772150234831073,1.2242262980663656,0,0,0.7777825941067792,0.2098202036535452,0.2018467013859079,0.6145870971490183,-0.6043255185266774,0.02588506523314351
603,1.0001562222038776,1.0371498109615973,0,0,0.9051002828875191,0.19680890659830041,0.07003984357680043,0.28957799564955317,-0.26117112086289823,0.17741875941145854
604,0.9299160960252375,0.8660535550293429,0,0,0.940836103793021,0.11292238074953818,0.03473667231501558,-0.08067576239776586,0.40379278238721994,0.30199518995610036
605,0.8713836512587905,0.7238484682438769,0,0,0.9118629009907407,0.048322769563893614,0.0924167199848421,-0.2558153063447647,0.7687771447009777,0.2506459155463268
606,0.8284438273965262,0.6197752580154835,0,0,0.8811782680926482,0.0468095718784234,0.1886802284396934,-0.13402980936363618,0.7623595884749044,0.11098429568595473
607,0.8037802474082391,0.5590915623418764,0,0,0.8274931721962802,0.050674126520261306,0.21188108401704725,0.4646682057503934,0.39649383095177326,0.0009418664401260914
608,0.7987452199470984,0.5431998552085371,0,0,0.7876527474357936,0.13484682863172928,0.14434474621802232,0.6682052100210557,-0.24887173325501552,-0.10473484458743153
609,0.8132781951356866,0.5700462471949395,0,0,0.7893506623508754,0.22888399523729705,0.049173210317359564,0.615175732232635,-0.47455471896292695,-0.14742564482771453
610,0.8458728036337785,0.6346428416640821,0,0,0.7561673969960219,0.28973180907183177,-0.03186784250960713,0.3448348989095856,-0.6133565802066158,-0.08700956726926795
611,0.893609883340601,0.7296180499706946,0,0,0.8057471174462426,0.2677252403519214,-0.09319040908972769,-0.01187231531027111,-0.7845010868426732,0.09123413394031718
612,0.9522835294378198,0.8457611004406792,0,0,0.8785400529425061,0.14692033072679136,-0.06558516051563112,0.008307251529966616,-0.6438609517102766,0.21250624334890075
613,1.0166469049859967,0.9725836011299963,0,0,0.8654821322713829,0.08395686972246291,0.04052388050106653,-0.23954853560395975,-0.3837343987568665,0.19234567395880398
614,1.0807934172223261,1.0989523475502008,0,0,0.7984083686904117,0.04016001943869138,0.20262956130833631,-1.0133840486442274,-0.10705122342913288,0.0730976331335399
615,1.1386648372771917,1.213834906533435,0,0,1.0444749602024521,0.029213901891959083,0.5831789219770824,-1.427778669908693,0.09130998171097181,-0.12313676863571771
616,1.1846403777528673,1.3071441388098433,0,0,1.596187977780651,-0.2680596469937244,0.9997765265504583,-0.9371656067870416,0.8330175974715648,-0.6077810098492471
617,1.214122259829819,1.3706015068253852,0,0,0.8769659648816954,-0.1461774421568747,0.7528439532234517,1.2470447159578963,-0.6690121330516157,-0.5795541629102531
618,1.224023251571625,1.398503763117501,0,0,0.6392069418820036,0.020928079477765527,0.1665599109109087,0.5738900047117343,-1.5332152667285264,-0.2613576659414893
619,1.213095754519364,1.388290023440495,0,0,1.2309850743594342,0.0010680374920126964,0.05408804762620657,0.40322863421969923,-0.3315443282043354,-0.38097065813864045
620,1.182089675243677,1.3408465385759534,0,0,1.5239986936923602,0.5011929862549942,0.32829818573195285,1.8014241644990034,0.020025802159314716,-0.27137345352720044
621,1.1337419461640836,1.2605200960633764,0,0,1.0515917534383665,0.5763018842420696,0.22207257598671265,1.6391665653157905,-0.6980196813371795,0.04068394101482385
622,1.0725874469095076,1.154823125516609,0,0,0.9320999512611265,0.1897872203218806,0.0480265267065249,-0.5011558520701284,-0.6666166700115929,0.10231456145948901
623,1.0045830272831688,1.0338258629710961,0,0,0.9432684048592267,0.06793566395151127,0.008510046878049519,-1.0780247607798181,0.012017047447942422,-0.06627121900807663
624,0.9365687168333666,0.909268787841795,0,0,0.9176235973725655,0.06394363460661044,0.12300932057027131,-0.9841102635734534,0.0246046196356107,-0.15801433235342158
625,0.87562364071181,0.7934796569423676,0,0,0.8820168083102861,0.023004139579105083,0.15496100047395522,-0.6106681294038476,-0.17571579731225767,-0.17291281621912313
626,0.8283835500576736,0.6982123589487013,0,0,0.8073220197474155,0.047596223473221705,0.12331847989276229,-0.25931518200956266,-0.42037459735699706,-0.13735856347756378
627,0.8003785074225719,0.6335301174432161,0,0,0.801689819184333,0.06018273747984196,0.033926699161491526,-0.09884844687987364,-0.6591039014474316,-0.09637537925086952
628,0.7954401353507831,0.6068420856877842,0,0,0.8210983217374573,-0.011279832726962438,-0.07833296790324627,0.001355566485196809,-0.7612323905647091,-0.10387682950838995
629,0.8152247508395197,0.6221790915665409,0,0,0.8406483804111394,-0.08193923691069399,-0.18256132222114313,0.08686314219524262,-0.5268576807279329,-0.1519889248298773
630,0.8589004246103168,0.6797730901446857,0,0,0.7661828913978916,-0.10807847869475107,-0.21086181481775856,-0.30748679710093313,0.07095223458224942,-0.25025457281877217
631,0.9230504621004231,0.7759947804016618,0,0,0.730537578332208,-0.05161865905551893,-0.10922922280344348,-0.43445960709096215,0.39205630590742396,-0.3759434509730357
632,1.0018484563788836,0.9036948809911781,0,0,0.6575112907453674,0.0515195502653374,0.0743386912159454,-0.28164917476521956,0.2250681199658059,-0.4765380235445393
633,1.0875493264595544,1.0529656676238621,0,0,0.7904606355190719,0.13450565464329556,0.24367269422281893,0.42090374376852624,-0.7110508247206269,-0.4527466100264762
634,1.1713015285502135,1.212282694680628,0,0,0.8638027922524869,0.14684716082493937,0.1342623690654997,0.7563151375333695,-1.0336549301942863,-0.39474541351483766
635,1.244211912543747,1.3699150469779426,0,0,1.7257141776287086,0.28221516632081184,0.24507093158330948,0.7662255573063922,-1.2426103304268674,-0.040175796560423145
636,1.298503817587895,1.5154298651773832,0,0,2.10523808093286,0.6796319589945187,0.6882310580399937,-0.7177048632091549,1.5674641023028517,0.42399475725229674
637,1.3285466266697736,1.6410851058192926,0,0,0.4147144656738874,0.6249990409448949,0.46568500256573103,-0.6704604557598494,0.8851329291633692,0.36735520903651003
638,1.3315510587936943,1.7429085675451124,0,0,1.0407658951012413,0.5106440886644779,0.4341342100603764,-1.2500332719451364,-1.7566427910406908,0.565575915526791
639,1.307820622049031,1.821285996051415,0,0,1.6496829973505667,0.07887892135763604,0.19227126628306937,-2.795204565776585,0.032905539689853346,0.5168317662368442
640,1.2605644168304335,1.8809188036738769,0,0,1.2603643597604248,-0.09244027787978094,0.17456651918259355,-2.355775718102031,0.18544222108209887,0.09759129821406055
641,1.1953510779942178,1.9300895610102975,0,0,1.0089474172733457,0.14196210796963063,0.07978438016571528,-1.251476520034826,-0.8202656572518525,-0.177864587521706
642,1.1193181371917345,1.979317401483364,0,0,0.9373378449173744,0.31321137087054707,-0.053846345867911,-0.8848111366260906,-0.35530626901934365,-0.17439933619986675
643,1.040269675304956,2.0396515311833174,0,0,0.8303210995742659,0.30996201715302296,-0.10657896843092392,-1.8366073646295715,0.3160491865807097,-0.047380181804713366
644,0.9657972386903536,2.1209352407067104,0,0,0.8755391891381564,0.2560524264051469,0.04224546485066154,-2.3101314606508208,0.3360819871336323,-0.004635424999825371
645,0.9025337547557449,2.230320244319956,0,0,0.8079145683785514,0.2466655464566559,0.1623563862964006,-2.4653019528412803,0.45023734155022144,-0.10137029517742524
646,0.8556051298646363,2.3711816195698896,0,0,0.8020685590510473,0.22966149293791974,0.1401719444894118,-2.264778893587207,-0.3057634418818247,-0.25290076074623474
647,0.8282984119964646,2.542483834255235,0,0,0.8382621532818909,0.26287289213490506,0.07660325182584599,-2.201839184591285,-0.46330212819985594,-0.31559645407512343
648,0.8219318685336308,2.7386224250489044,0,0,0.820548913797874,0.25068182675889394,-0.009360419893468353,-2.585339081736208,-0.4156322784231687,-0.29531597590053527
649,0.8358948138242811,2.9497751587343393,0,0,0.7993661447316882,0.2784601380313935,-0.06920885985033928,-2.653330771659144,-0.23771162434078183,-0.2149480449230648
650,0.8678220574876258,3.162785231092665,0,0,0.817797610085922,0.3391390012793722,-0.06808687121591696,-2.8894023392717925,-0.23889956328106338,-0.098254972096112
651,0.9138748879979627,3.3625474191084637,0,0,0.8510663378491428,0.32106393899643054,-0.11014451387936083,-3.198006928767516,-0.23740641185220032,-0.05334946760319693
652,0.9691112362920185,3.533787183626202,0,0,0.8304171365324542,0.3039330839606318,-0.0954359411780248,-3.437097165043382,-0.19672887513880463,-0.1496799785698979
653,1.027936023039301,3.6630311187728277,0,0,0.8591257573531629,0.2597527304871705,-0.035775866397295734,-4.187346060704985,-0.2216524728026953,-0.2989837123641852
654,1.0846231879771666,3.7404875481644586,0,0,0.8828258967491961,0.23245741337972645,-0.007662719560312244,-4.122384852375185,-0.24493094688674916,-0.5009146303981156
655,1.1338878086485569,3.761520264139133,0,0,1.0942462700306304,0.24899141469262906,0.06047504855486089,-4.018219938645207,-0.7418870138274051,-0.7560990786350028
656,1.1714575788873935,3.72743562133931,0,0,1.4412839414550356,0.05851276076656434,-0.0003088791918932282,-4.060002587601587,-0.7999267994628478,-1.0332519690925708
657,1.194556839280665,3.6454169198453665,0,0,1.6439520443363658,-0.05978322504275108,0.05122760621051694,-3.2793450480346897,-0.3617107886879946,-1.0436633929383239
658,1.2021974952647563,3.527600100255646,0,0,1.275362745765773,-0.138502247397534,0.052831559323715006,-3.355369784692331,0.6453057336090054,-0.7736989861168302
659,1.1951952238647243,3.3894428569863653,0,0,0.9947227598556148,-0.22187837938332125,0.1858337644674436,-3.2967720309835706,0.8737630013658978,-0.5650344009035465
660,1.1758974811907985,3.247653763079013,0,0,1.1463572346993676,-0.2984025623646218,0.3920359438121777,-3.23774427432492,0.7583390485341903,-0.4544332433757329
661,1.1476896832310621,3.1180055372118285,0,0,0.9368773854151464,-0.1262346496542216,0.3691157140440764,-2.386253731295239,0.2045187257258915,-0.47507765899999493
662,1.1143986065207552,3.0133700385576607,0,0,0.7708551064853632,0.08541663671216355,0.15486157122151448,-2.582703367795912,-0.6322522310053627,-0.4767296069889267
663,1.0797223355968146,2.9422891870953847,0,0,0.9699399572866343,0.24326519731307555,-0.025106379955818676,-1.9546473411518137,-0.5168024628407891,-0.4127949343189469
664,1.0467902187231342,2.908317480306431,0,0,1.1039014650936168,0.3040120775309641,0.037064618184566564,-1.9255162540071755,-0.39191115169663093,-0.35309248450250486
665,1.017906847757816,2.9102167135690444,0,0,0.9795180436116302,0.10887778959864249,-0.15704722409337127,-3.5802524701641794,-0.015534152736255049,-0.34765569618860503
666,0.9944795686903498,2.942865799238126,0,0,1.0034008122908469,-0.061372449021377326,-0.13433112323946875,-4.1663844998320165,0.12843059077313887,-0.4013146316435002
667,0.9770908365833534,2.998541939178092,0,0,1.019164301004345,-0.1991283707063085,0.10165907558647416,-3.946948699010221,0.5132801333199695,-0.5034565632068732
668,0.965663351751438,3.0681493534148956,0,0,0.9111841400162535,-0.1465583785983443,0.22618271263507975,-2.992826415854367,0.3526450727154923,-0.5663015629961812
669,0.9596694352606903,3.142088890191492,0,0,0.9160108213549767,0.025047905700401593,0.19090358961182352,-2.52515761470916,-0.5098261450496973,-0.518763257344314
670,0.9583452174177368,3.2107154965427953,0,0,0.989607348023594,0.07041665304501861,0.014464818134434006,-2.4235735851596503,-0.6887074333311782,-0.44876961106192714
671,0.9608784636109968,3.264560995947704,0,0,1.0184002748615628,0.09602738544710235,-0.0013424639456349912,-2.656020216660231,-0.30601717146983876,-0.45970390878275685
672,0.9665446312097293,3.2945782545670967,0,0,1.009716320893556,0.04955556305091814,0.06035682276001147,-3.4981286208237483,0.21569453743791722,-0.505751388366181
673,0.9747719271435115,3.2925809405372646,0,0,1.002783911072847,-0.02621628558747522,0.18151116631969763,-3.5947735428571983,0.22428130914768565,-0.5620684995443648
674,0.9851272139599363,3.2519015396233883,0,0,0.9731811102586667,0.015084666553774394,0.28414272549322256,-3.0529405790807345,0.11221307173695871,-0.5770362333140662
675,0.9972313234870803,3.1681741743985015,0,0,0.9073199864189798,0.0992766418480278,0.22674985398997785,-2.8438578790334508,-0.3898130064743185,-0.5238990329982176
676,1.0106303618569104,3.04010960866332,0,0,0.9761252390844813,0.0913035655983024,0.10891748368315783,-2.8569280518157587,-0.5868555504585103,-0.4649045530935279
677,1.0246627550969651,2.870133181403878,0,0,0.9986435595818595,0.017273518649488444,0.12704658813577366,-3.1238959327678826,-0.17475661519817942,-0.49978808032078365
678,1.0383658073510056,2.664752948658061,0,0,0.9791731162993205,-0.08486841676466057,0.13299322529334376,-3.098698422530142,-0.19505246814104596,-0.5685429662783842
679,1.0504601985202868,2.4345139553997677,0,0,0.892536371975494,-0.10069656547539493,0.13224589430786154,-2.677198963925391,-0.31299507933719456,-0.5565142627203034
680,1.0594381762173992,2.193415753744662,0,0,0.9281349457840762,-0.1302989036927543,0.04900670791988521,-2.1722751541471865,-0.4764353976046038,-0.5190418712345076
681,1.063761174362692,1.957750244209853,0,0,1.1046205953344586,-0.14484244538939522,0.18717965020278673,-2.099068466732229,0.20652130647378777,-0.5357415634167914
682,1.0621442925252806,1.7444374140960994,0,0,1.0786130555501623,-0.14311729462732808,0.2949102203718039,-1.7242424794276614,0.3246232294383573,-0.5599579644293162
683,1.05387405673529,1.569056726023646,0,0,1.068170922920675,0.012535053629598449,0.29725291111145286,-0.8425147374016397,-0.14358014146682602,-0.45716856304019377
684,1.0390850777815652,1.4438598541709342,0,0,1.122919609942579,0.06593056603759455,0.16564528932436584,-1.182330306448929,-0.20313691104302117,-0.38369889763998644
685,1.018920493589974,1.3760859159753043,0,0,1.1512066656564761,0.15306025231194142,0.1410785714107075,-0.7351569821248014,0.339450831404257,-0.47774065317678677
686,0.9955200245655316,1.36686894959048,0,0,1.0099908740599237,0.30924601204772206,0.26929204032507764,-0.9135075616272231,0.33496336421223094,-0.5040068232831219
687,0.9718123192240468,1.4109326574192549,0,0,0.9468485923446668,0.29991282861578644,0.16280832979694143,-1.384142789126734,-0.2970220299306069,-0.384443663374212
688,0.951129500670259,1.4971379960411335,0,0,0.8885328918614323,0.2577846472223654,0.04380178905293478,-1.1118418271627977,-0.2047562622949031,-0.2751745131910713
689,0.9367041446591471,1.6098209828527799,0,0,0.797209559179359,0.22915021821319825,0.04997249528191748,-1.3894466282459694,-0.07732252006689397,-0.2257714426699198
690,0.9311414286751417,1.7307510889835693,0,0,0.7385921336764734,0.15230265251054295,0.05418833681209631,-1.7546374571284216,-0.14735999747871842,-0.11932990624600637
691,0.9359712509797212,1.8414540697618973,0,0,0.7623171563473329,0.12274720466298018,0.13818031754593704,-2.0370051435408065,-0.24363376934776781,0.03925632953378211
692,0.9513711563664413,1.925573956555051,0,0,0.85164342583386,0.09273798139235533,0.17368797048946638,-2.507812767558326,-0.403985381252026,0.1420357602314616
693,0.9761131179903328,1.9709130749557175,0,0,0.9939365601474061,0.04617824774614613,0.17123467713825383,-2.4217197933631454,-0.5693313039609085,0.11680412152806863
694,1.0077365821194215,1.9708164066598328,0,0,0.9962053497685535,-0.06045066651639467,0.15553048666225713,-2.3392848978992102,-0.1545401328277218,0.007540808218556603
695,1.042902989872339,1.924673221683623,0,0,1.0103812674977213,-0.16287572271786482,0.16479066916039947,-2.111449456625824,-0.07019058998502697,-0.1903679882604354
696,1.0778563563648658,1.8374764395752368,0,0,1.274346416338397,-0.36846165130246405,0.3939669501721141,-2.0737902247888234,0.3753925980710933,-0.4151583689481091
697,1.1089051898475473,1.7185648205916488,0,0,0.9673290675728397,-0.39758522893528675,0.4382331612776009,-0.9951063158889705,0.4315129005734583,-0.34695706499485096
698,1.1328527443648049,1.5798287923938328,0,0,0.8469581719983909,-0.20591791879008509,0.24867964625666486,-0.5785069326703683,-0.8282888426230083,-0.21728629407942376
699,1.1473304363412855,1.4337497642610983,0,0,1.1385437389248825,-0.039484682013864604,0.027413094239475917,-0.011132138070170869,-1.0263254903993388,-0.2224251364495803
700,1.15101814663291,1.2916380464352182,0,0,1.2871502309547684,0.19479711601371985,0.10962308412314203,0.8179541474710692,-1.1881633549995383,-0.1639464736226755
701,1.1437477182085283,1.1623389545811362,0,0,1.2150379719007067,0.020832587154002526,-0.017252068176030567,0.6753144601004899,-0.6120579357936954,-0.1309548306792636
702,1.1264834650717659,1.0515369914419768,0,0,1.1406023049781937,0.09075418731615244,0.03746815458970623,0.15683078287431926,0.3170774801509076,-0.16950807091950362
703,1.101174929701504,0.9616590751810296,0,0,1.0976244415274603,0.14483286508390067,0.2743055607072137,-1.3127600425203745,0.7364412806404919,-0.1028869013771502
704,1.0704935713365316,0.8922776547654488,0,0,0.9174881705833284,-0.023511813276171724,0.4032277791835252,-1.13816024568663,0.6179500617060141,-0.05657571443116371
705,1.037488330576955,0.840840589776502,0,0,0.9024497626319008,-0.06533970263533624,0.4440812806310146,-0.30362201879412026,-0.5844166468045868,-0.0648744115573497
706,1.0052114757409552,0.8035230397939113,0,0,0.9384276865264939,-0.094939370931525,0.22608296323301952,-0.13857362395143585,-1.0391230011529082,-0.12028326429468003
707,0.9763697480718152,0.7760234627830306,0,0,0.9194485301563727,-0.1147137812395033,0.06076268568489179,-0.04636199243060998,-0.9308175384307553,-0.21028312326905182
708,0.9530481084259776,0.7541909317755501,0,0,0.8875626843998424,-0.06887665629375034,0.05439249666951276,0.06143338453395018,-0.689222667179114,-0.2744967031672786
