id,ASVM,GSVM,walking_nonwalking,normal_abnormal,ax,ay,az,gx,gy,gz
1,0.7509350539162232,0.017621165859772643,1,0,0.7438070868924269,-0.008463573521858468,-0.10381299687353032,0.014866578717900274,0.00848277311690672,-0.002246023025398117
2,0.812042243637084,0.018790927799389217,1,0,1.0589769086836478,-0.010518639430286034,-0.1443572130252336,0.026190541294312187,0.012256932948546597,-0.007024131240869859
3,0.8697340593968683,0.019842413300429077,1,0,0.9581103749973339,-0.009563715304465497,-0.12828216174437887,0.02408251866472052,0.012378240166113294,-0.005674390422729047
4,0.9209961873996217,0.020701196281109193,1,0,1.0112605399865897,-0.008365630496102956,-0.13503379402361762,0.024406693802328048,0.012687779926778305,-0.004207336310848882
5,0.9635959054888749,0.021318383564445837,1,0,0.9773619138373294,-0.006893081879625899,-0.12988077916471133,0.019626929057751093,0.010546921400082352,-0.005375280083602014
6,0.9962799692943748,0.02167608815302875,1,0,1.0008660087919292,-0.0075945097509512016,-0.13294087446401842,0.015056322668149859,0.009491939966492663,-0.005576634984537914
7,1.0188083778215515,0.02178671456280833,1,0,0.9870311411371594,-0.007944728873487225,-0.13457557039879112,0.013255021841883624,0.007106724182183487,-0.004565021997416206
8,1.031845893544801,0.021688071304958454,1,0,0.9955668973189534,-0.008506729074732215,-0.13422662203297353,0.011360399695069625,0.008435252247833706,-0.0068460995370776675
9,1.0367538168217223,0.02143707520827835,1,0,0.9944816139538405,-0.008274945876940845,-0.13425531166662383,0.013368470577414759,0.010678125900156566,-0.006607182349850138
10,1.0353309657470022,0.021104149561063244,1,0,0.9960677363302411,-0.007544860731247064,-0.1345044316090194,0.012497402274870291,0.018032399727777232,-0.009335247128938216
11,1.029549237844317,0.020768876307940613,1,0,0.9932748629689642,-0.00803480521172398,-0.13251289537525354,0.0068032789937288625,0.02212486868783173,-0.009686373714983697
12,1.021319547832454,0.020515919166209616,1,0,0.9922343200580495,-0.006947723338655793,-0.13164330443851896,0.006483680625066659,0.021800388427008634,-0.010136967333627686
13,1.0123116820019697,0.020429483833824952,1,0,0.9916663586869898,-0.007605366954994581,-0.13026064395222464,0.005326584252557779,0.021979585960478883,-0.013472748940726913
14,1.0038391387816088,0.020584955944307686,1,0,0.9905389323938216,-0.007477410828553943,-0.13237415668178368,-0.0023357691660446113,0.018764475132226295,-0.012123710466153674
15,0.9968089880738263,0.02103765338156221,1,0,0.9909157584317558,-0.008083737417831175,-0.1332169263439361,-0.006953435262874739,0.015585081712635758,-0.008265207878756337
16,0.9917282467606657,0.021810309295322104,1,0,0.9940191618938763,-0.00950506855117295,-0.13422300826278777,-0.004463874209156764,0.014669149090510718,-0.010614971895926188
17,0.9887528352030628,0.022882330841225176,1,0,0.985205654544029,-0.006787298047914426,-0.13795333741796725,0.005079211888641829,0.011453797423017997,-0.012706452373219337
18,0.9877629679586499,0.024184528291531823,1,0,0.9900493488599618,-0.005478466955421035,-0.13240112614544497,-0.012750692677090522,0.004221940316935026,-0.012090617473689075
19,0.9884494291233165,0.02560262301809925,1,0,0.9908890486854387,-0.011412413062120949,-0.1271576593595094,-0.0006610796320091022,-0.005474414309186521,-0.005893394698821752
20,0.9903977557518574,0.026991399451270676,1,0,0.9880539456889516,-0.008469182386101403,-0.1314284131284258,0.026738099236524683,-0.012843248587270858,-0.008117891344853245
21,0.9931609899553008,0.02819896281991201,1,0,0.9875109356414202,-0.0043173664902348705,-0.1321047070644077,-0.00012394859534298005,-0.02679239628410286,-0.006530311357114405
22,0.9963156225327795,0.02909760227300163,1,0,0.9909977745355228,-0.007360731684654035,-0.12922856913094657,-0.01308426817899756,-0.03148078360888761,-0.004767263028695723
23,0.9994990329803487,0.029615133255160506,1,0,0.9886773516964721,-0.007568637633893255,-0.12889037422893618,0.003359741833049774,-0.033650351559871824,-0.005539890191954431
24,1.00242963221377,0.029759253120993284,1,0,0.9902036677368544,-0.009073675946731719,-0.13021341059092872,0.005005863986983798,-0.04686538451042351,-0.001829672492629166
25,1.0049127506710311,0.029627806863733456,1,0,0.9954183862048694,-0.006964409022169429,-0.13149864185144036,0.0004572799099301186,-0.04626131020100087,-0.004413149723174301
26,1.0068360557517648,0.029399949271240573,1,0,0.9969837046998186,-0.008610071474378412,-0.13108754416679577,0.0015176387950859153,-0.04119316422790654,-0.001971243605407733
27,1.008158133384586,0.02930697996835516,1,0,0.9986382351497529,-0.008005576033992965,-0.12977800227431327,0.0017420105262023074,-0.03004097689573641,-0.0024477136158241966
28,1.008893233640618,0.029586714149932927,1,0,1.001029281377887,-0.007843740516207792,-0.13265309348863746,-0.001549082442236757,-0.01980687162299204,-0.004974211738172771
29,1.0090944898642369,0.03043036689820357,1,0,1.000985966238187,-0.011152674959899299,-0.1353510219111085,0.0002980569156276995,-0.0032489750045738355,-0.0033360019138275014
30,1.0088374310923256,0.03193421057377233,1,0,0.9985964700925963,-0.012833420104470802,-0.13444593852235714,0.007237629457124884,0.006840748482182243,-0.004353659278835835
31,1.0082053749963962,0.034068149919235784,1,0,0.9947309357770944,-0.012687664620746263,-0.13441008487326875,0.02064711665008201,0.015326951767768517,-0.005698158649942822
32,1.0072781939377542,0.036669507988819516,1,0,0.9936618535782563,-0.012285123668384804,-0.1320003438158269,0.030453292767507748,0.022186405882820698,-0.005529777309931007
33,1.0061256952036859,0.039464068489801246,1,0,0.9944805343422609,-0.011556658607644911,-0.12947273620940095,0.02505713913412461,0.028121209332943865,-0.006618333639066473
34,1.0048061412839164,0.04211018141867391,1,0,0.997493459815835,-0.00827928235339707,-0.13191431608095736,0.014768635033770315,0.03736794080771633,-0.006742078196862028
35,1.0033692497508548,0.04425740202151655,1,0,0.99839576995655,-0.007076626596620151,-0.1343674928714966,0.012389480498959497,0.04944231658549549,-0.004668447185564932
36,1.0018617772433271,0.04560905963679033,1,0,0.9975732728050272,-0.01029792744894834,-0.14119120275174252,0.01116519521848234,0.052194192898338175,-0.003911514026882119
37,1.0003331237121904,0.045977766406022795,1,0,0.9937845278925224,-0.01156550165023492,-0.14128577982185742,0.01634728260947594,0.059578533338587966,-0.006030395208057227
38,0.9988386801265877,0.045323831349086574,1,0,0.9884086338335594,-0.011347070262365732,-0.14057286248841497,0.01966272010083764,0.056209505624238244,-0.0035492892411827033
39,0.9974397681928799,0.043768991532471824,1,0,0.9853037780209432,-0.012038323857285814,-0.1332055017132704,0.021720612651482316,0.048074820266428904,-0.0044491840823979445
40,0.9962004138007882,0.0415818643048899,1,0,0.9866604370567892,-0.010388121310026852,-0.12945980957866804,0.022460671038012574,0.04135594343150092,-0.00564080599731431
41,0.9951821894044951,0.03913653795458133,1,0,0.9850805242269512,-0.009826166476273239,-0.12798336721358103,0.01972296011059988,0.035360355514666965,-0.005639525189369982
42,0.9944386130601393,0.03685074436998746,1,0,0.9857732403143826,-0.00970032084159989,-0.128497050597427,0.01676927336802098,0.027601666828196054,-0.005311025488608162
43,0.9940102395971799,0.03511407870835919,1,0,0.986368112311803,-0.008988516360536242,-0.13115186122642333,0.011549043334598691,0.01628688472982754,-0.007770272277398915
44,0.9939210159228868,0.0342190325360882,1,0,0.9857352683308672,-0.008308101337116817,-0.13238847537711418,0.010003154826452077,0.0062816407865444734,-0.009620013862400007
45,0.9941760371933965,0.03430769419970549,1,0,0.9849039618250216,-0.010614352737236168,-0.13478830524268784,0.007925174441984158,-0.005764069941869537,-0.010959396449516042
46,0.994760674820568,0.035344503438627495,1,0,0.98405076150627,-0.007398106720583724,-0.13521070352237557,0.004410724327424589,-0.020152174582008835,-0.011983063771857516
47,0.9956410900576211,0.03712055506981625,1,0,0.9852619874167927,-0.009097651932205677,-0.13395383586336898,0.0015301481218634315,-0.03263276800264262,-0.01433438990745647
48,0.996766208031302,0.03928860078880875,1,0,0.988948536678284,-0.009195201719444041,-0.13080224933408421,-0.00034131951387660964,-0.040374812331181856,-0.013783283331676013
49,0.9980711442779427,0.04142176645810266,1,0,0.9888824358892989,-0.00898474057743292,-0.1290492690208256,-0.0012592192996243462,-0.04910456309337075,-0.015321971636587658
50,0.9994818513173155,0.04308471887331347,1,0,0.9915848402872858,-0.008053667610923057,-0.1290615176539664,-4.157414402558611e-05,-0.052006200713331646,-0.013580892289347368
51,1.0009205183633205,0.04390445033092987,1,0,0.9933302933864012,-0.008580249051022558,-0.12806402427451472,0.002654727116330535,-0.053632199076691096,-0.01071577268362061
52,1.0023111262197237,0.04362892643877299,1,0,0.9949510558075385,-0.007937691966746105,-0.1303388035483524,0.00012765114108110174,-0.05130711695044122,-0.01220659879865695
53,1.0035845642084515,0.04216485993111699,1,0,0.995364775040605,-0.008719794408036807,-0.13111556516333925,0.0030893851274822423,-0.04832905989399156,-0.010447747627234622
54,1.0046828501234917,0.039589918496919965,1,0,0.9949367308739814,-0.008559048012282442,-0.131354870853004,0.002524793999764806,-0.04361128664735995,-0.010080334367860148
55,1.0055622168413962,0.036138924073864966,1,0,0.9963654889747419,-0.007654119494894076,-0.13180817000240835,0.002470147971819396,-0.036514439690249145,-0.008087634154251781
56,1.006195034484104,0.032167453413032496,1,0,0.9970076843441716,-0.008739050957768314,-0.1323609376761032,0.004486677236766428,-0.029231648032551974,-0.008517093544763826
57,1.0065706078905126,0.02809930274123926,1,0,0.998313061873688,-0.009458653157256547,-0.13437458649216685,0.007187147873059755,-0.020974967631039104,-0.0075084525354874405
58,1.006694811922986,0.024366249151907937,1,0,0.9992363758962987,-0.008628428829264992,-0.1337865612279984,0.0030769986715964846,-0.013419334125859135,-0.008937293990381288
59,1.0065884226110644,0.021349231892628225,1,0,0.9988691495555687,-0.006210544441706132,-0.13557698137076607,-0.001954162869122769,-0.00237584481750444,-0.009753134733601022
60,1.0062840321391706,0.01932939496327017,1,0,0.9977827083403853,-0.007139951229328522,-0.13320219974806224,-0.0070654673211286,0.0038384323523997176,-0.009135298813317417
61,1.0058216786799379,0.018455437536908908,1,0,0.9966111523763991,-0.009713997558286405,-0.13581555221796038,-0.005586028573023095,0.009838074913075754,-0.008511755761917005
62,1.0052437156010388,0.018730735485705596,1,0,0.9952002188127157,-0.010893065345918424,-0.13527649370785766,0.0004404343609573745,0.014143428695779392,-0.01014720041896914
63,1.0045898255232248,0.020020374635653114,1,0,0.9926690676336039,-0.009803335695044034,-0.13502825390890447,-0.0010368743798046063,0.018256722163556977,-0.0121491448671764
64,1.0038932744894682,0.022075350728840166,1,0,0.989984218884321,-0.009081020232391452,-0.13218214699408654,-0.003820489206849279,0.02181636587619269,-0.009541458853567181
65,1.0031793533524418,0.024569283567273545,1,0,0.9956745848252337,-0.012209868790026248,-0.13177531438553292,-0.0009274018490271176,0.019161474034675424,-0.009892290316283562
66,1.0024663960940656,0.02714214441267777,1,0,0.9921547555657665,-0.00966619573335549,-0.13778120419926398,0.013418167751776976,0.02709132702942759,-0.010771047461434041
67,1.0017689135318448,0.029445397220895363,1,0,0.9947596062555304,-0.005795521504859876,-0.13436987517872093,-0.0026527321061532365,0.028203056888218538,-0.010312165696290615
68,1.0011015743481806,0.031183222171993742,1,0,0.99791006773642,-0.012095751874052436,-0.13303344497409944,-0.0077256049486003064,0.031352719327885324,-0.011179260905128538
69,1.000482386352906,0.032144981966493194,1,0,0.9936525807158167,-0.014011783506058901,-0.1374900920322893,0.030270209927362197,0.03363477504896275,-0.013744946343033746
70,0.9999336909077146,0.032224968587026635,1,0,0.9890565650750477,-0.0059518112316574905,-0.1411948608559916,0.022587618969522213,0.027181736139651462,-0.013099964148962192
71,0.9994804278105531,0.03142703070682256,1,0,0.9887894006621409,-0.0033635601220091756,-0.13843597154493684,0.006436102867590931,0.02369935951567041,-0.00949194078317074
72,0.9991462108766274,0.029854009441325335,1,0,0.9882588303456767,-0.009590311161624706,-0.1321015241027169,0.021749067510171572,0.02150131969158679,-0.007708308066669505
73,0.9989485745226416,0.027684476428030215,1,0,0.9863078034231602,-0.00985667033843389,-0.13185018163791154,0.026116401270258802,0.013361034536514887,-0.008475923603744244
74,0.9988949672374221,0.025141203741618542,1,0,0.9887637328169065,-0.009369180663951027,-0.13331229885516785,0.013640209924726216,0.009950664367247461,-0.009518303999869703
75,0.9989806716398538,0.022456706019153956,1,0,0.9903841037793573,-0.006835405553384106,-0.13177970957914376,0.010143579318311396,0.008526546871290818,-0.008663756665155382
76,0.9991890593380368,0.01984127920957044,1,0,0.9921365109205369,-0.006522882880719827,-0.13528348225311151,0.00956584971178445,0.002085458479646045,-0.008029953108176814
77,0.9994937899657933,0.01745832901831275,1,0,0.9919848680910653,-0.009411334070772959,-0.13714845376852566,0.009143596454082994,-0.00394702171171593,-0.007950972235369882
78,0.9998620820747643,0.015410304954431032,1,0,0.9914330754120251,-0.007374639689018318,-0.1359640951606387,0.011563405258753344,-0.0033641049772547664,-0.0076993271505540785
79,1.0002581911102815,0.0137363755432324,1,0,0.9900073447386432,-0.00818277715266651,-0.13582020792224514,0.010146651508967031,-0.002604069001403847,-0.004170241176390307
80,1.0006466136211298,0.012420660470720001,1,0,0.988421861232279,-0.009479393423460445,-0.1341734647635033,0.012395281483517035,-0.003788142000639619,-0.006923514003326624
81,1.0009949717114446,0.011407964140035186,1,0,0.9925012744950629,-0.010031668400343372,-0.13292705500661234,0.017081243594861274,-0.001693747518625125,-0.006166804256732321
82,1.0012767004658667,0.010622883456956302,1,0,0.9933307757744891,-0.007091865807849252,-0.13213036497412056,0.01961231644614785,0.00042751598399587805,-0.007289711085655493
83,1.0014734842770223,0.009988110489994685,1,0,0.9921730240653437,-0.0036716348976873385,-0.13335974047350468,0.008646233902002354,-0.0008745249944821116,-0.005104719111632941
84,1.0015770712057719,0.009438821909231454,1,0,0.9965448648780046,-0.005092351528448803,-0.13484448353338352,0.000949909064696883,0.001287679670944444,-0.002991734117721013
85,1.0015899302200635,0.008931887608643803,1,0,0.9932062921738841,-0.008644453824796772,-0.13190311093452653,0.0014674449644310767,0.00010906119746892968,-0.004112989759762712
86,1.0015243617298917,0.008450292802420151,1,0,0.9919014533628988,-0.010738402430202154,-0.13459663047326204,0.009714258308192352,0.0013784242163838417,-0.0027770386011955962
87,1.0014000913693097,0.00800376901522011,1,0,0.9913738840719448,-0.009133472094255829,-0.13247868138235186,0.012098216914215839,0.003200610086229283,-0.0026833498326386176
88,1.0012408743694057,0.007626213431353494,1,0,0.9906901569335683,-0.007078790399415789,-0.13313957780115834,0.01109608204873797,0.0011238953151465707,-0.0023441762053241135
89,1.0010709456682314,0.007369944313168896,1,0,0.9896638007058518,-0.005435521441897134,-0.1335208843858716,0.007958101185706407,-0.0006498912203339223,-0.0013473852087621209
90,1.0009120979610011,0.007296988823200439,1,0,0.9929088751457371,-0.006114557822393232,-0.13295780581866062,0.0010603457869156332,-0.0033397242348963832,0.001164759230168005
91,1.0007817920313846,0.007468399497343663,1,0,0.9942926375870819,-0.009747172467658398,-0.13081194906907417,0.000838042572952506,-0.0018114591767152764,-0.0029530676018218955
92,1.0006922167465087,0.007933377559551227,1,0,0.9938256505839762,-0.008824427735573296,-0.13109097616009865,0.0047387838083892955,-0.00048100831546657935,-0.004398318465717175
93,1.0006499119501395,0.0087201283806864,1,0,0.9924566338406118,-0.010737241546367389,-0.13000037858707572,0.007273223723572031,0.0005486743039812405,-0.006307926420360567
94,1.0006556373959326,0.009829815479437287,1,0,0.9901417927552713,-0.007049643149750466,-0.1282853210187682,0.007259556120276643,0.00039177628918397417,-0.005014759274364655
95,1.0007045297816464,0.011234135683182501,1,0,0.9892210724638429,-0.008591632881457627,-0.1305668259800891,0.011240685777145156,-0.0007583132520136813,-0.006848836518989723
96,1.0007869068580364,0.012876382432200217,1,0,0.9913649443655027,-0.00910218446370309,-0.1305554702737588,0.007262444660104009,-0.005233268007909444,-0.00654936730902023
97,1.0008900377377332,0.014675563504415186,1,0,0.9923553830210393,-0.009767792342897397,-0.13177041506854312,0.005396378471093887,-0.007128133625352627,-0.009088099654415288
98,1.0010007660107316,0.016533054049571123,1,0,0.9953037035697635,-0.011194643527187218,-0.13196078219486793,0.008890358479707898,-0.009550262604062831,-0.011814761605832069
99,1.001108326303036,0.018341168488835713,1,0,0.9952675175944031,-0.010588688966863033,-0.1279806975739567,0.011040310944584665,-0.004506207938591219,-0.012383604834813525
100,1.001206421631714,0.019992820311310566,1,0,0.9946780726637107,-0.010034712973101389,-0.1279266786263366,0.017557428218191787,-0.0057033065703919195,-0.012933924402422548
101,1.0012938457814753,0.02139119848320448,1,0,0.9913174022916041,-0.008032455022335648,-0.12774388733585393,0.0196179978226541,-0.003980572701888711,-0.012437193214032522
102,1.001373543588061,0.022458311749253116,1,0,0.991434606665845,-0.01068272930901771,-0.12921727235006378,0.017804565055950756,-0.003835945520414311,-0.013010225052232323
103,1.0014506515957957,0.023141454743385553,1,0,0.9906240377487564,-0.01145464209595622,-0.1291652955768225,0.018212011955420514,-0.003888248146022298,-0.012824725870847705
104,1.001530382560687,0.023417073849075928,1,0,0.9925931186599741,-0.008022346189835532,-0.1317051080016788,0.016452496448818046,-0.0052780672706082546,-0.015280323597974058
105,1.0016164681067703,0.023291943495149826,1,0,0.9940426295444097,-0.00941884469170222,-0.1298026366503002,0.016831254740511795,-0.004631986979564665,-0.014312186336295458
106,1.0017104113599373,0.022801800207954193,1,0,0.9928508709820603,-0.009817029595477365,-0.1327061243400768,0.016841987955731764,-0.0059746666180080805,-0.01491416567527025
107,1.0018113349198643,0.02200759239701812,1,0,0.9958251905511188,-0.008497715138140138,-0.13215148418898034,0.019769695908272773,-0.004511805684568895,-0.015069688310767913
108,1.0019159851786728,0.020989439932572507,1,0,0.9933137990951605,-0.007906706848467077,-0.13047161685741882,0.014628052683419084,0.0003698884034057651,-0.016226729973476423
109,1.0020185446093248,0.01983846981560705,1,0,0.9949149958728115,-0.0066901960439075935,-0.1286975236937832,0.012739071154580296,0.0017950278075048315,-0.014783663639500524
110,1.0021102336895227,0.018647019994542092,1,0,0.9917323419940534,-0.008562175746184309,-0.12898442221039266,0.015784069003034404,0.00253083767359209,-0.01364733858770087
111,1.002179086848241,0.017498212781398185,1,0,0.9903487197721572,-0.00606210700335026,-0.13133245169812116,0.00783705573648121,0.0017559488405250899,-0.01439064083867303
112,1.002210540310114,0.016456407098335107,1,0,0.9904381065380672,-0.005499763075055627,-0.13336766465585628,0.002280252818607776,-0.0008313971062981479,-0.01119190096380478
113,1.002189363883863,0.015560362833471762,1,0,0.9934636114471233,-0.007685288593007999,-0.13353425260254795,-0.005273432874247777,-0.0037512612366267573,-0.00825223554968642
114,1.00210294389346,0.014820884066314275,1,0,0.9970293572513221,-0.007184022091120136,-0.13470412688576291,0.004807105750172649,-0.001604210165646682,-0.01026554640012456
115,1.0019451977805975,0.014224023694686028,1,0,0.9919030496899517,-0.0033322665114890494,-0.13899692140379044,-0.002075275663271746,0.003054290513288597,-0.007477702333135728
116,1.0017198872711925,0.013739597350636346,1,0,0.996789524732122,-0.006383620229224558,-0.12972512698979222,-0.017692771367657314,0.00646115362033868,-0.007253799525945985
117,1.0014421002127052,0.013333103584712186,1,0,0.9957226916008401,-0.010190788863193715,-0.1299739918042582,0.012846783880635803,0.011475299959750329,-0.008120366883190691
118,1.0011371752597258,0.012977818240935263,1,0,0.9903356614142236,-0.006943180174915429,-0.13693765282547946,0.02162198581170491,0.00972236856749624,-0.006146312120688976
119,1.000837118354156,0.012663526803803091,1,0,0.9892928961611228,-0.004379099194910137,-0.1353436408629689,-0.0024061961388617786,0.00932750918289109,-0.0033108797618995886
120,1.000575324881013,0.01239941997758503,1,0,0.9917509209971527,-0.005832550325217608,-0.1347983892130123,-0.0016258629138359243,0.013733097552213443,-0.0004141355286511646
121,1.0003808982289344,0.012210694228426175,1,0,0.9888351698034733,-0.007603486706649173,-0.13216441300620912,0.010906936469751364,0.0036807377822322294,-6.161733073768964e-05
122,1.0002738825544764,0.012130408797622337,1,0,0.9896013959180328,-0.00878158394063187,-0.134372313840848,0.004826840166440251,-0.001869363542200953,-0.004265037895556497
123,1.0002623702437818,0.012189360138971185,1,0,0.9913707014348585,-0.008929238699377739,-0.13465083800276964,-0.004230406278001757,-0.0017940492369180265,-0.006063859751841142
124,1.0003418945028475,0.012406920457075678,1,0,0.9915924535244415,-0.00538790461736069,-0.1362063987905958,-0.004825711304995883,-0.003720179364886941,-0.007580832262625253
125,1.0004969540841762,0.012785099705337425,1,0,0.9914024693003883,-0.006871815487818375,-0.13598206489035747,-0.005969644890482544,-0.009345574235151264,-0.00909661382547612
126,1.0007040974984058,0.013306853909520336,1,0,0.9923273774882176,-0.007166635811836626,-0.13804348229809507,-0.0032115343009754857,-0.009391337312026552,-0.010143492153097676
127,1.0009358228545513,0.013938374240646763,1,0,0.9912233264891366,-0.007825987233426819,-0.13912597911141872,-0.0022925896072466933,-0.011176700231123628,-0.007284938009813763
128,1.0011646096543545,0.014634227235197191,1,0,0.9908310811783031,-0.008402325477888686,-0.13655820275151545,0.002150702052339498,-0.010460252074475157,-0.007919571899539854
129,1.00136657626136,0.015343895587682819,1,0,0.9931726057742704,-0.01081090204287949,-0.13706262248158885,0.01070883917237818,-0.011889459899056863,-0.008527033692661046
130,1.0015244283694151,0.016018267455802853,1,0,0.9910387738352832,-0.008707791045730388,-0.13781976434610416,0.014102070148270899,-0.011436353827372805,-0.010164326837432366
131,1.0016294627275353,0.016614765402409765,1,0,0.9914116509797777,-0.009009854766629213,-0.13894411671661297,0.008139535952628918,-0.008447325143360017,-0.013463557918174726
132,1.0016824199425578,0.017100188170642308,1,0,0.9944234640551661,-0.005388407060646997,-0.13644447157267836,0.003953693397351987,-0.010011051471999242,-0.012512627313956127
133,1.001692985491834,0.017451062721871764,1,0,0.9950462189631076,-0.005126537018020699,-0.13948042933213242,0.004684966183775958,-0.006571435804410212,-0.012278731091229832
134,1.001677804839263,0.017652147855073914,1,0,0.9919578000338632,-0.008508484143669897,-0.1350020826442448,0.007503366151562881,-0.009100883205370698,-0.011545571912336424
135,1.0016571247408128,0.01769426144343236,1,0,0.9914414402805255,-0.007461242571086074,-0.1340484952278661,0.011204816911915666,-0.005586832013456833,-0.012851170359945922
136,1.0016506080530871,0.017572595971258965,1,0,0.9903181582079446,-0.006178080303765635,-0.13479267602794276,0.009370808868668796,-0.0036378469449390057,-0.011052586862685504
137,1.0016732737390173,0.017286283934397347,1,0,0.9904107692789773,-0.004945444520224514,-0.1352290747372642,0.010027244300019751,-0.006241899809167099,-0.011081200174358334
138,1.001732592125291,0.01683943921945866,1,0,0.9910182540751067,-0.0037664538314735583,-0.13802914109213985,0.010879681670707447,-0.007231895067709408,-0.01036077276367451
139,1.0018274190515593,0.01624336514151971,1,0,0.9928295363582427,-0.004269275395120744,-0.13843242939683212,0.011723474387466272,-0.00922330680656079,-0.009683707520157979
140,1.001948843724829,0.015519135565095135,1,0,0.9941183996719657,-0.005393820775638403,-0.13706925378947712,0.01108841466217338,-0.006631828395088592,-0.012403469119061606
141,1.0020824412170333,0.014699449894166309,1,0,0.9940735812071709,-0.004949978551163836,-0.1364215330886682,0.010745971188158454,-0.006354074082395165,-0.010259332995542533
142,1.0022111107997103,0.013828699384995513,1,0,0.9931261196406425,-0.004748976993620654,-0.13510165618915668,0.009610876141439021,-0.0058522856633181335,-0.010464447905142112
143,1.0023177343927276,0.012960595873325046,1,0,0.9942359476678575,-0.0049122321537750984,-0.13344360957277157,0.010907061924707761,-0.0025888962914184573,-0.009271428463045074
144,1.002387199169564,0.012153371280496383,1,0,0.9920716491041865,-0.004501984767730497,-0.13458201630811203,0.008806132937781885,-0.001696081841874272,-0.007735524491455613
145,1.0024076878483885,0.011463261537313564,1,0,0.9926858907291773,-0.004641760443115378,-0.13544638952343258,0.005605793069981719,0.00025850927478529855,-0.006823850642229859
146,1.0023713789243094,0.010937558322994236,1,0,0.9933893860785934,-0.0061743753578839934,-0.1310246701432625,0.006929090846741155,0.0025600729667770395,-0.003675783056817046
147,1.0022747503688212,0.010608763948622282,1,0,0.9942528090142929,-0.006245974768568876,-0.13494948028150405,0.007150686512996475,0.0022783431545316942,-0.0028451086263098593
148,1.0021185879638113,0.010491173386630262,1,0,0.9940718013495675,-0.0057381772594252735,-0.13395429629925007,0.007088934643818663,0.004404511568904061,-0.0027095551014360117
149,1.001907693475508,0.010580545577811313,1,0,0.9924768242303195,-0.008028205361533168,-0.13279903912383345,0.011430114542443795,0.005330818200637506,-0.0020469182348970935
150,1.001650292480721,0.010856646074165211,1,0,0.991571922635629,-0.0067005830868605695,-0.13523361403499184,0.011806170224196161,0.007103053726875253,0.00010300557415352704
151,1.001357255193101,0.011287713448804299,1,0,0.9916775745638684,-0.006154725417809954,-0.13307371874888796,0.008503228760703169,0.00861445864896646,-0.0011520440646467618
152,1.0010413357065968,0.011835638478516815,1,0,0.992226163686511,-0.006811508256007211,-0.1354885471073177,0.00914136344187054,0.0063313651669269656,-0.0009771608742448457
153,1.0007165918543286,0.012460894933892472,1,0,0.9917024218594832,-0.0062259893043694154,-0.13554482732540896,0.010149458057530984,0.004474872648177765,0.0003331167729098901
154,1.000397994769958,0.013126740780674623,1,0,0.9908022662775988,-0.009653459629331743,-0.1345939992824208,0.011570426779644354,0.0013270447469650446,-0.0008404867374090869
155,1.0001010908830787,0.013802530671600689,1,0,0.9913656218880039,-0.008182503853816771,-0.13473208183434537,0.015142385850369686,0.0001003908911900331,-0.0001531149306054556
156,0.999841514085502,0.014465976196953355,1,0,0.9928415008323185,-0.007289160936321256,-0.13183059291023824,0.018508608096094805,-0.0009143815359700426,-0.003404573370472656
157,0.9996341659221096,0.015104028051220708,1,0,0.9917919755549206,-0.006022257536495487,-0.13480181652061501,0.013468828470779372,0.002817744083762199,-0.0041693696861228365
158,0.9994919970203294,0.015712063553254416,1,0,0.988493392088206,-0.006382797188203779,-0.1325710502877009,0.015261101298559563,-0.001839732566345858,-0.004578451989428759
159,0.9994245481015367,0.0162914090574116,1,0,0.989494248611491,-0.006088080960614178,-0.13428198433407618,0.014171828540555237,-0.004947652477177306,-0.006598962293966422
160,0.9994366539803012,0.016845745617974826,1,0,0.9891998052992151,-0.007427080126211468,-0.13548634705481907,0.006545977214365597,-0.010120654692267486,-0.007496419462463202
161,0.9995277917111871,0.017377326592341345,1,0,0.9892820630776358,-0.006021595504042986,-0.13240478286795537,0.0011050796312290117,-0.014100258898569121,-0.00615664894313549
162,0.9996923627205977,0.017883988966301577,1,0,0.992462937727988,-0.008838715018465955,-0.13092882182159835,-0.002913781206229848,-0.017008304582735664,-0.00539884438088898
163,0.999920831348642,0.01835765735180125,1,0,0.9910336132767491,-0.007087375509597724,-0.137331887201642,0.007891251434589512,-0.013057183734175816,-0.00727046232146138
164,1.0002012979483346,0.018784539598060587,1,0,0.992012969534547,-0.0033073942500866397,-0.13459352026387264,-0.011310255180591672,-0.016459975140914955,-0.006665582661379188
165,1.0005209315493337,0.01914670320541327,1,0,0.993138826740623,-0.010240599425436404,-0.1349226776327543,-0.014218974129764441,-0.013913134329164984,-0.004200745401953346
166,1.0008667864817373,0.019424412979235653,1,0,0.9905597252014683,-0.012375598129454522,-0.13702534257917337,0.013023411704947021,-0.014413198145443307,-0.006587992909543169
167,1.001225821624339,0.019598615885688557,1,0,0.9907979812388048,-0.009241112434872334,-0.14257046500511494,0.004813335322882981,-0.018971630371760313,-0.006062859353432816
168,1.0015842950285345,0.019653245317089885,1,0,0.9922385578252788,-0.009125598044923185,-0.1405654171239461,-0.006729603930084392,-0.01112623512376869,-0.006176165699199424
169,1.0019269814165017,0.019577385263403798,1,0,0.9913259178821512,-0.009148880539277943,-0.13384998771404114,0.009096344654871477,-0.011825646944147767,-0.007890968826942197
170,1.0022367789992825,0.01936747846550619,1,0,0.9905249628033612,-0.008140768062529084,-0.13398853718808199,0.016076627038141413,-0.01827800589682251,-0.007629307809128999
171,1.0024952167835943,0.019029503843306015,1,0,0.9920897076091119,-0.0072532918153241374,-0.13663262575710503,0.003751795969458865,-0.015956231463720934,-0.009838474767332977
172,1.0026841196982244,0.018580600081188926,1,0,0.9936339032295496,-0.004482695696646749,-0.13662073826887214,-0.0039027279823136804,-0.015113576762408175,-0.007367793040481609
173,1.0027882375807307,0.018049420827470294,1,0,0.9960323680472523,-0.005505338511629028,-0.13767085625391193,-0.011609709959076397,-0.016885296650558324,-0.006758851951306106
174,1.0027981469103526,0.017474750009381413,1,0,0.995118122868175,-0.008726441125268995,-0.1373406745749266,-0.013089744969195363,-0.013572108700561924,-0.007001509117226303
175,1.0027124734016022,0.016902393700419165,1,0,0.9951670052297122,-0.009272229857350888,-0.13994474369614057,-0.00959843791777678,-0.0098424147321975,-0.007840923237546248
176,1.002538657406385,0.016380915358989518,1,0,0.99260357381114,-0.009297091247885816,-0.13651444383362935,-0.001943148677144212,-0.006902326745479008,-0.0066007806218370355
177,1.0022920353796485,0.01595727679661492,1,0,0.9902422373518281,-0.011707141569685059,-0.13663831660331618,0.005817369752425284,-0.008999366145313747,-0.00546298182779752
178,1.0019936529909903,0.01567358392785826,1,0,0.9911213392220098,-0.012878914674897567,-0.1343583694132494,0.015330345991189133,-0.006324292601368023,-0.009044180311714113
179,1.0016676114136929,0.015565626841590699,1,0,0.9914390013107006,-0.011152592441161083,-0.13522859613670268,0.015756967033401584,-0.005635679240345995,-0.011013203149489677
180,1.0013386820718349,0.01566299514930172,1,0,0.9936027677438519,-0.005920536270131282,-0.13813576183573467,0.007530370138591372,-0.00639560720883099,-0.012108092350389251
181,1.0010305049737436,0.01598993682667253,1,0,0.9925111278268013,-0.007538827755994796,-0.13994581445367602,-0.001240249369971354,-0.007376311756198879,-0.01149702651315635
182,1.0007642411046032,0.01656620287454835,1,0,0.9913862975125074,-0.007799024310229528,-0.143954208047291,0.0036373995846608292,-0.008567076846036917,-0.011102508403301743
183,1.0005573852357823,0.01740755539192604,1,0,0.9886366521480437,-0.009526003955283587,-0.1429955024414317,0.011688343979309207,-0.011350470511536722,-0.010287510622170194
184,1.0004226102571092,0.018525844495774595,1,0,0.9890359426674996,-0.008784330831737458,-0.14477205683232527,0.010232055299287807,-0.011673189783131895,-0.011693521056034698
185,1.0003667941454868,0.019928437839599727,1,0,0.9899284367454008,-0.007425545322125374,-0.14443929052876894,0.010596027603354275,-0.014696769281371314,-0.012167413635933278
186,1.0003905157395372,0.02161663306616179,1,0,0.9885949280523636,-0.0072568834938767385,-0.14216637879670518,0.012040665252980755,-0.018529610872738717,-0.009783073205944936
187,1.000488206235221,0.023582819681875058,1,0,0.9913373715585031,-0.006643469544892588,-0.14189174788496814,0.008792096518244438,-0.01720971773773868,-0.011441315477685133
188,1.000648907893392,0.02580661256794726,1,0,0.9927074938883148,-0.00759416214267716,-0.14349863566010915,0.011518308574277197,-0.01977052239331128,-0.011720526061145979
189,1.0008573846243334,0.028250750689396014,1,0,0.9903830764738826,-0.008583744996006804,-0.14493961877553324,0.010713852079566172,-0.01955708145166194,-0.014722527476409016
190,1.001095294073182,0.030857977433854752,1,0,0.9901934951902577,-0.009822184085441252,-0.14332999629905555,0.013177641797129696,-0.018948975012451272,-0.014061637880728237
191,1.0013423134601487,0.03355019765514526,1,0,0.9889720359154205,-0.012349161531355833,-0.14315052966385453,0.022078101231469416,-0.015559256907105207,-0.015344090330847469
192,1.0015773778915338,0.03623086400371358,1,0,0.9894320031616952,-0.010527456981308374,-0.1459947397323368,0.026783568849796952,-0.018090000318277188,-0.016085967744212473
193,1.0017802969637364,0.038790832425301194,1,0,0.9915712160727017,-0.007936550448986859,-0.1462188551437225,0.03220037763756494,-0.017020292576753148,-0.014768661193708857
194,1.0019338348574003,0.041117049632149565,1,0,0.9906795060669876,-0.010099953128876819,-0.14961782945304422,0.033441964336214075,-0.02093882316695068,-0.01634863113093966
195,1.0020259796006274,0.04310271128546962,1,0,0.9928124736315959,-0.009761450512992167,-0.15081925225912454,0.033227588353587245,-0.025210840764890927,-0.012856618464357946
196,1.0020518311101965,0.04465719916207055,1,0,0.9914262795350052,-0.008863634210423344,-0.15389746545648142,0.035174122121701235,-0.02722124622098014,-0.013479010003031446
197,1.0020144951891923,0.04571418777728774,1,0,0.9903949009573474,-0.009835488894451315,-0.1534443937298271,0.036057651109721395,-0.027293470004892864,-0.01237277779274861
198,1.0019246178710948,0.046236674084345245,1,0,0.991206869897214,-0.0087480166033267,-0.150765441120716,0.04180921863711533,-0.024213453943124016,-0.012498903560528626
199,1.0017986195914488,0.046218217137753835,1,0,0.9884768929563147,-0.007791805607448023,-0.15007554911454593,0.039770309011899874,-0.024259834152111234,-0.013332473523640068
200,1.0016561003464288,0.04568035809848387,1,0,0.9884901104419699,-0.0050880457872618,-0.14947909166300316,0.03603341379532108,-0.020223161379962183,-0.012340011743803387
201,1.0015171009188821,0.044666987971664594,1,0,0.9898368844072447,-0.00820412412615853,-0.14990977597492394,0.02962185762845058,-0.021615008723017814,-0.01438920608930068
202,1.001399822316674,0.043237113102431744,1,0,0.9912022632594808,-0.0060229646708606305,-0.15009426187857963,0.0319410171001723,-0.022172381161723292,-0.015472702995167908
203,1.0013190803682113,0.04145766100298893,1,0,0.9904175630453861,-0.007197476115198258,-0.15105840991516864,0.03494396935635537,-0.021215501148307864,-0.014353435195815445
204,1.0012854124101738,0.03939751688905369,1,0,0.9890837651390838,-0.005303710805920161,-0.15174616328523322,0.03200014909759217,-0.020832121469944155,-0.013871302001923035
205,1.001304566771581,0.03712321686891103,1,0,0.9906913277311987,-0.0049896497071238175,-0.15297277670359335,0.02736842973130253,-0.01734259980363878,-0.01586254943218457
206,1.001377131731408,0.0346961739385333,1,0,0.9903406672362098,-0.0039233790906969416,-0.15382470300574883,0.02385707339483904,-0.015222342537168053,-0.017309096156968493
207,1.0014982022352492,0.0321711679950038,1,0,0.9905513353943218,-0.0034153990999711047,-0.15200487914694874,0.02742786816529894,-0.01689449900279688,-0.014138481628634259
208,1.0016571688531328,0.02959588472089935,1,0,0.9875150606989295,-0.0027908324438334713,-0.15217637162912442,0.019101033450839702,-0.018298274463252752,-0.015191548140159985
209,1.0018379150655154,0.02701134688122707,1,0,0.9887354231735723,0.0019017786791227136,-0.154962447941389,0.00012649484984910927,-0.02061117859679569,-0.01003640333889297
210,1.0020198279198405,0.02445315892849936,1,0,0.9879056857616951,-0.0031301981231623053,-0.15082867984740225,-0.010183500200997531,-0.02110862407871423,-0.007825743358288412
211,1.00217991252397,0.02195356616472304,1,0,0.9933507420677237,-0.003631265745092638,-0.15396193846460696,-0.008208548080841385,-0.01820749339328135,-0.00835818168738084
212,1.0022959252543724,0.01954425088347192,1,0,0.9882669568674912,0.0011622051251401263,-0.15881937323304476,0.0028689378475912045,-0.015032938109814284,-0.0060785773880093685
213,1.002349986820409,0.017259478695615,1,0,0.9911723320808826,-0.0018807301415939657,-0.15537387264193248,-0.02051648331836408,-0.011271586343358073,-0.004805659754970404
214,1.002331847224022,0.01513882745061757,1,0,0.9931658363804786,-0.007966202702018825,-0.15426762085253348,-0.005597168353065013,-0.008320511337459487,-0.004451893773948622
215,1.0022409558516974,0.013228518774184234,1,0,0.99011030174349,-0.007691238445427804,-0.16180910300330253,0.02114178692459529,-0.004677190372452388,-0.007563122946154424
216,1.002086716583246,0.011580503328202542,1,0,0.9894229499468525,-0.0019505903613857268,-0.16371389177394777,0.005165445509140586,-0.007173526532901734,-0.005910949623077117
217,1.0018867342315136,0.01024899080507935,1,0,0.9903238743138847,-0.0036181664735273774,-0.15359116287702698,-0.00298263956312514,0.0006201451791646814,-0.004562337242705983
218,1.001663402452264,0.009284939803339491,1,0,0.9881861718453292,-0.00427317210979954,-0.14897916536671338,0.007321648447512066,0.0016338211674987494,-0.004205516633822409
219,1.0014396688538592,0.00872975104591571,1,0,0.9872787098579303,-0.00465080076150596,-0.14946154852695417,0.003362438540501439,-0.004042291643102689,-0.0071154557757088874
220,1.0012350322933254,0.008609628032349565,1,0,0.9899417556921011,-0.005897555625350767,-0.1483506232956538,-0.0034162179924147476,0.0015339487516043456,-0.00785632195486984
221,1.0010626607392539,0.00893175806454154,1,0,0.9901263828281776,-0.005495288580842393,-0.15182591284964075,-0.002131845573810393,0.0016330280327989213,-0.006580386152371254
222,1.0009280376477456,0.009682982135738474,1,0,0.9911474283864614,-0.008644734169694007,-0.14961140076009985,-0.0017453060001212694,0.002710575983637105,-0.005614666377490928
223,1.0008290212621662,0.01083121192296301,1,0,0.9896830103858193,-0.009620520254887494,-0.15107717772956286,0.005550687774562663,0.00012935734577705673,-0.007992417844682109
224,1.0007569234718137,0.012329423044574859,1,0,0.9891001339092357,-0.0056115262338735355,-0.15190697641184844,0.011984863968599721,0.002170505857171824,-0.005888878607582923
225,1.0006982581701094,0.014121480161080335,1,0,0.9869754141074849,-0.005617105521655009,-0.15142574128836084,0.015827918365182707,-0.00192805397144931,-0.006735152745321898
226,1.0006370035690306,0.016148477930165824,1,0,0.989665966829713,-0.007348652093008487,-0.14951638010513274,0.013272859291430164,-0.0030506825302233096,-0.009452927059751879
227,1.0005573285721179,0.01835403047865995,1,0,0.987564904488153,-0.007711393819520747,-0.15152143532222725,0.01806010979835192,0.0015552341751567482,-0.012518704414850684
228,1.000446627462337,0.020687191590859414,1,0,0.9882992714809131,-0.006709176703056871,-0.1541052401218048,0.019843612710172234,-0.002191732022811544,-0.015085972986519784
229,1.0002984415348806,0.023102377454322073,1,0,0.992490393902164,-0.0042597354047975815,-0.15424242667706436,0.014105829693650521,-0.0005489044637166153,-0.017810122409233218
230,1.0001145883554443,0.025556623448355166,1,0,0.9898986684912499,-0.005623717326206994,-0.15250426447491844,0.009923087580782754,-0.0027160512753404385,-0.015317163295138134
231,0.9999057750545017,0.02800547414301984,1,0,0.9889829584124614,-0.0077085910312472035,-0.15212789390933582,0.018623654361320324,-0.003897734493697623,-0.016723585857842206
232,0.999690281748447,0.030399344821802343,1,0,0.9876745988272988,-0.008717851311985986,-0.15214191887142642,0.023313251735312252,-0.0062661930109269605,-0.01974826775053789
233,0.9994908931721765,0.03268194405388857,1,0,0.985442940624206,-0.0058816342014574715,-0.1555310639527083,0.021440668890174024,-0.010827311747661208,-0.01991905544747503
234,0.9993308422252015,0.03479145855554906,1,0,0.985632286919764,-0.0031679353668357733,-0.15614881664745506,0.025074694459142604,-0.013443302911881913,-0.020058133212786263
235,0.9992298174992374,0.03666422962443063,1,0,0.984745924458306,-0.0032311543469811716,-0.16040088261328966,0.02556197278871143,-0.01912197454960925,-0.017804266897300698
236,0.9992009784194247,0.03823999701155673,1,0,0.9857659058416345,-0.0046152458469055175,-0.16013258614826445,0.02824541309504603,-0.022803615169684682,-0.01850968714314584
237,0.9992495137065533,0.0394674864049502,1,0,0.987765655606648,-0.0034979082400353944,-0.16315554175796126,0.027489074244519913,-0.02405089427728823,-0.020388444219152906
238,0.9993727782659685,0.04030911012890573,1,0,0.9858644906808509,-0.00389471995336348,-0.16301609276808493,0.024858997984238938,-0.026121941532152717,-0.02051027775160565
239,0.9995616705255667,0.04074384672758865,1,0,0.9858451705489805,-0.0025717037558530336,-0.16279144896396627,0.020133037411508892,-0.026179292141112885,-0.018910605243757796
240,0.9998027832811142,0.04076789829236333,1,0,0.9854176834043554,-0.0037433430505909903,-0.16442996758975595,0.0224980829944214,-0.029596196016720814,-0.020156593458665623
241,1.0000809083219242,0.0403932616201641,1,0,0.9865003958061503,-0.00327548732027948,-0.15970934139613222,0.025106439873933656,-0.028722873896462626,-0.018947419284487586
242,1.0003815222051624,0.03964469024635072,1,0,0.9898582601832869,-0.0007516436251496738,-0.16313249754477852,0.024286681503744297,-0.028435110300714866,-0.01523278611391993
243,1.0006928404437236,0.038555723629056245,1,0,0.9884477499428423,-0.0015358013096508003,-0.16284354510508525,0.020560178860329643,-0.023564586680533257,-0.01701290752950383
244,1.0010070020068722,0.037164682472658805,1,0,0.9879694926345005,0.0008936984460382255,-0.16165921679324885,0.01692842650641827,-0.023256155993129805,-0.017382299477142083
245,1.0013200976601166,0.03551171047912603,1,0,0.9873862713837115,-0.0010853991558997284,-0.1633163977798449,0.014222566282958557,-0.02623384473727808,-0.014368771067610444
246,1.0016310931736654,0.03363778942004204,1,0,0.9880735830390946,-0.0005847172274541957,-0.16582850959783543,0.015087358846174192,-0.02606656391359751,-0.014297357401258835
247,1.0019400480057983,0.031586020903426625,1,0,0.9869911266244237,-0.0016172024691584318,-0.16575054653331348,0.01897107151447706,-0.024660480018453737,-0.011963531244551368
248,1.0022462197291517,0.029404591008271426,1,0,0.9877134491382588,0.001386182067844611,-0.161794645391674,0.02115663189594431,-0.020979660066849273,-0.011924405745299361
249,1.0025466344552043,0.027150158925292447,1,0,0.9894951072725866,0.0007342893274140639,-0.16463734154989407,0.01619486699979702,-0.021032367296014338,-0.013120835955677724
250,1.0028355385715613,0.0248902630893288,1,0,0.9883988819299654,0.0014360545269496965,-0.16535145570498413,0.009944517965278517,-0.01955636917059468,-0.012212346997886517
251,1.0031048928231892,0.022703735756398547,1,0,0.9882286439864969,0.0016592269498342735,-0.16357056358753008,0.006651757058812494,-0.014016122782083595,-0.014002334733568723
252,1.0033457968186337,0.02067879125785573,1,0,0.9904033761416154,0.00025803439716814183,-0.1609043413155921,0.003601295133735207,-0.01464471864469063,-0.014193579234079927
253,1.003550478154727,0.018909027187492433,1,0,0.99249453452684,-0.0019218181865845044,-0.1617521333804834,0.005904515207569656,-0.009377828454504982,-0.013343696216260121
254,1.003714260108685,0.017487812885612714,1,0,0.9928455862087422,0.001194699812799554,-0.16078828847087304,0.012218106900351175,-0.004239447809449058,-0.01803869057434381
255,1.0038368185936803,0.016501495397232998,1,0,0.9918880054702198,0.0021658090036951213,-0.1602419882796503,0.006916697371029765,-0.0014770839249149612,-0.016120434783225755
256,1.0039221922315273,0.016021821430432327,1,0,0.9927410064237587,0.0028540918431465374,-0.1590024052481756,0.006268508975575617,0.0036839431694705455,-0.013452266176114116
257,1.0039774494635705,0.01609820694164176,1,0,0.9883399726665661,0.002547423419385523,-0.162528988999642,0.005267557578527395,0.005345100761421281,-0.012309161904174264
258,1.0040104758323953,0.01675093231444351,1,0,0.9878476349942178,0.0012835377994233274,-0.16336992063856734,-0.00159520014660425,0.005427923645806449,-0.01371967341459836
259,1.0040277450657358,0.017966673889165456,1,0,0.9890871521312218,0.00015760960001859404,-0.1605659681996071,-0.006443204225478824,0.003944513855424069,-0.013616201687510932
260,1.004032947195654,0.019697709240684837,1,0,0.9928657792036992,-0.0031632978894566006,-0.16018514772007983,0.001540689577873535,0.006095838804661893,-0.013349169571503694
261,1.004026934909865,0.02186560516681017,1,0,0.9894424358905533,0.0005788066145725213,-0.16720985624240595,0.01785519148750238,0.013350332937381216,-0.012896708791817077
262,1.004008849121832,0.024369357017438965,1,0,0.9910606212735075,0.002441664466438575,-0.16264534915897483,-0.002368729860247885,0.01768935847000235,-0.011724871806834923
263,1.0039778225005949,0.02709703293505268,1,0,0.9931337079817596,-0.002826796745025731,-0.16040405504210692,-0.0017115931805616086,0.02058791639050524,-0.011543100088959224
264,1.0039344964195982,0.029939213686910743,1,0,0.9922212492108785,-0.003067229712605613,-0.16201596453062764,0.027616401270976792,0.02128036854157692,-0.011256108984847132
265,1.0038816956618262,0.032802007978125984,1,0,0.9905174815938991,0.0014401339396825012,-0.17151641173583063,0.032387254480242905,0.023364265380620863,-0.010658351779386751
266,1.0038239284574815,0.03561726398434434,1,0,0.9904891152135369,0.00369157653172168,-0.16618722551315107,0.015236976476936732,0.02865626930002785,-0.009920581752865523
267,1.0037658645924208,0.03834805430687135,1,0,0.9891838301747511,0.0021316654400683767,-0.16040878412209433,0.017845547757746424,0.03538290398924766,-0.00728188140024392
268,1.0037104587488757,0.0409886803288611,1,0,0.9863919234418106,-4.4133735635990646e-05,-0.15739556051335987,0.02466310875202847,0.034744467076058064,-0.005094085880387168
269,1.0036576969486557,0.0435598927787622,1,0,0.9893501479863572,-0.00014659765011493093,-0.1567731994248298,0.01896887910477722,0.03393882108679591,-0.005845876569916886
270,1.0036048129824375,0.04610114993613645,1,0,0.990352797830493,0.0012292873193210044,-0.15902711404997277,0.014408814682626664,0.038223882790768965,-0.007314808059068908
271,1.0035481862483975,0.04866222724756369,1,0,0.9940310112122567,0.00175637062200068,-0.15950919713316797,0.01661905247509103,0.04273409054915473,-0.006726706296884977
272,1.003486251938945,0.051296286765092756,1,0,0.9932088575123558,-0.0006735667639033166,-0.1612863485177195,0.015342362246674908,0.04479592972573729,-0.006671447963465328
273,1.0034221118059685,0.05405565170522503,1,0,0.9933018233758291,-0.001692783789280725,-0.1617776634193536,0.015373346398147737,0.049148018905405794,-0.00791992443537994
274,1.003364502514467,0.05699024825090002,1,0,0.9905616417498255,-0.0004662818341611108,-0.16217870322388805,0.009769546480819154,0.059202863303763786,-0.00403523091021876
275,1.003326367908776,0.0601473709602911,1,0,0.9907162977031839,-0.002223969701582677,-0.1566180809087766,0.023067329261536772,0.05677088197524207,-0.0024335153003865137
276,1.0033211735573824,0.06357048968212646,1,0,0.9912180992928015,-0.002621705845164313,-0.15445199309904922,0.04175634160949458,0.061597736384662975,-0.001347466826973069
277,1.0033578989906726,0.06729458546448472,1,0,0.9906007420226871,-0.0023971897408309496,-0.14997463328252747,0.04105852149365218,0.06534379951689341,-0.0028861021990289836
278,1.0034360994066935,0.07133628459990882,1,0,0.9903705477241445,-0.000871488665195722,-0.14888992050791525,0.03356864033576606,0.06930601363553675,-0.004202386460134092
279,1.0035425003011158,0.0756789952379014,1,0,0.9893190036342957,0.007332010431970373,-0.14701011087225588,0.022337438362335198,0.06924811305184422,-0.003918899763220005
280,1.0036503180929344,0.08025601304407479,1,0,0.9910737767708169,0.007362022051140471,-0.14640888861815973,0.0071553736216972775,0.06413048946431439,0.0005770965584825874
281,1.0037219220965674,0.08493712690643952,1,0,0.9926059134450872,0.0014452623487504264,-0.1451902334512503,0.0026648313478836337,0.06834172042542878,0.0013745849757673349
282,1.0037146394596732,0.08952519625597109,1,0,0.9934170971449434,-0.003509416622361796,-0.14866254767153847,0.009269532882279443,0.07753766640942428,-0.0007957112834171348
283,1.00358864312738,0.09376751643920868,1,0,0.994780228906131,-0.0036533513230240363,-0.15115290519990393,0.020907308831066864,0.08897394716896918,-0.0017483626868413768
284,1.0033152250548547,0.0973828153057973,1,0,0.9955143345749137,-0.000510042141405495,-0.14691678011457887,0.021300440588696314,0.0996001244850845,-0.0035038149759940274
285,1.0028835686507278,0.100099957668228,1,0,0.994565718451754,-0.001167072412542411,-0.14223699730138636,0.008827294739808604,0.11126501632314775,-0.006422855341467899
286,1.002304467746894,0.10170077500827884,1,0,0.9938108325376419,-0.0022877391148401413,-0.14128298462069583,0.0029364017237206736,0.10849492836022227,-0.010773841808207812
287,1.001610182206229,0.10205812610480222,1,0,0.9933988203289561,-0.004038952175348105,-0.1358213668704565,0.007069670493406453,0.10899687626184269,-0.0143039014381266
288,1.0008505321062924,0.10116143973252116,1,0,0.9903906415803675,-0.0015208989742164394,-0.13079280698635487,0.011967711031995206,0.10935417316796657,-0.01418433983965038
289,1.0000861552340725,0.09912483537935404,1,0,0.9900147156075262,-1.0171412467029801e-05,-0.1339338718597957,0.004578986393113259,0.1046057932882327,-0.0113489045844841
290,0.9993803890906002,0.09617649683328859,1,0,0.9876146779974733,-0.002785725600425339,-0.13224005806757955,0.0048529811435264305,0.09305217265250341,-0.00636707101405481
291,0.9987913696070521,0.09263153304652666,1,0,0.9886698441489393,-0.005997491958697453,-0.12833991511788023,0.012475391677383584,0.08294894710417516,-0.004529260200869384
292,0.9983656444748437,0.08885342442819504,1,0,0.9908467228610233,-0.0033330519319804616,-0.1278395575482049,0.01728711020800706,0.07914274301440763,0.00226066026403006
293,0.9981339950110123,0.085210582314321,1,0,0.9910894880908571,-0.0009346131372454762,-0.12344420485293083,0.025856917661784985,0.07829757512112905,0.008323942010085999
294,0.9981094905517599,0.08203416478305155,1,0,0.9931825819469507,0.0030158745310048074,-0.11981538540450828,0.02831599348666184,0.07917329779834853,0.01658442783523274
295,0.9982873439631011,0.07958159267827002,1,0,0.9924226754640884,0.00018461412982137313,-0.11404802249990265,0.018368494036648576,0.07878390690597262,0.02289639431190893
296,0.9986460622099141,0.0780083871998698,1,0,0.9915156654497448,-0.0038737098954086365,-0.1105432659311583,0.007450541291610403,0.07477417050365076,0.025314322133172213
297,0.9991496363236645,0.07735003543009367,1,0,0.9903219803160377,-0.004753931245777481,-0.11171616938908928,-0.005153756556371435,0.06759950428719277,0.02572761810967352
298,0.9997508373084444,0.0775157205687848,1,0,0.9906914857245354,-0.006064116298233271,-0.11866394905821168,-0.011214426375380776,0.062277490883746775,0.023146008014453875
299,1.0003957780841943,0.07829615593517061,1,0,0.9923086608354059,-0.005637163065492186,-0.1236245364694576,-0.016710999990536345,0.06349759904206954,0.02026443292954354
300,1.0010296168180701,0.07938736849691605,1,0,0.9925716808567131,-0.005648750815587811,-0.12543317137073925,-0.022400011236860203,0.06263050112701628,0.016580251212283407
301,1.001602719182223,0.08043044952690112,1,0,0.9952012713745916,-0.008546241068653222,-0.12928691484724628,-0.01705015320790533,0.07089400987821139,0.013653826340954446
302,1.0020760417385328,0.08106415795020605,1,0,0.9980671514009676,-0.008541502575877094,-0.12642434087037102,-0.0245283926347854,0.08600649899609349,0.005186835113299024
303,1.0024242286069993,0.08098364779915068,1,0,1.0000754462886845,-0.012088444143342592,-0.11755760237980596,-0.02221448091341254,0.08962333028477917,-0.0026621146657530167
304,1.0026351351891327,0.07999573643206323,1,0,0.9987144483645011,-0.00974011699798403,-0.11254021007989072,-0.009793088821227567,0.08748821192303358,-0.007460349854732999
305,1.0027052881877547,0.0780602153353763,1,0,0.998548574001829,-0.009731526619980953,-0.10232557922700194,-0.004727489996762286,0.09118490409904076,-0.008438780875890861
306,1.0026320288559933,0.07530819983698556,1,0,0.9963738306989893,-0.006356160820560177,-0.09919298908037204,-0.012855642776723042,0.08900551459417609,-0.008000933144452578
307,1.0024044061409714,0.07203199093536818,1,0,0.9943068592523454,-0.0080317502430115,-0.09828720671196936,-0.013612959482314627,0.08069126326858503,-0.00620183594637859
308,1.001995852138978,0.0686456083117392,1,0,0.9909793710811019,-0.008074241191562612,-0.09568214902238774,-0.009743698448830633,0.07615678637474496,-0.00870748655920372
309,1.001361946459134,0.06562040056192929,1,0,0.9890101927633367,-0.006741046704818329,-0.09791895652844203,-0.004714031200940273,0.06516999483262403,-0.009833469654362296
310,1.0004459674431412,0.06340529302470378,1,0,0.9869155166408154,-0.008740210902382979,-0.09845757787615149,-0.004864007078856746,0.049484432675972384,-0.007749761403452502
311,0.9991933859860985,0.062345390463856454,1,0,0.9933901475254655,-0.011289863118628481,-0.10101034004838484,-0.007487262513601476,0.038276350978297916,-0.012084491930176936
312,0.9975741359529507,0.06261470164208044,1,0,0.985231280743853,-0.009074813244850948,-0.1021970462765761,0.012213452279033747,0.03473737934700004,-0.02041682574515996
313,0.9956088207885572,0.06417772015932348,1,0,1.001934888853302,0.0008816482395793226,-0.09137337003845858,0.019687620390053735,0.034355123631996894,-0.021574161647888154
314,0.9933926455726089,0.06679020888834979,1,0,1.0119366042130216,0.00012046751155302296,-0.08395619841617101,-0.017156750078181987,0.043961899387541484,-0.017109353741297857
315,0.9911096233041642,0.07004256193885715,1,0,0.9898984087846386,-0.012699607927963267,-0.10213968757610138,0.004592748149868099,0.04888462896423858,-0.026392656316786847
316,0.9890303254489657,0.07344099648121337,1,0,0.9879381876202753,-0.007025899343841448,-0.12772717011191886,0.07056739184319691,0.028564479156592913,-0.03586200616543115
317,0.9874893828861196,0.07651409993930444,1,0,0.999727440755506,0.0034153958489351348,-0.1324847135490011,0.0960110824243009,0.014686975758805683,-0.04005260311601704
318,0.986843359249799,0.07892655834785085,1,0,0.9777911631794227,0.008459690981383463,-0.1365617363771072,0.0775089481851962,-8.048686077076599e-05,-0.04699819054945218
319,0.9874144061160902,0.08057988727243959,1,0,0.9568674777123284,0.004459267643652889,-0.13863129789245668,0.0774416561789548,-0.014400682325550003,-0.05246202790898801
320,0.9894293818377058,0.08168236518288201,1,0,0.964493119125398,0.00680285537264216,-0.15302091969771484,0.06377658672052595,-0.03769487266451011,-0.04658440718414516
321,0.9929667595235828,0.08277589502592538,1,0,0.9682336513227559,0.010929472923382956,-0.15383197267133358,0.05805327695744973,-0.05738526279425635,-0.041378123534596814
322,0.9979233557072318,0.08471386487322446,1,0,0.9651733916372408,0.009934664186683647,-0.15252197494231448,0.045306795375373465,-0.07552698502184603,-0.03504646217793879
323,1.0040093728868498,0.08858966123029131,1,0,0.9725623435038319,0.007156266750464812,-0.15582035676942488,0.04015000602641255,-0.09539738005497005,-0.035074174759071965
324,1.0107744609553677,0.09562028128804255,1,0,0.9921477374505238,0.00620131024916459,-0.16322835163952357,0.049598264063073175,-0.11234090630703412,-0.03922037827404001
325,1.0176607388130607,0.10699450864592337,1,0,1.0340014087381344,0.013521197353319652,-0.13229014362392988,0.02935396910971819,-0.0913745941996627,-0.041095561215455684
326,1.024072311968125,0.12370127642954275,1,0,1.0561180903540899,0.01652259434082898,-0.09592201023472002,-0.06642708599778817,-0.002376570515997296,-0.05083982145963371
327,1.0294468628763804,0.14636050381949028,1,0,1.0388869031570538,0.00187072361914346,-0.10733473335136716,-0.11504366876167983,0.08316309950633806,-0.06390523084966164
328,1.033315591370454,0.17508327887431455,1,0,1.0163534415049793,-0.005951344494260511,-0.13811483780846617,-0.022743548455801114,0.11679085048414527,-0.06333599416257911
329,1.035343256581109,0.2093882633572294,1,0,1.0044409854748964,0.0068704866490886755,-0.1746096203091575,0.07528636773711302,0.1323119496183668,-0.05469819433125742
330,1.0353472999424185,0.24819610738390724,1,0,1.010820007180135,0.03550321351863198,-0.1971261590690093,0.013951964176586035,0.16226147951729347,-0.05750704163829279
331,1.0332999879289617,0.2899138639075021,1,0,1.021921121194539,0.053692254932758046,-0.19087878249895066,-0.09823493979373546,0.24276080907962552,-0.06781700510538681
