id,ASVM,GSVM,walking_nonwalking,normal_abnormal,ax,ay,az,gx,gy,gz
1,9.288822514236703,0.3110266353771741,0,0,9.045764432697167,-0.4591809184327077,1.5725207547276046,0.17227136969072412,0.04259222891057088,0.006695306102379965
2,9.321879640335322,0.34859471406175124,0,0,9.191084812097094,-0.23635573879846858,1.881210305136036,0.2940668376019259,0.018423724932695597,-0.02153903719008961
3,9.397798414058512,0.3882892750733796,0,0,9.462819360129453,0.16414721345232886,2.0981823883091986,0.4592604915372065,-0.025964783213441672,-0.027957973441252296
4,9.515906865882908,0.42900268334244646,0,0,9.67004402854654,0.2208956092272663,2.119699319563491,0.5104480213286927,-0.0156077531497449,-0.0358286151350573
5,9.671476672553235,0.4697909276548386,0,0,9.561949296693907,-0.2229645573573534,2.187970002135166,0.514659701905195,-0.035298356056406306,-0.046381323641750516
6,9.855410152067417,0.5100407618911764,0,0,9.293620781509475,-0.4661652863105852,2.056953769837519,0.5738707378484906,-0.12439460458836384,-0.054589264291570246
7,10.054366861894788,0.5495373405501008,0,0,8.609644026833866,-0.2290063926490821,1.499790297014321,0.6253972243825993,-0.3049272775604623,-0.05456149523366884
8,10.251570472676985,0.5884020961826603,0,0,8.662688323949439,0.33234649108117226,0.3613786831721122,0.6217416092480752,-0.48271936652948777,-0.027746612505611976
9,10.428487631941968,0.6269050659954907,0,0,9.908782964634092,0.718512296389976,0.07701368935910198,0.4873557529209709,-0.3139320361963421,0.0014205966928744972
10,10.567356435070872,0.6651985822824282,0,0,11.628104055175724,1.106432444271113,-0.0014137266853996462,0.32786615967641913,-0.20232713006600922,0.032355154714763946
11,10.65420133719154,0.703061630505502,0,0,12.052210241082053,1.4214501801366297,-1.0001169067961984,0.2795585870098572,-0.18904422339298538,-0.005667475347311542
12,10.681665251594543,0.739763697352778,0,0,11.503647815032387,1.6226127830848507,-1.613301673809673,0.22616744502455846,0.16079997663948048,-0.060559843127642704
13,10.65090517802,0.7741276508185626,0,0,10.86646520394297,2.0601386311545813,-0.9141577029696354,0.02972783777356889,0.8492761526544667,-0.15295591257937674
14,10.571997881191256,0.8047885184590089,0,0,10.947910930458944,2.271681402129809,-0.2319875573126403,-0.11962660379133808,1.452755657007361,-0.18230752460649116
15,10.46268271689247,0.8305435809356626,0,0,9.919879498597897,2.4503916438111446,0.7321919072806568,-0.1418529967448424,1.4355848540000267,-0.1196585059139569
16,10.34566135305137,0.8506330810023622,0,0,9.25679174907088,2.5444910532380343,0.8727042282913137,-0.19680796680493826,0.6178320813901537,-0.12406025148220003
17,10.244960574909832,0.8648273276807028,0,0,9.854232364152802,2.3748626455739226,0.3242102218160147,-0.3317489440670519,0.34016624677225654,-0.15014734734105287
18,10.18200015636163,0.8733042625057321,0,0,9.73105364431634,2.2896925119470994,0.2619069060738723,-0.4300048786003667,0.6504443961080242,-0.20584004553396487
19,10.172002721185201,0.8764023314656846,0,0,9.574762255666165,2.032684707487273,0.5244405070686805,-0.5380198031495373,0.7209319602212837,-0.25479786977274194
20,10.221287430853758,0.8743653345664991,0,0,9.606626173683756,1.3692982729010554,0.799461582439842,-0.5992584925248345,0.5629019955320732,-0.30546042754861935
21,10.325862044396077,0.8671680501198864,0,0,9.614824432991636,1.1524440474523228,0.415808279545889,-0.6070580641823113,0.1866806019706181,-0.2844563586058162
22,10.471588032366588,0.8544709464167818,0,0,9.444080626594225,0.5444523205962314,-0.49439447714724566,-0.5392699867696735,-0.4573534041157412,-0.13255189140567117
23,10.636019583311482,0.8357232223363006,0,0,9.089866635441618,0.8981683925106606,-0.9899816335241916,-0.31790046622817525,-0.7240639151628628,0.08385733554497295
24,10.791775906892752,0.8104068265201052,0,0,9.34201386458605,0.8479101544997637,0.3002831786052857,-0.05414487926097424,-0.8334810510854321,0.23406899106996215
25,10.910976775360032,0.7783794221095947,0,0,13.164432056173897,1.514513545802939,4.971444201154021,0.3070854432722967,0.08091948636942253,0.11832732254975437
26,10.969897064808022,0.7402350671445694,0,0,13.236295447534559,-0.46903151918673863,5.214600058075356,0.22495501898271208,-1.1160694359061363,0.08867514593128531
27,10.95275263540776,0.6975668591157425,0,0,12.974807696563078,-1.5405873402050025,2.5362369462795677,0.402358661874943,-1.9818502710595856,0.06982842396678775
28,10.853667054884196,0.6530042658282184,0,0,10.235491396648884,0.44263308476113294,1.473628398585471,0.1564706121222676,-0.20099147154862235,0.06118162939617119
29,10.676466816108594,0.609943573732625,0,0,7.42002304699011,0.7448909942029724,2.947681404477441,-0.02819425401296517,-0.09419849008966145,0.10054617897253358
30,10.432746295955235,0.5720022119655352,0,0,7.72396956118483,0.9611536629718143,2.8203852792948223,-0.3667419637946501,-0.2343409619467267,0.0331235577288919
31,10.139179393680193,0.5423455547125418,0,0,9.276238183998121,0.20031859895238413,2.4285319002377435,-0.3879382519627873,0.21249259424790853,-0.08392517378155342
32,9.815053910025606,0.5230767780449374,0,0,9.62884904954043,-0.4637352279223471,3.141725532062759,-0.2625795043538783,0.5256948357015411,-0.1453715843673189
33,9.480564194943701,0.5148372460225291,0,0,9.962378984185234,-0.5084075750148752,3.249408428348691,-0.21496791160996687,0.16073834756459227,-0.12337924658874289
34,9.155863880945555,0.516693895149785,0,0,9.657185006411803,0.03454882702822551,2.2036390412782776,-0.3168939828517891,-0.12671136327569651,-0.025622064660280584
35,8.860560227301105,0.5263336340257901,0,0,8.698788581783425,0.5114385366442137,1.5079189050495148,-0.19906550020489913,0.11473866663127946,0.08895034481993612
36,8.613309041914064,0.5405380045237544,0,0,8.229494213572764,0.1717729908124475,1.6571995838762918,-0.197890088900587,0.577953731233881,0.10898777365670452
37,8.431331214207157,0.555856031756345,0,0,7.197713456043373,-0.9243646532814903,1.6627204655812586,-0.12847564904693887,0.8489296024840685,0.06870431944551877
38,8.329840749531678,0.5693339315066042,0,0,7.563507359996965,-1.873744380399534,1.597880243078394,0.0028254290548942675,0.8359547800563355,-0.0005025539171443564
39,8.32142529765667,0.579126200213471,0,0,8.693793626727835,-2.134136198432655,1.7411348346671802,0.17408204877835118,0.8577470344996602,-0.12414243084664155
40,8.415341748669803,0.5848310367931613,0,0,9.512058250965232,-2.124626818997525,1.1272057923941903,0.25187228919093513,0.6460992415830792,-0.1748327282679886
41,8.61658207317587,0.5874648052590915,0,0,9.409946166420472,-1.6402894385228561,-0.023929214901791947,0.2801126788897946,0.5161640826683956,-0.06749290133817576
42,8.924571995262385,0.5890888333381503,0,0,8.70383713782582,-1.376713140594157,0.9963757167319,0.155945515520886,0.4100322463231316,0.15125412137056468
43,9.331556001732082,0.5921919071699181,0,0,8.655171400464631,-1.0094263620415505,1.3588462495052285,0.06756755972229614,-0.18510256476833936,0.3125129173275661
44,9.821019976763997,0.5989860331744427,0,0,9.038507276728211,-0.9124415103726085,1.0541772967280416,0.13971976851897627,-0.22819208668564545,0.30824672359774924
45,10.366743885210658,0.6107793315881939,0,0,8.650279168649869,-1.2338642066171546,0.8917158852538599,0.12469441934336839,-0.35731472686722826,0.21705481291507914
46,10.933132317237556,0.6275526104523753,0,0,9.110672540324794,-1.6805101607243322,0.3620286561425194,-0.0457310099505508,-0.7396724222902717,0.13172525637541474
47,11.477299967655062,0.6478039920824101,0,0,10.127320423280251,-2.5094184126492682,-0.44961047257826015,-0.13735424597688747,-0.8935533986753371,0.00520104261167893
48,11.953016548939114,0.6686668720747726,0,0,11.333992605611316,-2.651487003375298,0.19780855386016413,0.001961684891433383,-0.35077953171841747,-0.07691866471393925
49,12.316112375859996,0.6862737640610237,0,0,11.982027235025866,0.036482508343137786,3.003128609467986,0.3953803192492312,0.2126119935221887,-0.021163776640681413
50,12.530435584097916,0.696329763553627,0,0,13.663714790327447,3.6993301334354647,7.291260826820688,0.022739733911321364,0.05814951323996719,0.12487053063796312
51,12.573099804730665,0.6948426347365712,0,0,14.250131771170878,4.987196781784833,7.165476056865197,-0.7925908752286723,-0.9483877376602836,0.26172854970265413
52,12.437747156245974,0.6789057769277081,0,0,13.351713551006764,2.5885769198015436,2.842238369287379,-0.7317923802881372,-1.2318729124400492,0.16550085226026673
53,12.13500298400654,0.6473689250079506,0,0,10.636441337210444,0.5419518974605882,2.0348370310894,-0.6279028080012131,-0.27757938903981333,-0.08671648801207527
54,11.690140328831058,0.6012221850056493,0,0,7.996467381867312,0.4858512525222197,2.9339347468188492,-0.41337589744283226,0.19218548365221583,-0.1452013457064892
55,11.138840036397436,0.5435940583047079,0,0,8.115822126698028,0.3332920271697173,3.409871172084203,-0.25712737045151524,0.4920754042299737,0.003420157425782411
56,10.52236898058163,0.4793809723645474,0,0,9.450322577084323,-0.6220437309374953,3.8864839835963534,-0.13377874469665513,0.4174268994506971,0.20820867100616977
57,9.883308077607817,0.41461435195161295,0,0,10.765306032334117,-0.49986008968388757,3.367730742390981,0.009156438713701113,0.21484276137868535,0.19958375251572993
58,9.262361368041613,0.35570457487986556,0,0,10.039524553239774,0.2409391860493869,1.8535168314782553,0.19021503522039276,0.12648828701636403,0.05421560258096236
59,8.696200134048812,0.30869731077129087,0,0,8.538209900127766,0.9275159882366678,1.6993991002565185,0.17780245185123242,0.22142996015933591,-0.02126790820521731
60,8.21604643868251,0.27865699458737375,0,0,7.469480152607038,1.1947285276720117,1.6013495648373213,0.05374017651750929,0.0352895115066225,-0.020236586569215446
61,7.8467723226133925,0.2692604776163871,0,0,6.92776816382922,1.3126957681106792,0.7809062052814107,0.08181769647769173,0.0044099134358438,0.025465043012351182
62,7.606463857630177,0.28264206185843593,0,0,6.820232889751953,1.5297360260573634,0.5106037714571372,0.1121945839648175,0.20912774704045273,0.1165243611112587
63,7.506468265588439,0.3194805341957554,0,0,7.4519717729200226,1.9415697474021636,0.6563456474364232,0.047937274246613516,0.2662974869297536,0.24334791378007864
64,7.551855307336213,0.37926472061810257,0,0,7.701071436983567,2.3757382333664787,0.4880502047960801,-0.170876870880378,0.26920815536712195,0.29657605461964803
65,7.742063855962797,0.46062917111821017,0,0,8.225047293622833,2.3168429213461303,0.5738342559432402,-0.4866146356498018,0.29088974107858107,0.22119344666933397
66,8.071396687751795,0.5616303437993906,0,0,8.745488977209492,2.1605300010827846,0.9312607329239487,-0.7698688376461752,0.6068855688794139,0.047036394399241586
67,8.529057518020778,0.6798447407318957,0,0,8.621022756340126,1.8966746591320418,1.0630698956149374,-0.8909631928798794,0.6638969316984039,-0.10963562874799601
68,9.098603947904085,0.8122193325050261,0,0,9.090089424628406,1.34724610599135,1.31341582808038,-0.7503866657638957,0.5211593963657273,-0.15700841569205626
69,9.75696071549137,0.9546938336511526,0,0,9.7130779476768,0.8123700073562466,1.7294154225934413,-0.700187868507988,0.2797257997062776,-0.1493667761292102
70,10.473411982896064,1.1017288921121426,0,0,9.450775665855161,-0.2538337166456199,1.4507355913729751,-0.6349646123795395,-0.011284726462841461,-0.08591747699041027
71,11.209189928244548,1.2459721070666594,0,0,9.405194949719506,-0.5788635420390192,1.0902959076813028,-0.6201183683505309,-0.5135436421471558,0.04402722740292658
72,11.91833598876246,1.3783252205081893,0,0,9.002913382293624,0.5527346696022932,0.39819346053579535,-0.3703892108341495,-0.4876011788150708,0.24849482183549057
73,12.55036224210549,1.4886134308817047,0,0,10.394972392244842,2.3503680674327856,1.7453071121197627,-0.34629987935139556,-0.4783101094334411,0.2034379870991479
74,13.054822069909068,1.5669037005884123,0,0,11.176423826458436,1.8467581376373112,5.280889536833037,0.4282169146834628,-0.7576958769458982,-0.050740722874189535
75,13.387240521101992,1.6052940942321534,0,0,14.706046000559173,-0.42992017136954624,11.570001825732163,1.787512385425511,-3.3003292300699676,-0.06726927920621996
76,13.515176844939836,1.5997540867922853,0,0,19.76100404302259,-5.780383151195944,2.8737422812599718,0.22985997285662976,-3.2684950742062164,-0.5010696285383708
77,13.422899482334897,1.5514526619224622,0,0,9.774454071926018,-3.2345709889461296,-0.552587637600003,0.7024064966174771,1.6095451025898215,-0.48344980061984455
78,13.113574430782355,1.4670961729689889,0,0,2.7305066174780115,-0.6792515920844442,7.9064669583191725,0.4254836814342977,0.41890265763958334,-0.22844285703847977
79,12.608830506252826,1.3581111102701051,0,0,10.54761478505415,1.3507551763983876,3.314415012370658,0.20154053161975682,-1.8467300808029412,-0.28263306627349294
80,11.946373297077587,1.238872671214275,0,0,15.93381245494576,1.706581800756241,-0.39161739440184734,-0.31808051330848136,0.1449189638233515,-0.2693985234446468
81,11.17642661088981,1.124409241098101,0,0,12.513135547079063,-0.3061689715438268,1.674359723292851,-0.20571743010490795,1.291336755956861,-0.18187066992292794
82,10.357400597870127,1.02806447678483,0,0,8.565344377346081,-1.6098232529872483,3.27955954141072,-0.12944699843616678,0.3174456994888644,-0.07805453330475697
83,9.55095547663886,0.9595429953726298,0,0,7.845022152179421,-2.478061428480273,0.43669283827468597,-0.22054475160953496,0.10184309307910085,0.07529517563788662
84,8.816795726643496,0.9236610203842074,0,0,7.933786279842019,-2.256928093858504,0.11107049519164232,0.006966787067278332,0.7844692097307537,0.2384020722525346
85,8.207788117160032,0.9199810544173155,0,0,6.8476253271534855,-1.8235392059133844,1.3581068469670068,0.34725214677445415,0.8766173020820679,0.16999783358363435
86,7.766011863114941,0.9433384988730296,0,0,7.082789047967245,-1.8843530538963902,2.075654960646792,0.6795673799422646,0.4416703943201481,0.011006310080649229
87,7.520105095094937,0.9851041706547105,0,0,6.954414817674555,-2.8677684177031812,1.2399236044366981,0.8985917139407124,0.06461260435138941,-0.05789045603993419
88,7.483948270969232,1.034909467747201,0,0,7.921066027699078,-3.3918145747859705,0.8443683550088267,1.3502777794624325,0.19714434298869468,-0.06262969788321769
89,7.656478240065735,1.0825004051266207,0,0,7.2570388249900795,-2.683801006112682,0.7634357407466945,1.6364950222163264,0.6377076347754412,0.07513693847979103
90,8.022332240200551,1.1193765342031472,0,0,7.677193331096331,-1.490181711354198,1.4169360226219594,1.5272692573254143,0.4694838306924846,0.24520382034901342
91,8.553081305161097,1.1399197956113338,0,0,9.081390580055618,-0.3297150212523646,0.6080090326239369,1.2909928993759858,0.1667655915328357,0.3157444996523698
92,9.208959431980292,1.1418382491314756,0,0,8.628648652840257,0.618173081672326,0.03607836130427957,1.0569723665208737,-0.0837655855784431,0.37176859248433836
93,9.941136065254184,1.125917365909375,0,0,8.733753876825276,0.7083047624301372,0.9315804088449805,0.7048825087432,-0.6316546896357734,0.3569508065583647
94,10.694651446189587,1.09523063941165,0,0,10.311617228990963,0.168455141215839,1.1729289027509784,0.47062834192068104,-0.810398069440956,0.20455250840184247
95,11.412102973285943,1.0540621310736518,0,0,11.409636239003303,-0.8017157666684166,0.11183250433123706,0.5245910219365687,-0.28988858350033536,-0.0028687432408698523
96,12.038028219668577,1.0068207473345738,0,0,10.527304658171165,-0.9738979948936616,0.8011941227482966,0.7693677647737748,0.2268081217206876,-0.09162851549901778
97,12.523711564226357,0.9571894354824861,0,0,11.027555374881148,1.0926895228934288,2.9330964008132985,0.8095833984803951,0.05835350712934983,-0.01365921022613816
98,12.831893758173635,0.9076695928630136,0,0,13.18106314742213,3.9943625565805765,6.857672622178059,0.0587723137282486,-0.17689426098687627,-0.03683151729202475
99,12.940623822555853,0.8595706428533018,0,0,15.78507433748915,4.611356452259415,4.718972421884454,-0.9231131135736754,-1.1911892287510888,0.11898115957458524
100,12.845370541950754,0.813377220776317,0,0,14.571442678073707,3.36096021121376,2.521557002594779,-0.8585993933795586,-0.4314652513819134,0.2274519367508765
101,12.5587200350899,0.7693285188731258,0,0,9.300051748191057,1.0553171637867245,6.032194811594133,-0.5676045307011472,-0.5072572880413692,-0.01845775024470473
102,12.107622408036194,0.7279990861503883,0,0,8.386792455388935,-0.13563689241515223,3.426196091805906,-0.5856460599531335,-1.1890678409737043,-0.07740915586155056
103,11.528951377128555,0.6906940652990285,0,0,8.8451237555543,-0.15412817818906896,1.510623047196365,-0.5151424742785171,0.11314700539370849,0.08548685245745066
104,10.864617281547806,0.659546565019825,0,0,10.39929164200617,0.24853001318596665,2.5950727430824103,-0.2531858663821034,0.8454239628771819,0.2626965872696694
105,10.157342318084712,0.6372974755573406,0,0,11.921845132207022,0.9778712223719791,1.7293178919207486,-0.16740515603606776,0.4991238192681547,0.2547287322121336
106,9.447640399442927,0.6268239044657132,0,0,10.095968134406537,1.469356535666635,0.3466725110170057,-0.018657312430703243,0.5350799977913495,0.1061436774227624
107,8.771990508148352,0.6305468942889687,0,0,7.05229424770575,1.851750596477019,2.202747852401864,-0.013449616584238634,0.4299502131450008,0.02382944746871565
108,8.161967091826806,0.6498830235229848,0,0,6.485997738136435,1.672469554273687,2.2531333009437007,-0.27385779684244227,-0.2577164302291344,0.008782899399871749
109,7.644144973765475,0.6849023895456029,0,0,7.008359646466106,1.5866010975632179,0.966782040888925,-0.3708995957269421,-0.2258662818161813,0.030187845833532092
110,7.240658368106551,0.7343149595127753,0,0,7.172704270275337,1.8347640137710866,0.21617542256511244,-0.36812654316160287,0.16364036439950388,0.11960864824961864
111,6.970191308966728,0.7958317910401156,0,0,7.334506413485181,1.9430238715443693,0.6850887837500298,-0.5193005622127048,0.28428541089088727,0.21493444086926097
112,6.848973638465682,0.8668480004079017,0,0,7.822999622296588,1.1712432941236308,0.8059749308270066,-0.8909402998246151,0.0181959434246366,0.24180028595245615
113,6.891224687977219,0.9452881430915147,0,0,8.4672303886151,1.1429082411780718,-0.16845370201355425,-1.152760815102298,0.4430830341211471,0.19411505213551636
114,7.1085423432973265,1.0303674148876796,0,0,7.904264739685856,0.8611473723779021,-0.23194370902761166,-1.4166807170184375,1.1818173921619377,0.12936459540428707
115,7.507995356463137,1.1229877157183592,0,0,7.244457530044852,0.6204057714482599,0.9293835254720028,-1.2850015156777201,1.3409020230599336,0.05473301840260138
116,8.089078030142637,1.2255398578635737,0,0,7.892765702901603,0.7154370506859661,1.9329599518592486,-1.1653020850834412,1.0019562489574292,0.006972014935808229
117,8.8401059032024,1.341034001494565,0,0,8.33716417254209,0.6154629722902807,1.672576325694319,-1.108035852980291,0.6942937657022348,0.05702731163351255
118,9.734939819834729,1.4716971282598201,0,0,8.284194875965731,-0.19967546578221249,0.5449365334418378,-1.0960456772601854,-0.07974879023180487,0.08914353208630348
119,10.731053261399001,1.6173854711054645,0,0,9.066050999021654,-1.2391747313765251,-0.31606444775815506,-0.8154241409046551,-0.7975979159019247,0.1416007493324846
120,11.769889039531913,1.7742855293904132,0,0,9.816814845473997,-1.7258519383224893,-0.09593775392706819,-0.699921776213619,-0.6362168867476458,0.20107365520081757
121,12.780176535223784,1.9343790105149061,0,0,9.351046913212246,-0.4027131921743519,0.5783615886150842,-0.24792666952868558,-0.311998764753922,0.34542431263575524
122,13.684380094327144,2.086017382968374,0,0,10.363814469601124,-0.788256266551553,1.5794137680575542,-0.42001731313393637,0.003910433355731406,0.1256539333470032
123,14.407712962434639,2.2156909849307067,0,0,11.560656541762432,-1.277668988034197,9.333221695117677,2.28301115556409,-0.7634878331724949,0.08235290422727842
124,14.888241876575057,2.3107047225262027,0,0,20.873301929600096,-7.181347761890748,18.030739541854906,3.0125809826022096,-5.210575694305355,-0.2094645889853069
125,15.085831329748201,2.3620919001919454,0,0,19.78148050172731,-8.678417492297028,-4.088630805406648,1.1391659439071273,-1.8460841975519178,-0.8343513956679436
126,14.98763649590212,2.3669138229665836,0,0,2.0059172863042773,-1.9212373764250061,3.568958336749261,2.485266006388445,2.9808375226594386,-0.33347151544832765
127,14.608933424943482,2.3292570022927177,0,0,4.391317975216725,1.4030860185008949,11.058061975226874,1.4279109885628838,-1.4075293821744872,-0.255320674430171
128,13.98972159622524,2.2596783990065816,0,0,17.07507095813604,1.9699594206691586,-1.170482504448344,1.0351225692164654,-1.387780689049336,-0.26078499261844623
129,13.188584020262546,2.173320494048968,0,0,15.077088432126763,-0.8500810972731023,0.37372410091214914,0.7366847012572993,1.880491774550346,-0.46725478054695485
130,12.275277991616631,2.08722632929493,0,0,9.434157346733182,-2.130060023711747,4.611258326841356,1.1911427883885304,0.9071643549752108,-0.4087615317569373
131,11.323094755029352,2.017483382307804,0,0,7.810158942759263,-2.12855263363152,1.5377300592982373,0.996722327460401,-0.20123654180565081,-0.27651846923898177
132,10.401839529923436,1.9767626968542542,0,0,9.39733230811404,-1.4597774455240804,-1.2293403050616984,1.2013976440803937,0.6064626491888612,-0.06784039056964611
133,9.572255833472576,1.9726554871875144,0,0,8.657166805301012,-1.5627847680913771,1.832542687698555,1.708556485326709,1.49263026630823,0.11711213338304538
134,8.882467620084997,2.0069862002068044,0,0,7.481961420730215,-2.0208280720293197,4.3403564485777455,2.054824366538449,0.6419121638998558,0.1522453148878225
135,8.366508317353388,2.0760526201053846,0,0,7.962165998646727,-3.5828224943592373,1.6379290368974317,2.054021879924465,-0.3973376101613532,0.11237028280944486
136,8.044511324453548,2.1715805617986543,0,0,8.88713689377508,-3.043809130407145,-0.00903128897418037,2.3650976331107025,-0.13411186951185672,0.11554862993927693
137,7.923860205929642,2.2821195344635252,0,0,8.31803758950593,-1.7318407451299773,0.35908546504777805,2.46141922166061,0.10678397478751062,0.17034984443464096
138,8.000580204933101,2.3946228364526463,0,0,8.86785169547107,-1.1405462399668231,0.5163677864618355,2.482403552613757,0.20263797076135662,0.2046338518276659
139,8.260446526136588,2.4960073994751504,0,0,9.079484286848999,-0.2719928203401889,1.0891762606341553,2.5236092422555436,0.5908385349340651,0.2227712755886749
140,8.679607338676895,2.5745504605444394,0,0,8.261500240707736,-0.1807791187052613,1.191553459257244,2.4418781087119,0.08702889652174703,0.2553265376518958
141,9.224878835763253,2.6210400201678543,0,0,8.318966365347094,-0.5437534560716275,1.008827934650002,2.478856461955041,-0.4719378414308714,0.28263094056118115
142,9.854174509193454,2.6296410814906137,0,0,8.422505623304597,-0.7182283154936452,1.3407910471405202,2.611508866960501,-0.35352492723664286,0.2558035205363609
143,10.517688129677436,2.598459472967372,0,0,8.92253926072613,-1.0436474099532536,1.2423575394902697,2.5341839386506497,-0.07717855146062104,0.2150669804928116
144,11.160387054191924,2.5297810930976246,0,0,10.093393595105246,-0.8140486526651443,0.963839888149738,2.489325391349797,0.1828049827768932,0.15746497536935994
145,11.726082159158004,2.429949024105268,0,0,10.412941441853633,1.3005923021123782,0.6841206655646053,2.7155628235538147,0.32569598881040346,0.11663496415029631
146,12.162889974549564,2.308829656076517,0,0,11.147151185143477,3.710505016510894,1.2773890451793246,2.854619529860048,0.47959627540921873,0.20968430838388766
147,12.429396925566042,2.178829871967763,0,0,13.057738838940402,6.527467893499378,3.1190023203933155,2.340704263600298,0.882490387594008,0.4993962057502226
148,12.500402842235658,2.0534827006731726,0,0,13.485000027221192,9.10800370927917,3.7086902121181833,1.514204453157927,1.2434153108382022,0.7943895919688028
149,12.370934128334412,1.9457276658722127,0,0,10.791985513816474,7.1874289565668485,3.837141113674073,1.0636893092128838,0.5106208371181584,0.7612340690124518
150,12.057451179704037,1.866143635814699,0,0,10.881023268443906,3.1816460140420824,2.7691766419153585,0.9603010600547193,-0.48430179193967554,0.4334977306148194
151,11.595833799045698,1.821478746493654,0,0,11.363674800943802,0.5851772813998223,1.08152273290016,1.0597749187354928,0.15568095251942204,0.3186724197402192
152,11.0365421423794,1.8138012131798016,0,0,9.919241573635482,0.1943026082508819,1.1649864204888385,1.3861602928522045,0.6371845313771064,0.4293487590512803
153,10.43795660208959,1.8404545181001088,0,0,9.375038681889546,0.7603615009628758,1.275696005331185,1.7073880284963636,0.7813043478285981,0.5537386138962698
154,9.85912336904473,1.8947916010067307,0,0,8.823033914403904,1.8870959857435918,1.2373495862732387,1.909781925248207,0.8743188690019162,0.6283475817443025
155,9.353032159393289,1.967470086423122,0,0,8.12304731551497,2.0594596717123044,0.2655191179171209,2.2692012665424404,0.562257671715235,0.70240154240662
156,8.961268051347284,2.0479846356853226,0,0,8.158452922896185,2.106475560148961,1.2489986307847678,2.277199632461388,0.22033021984535853,0.8694032760440222
157,8.710521547139559,2.1261172140415696,0,0,8.25915280374523,2.470567373080164,2.1661275724073694,1.9568630324562184,0.19039232331302117,1.0101691038538643
158,8.611087605319078,2.193079022410444,0,0,8.315531928224148,3.0651551774038377,1.4584715194068987,1.85571583463189,0.4781301279914512,1.0453438346034223
159,8.657200827043225,2.2422495817158024,0,0,8.02187408939881,3.379844405947266,1.083680730151113,1.809430150382413,0.5784896047100644,1.0298003802048665
160,8.828889593321119,2.269536149980054,0,0,8.130786501451126,2.9504025720678757,1.3549153764053312,1.791703410027836,0.1335085320157831,1.0454205519087223
161,9.094991065080201,2.2734459176498465,0,0,8.416551034621016,2.362128016075486,1.282417911966271,1.799876820498336,-0.19065495281320022,1.1058878807862664
162,9.416998388506286,2.254977548517141,0,0,8.568953127447662,2.08580037119426,1.2633622689496493,1.7982215157278423,-0.01695182295115235,1.180019968544952
163,9.753434257301798,2.217410532524444,0,0,8.684393692335535,1.3820461170398173,1.7556474805761806,1.8320427594257882,0.2607021701687729,1.2235252582265794
164,10.06440621065699,2.166020904020449,0,0,9.828051406781782,0.8973649526925886,3.237385078052269,1.9040051079012241,0.41623405056969875,1.1668210929987013
165,10.315892008691543,2.1077021913322684,0,0,11.99676681617299,0.4947202345115295,5.255157782245315,2.073092233583982,0.6218461382754451,0.9391144020971189
166,10.48319490708209,2.050441431450828,0,0,11.597204889261645,-0.20301054622136003,3.6206892812426505,2.1719416002194403,-0.13694329928527202,0.7278184379888782
167,10.5530404906235,2.0026063286199713,0,0,10.341922595467492,0.10771126109896699,1.2478133933652276,2.1331823345113645,-0.5548882723909536,0.6155594700278697
168,10.524070514180895,1.9720457645199168,0,0,8.207640317578948,0.15624440740210965,1.4338818438910235,1.8428667615646002,-0.030656141002178776,0.6131748121165939
169,10.405938929116852,1.965082380275248,0,0,7.482173432973525,-0.4874396881358712,2.015781707904046,1.4930665549348765,0.028432367378342677,0.5323536532045456
170,10.217540614557276,1.9855561036809295,0,0,10.11399829782974,-1.6923454508492113,2.595415627646972,1.3871496751938333,0.4187124701061229,0.3986216714956065
171,9.984856022611707,2.0341215617936697,0,0,12.598239336450742,-2.433072548398471,1.5826762428714969,1.597493900739741,0.5444692187375391,0.3909570228154148
172,9.73853764178285,2.1079771268374037,0,0,11.727589067451845,-1.7142140201291263,0.3148831785478248,1.9150129764371022,0.3284320749600838,0.614290451939171
173,9.511054369407772,2.2011087359945227,0,0,8.330460268949874,-1.3027327806410967,1.3624397860844872,2.1529096852269394,-0.0032492506332961416,0.8538666952666292
174,9.33326523700711,2.3050068997081876,0,0,7.661062982065101,-1.5045320887327183,1.6909630225302354,2.264792771410792,-0.4171348675055108,0.89178007717473
175,9.230670259788328,2.409713501815803,0,0,8.358506825878253,-1.6862286192875597,0.8642432125185004,2.3572956474244244,0.20474945882862183,0.7439770222018705
176,9.219941421292267,2.5050083461752877,0,0,8.931467903355037,-1.6666040671212392,1.5498874287770295,2.4981124641013794,0.8355895570342301,0.5303074629582755
177,9.306405739592318,2.581552619641751,0,0,8.617874931143598,-2.153991931300908,1.8784797864303187,2.5267293228209993,0.6091516501921415,0.3566924177664144
178,9.482968449382327,2.631845793750003,0,0,8.251189784866487,-1.7854365887287624,2.1677424704159938,2.5804413957211496,-0.1871574726897706,0.19559058099804996
179,9.730714082071616,2.6509009339306906,0,0,8.109170620005642,-0.5655443626745789,2.367350022968629,2.6293868231198148,-0.5989371604486903,0.03639176004978433
180,10.021202816233153,2.6365855016810085,0,0,8.735454571606176,-0.37143312403621975,2.5156623835011036,2.799948022446525,-0.4001186862334727,-0.035277363346139075
181,10.320247462051707,2.589605596788409,0,0,9.609726046340981,0.3168784613890071,2.7780294319252676,2.904359362518666,-0.21159424356182702,0.03762150422763307
182,10.5926585704755,2.5131399973205224,0,0,12.547596075821472,1.8760060753457373,2.6555958373763358,2.5835212573105704,-0.2690066945677726,0.25290820871708786
183,10.80713566369112,2.4121727662255816,0,0,13.709668421606573,3.5166683236073686,1.7506891568691545,2.1288424909778567,0.19474830588293857,0.5027415121088011
184,10.94033886174197,2.2926333386409583,0,0,9.9745000644189,4.4682484661243285,2.3496092733122222,1.9241025647450616,0.34472679220803093,0.6117915307162283
185,10.979376275273433,2.1605083438517614,0,0,8.692220348693947,3.3750244211687512,2.4619586579458663,1.824688296843328,-0.33112629330636306,0.566543879759933
186,10.922468039758066,2.021106299315426,0,0,9.024091296992841,2.7805250001660005,1.1737694811454373,1.750139779138654,-0.11077461646794376,0.4991716488142227
187,10.778111509560182,1.878620026262028,0,0,9.956706400513077,2.767094695729576,1.0786980728134261,1.673374236433785,0.23922948899870058,0.45668355593853616
188,10.563346867037739,1.736056530652241,0,0,10.93086496949661,3.3177650198088102,0.5902416206495974,1.4786394872169408,0.40627445027201525,0.43196394264391563
189,10.301639091152248,1.5955165474289688,0,0,9.659002870285283,3.208064315375478,0.06711263646370279,1.422850129311723,0.6292786379343963,0.3863884024308452
190,10.020654193176485,1.4587260336019527,0,0,8.592163742505182,2.5715416748108666,1.2599927271797087,1.5976911641318607,0.3095264947965906,0.473478212692097
191,9.75003172234561,1.327662213419916,0,0,8.804349461942145,2.579795397476464,2.7126862039259576,1.4348911193632932,0.1444697915089611,0.6385891507575406
192,9.519177156621224,1.2050896256096473,0,0,9.794351429495496,3.069788620974758,2.1617212465816396,1.1620211646781327,0.22153401736058728,0.7412443258296079
193,9.355039758641018,1.094837625617525,0,0,10.04050963968546,3.4606634095722484,1.2027323013563578,1.0061161632274576,0.48023537239222336,0.7370218385305626
194,9.27979572182991,1.0017089381712694,0,0,9.331462713086873,3.2648526100328157,1.4704217791894998,0.8103482294766664,0.5943450500009854,0.6096246274426668
195,9.308414989197166,0.9309938591987965,0,0,8.297633283987473,2.752916683803426,1.93358717608332,0.6493680823393513,0.49633884902429903,0.4436044236333337
196,9.446302810847063,0.8876562036451936,0,0,7.723274422130086,2.568568122670884,1.803318481564236,0.6563050696830223,0.3151191723768683,0.3666274112557055
197,9.687478171212659,0.8753368237845016,0,0,7.862828402082844,2.6114564924064942,1.0805301540934755,0.5978442150190281,0.19285093742825477,0.38878546113191675
198,10.013903245190813,0.8953730143351202,0,0,8.37524325465124,2.8395111605413508,0.6618032215949791,0.5606138553336589,0.17658438760700473,0.45951915260290965
199,10.396491179019597,0.9460475633628601,0,0,8.818983305164936,3.1060980101805753,0.30725113149444616,0.3930128796739073,-0.12228148734059377,0.48592230087661653
200,10.79800160086873,1.022258668377477,0,0,10.028209373955285,2.790662456783195,-0.03994573981940961,0.25577990767192177,-0.25540549401439705,0.5013849181313423
201,11.177585083369884,1.115744844587712,0,0,9.793053525846688,3.10365562941307,-0.5047608594950659,0.16285017370310365,-0.6016662019096308,0.5455426800332207
202,11.496277854741162,1.2159087649328462,0,0,12.853962549680118,2.64333119191306,3.327654983151368,0.5359151530281896,0.08577805715657966,0.4097048116966133
203,11.722379373909554,1.3111618175648079,0,0,13.61749725453518,0.4536315375249252,7.318940343429992,0.9605723436724014,-0.3302650220875634,0.15695416542348326
204,11.835490368852945,1.3905671529502335,0,0,14.437409748076815,-3.7922813638899044,4.646965332605645,0.9577174060628333,-3.4500928126816084,0.07795545570403942
205,11.828209683448494,1.4454310509614832,0,0,11.883727815791552,-1.7613708521291898,0.32351397216480465,1.5816758785231504,-0.3822933911498151,0.19988106061324132
206,11.705165527989017,1.4704571457529976,0,0,6.813728161999333,1.5745853943636756,3.409046795068112,1.6086518631292621,0.8509623698038818,0.3953676239077256
207,11.479987570766886,1.4641997399928368,0,0,7.154762023948784,2.060084981648434,3.925813180721651,0.7175883781679885,-0.5838941671771869,0.4864925745967558
208,11.171527609029926,1.428793357686018,0,0,9.636716458467971,0.9430042385165543,0.7418539783885201,0.2706218151558468,-0.1277692387896294,0.46644924174096214
209,10.800688558047993,1.3691588935757375,0,0,10.909497201885463,-1.1549914877365526,3.2980031908833234,0.32487191334618504,1.6068444917798106,0.3980876817636873
210,10.388639821146356,1.2919766641212322,0,0,9.503165391484849,-2.764956519273173,6.120469144873284,0.43278571645559216,0.9941472516756814,0.4111282788576714
211,9.9564113635142,1.204670905037651,0,0,9.292357067590823,-2.2945281178361703,3.2050664710707397,0.5428140815613514,-0.5939859587085835,0.5083267135356985
212,9.525323726414166,1.1145485313337555,0,0,9.875807182716832,-1.3158257093370542,0.8185295351105412,0.7775300143719097,-0.06158712527509198,0.6228470982945462
213,9.11758023231574,1.0281469954973248,0,0,9.436899255294037,0.3316665301041344,2.709032968906249,1.0982872105730908,0.5535947603214018,0.6893400843082917
214,8.756490565611898,0.9507880708156684,0,0,8.10824254862062,1.2449540012208535,3.7278282141807866,0.8844237859290268,0.2557731548909634,0.6937498694973163
215,8.466024514993142,0.8863026998265795,0,0,7.725296928469103,0.7783620105314916,2.327444292639006,0.39178760179465727,-0.012208396149081958,0.5326205061937446
216,8.269610875250418,0.8368931072852649,0,0,8.249937403931234,-0.7832364827084644,1.299373543400542,0.3177146271861866,0.3624889230683231,0.2753999013171821
217,8.18826456047121,0.8031250175741105,0,0,8.413227008085554,-1.6265542798129367,1.048638338841375,0.4800451129798169,0.7032682414095792,0.07479353537657156
218,8.238229971029455,0.7840604130694926,0,0,8.3387265873153,-1.7513128300773135,0.5775464089902218,0.46905607246629966,0.6344565218980311,-0.04424609979322501
219,8.428389118376074,0.7775252192271492,0,0,8.562604182541099,-1.5381172742538336,0.44204658385227047,0.6586759563101787,0.5166316094259893,-0.043991613361539374
220,8.757747557364453,0.7804712538093111,0,0,8.327108272430623,-1.464942099490741,1.491687009587178,0.8119441820151558,0.5278383176332793,0.0462124619902869
221,9.213404360440475,0.789369086705042,0,0,7.915995344157953,-1.7082664221074462,2.547459343330214,0.7311199830253338,0.004597321774539197,0.18252598740049691
222,9.769501561636389,0.8005722930775967,0,0,8.33373525826505,-1.7103196803215015,1.7953291052960962,0.49881922052328176,-0.487037968402849,0.2493991436609746
223,10.387665719491663,0.8106157828075546,0,0,8.852218879429223,-1.2957333488485925,0.9303546500895646,0.3678195084320042,-0.6817898270373081,0.20318967991958134
224,11.01933640686544,0.8164343870320263,0,0,9.645762667679174,-0.8023892252256617,0.5343402483036999,0.22475071212301181,-1.0128424245546348,0.10135647376674581
225,11.610095556016248,0.8155023685542252,0,0,10.715784739813722,-0.9718680174693982,0.28796069050952255,0.09362263333140944,-1.0212200554627877,-0.016245559874676546
226,12.105690237142248,0.8059062532197232,0,0,11.548473289174057,-1.3577095252506082,1.5442561106995076,0.1998156512138422,-0.38576031344407274,-0.1542746891541573
227,12.458952695482454,0.7863842344995449,0,0,12.693807617813567,0.16505814198507143,5.182804316184842,0.31495400449215116,0.06528208262178707,-0.20029693214204564
228,12.636382818097353,0.75638639933895,0,0,15.270999484414764,2.6378622978630895,7.489572948055915,-0.23730496707575088,-0.2872763842295035,-0.1050651074729603
229,12.62293604140552,0.7161987339893997,0,0,16.162176810797988,2.4081388082530415,4.938797063192715,-0.7487624970006068,-1.1587109891429876,-0.03898825006142207
230,12.423754774980349,0.6671145848053468,0,0,12.310928400750754,0.7968099604019434,3.475186184587137,-0.47797782578692266,-0.7421050557577207,-0.10548979812007535
231,12.06230479607847,0.6115665413417387,0,0,8.728757910273043,-0.37408063269190317,4.197176310560686,-0.37385531475577805,-0.6169272590510982,-0.22160700222070948
232,11.575448223720215,0.5531108184970164,0,0,8.532178804441196,-0.3336179548634169,2.497093385329903,-0.1349540921237403,-0.47177917939396147,-0.16208973184454994
233,11.006914826489623,0.496205093240054,0,0,8.081238464009946,-0.19805008736514193,2.352598551274304,0.1284554634116033,0.36800341704036527,0.029866709225478683
234,10.400956642122457,0.4457994910110089,0,0,7.8220435493238805,-0.36475980318366596,4.00924530427524,0.18934510529017567,0.3239295711257193,0.20871707092960887
235,9.79759178117805,0.40681723579557394,0,0,9.676306899799426,-0.09521040728532516,3.773528308343962,0.17714374936545638,0.12054012489739144,0.13873680318390766
236,9.23004948469335,0.38361749244615384,0,0,10.444226011923007,0.04264696209986621,2.4107790254743815,0.32940483436040036,0.32316677062538596,-0.017737608047497445
237,8.724237970066097,0.3795199073684847,0,0,8.779526471288593,1.1502410319950955,2.619519871067968,0.3028760964511226,0.32117436874725397,-0.09459222616576023
238,8.299579314324415,0.3964483386956873,0,0,7.452611630834665,1.7378716228670081,2.721190464844603,0.23666006158318378,-0.047246004901023875,-0.10146606797306201
239,7.970470049013864,0.43473479351742944,0,0,7.153923940926607,2.2715341649871017,2.0742204067540144,0.29579441580326055,-0.1698183378279719,-0.07679951187762721
240,7.747786426516066,0.49311575639529037,0,0,7.576588595459852,2.6768012157514245,1.2994627993577286,0.22167131471329643,-0.06234933398083482,-0.011763116798592304
241,7.640044338939867,0.5689402991944938,0,0,7.981778452238769,2.5204553290078375,0.5931593961686452,-0.11448826065827726,0.3325534506961869,0.08529140800732331
242,7.653943469164643,0.658577438246067,0,0,7.9174925486329215,2.166126372326255,0.5406272347878357,-0.4826200314923998,0.4417355777387337,0.10495962085377647
243,7.794116199524897,0.7579554972467588,0,0,7.910906837412603,1.6434346159423536,0.3883144119435894,-0.9646418605057571,0.37634040045911504,0.03197137638476852
244,8.062039932945144,0.8631049511224048,0,0,8.48654909382223,1.0070454872452113,0.971796844516871,-1.2086874568775603,0.7571828164039875,-0.125516370466566
245,8.454269525725817,0.9705420761949052,0,0,7.889359362923318,0.9705385050874157,2.287484527989301,-1.0809814601469117,1.0404763478537362,-0.23691501803995238
246,8.960358421737999,1.0773593081559902,0,0,7.598923217113689,1.3663174112670733,2.7028718747063425,-0.7941717206410265,0.4990247856955258,-0.2622028689245471
247,9.561003709124765,1.1809893267040268,0,0,8.850173823468644,0.8563746624441159,1.7959346095400917,-0.5774795392590029,-0.4647806122433708,-0.20787465598203295
248,10.227019792755485,1.2787464731712512,0,0,9.132000768470087,-0.2781211826535478,0.6976528655113607,-0.444577898430963,-0.9795615372396411,-0.07435341498492098
249,10.919682451834642,1.367352541939284,0,0,9.937155845317985,-0.8081854082048523,0.19337070810106535,-0.5719442585677939,-1.2918497832660762,0.1340215125967859
250,11.592786154167417,1.4426764892415331,0,0,9.778226613662541,0.5758668222866373,-0.3043198290847383,-0.3832578682962329,-0.6867586717011641,0.3856513369917782
251,12.196442426002214,1.4998658010677672,0,0,11.187807931331216,1.930109462294367,1.7332980163085354,-0.5620318782372552,-0.12683273020235897,0.311555125330663
252,12.682237196103966,1.5339494768230402,0,0,10.830715396975858,1.3078244718726455,6.308132862659641,0.46715146450666445,-0.13178046562255794,0.06793161198148508
253,13.008908289763658,1.540850312723892,0,0,15.18509271121538,-2.348613876902379,12.156078681394863,1.3189969345197614,-3.2778049647888476,-0.20065546510003146
254,13.147358870136634,1.518559989010549,0,0,17.434893162315692,-6.521091006285776,1.789468124365425,0.18270123109454237,-2.729084566981981,-0.6624606555479083
255,13.083878700417136,1.4680837948573264,0,0,6.060417959164539,-1.756080107289576,1.8169536451500572,0.8193988038104044,1.0740380403464822,-0.39958479983193357
256,12.821081753525863,1.3937818306696916,0,0,4.718363405707229,-0.004320523404550777,6.708688580124051,0.37214621029004535,-1.0519360913970899,-0.23730951184827484
257,12.376968748627242,1.3029478192656638,0,0,12.738705081491556,1.8614639791600356,1.8995798658600132,0.25325104202448706,-1.2962777040100995,-0.341873146624793
258,11.782982590602886,1.2047396699777773,0,0,15.27259772638344,1.5498613800316363,0.36563334736464903,-0.43390771945513934,0.542110474564677,-0.3486980357681155
259,11.08162112620813,1.108750305490624,0,0,12.375227342847182,0.0502984543732999,1.9611944365172795,-0.26630654736962583,1.194699070688341,-0.30376019731226334
260,10.323586520347837,1.02354643721145,0,0,9.197224637518547,-1.3729712518570065,2.6149010665071404,-0.32820941227954964,0.3036792092041561,-0.21657974936577287
261,9.564255973912532,0.9554615649630548,0,0,8.705392869504823,-1.9582799057237863,0.14482442975367957,-0.2874976314806629,0.28926855307076993,0.019802440205657475
262,8.859549985637324,0.9078535682218397,0,0,7.743028396976558,-1.4190475990293288,0.8864206710837254,-0.08562708183077736,0.9308895928427047,0.27927695615204834
263,8.261646061549325,0.8809356169324143,0,0,6.590770074076475,-1.2780972239206272,2.2049493557792808,0.2676843842283039,0.7447457826206277,0.28176637492682655
264,7.815097190260745,0.872167837467406,0,0,7.326887675308363,-1.9433499298677026,2.1996858166416238,0.651977583024673,0.5100884303279135,0.15679011387408862
265,7.553744439984516,0.8770841130313143,0,0,7.545143342722444,-3.011453301168119,1.1626283833882396,0.7848426964977806,0.3811943440271102,0.081938059157675
266,7.498526742649326,0.8903534846815313,0,0,8.035426480938272,-3.2651833336176375,0.44900861179194174,1.0759604672342475,0.3887479072437789,0.00594093106188055
267,7.656070758348688,0.9068448337846585,0,0,7.513233068025225,-2.535374529155714,0.211692636019651,1.291184082213356,0.6532812888300228,0.03837664663259835
268,8.017905007965753,0.9224712602135883,0,0,7.338963263554416,-0.8120929867203809,1.1677230842036723,1.2144078284872624,0.4644725159596701,0.19254908367124082
269,8.560279938906028,0.9346425624878139,0,0,8.54972433419963,-0.05360501377484787,1.3962593813874677,0.9004852594146113,0.05874763952324496,0.3377493732028638
270,9.244771507100822,0.9422559573025406,0,0,8.549617524690433,0.30444195949060177,0.3996807087295517,0.7517062755662409,-0.04452851680291233,0.3853001116712006
271,10.019966787836816,0.9452842159127032,0,0,8.386000216720591,0.48252208811092906,0.6599061445349605,0.49797059492120915,-0.526802209549425,0.32128302090781996
272,10.824510768214136,0.9441297698698676,0,0,9.760882622105722,-0.6003530550267908,0.6262491944208545,0.2208219676175448,-0.801433884808652,0.10822250891117097
273,11.591623960702453,0.9389660784973624,0,0,10.949652470009278,-1.62229968159585,1.3660945950663363,0.3244796416348393,-0.15698262058309384,-0.1445132638472078
274,12.254892726759973,0.9292776369925154,0,0,11.470159764246931,0.028850174252274114,3.14143512120455,0.5964822530636023,0.3294492497565727,-0.31811217708355566
275,12.754745974918372,0.913748725581211,0,0,12.964651871339692,3.6596267201068167,6.169867574099291,0.21185341968498322,0.10314834748318402,-0.19572035500731244
276,13.044689976642315,0.8905489707263992,0,0,14.186794603211938,4.2563439735775495,6.201323330341045,-0.7380871964862994,-1.141672036574614,0.21699119264407268
277,13.096241652709063,0.8579376611415509,0,0,13.597005911777014,3.760669250185943,4.0941981355080905,-0.7016679399374697,-1.1997247433757896,0.41731934065804444
278,12.901710516974942,0.814998241674084,0,0,10.786726674554535,2.972445607269763,4.437009330075574,-0.5157064065300531,-0.7577029898945851,0.30656242563338826
279,12.474516098316577,0.7622728284049598,0,0,9.5102464816258,0.7675067436556856,3.3709500858955943,-0.5963476256288397,-0.6144816873008558,0.1401868173058164
280,11.847352120416817,0.7021170198925204,0,0,9.841831253974053,-0.4144785401956758,2.3333269226439035,-0.5954964057975608,0.003893992031010007,0.1709569191876917
281,11.068873818755563,0.6387012028707143,0,0,12.487685245402432,-1.565440868353028,2.5176176184582966,-0.3796243954799672,0.08124509426034493,0.31731757561639046
282,10.199523744942987,0.5776810150240935,0,0,12.204977947654745,-0.876747410552882,1.2392986550637224,-0.10554952502030358,0.6055676307103571,0.33531253915208853
283,9.306807609977447,0.5256097965134607,0,0,8.745265357031947,0.8530661307940934,1.5464575997234347,0.036221450621731766,0.8214094938170301,0.28966024360881587
284,8.460143971741957,0.4891797226260501,0,0,7.259316422650046,1.9091600510981306,2.323470857166056,0.0009750472057886816,0.16663872530951895,0.23236900227919433
285,7.725511203258202,0.4743874727292204,0,0,6.549872471083539,1.4763903407977415,1.0469956738898365,-0.13019636415014485,-0.07866694213353005,0.19877426677282342
286,7.160344971306021,0.48573995377391904,0,0,6.08619170418337,1.229875361789887,0.2395323734434678,-0.034812014253784926,-0.04092853766180086,0.22180836060399664
287,6.809237840035788,0.5256276400048119,0,0,6.107130151491689,1.637456954289328,0.6897603996911474,-0.07601242175401458,0.3005889845827856,0.28112627269277884
288,6.700861487085744,0.5939697618403293,0,0,6.08366975537939,2.1324295761638132,1.6500822671278463,-0.3576683408314849,0.16607383779536786,0.3062821573207978
289,6.846258100608115,0.6881747091154368,0,0,7.255576271113691,2.351022215690324,0.6161377672799222,-0.6395580712503994,-0.10367217560574067,0.22353316304800178
290,7.23837606750751,0.8033856369979309,0,0,8.34415834743055,2.1378248579805477,0.32850758264584906,-0.9944350363365009,0.06482346328762659,0.09885949842528599
291,7.852577615537582,0.9329237027635022,0,0,8.340811342145768,1.2345403694834483,0.23625997583261743,-1.2952089979099937,0.4568933375449725,-0.0017664996337296611
292,8.647890280962134,1.0688190271993374,0,0,8.294345283927019,0.5440470568486457,0.703899844438928,-1.175779947859484,0.41794189771019963,-0.03679844046422871
293,9.568989723287983,1.202344047245664,0,0,8.562954897568366,0.010232022040118053,0.892553091593342,-1.0561292202033934,0.41139506614608484,-0.004860440746631629
294,10.54916482779448,1.3245317839086073,0,0,8.386210959861462,-0.6546305128452572,0.4317315372341673,-0.9231819333667661,0.13684657620524596,0.058511721602047
295,11.51464874481723,1.4267410020976925,0,0,8.30562687811179,-0.736295494213882,0.23093522996498114,-0.6270326264464972,-0.370921433311605,0.14354916850712773
296,12.390550823154722,1.5013688332735615,0,0,9.764756061903359,-0.8692050516785285,1.859959450465542,-0.21643881706676535,-1.0544395285102974,0.09477033494847394
297,13.108132171065034,1.5427667561073883,0,0,14.130378041993005,-2.1278415784167115,6.661396272454817,0.7104364194475159,-1.0150057509361667,-0.15044554934359497
298,13.612429576068704,1.5482867963471947,0,0,18.285621825136964,-5.694617580172689,10.476518256727026,1.7754660468775803,-2.1041673404609447,-0.4203318330083379
299,13.86860127397578,1.519225215623667,0,0,17.564295870572433,-6.191419134570289,2.100041076984954,1.1397800574565091,-1.731078089093818,-0.6831820116339036
300,13.865366758514051,1.4613345650316925,0,0,8.334521252002924,-2.6518861863462235,3.1226476932855043,1.714486234295696,1.170534827068576,-0.3520331467405131
301,13.614789189255438,1.3846212619833764,0,0,4.142975765466232,-1.6687260786048852,8.101543403603653,1.286689553134644,-0.26259242189606175,-0.2535399087440311
302,13.148942716713,1.3023339047076063,0,0,11.686157337007508,-1.2312579041012475,3.1526394733662726,0.6432057479080624,-1.1294300938953594,-0.28826992987261796
303,12.514830429592482,1.2292885670174825,0,0,15.195900885758368,-1.352309342881504,0.6715965566618427,0.22787700518838774,0.03942847402029797,-0.22745975208654517
304,11.7688347461055,1.1798612279718907,0,0,12.28715338503696,-1.3474018664294798,1.1412904247581297,0.910592821293329,0.48616530800264496,-0.19379938732291305
305,10.971401721376381,1.1660408824742896,0,0,9.197107434225277,-1.2108445740950986,2.8495815147441315,1.066266217727041,0.33829467979831623,-0.11987784917763217
306,10.182250143396523,1.1958822063849008,0,0,7.65711776567848,-1.6961446878004272,1.0605585234329018,0.5839217316854034,0.3406116281627658,-0.05759200229622968
307,9.45633774883668,1.2725738947858793,0,0,9.16521957585873,-2.6421694875268904,1.4327186348329124,0.7481822547976188,0.7120478523159876,-0.03537123023994747
308,8.840818261492418,1.3942033961621434,0,0,9.007951652734196,-3.5378840210894844,2.979950821878397,1.3462906662795635,0.7442204922368959,-0.1087837251388601
309,8.373049994797475,1.5541766701369333,0,0,7.56625871763711,-3.8098839282132184,2.50539271931407,1.6792882211193192,0.16597532697349524,-0.10071322081653677
310,8.079470521175654,1.7421510239525966,0,0,7.172524819447784,-3.2956585593176064,1.289235276813184,1.881568522365377,-0.2507799880375198,-0.0120057822591707
311,7.975051221611102,1.9452774161605446,0,0,7.244818116461723,-2.4816800046317757,0.09676111045284355,2.2075317372455214,-0.3121291229329285,0.08151779088798919
312,8.063129966502277,2.1495424921175506,0,0,7.3681066681509195,-2.037015019354459,-0.06044697261154368,2.343450314128375,-0.08872109418999284,0.1278944209820216
313,8.335549551157694,2.341044853970189,0,0,8.130639611008547,-3.064938317553359,0.9984933555113672,2.279763787276855,0.11764267463826389,0.13189240245759515
314,8.773082631348434,2.5071122383578652,0,0,9.120969684177137,-3.5288109244364394,1.2698523233766366,2.249876422990206,0.14198755499596208,0.10076429371358524
315,9.3461136878549,2.6372379332360167,0,0,9.618217118559416,-2.9558378052291845,-0.11182136529685721,2.380932493075841,-0.06131496209485692,0.06914286333585364
316,10.015574631389143,2.723855771713836,0,0,9.768999513602022,-2.0091475422046954,-0.26387278186741003,2.664043926859594,0.04187539700665984,0.07286536561515411
317,10.734263078138149,2.7629645456581757,0,0,9.129611512058599,-1.4187033233843869,0.3123256231861341,2.8148609391320734,-0.0642423334682355,0.14179307435747343
318,11.448865618258338,2.7545638963116184,0,0,9.611054314090856,-0.874252544806412,0.2814274653875366,2.931488711323641,-0.14672989652458754,0.199197679170298
319,12.10311099672548,2.7028086690419904,0,0,9.842782982828352,0.11673159877280463,0.6350537721901924,2.982537319809259,0.030202074864443658,0.21073485957590593
320,12.642333157336816,2.615763271084587,0,0,10.41783710714951,2.064538110416014,1.7146861816274175,2.985482890532168,0.27915455576487336,0.2510620479599282
321,13.019276449505337,2.5046615035847224,0,0,12.213623740291574,3.792858689190407,3.3683092488542163,2.8166310905211733,0.9685163395459946,0.33536868549021653
322,13.200319874342997,2.382653815689698,0,0,16.92680993645895,7.8476741459929595,4.516808369084327,2.2044043205307364,1.2207350702520345,0.7101647578972218
323,13.170694652642299,2.2631447744339233,0,0,16.482884043377677,10.534079181782445,3.202250331828184,1.3158956629045295,1.181737642668026,0.9919019862738047
324,12.93711383940528,2.1579649656450424,0,0,7.912128617114699,6.027672389732645,4.8902871640021095,1.0105812657331428,0.5771168546590263,0.48573954142506337
325,12.526820434292535,2.075735089359966,0,0,9.462898682295924,0.02967390800970253,3.713883729243248,0.8818391318966398,-0.964404811079374,0.09479460384052514
326,11.983217270346175,2.0208018010711486,0,0,11.105944499418802,-1.7445723736143444,-0.2946293841672699,1.2318012838845,-0.4167329463593875,0.09265429326111269
327,11.359315199499576,1.9930132318443097,0,0,9.064778908672185,-1.3701583717582633,-2.079719281265656,1.7096499108600764,0.5154326680362291,0.2494917458796677
328,10.710657449034752,1.988376372507971,0,0,9.139616665997474,0.46566597635949175,-0.36890388010803693,2.335281239730735,1.3913833814988092,0.43047936330002295
329,10.089125442247958,2.0003810643307967,0,0,8.489564559251404,3.40182530190566,1.3666307961831758,2.340603362636225,0.9372411376435617,0.5328578524421193
330,9.538443067468434,2.0215931138736427,0,0,9.765427764221357,3.6197822020921784,-0.24421997954432023,2.4439106325840796,0.5071215503382084,0.601168746961492
331,9.091573939127043,2.0450864985665835,0,0,9.246271227155294,4.013285769812375,1.7585925461996554,2.1188707315074984,1.090057498648045,0.75275257025847
332,8.769727944789395,2.0654017739328485,0,0,7.346125148581244,3.7997254157558435,3.8465505563964912,1.7007826352819029,0.47474895448423693,0.8084590336018642
333,8.582474787490074,2.0789166261717247,0,0,7.922669052548129,3.5042524178054335,1.9314985139870842,1.7260853271496392,0.01839761477665234,0.731660908700522
334,8.528515234933272,2.083707026032763,0,0,7.759856969022763,2.43974395642237,0.638853724961066,1.7647014607263678,0.246134743022411,0.6647644754343809
335,8.596863688486028,2.0791003409547,0,0,7.791821114531061,2.172038976784745,1.5946707919955265,1.7223769767578758,0.2056138061813795,0.6443827886060852
336,8.768384666533274,2.06515471430207,0,0,8.028170782325793,2.292078626838595,1.4096180147710768,1.6249034363324377,0.02810204043715893,0.7049756320794965
337,9.017705414469466,2.0422593297183864,0,0,8.526965648942285,2.8224720678028614,0.8641297102351398,1.7028053467513578,0.03719801515330495,0.8210729970226395
338,9.315495827937188,2.0109700908706953,0,0,8.887129340273333,2.6695157163239887,0.6827862263267145,1.7530467006174888,-0.05466954161223241,1.0020036740001073
339,9.631018747033078,1.9721023360464183,0,0,8.984563983886202,2.0713924229624325,1.455110763194268,1.694455333459061,0.11796744203445263,1.1386309629292646
340,9.934763976247003,1.9270183453523535,0,0,8.948304979609711,1.3010532585882477,3.1997145215746,1.5624648249071804,0.2766560931303929,1.157981353493609
341,10.200910363332238,1.8779909232472032,0,0,10.507127385079064,0.713805984331147,4.61458008987673,1.5916525676748747,0.5186777094445496,0.9866093274062671
342,10.409314589343692,1.8285027904688198,0,0,11.476760995150237,-0.47593653827623505,4.310054815960125,1.8095726689103442,0.30182560140566933,0.7578797414291388
343,10.546739512791394,1.7833491152628866,0,0,10.426539059947716,-0.6031470916060169,2.01099390183346,1.9579178122004388,-0.7259151148518996,0.58796904932714
344,10.607180955961674,1.7484400818433083,0,0,9.610125283581075,-0.012030001408476496,1.0588231760313327,1.8766710276682392,-0.6630658315812208,0.5208257567430709
345,10.59143221396989,1.7302541752139118,0,0,8.057313097277179,-0.26392100330418017,1.4506733686921451,1.6600038815588827,-0.07665239963785815,0.5487776370249169
346,10.506286552024958,1.7349743639581081,0,0,8.759741216217776,-0.6870861065066043,2.151439425230171,1.4726407001630006,0.1566330642277215,0.46921670560785667
347,10.363801495599102,1.7674344464861935,0,0,11.23119443061165,-1.2896243559269243,2.69180206440468,1.4490628805778414,0.617898976273482,0.3463024957658309
348,10.180764418459137,1.8300776148203315,0,0,11.617287724465255,-1.815112021370482,2.0092079869662807,1.3941929978084526,0.4051009564813337,0.4132551612806172
349,9.978090633672998,1.9221528258518716,0,0,11.49124750493888,-1.297777868049268,1.33126304854259,1.4655225413720174,0.07094585058750112,0.6052210894308135
350,9.77966211555535,2.0393392458058606,0,0,9.855332114755566,-1.4938935540608944,2.403100916182918,1.740291262799554,0.25996311653280385,0.7238856702903961
351,9.610254136740766,2.17390826165095,0,0,8.69813737948391,-1.9693700670952863,1.970416084220289,1.961984275304004,0.03809358236680332,0.7512012721941621
352,9.492606695489194,2.315429195463814,0,0,8.484815741345033,-2.1431342936037545,0.8005189227416213,2.1187546486393685,0.32315197803699675,0.6657135188858453
353,9.444122091961953,2.451924238317014,0,0,8.269348115733946,-1.9055281122950483,1.366941065579976,2.364968021444375,0.5787364571058421,0.4995178770580628
354,9.473898007054634,2.571300203421685,0,0,8.319601491098503,-2.1817446886001517,2.3423004794160374,2.581663463526763,0.48783754379208005,0.33878220754605193
355,9.580782299303783,2.6628372299055747,0,0,8.280197532139459,-3.0819156653620587,2.3711237509398835,2.848779493056596,-0.06872522283132648,0.17704260272572192
356,9.752934106581511,2.718497260157108,0,0,8.55922678361727,-2.9688166517364674,1.2965908972042204,3.092156378063028,-0.4951189964573553,-0.01839927709697101
357,9.969101265035643,2.7338299341404944,0,0,8.086192310975342,-1.9949156064251874,1.3294287379003094,3.224874388999078,-0.3110803738190907,-0.10589962358010153
358,10.201535970002933,2.708308521198375,0,0,8.87767636893875,0.27264516277505224,1.7343448237105705,3.0447707460188234,-0.19445611186168205,0.08197282872560638
359,10.420162882282762,2.6450304834486635,0,0,11.763342124615754,2.946824960330787,2.183448614145516,2.559255483618301,0.2193043174416711,0.3038935272403555
360,10.597282729103037,2.549856281643314,0,0,13.25104280954077,4.926745630804836,1.697750685616415,2.1085497704321434,0.15439877675511682,0.5284010807503795
361,10.711849534413549,2.430198377891675,0,0,10.483323645248458,5.0284809376117,1.5775380524155536,1.8649302269402963,-0.10470261170778976,0.6035238571710092
362,10.752408435972985,2.2937564931933485,0,0,8.817649380034691,2.8167044104616368,1.7316089392484368,1.7827433505365229,-0.6784462424147721,0.4839621826878986
363,10.718204210831118,2.147488277650297,0,0,9.59666294267186,1.9566052121247142,0.5156491358597876,1.714795704893117,-0.23273972817827912,0.4429608117737323
364,10.618546618360426,1.997011152073456,0,0,10.043769011356444,1.861232410250993,1.2531616759928081,1.7311874065919215,0.924888303161995,0.5169492808229613
365,10.470897091470109,1.846491202411342,0,0,10.625714847481621,2.984359688130076,2.0706273560735755,1.7376784230285753,0.8120319709429674,0.6225212498007108
366,10.298187157223925,1.6989393992548731,0,0,10.117789160984422,3.6005116975833453,0.6683599091221898,1.659700675390885,0.26570371963022293,0.6128331681578129
367,10.125751144201304,1.556744069729951,0,0,8.961972119861837,3.045005957682903,0.6774762556006858,1.6794179516134908,-0.15333228186222422,0.590043234000546
368,9.978168545068232,1.4222385251552996,0,0,8.889116795297193,2.6453628996792475,1.5410585834343924,1.446078404748815,-0.17921488548066578,0.6215599839980822
369,9.8763168260095,1.2981263014174445,0,0,9.516414698634005,2.5821964913217794,1.042518341012529,1.2100095291112993,0.14836025788988919,0.6952395624493181
370,9.834945571672375,1.187642455510731,0,0,9.582998376299864,2.88387935740796,0.7044513621318473,1.0150188016913944,0.41808872609282927,0.7571904729407358
371,9.861028801790328,1.0943979043850185,0,0,9.074731761795142,3.038902953913689,0.974180164889989,0.8708583856517821,0.38031366593883703,0.7305600465642695
372,9.953060957917067,1.0219221429773548,0,0,8.864859844100563,2.8609564667381377,1.2850664874663094,0.8247832559853298,0.18919749999435365,0.6398678463117184
373,10.101385205192015,0.9729813691924252,0,0,8.761515803049942,2.775718439350989,1.3953543031563769,0.7840330919315962,0.2688590844553535,0.537115211847424
374,10.289571308450011,0.9488009103108821,0,0,9.102472338215371,2.9752156334541207,1.5924652502486143,0.7458329733359712,0.25813389767662454,0.45062783657452254
375,10.49674146525579,0.9483593378718623,0,0,10.122248082552451,3.3423002957141983,0.939494962293157,0.5753215984559081,0.037697180940071275,0.36976583856383377
376,10.700557360308629,0.9679406032714781,0,0,11.285068813021917,2.8059406799769,-0.05864532308020567,0.41834871383590055,-0.05667730210592512,0.3049791320703333
377,10.880386996277693,1.0011193846301247,0,0,11.219123800080158,2.8199279334241454,-0.34666613249921013,0.3459555014651232,0.09385343125223304,0.24915417420864616
378,11.020064970316767,1.0392985209640881,0,0,10.847127148374689,2.51643253201803,0.9245688767838954,0.47585477024854705,0.3475864606653815,0.1797709801088855
379,11.109708594977393,1.0728050061854761,0,0,10.760174987437983,1.590715388904033,4.43928144757309,0.8355236548789505,0.641991196307182,0.016245599485242432
380,11.146232676114929,1.0923934251946474,0,0,11.397689198032785,-0.3251866816352493,5.561177892887292,1.169426774140933,-1.4289549076502586,-0.13387355116150512
381,11.132452819131894,1.0908491440933379,0,0,12.233866379102585,-1.5047475962083818,2.0186600996301958,1.020793224535378,-1.945858798107589,-0.11555055867636664
382,11.0749560777046,1.064301758726188,0,0,9.50085729608477,0.6811424730551632,0.41664593972255776,1.2539169073093528,0.04160969893029871,0.021086641675895773
383,10.981252513090613,1.0129130165630584,0,0,8.230633532494732,3.450795341828011,3.647126512902303,1.1898904347024137,0.2674420949051243,0.16210897608211644
384,10.857027352395983,0.9407860308235212,0,0,7.7646235957844105,3.4274374753520833,2.7969634084723345,0.49073613484324274,-0.2535611743551396,0.28903074939281137
385,10.704418960767649,0.85516963969872,0,0,8.52165396393701,1.7112128019586994,2.190041389225648,0.19873574943968483,0.2351383462216303,0.29995178410275686
386,10.522024549316532,0.7652002552760727,0,0,8.158492276456771,-0.7657423972101179,4.506182344464488,0.040783180754923196,0.8075443503628095,0.17237044257937187
387,10.30681932397344,0.6804825275239823,0,0,9.067556874287883,-1.6525402036557253,5.3893390505717385,0.07728091706774233,0.4851332604283407,0.10472380150063283
388,10.057533747100535,0.6097767531527362,0,0,11.287679177267838,-1.2496031758539956,3.8935978282508463,0.06406451301652524,0.026365782338266586,0.14274126447386054
389,9.778481734315136,0.5599834974977629,0,0,12.30584221082411,-0.6028123290212445,2.4869158037708505,0.18140940216808263,-0.08016004247142874,0.3025694132447444
390,9.48257588032845,0.5355274648755121,0,0,10.250896821801604,1.800960046551035,3.3639266142767137,0.42944201201014,0.3428895444221691,0.5338461739017195
391,9.192430121740747,0.5381514068108286,0,0,8.365440282925007,1.4911436337438366,3.3065018040226417,0.34550449213316825,-0.19760997212009168,0.6076684053275052
392,8.93898451290763,0.5670490364097611,0,0,8.690841596502418,-0.0692049702790451,0.8299879710667588,-0.03946376008673415,-0.28900536840467433,0.5181393976156575
393,8.757755881893713,0.6192207519189705,0,0,8.757390428408732,-1.219769576964938,-0.9478242760646125,-0.11223875227618478,0.4035530856723746,0.29820627424714113
394,8.683354794812612,0.6899389141245887,0,0,8.898588458817093,-2.024501229648786,-0.924180296784897,0.1313603972341674,0.830724018771759,0.07687562307993655
395,8.743200844387383,0.7732391740286019,0,0,8.398711627688902,-1.9541487813632297,-0.27154616094571726,0.3961636054614618,1.0742721665250359,0.01905278296256149
396,8.951482902515208,0.8623865242559067,0,0,7.457916616670243,-1.5350575063029752,1.3032045963577523,0.4032772767187996,0.7955295256313308,0.10758073737548128
397,9.304450741898892,0.9502995805150498,0,0,6.899326120151036,-1.387215957349233,2.642889835328477,0.26761670608015947,0.11246435148420732,0.19068314358206134
398,9.778087951970635,1.0299589555468298,0,0,6.54810813000278,-2.0344299094100693,2.428107909549674,0.21723703491875754,-0.6732938337137,0.16225727415696928
399,10.329005453977407,1.094851701246259,0,0,6.840739135206128,-2.804017057783374,1.950987660844667,0.36404548000450987,-1.067382222057395,0.04779300526654473
400,10.898919065733839,1.1394781333267556,0,0,8.110956898311539,-3.121189026737663,2.1408238962982784,0.7718119172450845,-1.4619614893496755,-0.04408869622062596
401,11.422333070858798,1.1598760625903701,0,0,11.343065160640984,-2.423076802005643,4.555098205759988,0.9861008207522305,-0.5208629881003541,-0.08637185922335536
402,11.836172582372772,1.1540557456961316,0,0,15.065133928935097,1.1133233276581629,7.955281562140603,0.8683520899493288,-0.061085253609353594,0.2638665222931388
403,12.089372890323572,1.12223144020696,0,0,18.178593888271227,4.685695070222402,4.309858256630578,0.5195199156100929,-1.9173468210650872,0.6113791969930111
404,12.150242119685814,1.0667761285287252,0,0,12.116884945924607,3.742422983857049,1.7430762074110657,0.5411341610933601,-1.0053526943472169,0.2918233817224425
405,12.01004898635168,0.9918911806347641,0,0,7.45412095646969,1.7565728036162023,3.5727605339894963,0.17271926084293024,-0.33480761311755963,0.034827705836453844
406,11.682574651745853,0.9030636486216147,0,0,7.821173933353053,0.9831686298222173,2.1519637245965715,0.27494620214474946,0.20704695257626823,0.025213808572599108
407,11.200618924258556,0.8064556393762088,0,0,9.762916650346742,0.3956337246530268,2.080748437287908,0.6494504451885927,0.5503197068722956,0.22308314663600384
408,10.610966906444053,0.7083796572421135,0,0,11.699136274219569,-0.025491995133737788,2.5178470923373615,0.5668308253893272,0.3856388251649193,0.38262418479509536
409,9.968994632192874,0.614942895352456,0,0,11.616736092005116,-0.2885370580409864,2.2107334294013663,0.43773055158656127,0.4193735027048823,0.27202063986464137
410,9.333426898837114,0.5318452754763783,0,0,8.73291371641497,1.001724361234232,2.4778322714549796,0.6013628997823912,0.4507386380249724,0.12472263397547624
411,8.761334722883143,0.464256667873467,0,0,7.199081223189897,2.4682609229877963,3.056364090897008,0.5055005687024168,-0.05211124999944618,0.05323700077091898
412,8.303450078323035,0.41669638063815684,0,0,7.134526322037692,2.604346341255904,1.251149099146133,0.24532041900120377,-0.3420476227580144,0.06299071425036828
413,8.000065230338475,0.392871130928411,0,0,6.84369080378221,2.6717162549369458,0.29947958168777683,0.2491994357583309,-0.07073177553235713,0.1092427977567073
414,7.87789128615946,0.3954678008814367,0,0,7.233907997698623,2.5208151678291997,0.9337375898242588,0.13140099408175016,-0.017446591704645298,0.19879142442015355
415,7.9481767789345295,0.4259224315337108,0,0,7.571044681337497,2.25044371136336,0.8115501190902445,-0.33911393013275687,-0.04259417383685016,0.2606824009051739
416,8.206204457480016,0.48418682056629087,0,0,7.900109698728424,1.4465113029469574,0.08539906072882483,-0.7682463808292314,0.39888668585794373,0.2140641227874849
417,8.632099334518912,0.5684980381302973,0,0,8.078581233987325,1.9103986168799367,0.9479684500864217,-0.5628254082399631,0.7469549566719457,0.02466505765690337
418,9.192747988848776,0.6751528161037023,0,0,9.387471242554508,2.6093532924494003,2.2787039343125515,-0.39224171757133974,0.35976024501039106,-0.15395077487161524
419,9.844553656997348,0.7983245769598198,0,0,10.574526879552371,2.0374733053396654,1.7598379169039062,-0.4267064638058324,0.3577436588366065,-0.2014087127040204
420,10.536739100103805,0.930028368469786,0,0,10.311451183509153,1.5798450195053875,1.2044439755322156,-0.39375403194624936,-0.06431685000950706,-0.16030396028411834
421,11.214983570614669,1.060392028969485,0,0,9.703193363447632,0.5251208332261238,0.7590361729547718,-0.591146002700395,-0.11218809071834845,-0.1074161589593273
422,11.825321737858847,1.178380444894349,0,0,9.044953705508707,0.991614970550912,1.145834746489987,-0.28743423346134894,-0.3003585114985124,-0.031694534700285354
423,12.318312593250436,1.2730235936981062,0,0,10.785913740556833,0.865613450081534,3.0802185477828217,-0.1943184722465434,-0.738476559429282,-0.11654801700765452
424,12.653339698970719,1.3350300944802753,0,0,14.100070860760846,-0.5248886253508993,8.403516454810445,1.080587389735303,-1.725121877357866,-0.2265895227632699
425,12.802530861291897,1.3584678459215629,0,0,15.957715990435144,-2.232858933287735,5.253860087884016,0.9130637850442168,-3.8699292992698857,-0.3398122437230032
426,12.753470317707555,1.3420505699932166,0,0,13.737672771492692,-1.755017702294234,-0.6228033410501008,0.6483342252868307,-0.9015741550257157,-0.33312572942639246
427,12.509998294034343,1.2896002137302098,0,0,8.484520541815355,-0.08656869578561022,4.542558627354625,0.6122087368082956,1.1651159701450382,-0.20460466562018392
428,12.091014246616222,1.2094980786429386,0,0,7.002675459874172,0.008534379206963243,4.646419482863169,-0.15537131643697108,-0.5870193767992871,-0.20357375183813672
429,11.527902087891778,1.1132701166548014,0,0,11.18453604998993,0.4527903598078568,1.7638412987652736,-0.2527698267363773,-0.6408325006061976,-0.25965594684149584
430,10.86144249431324,1.013685156582441,0,0,13.687230061271512,-0.22584135213023465,1.9122532494835005,-0.3014464105768469,0.7411669054906119,-0.2409910741578072
431,10.138757892424188,0.9227937587236831,0,0,10.57732758500697,-0.8938538563162338,2.4092577944198825,-0.14688889547190437,1.0194840578378515,-0.10909610716143447
432,9.410353744403892,0.8502539974351493,0,0,7.766804302019942,-1.2155199782538264,2.768935690252152,-0.18720392799065383,0.3854347651949591,0.058224977237376935
433,8.72712570861832,0.8021738563357039,0,0,7.648255158175402,-1.4321977746002956,1.653264065045064,-0.19383056129352375,0.24607366120561516,0.16183962721031056
434,8.13733667495198,0.78059750770258,0,0,7.9304466391880934,-2.2678980856567152,0.3788197003119118,-0.13373994594278374,0.6536888676265703,0.21653771462548332
435,7.6837416857671155,0.7836687083754703,0,0,7.239347655647261,-2.1914690979998412,1.235034189706903,0.29387048116709813,0.8413821724276902,0.15240295154638606
436,7.401045627784602,0.8064026796212884,0,0,6.685740685913964,-2.4147729819817845,1.3561413962692046,0.5601165086007712,0.29275866058803596,0.049747420511284016
437,7.313765398297732,0.8418996270177956,0,0,7.229264805578467,-2.9841369065569086,0.5526744611918218,0.7722575538859429,-0.07726367967539174,0.007331002799876247
438,7.434469732193795,0.8827631380769141,0,0,8.375883656046936,-2.6568098851146162,0.4939293900640706,1.252870348210639,0.35958609508620903,-0.0161280950547994
439,7.762355987110984,0.9224530736098404,0,0,7.3086802246729805,-1.7342785914684613,0.528483131689749,1.5138610388151499,0.7542077479486207,0.07938701724356753
440,8.282208768600075,0.9563080965446743,0,0,7.5879858972905385,-0.6971735826712822,1.1493509927455312,1.313172100307148,0.4109679647814809,0.23180470824210025
441,8.963947835727975,0.9820372263494677,0,0,8.880291293639239,0.01926074871130893,1.172968884678516,0.8929003901932943,0.043418025014343116,0.2583296075682416
442,9.763131186827733,0.9996139237029823,0,0,8.732539704621848,0.8438662223542247,0.7100920084270929,0.5330870705998091,-0.21746409430183378,0.20889821155718108
443,10.622834985326927,1.0106715178034524,0,0,8.72652633212718,1.092204951385474,1.1221903109581037,0.23014527336992538,-0.7844014270259274,0.0709830920257623
444,11.47723721418536,1.0176213404381933,0,0,9.773931228557265,-0.06256981872420553,-0.22864079961440464,0.08645820301859976,-1.1621065944849343,-0.14459883212842017
445,12.256978121434935,1.0227493912815835,0,0,11.706316003470775,-1.7038232379601672,1.1354766715521856,0.3555127775932036,-0.2848651623621794,-0.33070704139953483
446,12.895960732125953,1.0275099033446975,0,0,11.821891996517667,-0.5463563356515972,3.8690322962331063,0.4944139020182327,0.3788915688255127,-0.3433228983110323
447,13.338747168046503,1.0321650522373969,0,0,12.616574904742178,1.4757472844907766,7.899621191621443,-0.04321973188441768,0.35260869803207034,-0.16587783624360303
448,13.547254574467548,1.0358332482357304,0,0,18.03601080000632,4.469815423311111,10.113840956607671,-0.9260264701102491,-1.448990913868275,0.34072372891158575
449,13.505290208657385,1.0369008867656915,0,0,15.193335723876405,6.712891725711393,2.2159769486827408,-0.3302122247909354,-1.3311338021465364,0.5487503378060706
450,13.219833326258835,1.0336503226328375,0,0,5.86881630193594,4.35782248750588,3.333794641689884,-0.11387239334293198,-0.3503900951671728,0.26161682075219117
451,12.718907105066654,1.0249109523211366,0,0,7.211462591537847,1.3613806413221214,3.112798286711388,-0.9048124636062512,-1.0023558513980821,0.016230283967880788
452,12.046945301492944,1.0105633582827451,0,0,12.184427433618492,-0.02474820545099364,1.5463783368161867,-0.9385401940392617,0.7699518438039491,0.010073522484776807
453,11.259044207908516,0.9917774510144356,0,0,14.318572284341712,-0.7409507152924352,2.9483176650046423,-0.6340461554741023,1.718581121080992,0.050139981345187615
454,10.41516345763706,0.9709166290027468,0,0,11.185481978142942,0.31783128637632024,2.51833492475545,-0.3556266399966555,0.7995480794116191,0.051230854385529885
455,9.574718032311006,0.9511120534621657,0,0,7.569086835221277,1.9766425497112912,2.6297105807472074,-0.2422957124226703,-0.017983110309651253,0.039439273712680085
456,8.791732950629617,0.9356148960345181,0,0,6.491787741897678,2.0055261389640715,2.051847087778525,-0.30617256797629816,-0.8367598219724274,-0.042919191006879444
457,8.110883407555248,0.9271213539434079,0,0,7.287808627651304,0.8371109876421584,0.5811732131089552,-0.4517631468038558,-0.5696232215978735,-0.102451289604739
458,7.564915441711881,0.9272753131546339,0,0,6.800436270546429,0.6976709972295534,0.06593638845549434,-0.4790935088216884,0.5395245974278412,-0.08309664281641983
459,7.173829709056941,0.9364857499195621,0,0,6.221397035239214,0.9629332747140324,1.5749473204853979,-0.5675155831326643,0.650080848280114,0.03321236493020008
460,6.9458539478468015,0.9540985284897427,0,0,6.8647185494292415,1.5983471261129576,1.2261231178512801,-0.5968295092789833,0.16723629684512586,0.17154702741575334
461,6.879826195762578,0.9788721081078168,0,0,7.436822646579951,1.9976891830536627,0.9257515694666115,-0.892037032937805,0.22028243425096786,0.2425691904979084
462,6.968304202725945,1.0096286531700907,0,0,7.472337795348741,1.4279074008272594,0.8651955272731476,-1.3095093248254375,0.2545025043966991,0.2601015179409161
463,7.200573321855539,1.0458859486099799,0,0,8.393300410476309,1.030732620645837,0.7207862500957266,-1.5099754011127555,0.4435102280074098,0.18827760828899134
464,7.564774753779281,1.0882406636798807,0,0,9.05045150528803,0.5110879152259639,0.33755792510127824,-1.5126321312029174,0.9232944915977572,0.07770460869429333
465,8.04861219895888,1.1383038709608977,0,0,8.78869624249218,0.2645834404649886,1.1957014385124758,-1.2407053553701033,0.9428512605567277,0.022750836494169903
466,8.638477288666612,1.198105469732527,0,0,8.75097714646237,0.4120885767743291,1.9751261579139467,-1.0178986224298527,0.36872529078441535,0.012594750635818037
467,9.317296535944099,1.2690644082369802,0,0,8.47871295035825,-1.1245961372875575,1.6077030017316272,-0.8688073875592539,0.11979243018318232,0.011361973307047347
468,10.061846247543176,1.3508039079136989,0,0,7.803211086337163,-2.4761891880973126,1.1170800848293356,-0.5516218906318967,-0.47503926537429964,0.027028033693747084
469,10.840580323043286,1.4402009404098937,0,0,8.78361010003891,-1.817034889700005,0.7350768159730945,-0.32776506614982803,-0.8812289812388274,0.11768787178111705
470,11.613052179092358,1.5310503601217444,0,0,8.53199428085513,0.3329770608746038,0.12815222084738942,0.05712872730786516,-0.43564113491309475,0.21912973321701626
471,12.331719721913766,1.6145942359343255,0,0,9.686926299041627,1.4311021975478382,1.7454194709133595,0.14942636165185152,-0.6104392406529652,0.08039913670807391
472,12.946305432283177,1.6809407648971697,0,0,11.205661343365678,-0.05777863050864916,4.49178109809237,1.272566421542105,-1.4888288883612022,-0.033769798111186466
473,13.410039591071481,1.7211131523248462,0,0,17.69286965342496,-4.718906565757972,10.751752954924163,2.3099251540849104,-3.3306149904908757,-0.2624989602936554
474,13.686305553950424,1.7292075868029144,0,0,19.31167036529003,-7.382258146541531,3.040270476004052,1.1441350726723574,-1.6795901543159433,-0.932490187205899
475,13.753884211982044,1.7040333587285146,0,0,7.203258430904008,-2.7130663030973095,2.382755955786681,1.5649541633617379,1.2944798446996675,-0.6461509021482871
476,13.609510968854261,1.6497477782919874,0,0,5.023538618952703,0.7482785941479996,9.553745385333166,1.5170292370744627,-0.8227913159932466,-0.2996475845463172
477,13.267560934914245,1.575321954093074,0,0,13.635860631810157,2.5290245175224633,3.8472425537895827,1.3381299773226247,-1.071908463867729,-0.22018188918780754
478,12.757571882199366,1.493011619007816,0,0,14.169297944170028,1.6828739545095786,1.2050162519042469,0.7223637747999095,0.3833744956865087,-0.3187689760923181
479,12.120494349956658,1.4162341713992173,0,0,12.03096214949127,-1.05778439956911,1.343354621898964,0.5226978583390773,0.10987936989626501,-0.48763520779771125
480,11.404304117629522,1.3573403154380959,0,0,9.624407754668635,-2.3001012265408187,2.167147140175846,0.6306358466266603,0.6536157724194763,-0.499158786687358
481,10.659446639759489,1.3257300380931392,0,0,9.286664725374724,-1.86078173639764,1.045992055473601,0.5996454241632471,0.6447855811011132,-0.27549903684387095
482,9.934606388608447,1.3266243401968085,0,0,10.22738061002916,-1.665970658202585,0.30687891443725773,0.9186408693748789,0.7281647825411803,0.04237701736524407
483,9.273281798609275,1.3606154465562423,0,0,8.471176937983177,-1.3132704385742104,1.4908604820468645,1.4258843676668704,0.859646046884578,0.1607514577195554
484,8.71148089872994,1.4239403370340373,0,0,6.666795118704519,-1.6521751449326334,3.160328700944238,1.5157456912446898,0.15062093369641924,0.1715539363475948
485,8.276612315686064,1.5093010281205343,0,0,7.562391020594297,-2.4752087518543777,2.034716364688534,1.562877031025112,-0.41856163808518276,0.16772701028960257
486,7.987417390407319,1.6070078658672649,0,0,8.767696125008474,-2.492296799478828,0.5951765683572969,1.7062056328025066,-0.03992061005184203,0.17997499487453605
487,7.854589497294953,1.7062381199547527,0,0,8.512667261956494,-1.8673038448987263,0.23319339413532758,1.8553482963797865,0.346071255003987,0.16823209746239678
488,7.881595965961112,1.7962519360505065,0,0,8.666309932760553,-0.6963151614236699,0.28603840064955177,1.7723985653108576,0.16029050550358256,0.1967530881801914
489,8.065240196404766,1.8674649660211726,0,0,8.344146579564057,-0.026363989407062242,-0.2932175341367583,1.744621698138119,-0.04831556041754266,0.23008107526308613
490,8.39570120433408,1.9123279830242437,0,0,8.322056121994331,0.5133617273921394,0.6133060332883846,1.808339200015818,-0.2626320915833884,0.25990874025587357
491,8.856079614992606,1.9259987413256714,0,0,8.606291125448172,0.5438989769262289,1.0090497448212106,1.767131611135805,-0.725841812496858,0.2936993028705934
492,9.421741533208106,1.9068027187395056,0,0,9.489157607837024,0.3321721399869327,0.4728237425907472,1.8574991821171383,-0.5123490580846852,0.24711193946406526
493,10.059913194009251,1.8564709120958582,0,0,9.34305880425264,-0.25638093635195297,0.49934883831042853,1.81938006110393,-0.13179973327563752,0.1192376989237057
494,10.730031455838803,1.7801287394976126,0,0,8.980401883325449,-1.090898809076457,-0.13085947853657026,1.7414833927239728,-0.33830228276097823,-0.02361146678734765
495,11.385305697126514,1.6860017798859082,0,0,10.180935623358677,-1.0753502142124152,-0.287379927798274,1.8734876639461662,-0.1747743815579453,-0.08796936060958907
496,11.975774387992281,1.5848046808991127,0,0,10.838831817339006,0.7635747605969887,-0.08190510168752735,1.9280208415477804,0.2057366550515302,-0.06416069268533409
497,12.452815993435113,1.4887934058377803,0,0,11.552435242958119,3.4138409730937918,1.4538210237105325,1.6925261774931062,0.5010598263875303,0.1113995000050979
498,12.774632074499179,1.4105000824386476,0,0,12.468953761872395,6.39773054372847,3.8432307996200286,1.3380714923720187,0.48110971808295827,0.3531726078669555
499,12.911785919205474,1.3612418027558328,0,0,12.906818927854443,7.063619239404612,4.896788373124482,0.9964080891187026,0.6057835112523747,0.5826847548237308
500,12.85163329539395,1.349586061370723,0,0,12.488909280655813,4.536976027909781,5.566069474830394,0.5921414208978086,0.6250362596539265,0.7174460276939508
501,12.600575796709405,1.380032355179947,0,0,12.493693835415211,1.1170140487469256,4.4426082265688995,0.41918107451108927,-0.11957339504915536,0.47307516850639314
502,12.183521473721223,1.4521951658833967,0,0,13.075371059761956,-2.185796544363238,2.5130982784546267,0.5806797439360557,-0.09753713783035893,0.19485432496577632
503,11.640599002707752,1.5607200867807602,0,0,10.152906978249332,-2.1986709734369376,1.6335366284024357,1.2466232970146816,0.19564435572576702,0.18327004338190525
504,11.021811091054687,1.6960215898524644,0,0,8.759229585766272,-0.6534548519774515,0.3289794375994298,1.8803785209614543,0.4566965701518594,0.2855923900945437
505,10.380743069603982,1.8457254058249704,0,0,8.81899244049531,0.7781847048197545,0.5140740741726276,2.020309860944134,1.2785017443020688,0.44038076701720025
506,9.768545243337309,1.9965058800432887,0,0,8.380719391605986,1.1935798904168273,1.5819962744071565,2.04606311122201,1.315075091155918,0.5550302121627428
507,9.229149963326519,2.1359143130483167,0,0,9.321084899664564,1.2735578916505705,1.393956661141089,2.284252400845434,0.7754741728067589,0.6236518989447926
508,8.796177343713198,2.2538338730898904,0,0,9.47026624235512,2.0341776097496345,1.7158523709458469,2.3171038882501445,0.4537486780990954,0.6947780217769831
509,8.491459563231087,2.3433365072133068,0,0,8.762018066844806,3.003197180026925,1.7540600642721573,2.289507833310498,0.28501969052038517,0.7533675867243145
510,8.324792447752875,2.400889438074375,0,0,7.771108619213844,3.4910813256997346,1.193993912862394,2.2166110252373374,0.3452853623803334,0.7537335005724424
511,8.29448756420071,2.4260069923311884,0,0,7.271538752964603,2.5302263363934085,1.131811771027322,2.1112392899209054,0.3276573825991738,0.7096181678478803
512,8.388468985577543,2.4205405720002187,0,0,7.6655932541729666,1.625084033514858,1.0671673496461633,1.9733916664208875,0.31087324295206203,0.6988742588021043
513,8.585865688296511,2.3878389623410934,0,0,8.09565195604734,1.5358425639949715,0.7580530929253458,1.9177382813053399,0.34456573578071936,0.7521476264300032
514,8.85915078249468,2.3319946824569984,0,0,8.269669781022646,2.147390192049003,0.8929574921173093,1.9996734032062211,0.14637825371289243,0.8693077700375346
515,9.176837318422058,2.257328275584417,0,0,8.458549885459703,2.336738334931975,0.7122447889090344,1.982557280150799,-0.21041702044254343,1.026129049720592
516,9.50661007823305,2.1681710907182032,0,0,8.763991627432459,2.210599063403169,1.1676268922479096,1.8786762962402106,-0.22025466195559526,1.1509232283195827
517,9.818617953451435,2.0689170749366217,0,0,9.57939423371839,1.8324573587616946,2.2585441745092023,1.7209264453326762,-0.08951231242504253,1.1099768421421554
518,10.088507478063308,1.9642496744705509,0,0,11.481849951450727,0.8043159956793978,2.465949539125148,1.6671620150959943,-0.044781671861171275,0.9168091086716486
519,10.299681685624172,1.8594173465452237,0,0,12.508746693018924,0.26195078101353797,1.9898773984370468,1.8340705367624417,-0.0009242218372495786,0.7213998490351423
520,10.44430080044987,1.7604208285614478,0,0,10.703765003287474,1.2133579291956322,1.698859509755899,2.0887886830400957,-0.17645602010575612,0.570379287035052
521,10.522789779102409,1.6739803040945065,0,0,8.948647094698003,2.3660948669230026,1.7164717742166935,2.0780346155082836,-0.44257258067842525,0.5041213910149611
522,10.542054786393459,1.607181692171643,0,0,8.383881169547228,1.8451627261756598,1.8079935423456555,1.6914366070250135,-0.4301795975406712,0.4767682474389475
523,10.51303348997309,1.5667767684369334,0,0,8.68693882338873,0.8180091895646453,2.4749916376463634,1.4253156760247476,0.03075749378292341,0.3060004051361557
524,10.448360994027105,1.5582278893079147,0,0,9.455219346698176,-0.9983053514488676,2.817093397280463,1.1349965568620772,0.21058006212864405,0.05446602033571393
525,10.360732136027517,1.5847036353722121,0,0,10.623765998080035,-2.8621025254410934,2.2446836655451428,0.9352052903223639,0.5079100045815643,-0.07404696295919484
526,10.262118573366909,1.6462898255327079,0,0,9.902585026200976,-3.0697814676368758,2.2113003088646845,1.127596562666182,0.5392526601774299,0.0018898067842154588
527,10.163600474980633,1.7396468763077317,0,0,10.213879311555418,-2.338882149556656,2.2176363803204664,1.4554834763964184,-0.05059553052854662,0.2526656216551233
528,10.075375332293698,1.8582284307858965,0,0,10.839088587074214,-1.8319568425402593,1.4617441825677218,1.8966156300354389,-0.25765353208827624,0.5371946363259364
529,10.006538929087998,1.9930221012523475,0,0,10.679786410451925,-1.922928516465132,0.17238868521701323,2.2217930193656974,-0.15829075427840114,0.6417918604421059
530,9.964426284217792,2.133638624784822,0,0,9.728221603927006,-2.294955666891715,0.10409151707090596,2.3587599701518878,0.5674763971548246,0.6218482898792093
531,9.953572288442967,2.269507734110224,0,0,8.044022561191365,-2.1533512967144133,1.2926800364420046,2.3568730284151904,0.6081504977113984,0.5347223325576901
532,9.974618601054269,2.390955139643878,0,0,8.14617116766808,-2.056805752226608,1.7654890808711314,2.3473695896027578,0.4078214605013613,0.3619641969458683
533,10.023638016218095,2.490015741476005,0,0,9.17254233144483,-1.6852977188031937,2.6289923073015142,2.3150973668649173,0.44383219434522847,0.2177864321297337
534,10.092270565306707,2.5609383416486606,0,0,10.135573490421693,-1.0566881314316652,2.814321801945862,2.3484060604726653,0.18150605489753643,0.09581311504845133
535,10.168792553803241,2.6004110271461327,0,0,10.29436848254086,-0.5420632525570745,2.0166218382312056,2.5231897394221163,0.009209747074193952,0.028096749655767222
536,10.239929568349593,2.607560816105591,0,0,9.911798898629078,0.3165148858436145,1.489387307493882,2.8201790431819385,-0.034288405916546146,-0.010910241720296083
537,10.29303386450573,2.5837644450180663,0,0,9.628440816438928,0.4970332000832269,2.064318838246482,2.9093941455349386,0.12822133559334573,0.05783917485393445
538,10.318201351521294,2.532282406997452,0,0,11.109150470392379,0.8327803562107357,2.3235091227909748,2.5570313786142242,0.11731743678091897,0.2482866136156651
539,10.309928749319546,2.457730841752058,0,0,11.804230926533753,1.4633008526563576,1.0091802556681295,2.2252414045609945,0.3586438275312329,0.3830275611217435
540,10.267967776310694,2.365444340422895,0,0,10.28776745126578,2.245382691648722,0.8494958859853796,2.117071978801499,0.4901980216941992,0.45510214497192025
541,10.197169762349283,2.260830224614175,0,0,9.466030276201877,2.7392830874428387,1.4744160970632039,1.9870398869859676,0.23669501700445444,0.481090333781982
542,10.10636699418623,2.1488338524139,0,0,9.046502738657157,2.5577088548329074,1.2316018405107931,1.8186279591528818,0.4384229403585503,0.5261757647188093
543,10.006624344322354,2.0336093088788503,0,0,8.389916154800268,2.481312703413055,1.4466238492974859,1.8404202290408498,0.7539105677510535,0.5805672200320772
544,9.909366547099443,1.918432661518879,0,0,9.06515008508228,2.972838110921255,1.3177097939928883,1.7272688752824894,0.5818493894100721,0.6321608644109751
545,9.824859838798382,1.8058303364475325,0,0,9.315155450114709,3.104918645102957,0.5646820930448615,1.5636859370917007,0.5683662895831845,0.6385751338402865
546,9.76133921335057,1.697844635905464,0,0,8.487627885038528,1.9861005959036542,0.8478956053133406,1.6140261930208033,0.2542685068944326,0.661856791148703
547,9.724826274095307,1.5963317949590314,0,0,9.69803820336676,1.495981328417716,0.857027004660692,1.5996950788552136,-0.30197627175143993,0.7630875718217608
548,9.719459013969196,1.5031839684816481,0,0,10.79201999721946,2.2190920673236594,0.2741534960519374,1.4967067528767655,0.19569842712765578,0.8684664273766596
549,9.747991419756959,1.4203833692163066,0,0,10.183705363437147,3.465034560772638,0.9386808885089941,1.3289921330423973,0.4557309295343345,0.8853426198202149
550,9.812060741818811,1.3498380004280737,0,0,10.10518394377847,3.8471097914507366,1.2634907807117115,1.0722052121843486,0.1478645096634731,0.8074963030442863
551,9.91192611612524,1.2930136490711415,0,0,9.208586153220256,3.4984295074525984,0.7236527920350213,0.9827290488463558,0.23213533069307815,0.6488132992883621
552,10.045658499040073,1.2504507629515051,0,0,8.563749102776582,3.008261262637654,1.1862748872539546,0.970107238327335,0.1587956246933447,0.4706249619340512
553,10.20809936098907,1.2213112669549333,0,0,8.30381518223802,2.5237146940928787,0.9811472898069956,0.8809220670582764,-0.07546747772080924,0.3547457486678148
554,10.390134224684733,1.203117439390201,0,0,8.698111970481511,2.4076278038044605,0.5152553556754719,0.7999997221903766,-0.34121149162718967,0.33974459063446183
555,10.578816971896611,1.1918158175891578,0,0,8.762014669272183,2.5222384513904563,-0.30237769406247594,0.6591663812035591,-0.3902173159757179,0.40043007968758715
556,10.758606232470932,1.182229252797808,0,0,10.266194515409865,3.0262512070529053,0.7276718116215812,0.623980776225029,-0.22012852389522022,0.4750977460938592
557,10.913523085616442,1.1688607670179199,0,0,13.110973339653254,3.411032603380158,4.130244794664631,0.6976961793399984,1.6353108885676275,0.20767571479635452
558,11.029590690019772,1.1469023897853794,0,0,11.71366235254621,1.5501264266415127,4.988574777702298,0.9027555836409342,-0.28072843074619286,-0.04064338038101528
559,11.096705787610219,1.113213813134616,0,0,12.926306357733907,-1.477572288206161,2.776556137766503,0.8278499011676522,-2.297287441454515,-0.06331313858130955
560,11.109293145543923,1.0670108670604643,0,0,9.824154994438569,-0.4785258283728294,2.211684892320025,1.0037440840733023,-0.1967247633741325,0.08858376669218754
561,11.065663310970642,1.0100686246808601,0,0,7.381722997587005,2.1232669380460267,4.499904254138043,0.9745725703288524,0.08663943059806864,0.21440802196052225
562,10.966641480675134,0.9463852513171089,0,0,7.964144794920999,3.263289954062222,2.12742388070212,0.6283320140326669,-0.2802003976853102,0.21062656545145395
563,10.814399529220877,0.8814129278101029,0,0,8.697533493346079,1.5988553945438335,2.349629563099281,0.39661108370573045,0.42148029089837774,0.1875853964628547
564,10.612306773958139,0.8210702338856058,0,0,8.4485763046474,-1.0864278470580988,4.447486338485537,0.2927059087658065,0.783315316912259,0.09457026427967771
565,10.366087069927385,0.7707727893519295,0,0,10.065930072430218,-1.6983418508226467,4.449742202712585,0.26231401135921667,0.2178891026063266,0.05949326797675325
566,10.085886325365522,0.7346742118290883,0,0,12.716874857549973,-1.3210240572556204,2.1540555070503604,0.30649536888330037,0.06553640166672278,0.21839313578341754
567,9.788310995746965,0.7152316318859212,0,0,11.826582975739731,0.004390284040535447,2.7273890141234496,0.5822733457343537,0.5532862933557542,0.501854152701883
568,9.49732750017605,0.7131190583598414,0,0,9.341035794106267,0.8804898507966529,4.106507574210877,0.7264425492435397,0.04922989586528042,0.6271042708730264
569,9.243201771087485,0.7274255020869149,0,0,8.815321952704519,0.31414309170456745,2.1848367203295145,0.4380127673735778,-0.32247961566863326,0.5614457405634824
570,9.05927541101186,0.7560219854576835,0,0,8.746129814593397,-0.6997476382327823,-0.03426806596376648,0.307927287878115,0.3208859416450787,0.4024526369208489
571,8.977028358557222,0.795979452274215,0,0,8.949441898363139,-1.2763197959190546,-0.2794517110861116,0.5502269155760118,0.7484983988109115,0.2380204479337985
572,9.020322379374123,0.8439498693054723,0,0,9.019419417637478,-1.8636706173082014,-0.1804628796998679,0.7470090013658057,0.7317712003745876,0.16968862902546214
573,9.199907230641143,0.896455459584693,0,0,8.134290446903874,-1.8492957360200755,0.1867334451558615,0.7950263312792148,0.6451911708661229,0.2424771759975207
574,9.50929545057833,0.9500604815865276,0,0,6.78226943087705,-1.7277132695116713,1.4262854696448029,0.6608475231031522,0.3028851053092316,0.3501433303856342
575,9.923037583212846,1.001437546746099,0,0,6.627603862783204,-1.1627352933742072,2.375717625199478,0.5256821875389515,-0.4088433448466818,0.35736603698706354
576,10.398200546693621,1.0473810606133878,0,0,7.029263770022195,-0.29406242904046337,2.7599994706154027,0.5496863242344543,-0.7309670311424892,0.18252084764544352
577,10.879352550056023,1.084839150523714,0,0,8.762197227944295,-0.31439479306597007,2.7072945527179217,0.6899431819914865,-1.069014034840968,-0.0010557134710094435
578,11.306559346944145,1.1110181483903336,0,0,11.895018466709805,-0.9233851891595154,5.383136464436505,0.7142709058869272,-0.42870357123413994,-0.09786189677459811
579,11.624955667751797,1.1235741876226,0,0,15.680923330434707,-0.2646731224841609,7.799080563150704,0.6169483019640554,-0.6668672154896554,0.08907554329747454
580,11.793720988638349,1.1208668945195222,0,0,18.854638321237378,0.23153145156860927,2.360631662062908,0.5748049307705185,-1.5518303612155326,0.37291389554841525
581,11.792195715865306,1.1022189223242933,0,0,11.483422902147058,2.7849039133436744,3.7956849626026092,0.7481647686325682,-0.5900043069914229,0.314811334156464
582,11.621679109072693,1.068107480846525,0,0,7.1394401953656965,2.0704839839472995,5.0267440781484165,0.5477828837102194,-1.2549210759176719,0.24126056085991618
583,11.302914252747431,1.020224142029231,0,0,6.972717756177332,1.4797311220855665,1.9237594745327435,0.5745321551469331,-0.2663079187478065,0.20681588360265
584,10.870657589389783,0.9613796764170872,0,0,7.088113549606729,1.2422359898946418,2.7819842442426976,0.6665599697119823,0.8785741795842297,0.2769607897690107
585,10.367328787590965,0.895277908775144,0,0,9.585644147647395,0.7805600317136998,3.7017417699416844,0.6933802531684514,0.38888150650703274,0.352325808267198
586,9.837375248949527,0.8262103405550388,0,0,11.876164981165921,0.26175981105265933,1.6686124526133055,0.5038793057088254,-0.15675853264368825,0.2579813945923898
587,9.32310539097257,0.758726912092559,0,0,10.264603911938735,0.8392271321253769,0.9138246897430273,0.6496114971513881,0.31544991106272124,0.09355529406716866
588,8.861976036472988,0.6973260368241924,0,0,6.394695222705776,2.447787161612106,3.5594911606349977,0.7430901977832999,0.3179880809713689,0.03688267970244016
589,8.485016845937771,0.6461850347835218,0,0,5.922644776493896,2.7702064054107027,3.136191666257712,0.604623343090955,-0.5597690174818855,0.08446571338194062
590,8.216144318894534,0.6089294096795899,0,0,7.036006346446612,2.8587815363980633,1.1259833012832818,0.48147841383758394,-0.21140435451144207,0.14516792987004845
591,8.072220135998744,0.58843153008344,0,0,7.882474276719168,2.3648558077127433,0.41149475060511814,0.29342326069243985,0.19465108357247937,0.23217877587357086
592,8.063625283842557,0.586640146038055,0,0,9.475688443667417,2.3848477258421705,0.7067529953812228,-0.07337696071863924,0.13873403216771538,0.2559692590192037
593,8.194920254454983,0.6044525880362004,0,0,9.583142072217187,2.300201832377627,0.4224814405791771,-0.7319256988278393,0.38208797093081015,0.14373097047368175
594,8.46506293178406,0.6416299449045955,0,0,8.892994059827478,2.942362223391001,1.2355675985081291,-0.7704161087682241,0.8289262903490724,-0.03398820725883574
595,8.866814911566095,0.6967298329349199,0,0,8.181476773152378,3.0702040815391887,2.3685582372756424,-0.6290523976744394,0.5958014038065989,-0.12989478607002733
596,9.385364272653065,0.7670284617451559,0,0,8.544048094675748,1.563835792654488,1.51141951495026,-0.4180079520574439,0.010796863316556295,-0.14749928199925957
597,9.996662205826755,0.8484474975272145,0,0,8.826075526533765,0.08067123375751103,0.8952983971317305,-0.448641736520693,-0.37145103781012784,-0.12927545871136292
598,10.666312765988758,0.9355659175511555,0,0,8.414029286645453,-0.028699658367424427,0.6077900013457513,-0.5046247775658157,-0.6908342408441526,-0.015049435835216882
599,11.349934019733956,1.021828638670326,0,0,8.560616525200427,1.369870795346662,0.23169946380632425,-0.29548740125934936,-0.6408542192283165,0.22274970093745633
600,11.99567185149199,1.1000353067855722,0,0,9.73729391212369,3.5285021279871125,1.1527080057395802,-0.2882941741977829,-0.58843553595171,0.4440027594113762
601,12.54900581598958,1.163119521398126,0,0,11.15542559614844,2.181826480806429,3.2067773308747944,-0.46703852139181473,-0.6346761606701559,0.3732555446764846
602,12.959235918314416,1.2051348070641568,0,0,14.778982240610574,-0.24490753090073938,9.274728391010438,0.49970270930614114,-1.081601604809566,0.15062375115435514
603,13.186313286021733,1.2222634512919177,0,0,18.668810277645044,-5.137560663544964,6.150850523225853,0.15960897852719633,-3.1803267217712747,-0.4056948122072686
604,13.206343543359768,1.2135891329299593,0,0,12.535046732217397,-4.73152468347978,-0.4047952868905668,0.6231071906152168,-0.016934216037476225,-0.5098764137716686
605,13.01446623251875,1.1813842180574585,0,0,4.24777123556298,-1.468312616992319,6.286094708540901,0.6487471150251117,0.9187381243067306,-0.1993806840274379
606,12.624803796494504,1.1307893676174867,0,0,7.605466161890268,-0.6297140278928014,5.71984199703335,0.38507314683932625,-1.3549354719794844,-0.2246214931788468
607,12.06814791657064,1.0689486732637006,0,0,14.55492751017504,1.281761874446844,1.7415575579977138,0.21641972947002786,-0.3435834162043756,-0.2676568910653196
608,11.388353725916293,1.003806227649583,0,0,13.96487387939873,0.5960776091678834,0.44762419234065337,-0.05070668253182588,0.9556494821472139,-0.17621228421953464
609,10.638058021925298,0.9428225332373841,0,0,10.18762261974023,-1.1135329081520358,3.185854624869932,0.1600931276894667,1.1442505022797047,-0.06770857625877261
610,9.873942966760954,0.8918526353079346,0,0,7.708767634106538,-1.6437100189528733,2.575534074911536,0.12187323502868795,0.2467527711916415,0.005645778265781207
611,9.151779800320185,0.8543791307403464,0,0,7.990271697852933,-1.7646586398382547,0.03643871526120602,-0.045606515392613484,0.24121480678898172,0.1907832486619824
612,8.521756439529437,0.8312287941329025,0,0,7.325636007839153,-1.4369668401945142,0.7723219790252032,0.14616952292071536,0.8534689186447195,0.3024314801892212
613,8.024718424556488,0.8208145465496687,0,0,6.698672199823195,-1.6076848682423468,2.683697289722529,0.5737150766120948,0.7180589490032054,0.2130475124066288
614,7.689772796830635,0.8198333510813325,0,0,6.970945365106806,-1.7348792037432728,2.3545271877101333,0.8117679028243009,0.23794987784277097,0.12124901911136228
615,7.533344822676375,0.824247419814868,0,0,7.986874338434702,-2.3344369025582163,1.313813340645405,0.8211260744157185,0.15048707039966003,0.056670629504666996
616,7.5594319816897695,0.8303205340207701,0,0,8.467136671177311,-2.235321452719959,0.5782497336775939,1.1139902040017284,0.40470566310714445,0.04818956642424465
617,7.760601030038977,0.8354798232723194,0,0,7.769789140425389,-0.8559015275089787,1.3820744623988281,1.279493833384377,0.552698598424635,0.11672700128753023
618,8.119279891898215,0.8388121384132379,0,0,8.239759615219569,-0.03693567381932081,1.6858737187082946,1.0189815277525063,0.024991566292656326,0.24423819427764645
619,8.609077461689752,0.8410809696264114,0,0,8.29064180609733,0.02241164090126905,0.33128529010153385,0.7633742860326677,-0.325254484661089,0.2894830175874179
620,9.196110758578689,0.8442642403471172,0,0,8.744898928798095,-0.02538279543107135,-0.016955283548804174,0.5476280266920359,-0.38380609764242396,0.27546412984690305
621,9.840506949595241,0.8507390684912074,0,0,9.268584435805849,0.2768955219888168,0.6212815976613647,0.3510853680445784,-0.5221059594675739,0.196547620073331
622,10.498311975647168,0.862332968397362,0,0,10.176457407314345,0.33639971959356785,0.5591649469812422,0.27896810849572895,-0.5691791621061911,0.044053031550701054
623,11.123978908020081,0.8794936279365041,0,0,10.608663196134179,-0.020699149363310226,0.19283331657887315,0.4075875156767258,-0.1773004343854302,-0.15318867914482837
624,11.673464282532269,0.900800941387144,0,0,10.2795886394325,-0.3792215212720769,1.9287506735563413,0.5111317792219442,0.31940812008012254,-0.28519729229808854
625,12.107765203104332,0.9229690032420603,0,0,10.158978734227027,1.1854513433618101,4.831989510207595,0.4264994454970316,0.0010803388234164302,-0.3154032982827642
626,12.39649748401209,0.9413761237740556,0,0,12.983354644982024,2.546602464000992,7.6112346979312235,-0.42428353263860236,-0.1470373878250198,-0.26159042411855415
627,12.520877765940009,0.9510305726032043,0,0,14.61563710928389,2.946550824779717,6.292277864271736,-1.2480841778435694,-1.2062504787280697,0.07082704217555762
628,12.475367110794432,0.947750037553239,0,0,13.214756385025574,2.4415328732730535,3.487875690855815,-0.9556472387171657,-1.4709178932827471,0.310899184947352
629,12.267464678047117,0.9292473416924506,0,0,9.49145514698761,0.3893735367377154,4.128981606768201,-0.5739204176336191,-1.0309625357323393,0.09658466805022826
630,11.915742636240784,0.8958287197000692,0,0,7.804283415352093,-0.36243694430657913,3.055377559949224,-0.5680611785377523,-0.68441625620796,-0.05666297859333771
631,11.446877278046571,0.8505365688490295,0,0,8.173832271942675,-0.21712996395168999,1.7815267827527117,-0.51713189913583,0.20752847196325971,0.08942702839317579
632,10.892690591266469,0.7987422165730629,0,0,12.257639645074159,0.7172074834736053,3.2310753068138283,-0.2829476120919236,0.5830752734199787,0.42300316279970923
633,10.287873045914903,0.7473248083375017,0,0,13.474288454682139,1.6105396678715698,2.3803781511752806,-0.14901759032237272,0.7770068172922906,0.4623236279465166
634,9.668399207166829,0.7036211672723968,0,0,9.613663909060348,1.8564358622562098,1.676434936534909,0.009312250227839231,0.6865933770650441,0.22571635349189217
635,9.07020610363525,0.6743267943992156,0,0,7.127955514548316,1.2673325180982187,3.055459215325157,-0.20979878589956322,0.015686713336611115,-0.01647461552337653
636,8.527762574023573,0.6645130771169215,0,0,7.039296791147328,0.88060437564918,1.9520837215401128,-0.4372839318820779,-0.6329288556182352,-0.11041887260121688
637,8.072509400644874,0.6769107358705535,0,0,7.94903464214448,1.0701869989056527,0.6839402168514526,-0.3343681570736402,-0.28610731286170793,-0.09885666384984872
638,7.731387991364127,0.7115792781534044,0,0,7.678171116685217,1.5343533515880161,1.1066212997733902,-0.22890734770115986,-0.007968498628284835,0.03698563465765505
639,7.525631133317216,0.7660275805806749,0,0,7.719727698183807,1.5546598947638524,1.1903057772273185,-0.4825884270495408,-0.22932787420317954,0.17078111365759763
640,7.4698056935734405,0.8357737381854186,0,0,8.118162825640951,0.9913464566326845,0.17378881876743976,-0.7555996497156529,-0.3300599819986956,0.18467244070917857
641,7.570979332026235,0.9152370320781631,0,0,7.907494382978198,1.0047862004082537,-0.029333172121025,-1.2379391258730188,0.07680346454086279,0.1533723128010081
642,7.827911965416052,0.9987589655684219,0,0,7.6147733063528245,0.486436972438221,-0.3021030205250123,-1.5163983051792618,0.5298818106431763,0.10516785762346648
643,8.230310108713404,1.0814944098268215,0,0,7.6999328431862795,0.6602639702412604,0.5964857792265453,-1.3241531192824665,0.7561078003649743,0.05686885919498568
644,8.758341693148822,1.159937858916772,0,0,8.410538090946815,1.042139225053177,1.5380676925857568,-1.2000353951252927,0.7018578004710615,0.029831499543076147
645,9.38270762171162,1.2319596313517176,0,0,9.279959472997342,1.263833401367949,1.5309358124326027,-1.044451148878918,0.6692854131682159,0.041346173357249896
646,10.065568631857852,1.2963859278139669,0,0,8.762540909311108,0.7251017391707599,0.9605437797481595,-0.9251148460225149,0.24468898919917925,0.0430661244503899
647,10.762550322567623,1.3523053671242955,0,0,9.410729555418364,-0.14263335615511988,0.25495376803456393,-0.872030175304632,-0.734925661529504,-0.002405745534169108
648,11.425912889534523,1.3983720439451677,0,0,11.049124548527294,-0.8509962642735307,-0.04509886136079527,-0.7683473101074215,-0.7725729976615004,-0.03188260995625315
649,12.008753859752645,1.432380531145974,0,0,11.507955543852066,-0.8818527949883669,0.30560200942258153,-0.6213628944166761,-0.055830503097616085,-0.09342365367274807
650,12.469803332655797,1.4513172289354876,0,0,12.252887009223446,-1.7365222698104639,2.814559848007688,-0.14745023176838243,0.15890812547128638,-0.3532191545844438
651,12.778040603729742,1.4519535414726932,0,0,13.731536325217844,-2.1171714008700717,7.907356357703191,1.0083389969730376,-0.96697255972147,-0.4572543210827472
652,12.916147059520553,1.431846997696777,0,0,16.19938945779569,-4.556127611109401,6.202769152439813,1.3114123773682775,-3.8880975413007035,-0.4866121571042253
653,12.881887251942818,1.3904102262933333,0,0,13.075435685811124,-2.703795627543879,-1.8050490582871004,0.854767436985411,-1.4665242236844103,-0.45195093023719995
654,12.687014727758264,1.329622376746654,0,0,6.7723166642527,-0.1265078723014557,3.50771501591734,1.0495537688636125,0.6825630823098677,-0.16884408161957923
655,12.35413051679045,1.2540948132471357,0,0,6.770424575870407,0.13255128612205855,6.5162229150304825,0.38233789435871807,-0.26751322837430774,-0.20304270859632007
656,11.91262341749724,1.1704945135463605,0,0,10.746652033765098,0.25088375294506604,1.6721238795562259,0.18062548051952568,-0.22289467094003082,-0.4244291500128924
657,11.394895772401043,1.086571252549747,0,0,14.61586840626348,-1.2525259705146745,0.5388389066614003,-0.02892801122025051,0.9239300540772469,-0.5169284662027952
658,10.833515436205257,1.0100886827232183,0,0,12.266355342925262,-2.641395065265374,1.090121435504622,0.18498621128631784,1.5728541572003645,-0.3752913060984415
659,10.259262334988007,0.947860202347783,0,0,8.33564414825171,-1.9527306737254941,2.850711075438608,0.45460019594552076,0.938758926773915,-0.16591591726208596
660,9.699778668777892,0.9049713980736114,0,0,7.855305231915,-0.9578170153400816,2.386798748065523,0.35310729584765294,0.17650425417184673,0.025071955803221867
661,9.17870901659038,0.8842241931600731,0,0,8.262116209230125,-0.8935840145300279,0.48337300291691965,0.4267475974559333,0.3424009398880367,0.08724583625093468
662,8.715450708803646,0.8858493063110676,0,0,8.622433895448486,-1.6888775171006387,1.1392371457168284,0.5848216012125435,0.8604700727549417,0.07138020042896727
663,8.325616794880576,0.9075318907750133,0,0,7.650925528902865,-2.58698502514091,1.7242249076405807,0.6104864482086645,0.859565735731295,-0.0506102267721456
664,8.022070682108911,0.9447492134005187,0,0,7.739302849395502,-3.660706084258817,1.4121696987753378,0.6850534649097207,0.3914508768935519,-0.12894327342865666
665,7.816137202891508,0.9913631882303273,0,0,8.178418984908172,-2.786533406668788,0.868112553246121,0.9155250724592925,0.1723152998827357,-0.1944604673643119
666,7.718482781578941,1.040381905090399,0,0,8.172817389840437,-1.3382011997444752,0.5156962221596514,1.052621805430036,-0.010154549699698947,-0.1700946918026124
667,7.739215150015397,1.084798958156769,0,0,8.265501296090019,-0.4120971709972298,0.9826179602866637,1.1379245622681944,-0.06551005569136706,-0.08277265500981876
668,7.886942418975224,1.118416561403694,0,0,8.359420416799118,-0.3237377686708797,1.2578545447872662,1.1502598211120632,-0.26526516051778193,0.0069015520137942505
669,8.166794252396297,1.1365547297647713,0,0,8.604540332717278,-0.5619975688459301,0.2654150735593651,1.2374707951766066,-0.367083182449045,0.06453164356484357
670,8.577688498660237,1.1365544937204874,0,0,8.499762782965156,-0.27058770286024575,0.42206137595609683,1.2565586308866914,-0.23718050656059417,0.08094683529335332
671,9.109384804748405,1.1180049747414338,0,0,8.307500770531666,-0.027838970779715554,0.9547318504086945,1.1137270278727849,-0.4461653650065321,0.026265028527725675
672,9.740066096749816,1.0826615878300196,0,0,8.186455095138557,0.24373506445341786,0.385705358452439,0.8717136372639569,-0.7365451508551603,-0.0401634655939043
673,10.43527250698471,1.034070127452493,0,0,8.499597236288878,0.4504764242528517,-0.052563993334635226,0.7081210989099356,-0.787620386104358,-0.10687219453933325
674,11.148908283878503,0.9769595445622864,0,0,9.454422653887981,0.14059795023975197,0.4272997174613839,0.694639143842594,-0.35050617893792535,-0.16722975100738355
675,11.82670481886668,0.9165036848508256,0,0,10.73058620481101,0.23560285985488966,1.255265956825634,0.7576233143101575,0.17649260928875418,-0.14436094348516335
676,12.411978144298708,0.8575696782829524,0,0,11.346441219184245,1.67241201127949,3.4475803722670015,0.7084615863893661,0.7788972126057453,-0.07664472692702302
677,12.852877669566206,0.8040647767830778,0,0,12.570494245364085,4.164072553948133,7.499556841298549,0.0847390116148798,0.43445926987650635,-0.07323847458556948
678,13.109760969847501,0.75847086942464,0,0,15.647714543899896,5.500435776360168,6.537879134922768,-0.6082702380359084,-0.35958909766958874,0.11040602645652012
679,13.161065642473057,0.7216266841828904,0,0,14.79967025841329,4.091004190017797,3.7373854364646855,-0.7133872423768338,0.13022802302021927,0.2496671996289069
680,13.00628362668862,0.6927847358977758,0,0,11.835368306459193,2.0482360534918134,4.069082762394582,-0.5599461843417787,0.11691743605258288,0.005374075794587521
681,12.665399977157794,0.6699330837117393,0,0,10.527758871286183,-0.31125065431215665,4.14583912689748,-0.35879416404757103,-0.023265135109660523,-0.1820101483842067
682,12.175153425108606,0.650334163452726,0,0,10.240284205123578,-1.3264401526308987,3.8051674130285456,0.0093153366921421,0.6140355814079282,-0.18545692338111255
683,11.583254477383713,0.6311950051771784,0,0,9.18325194459579,0.08115948538893124,3.5360435692423446,0.30943529530560415,0.9864364582378635,-0.04759057175673345
684,10.94196493790664,0.6103454037843397,0,0,9.49432363051835,1.9297092947651573,2.95009497333619,0.4430408414381379,0.6680830265760435,0.18644417429775859
685,10.302233793833475,0.5867792838508875,0,0,9.71479328920615,2.7381362827952196,2.1888322721492486,0.5357721444062344,0.5238405027960384,0.2593065087215228
686,9.70912727714128,0.5609349285550499,0,0,8.864264526770521,2.5066201432396085,3.191033515274374,0.4340735464190208,0.38704790715811477,0.23334518935411136
687,9.198818052789756,0.5346553573267533,0,0,8.251372396411163,2.090394765041665,3.664495795134146,0.24533605185799642,0.19056238548443347,0.21038148968116127
688,8.797055522643653,0.5108524937780643,0,0,7.693686281498177,1.9056618589032206,3.225257436720792,0.2067359796799563,0.25245729143556006,0.1908195359140525
689,8.518862201233341,0.4929611126991764,0,0,7.702008268917857,2.141904738265113,3.262618358779934,0.2701015509993771,0.49433411457937176,0.18038168643208294
690,8.369139063478968,0.48429209406783463,0,0,7.844464530011134,2.380021214785209,2.670721551403216,0.20948539645301065,0.3781261289529811,0.1312522267450196
691,8.343848678843466,0.48738656259952945,0,0,8.493819107927186,1.7482046020169344,2.4037311449636394,0.16028502773826167,0.4723751897896051,0.05268832038382892
692,8.43145714843059,0.5034554830343084,0,0,8.29373857260448,1.1537949126606586,3.440161363791365,0.1973207174165463,0.5788893045100328,-0.0015745722778668274
693,8.614376362762597,0.5319803215573373,0,0,8.054928681909912,1.3844470474100172,3.1077319861325883,0.11845671885587357,0.22672082301537264,0.021345708192807032
694,8.870275889328637,0.5705495407862555,0,0,8.019789502639023,2.182187615727568,2.269870895790711,5.1377837828116644e-05,0.09919353189947887,0.1221030829682942
695,9.173304584942596,0.6149977646465495,0,0,8.015934595238445,2.8632951357812035,2.2790412189734943,-0.25679512359998086,0.041279952543522916,0.21885632182329873
696,9.49540992856114,0.6598776635771949,0,0,7.942979084637918,2.925196428855154,1.9251487574876733,-0.6331143357079699,-0.28489473206697236,0.30406820440854504
697,9.807999614085357,0.6992196615105086,0,0,8.181598838554576,2.1589325558067354,1.5969059610608651,-0.8506847988552388,-0.36990318594788796,0.3547952379329499
698,10.084117368402548,0.727444671345585,0,0,8.467853418220166,1.3974728785801485,2.713540888789259,-0.9262921590725463,0.009153053788938346,0.38162539188729955
699,10.301098009720361,0.7402370670999038,0,0,9.60686182465964,1.4337509338871002,3.687443829552753,-0.8575307164734512,0.27776855161965386,0.3654493175903237
