id,ASVM,GSVM,walking_nonwalking,normal_abnormal,ax,ay,az,gx,gy,gz
1,0.9998191224999848,0.5317514901524802,0,0,0.9024463786732254,-0.030113205831323805,0.12919667023175466,0.08785086760134915,0.43692571343939157,0.0025752003417353515
2,0.990412963833531,0.5362288921275185,0,0,0.9101622101784947,0.014998141208799009,0.08920057831672804,-0.0031807806544610173,0.43204323862783545,-0.04336317057553588
3,0.985223925342401,0.539188216513202,0,0,0.9389631142873566,0.03254224806567518,0.09099291838525633,-0.11142865127130587,0.4374693482521484,-0.12514503761904386
4,0.98501453020232,0.5407629161397236,0,0,0.9931196754448016,0.10069656343851147,0.12665672737076988,-0.20406220786583212,0.3876241347571066,-0.2526136212711617
5,0.9897935875792719,0.541184396890378,0,0,0.991054457027773,0.19178067887259156,0.24636127991920587,-0.29081879322022874,0.43132361801216884,-0.3930398756357049
6,0.9988033259484317,0.5409403795685993,0,0,0.8984037509798614,0.17232540685741296,0.35303104447953754,-0.18259660049442622,0.4601894582247672,-0.5742402142376294
7,1.0106078601186232,0.5408507969497625,0,0,0.8642657398263404,0.07495898574503623,0.4884672909499611,-0.004381315435445601,0.5295091242132987,-0.6657686938949684
8,1.023272902846739,0.5419943966674003,0,0,0.8159623241964311,0.022709391624566495,0.4834373161303511,-0.06612731958496547,0.4754774800104254,-0.5086089068991672
9,1.034627553800812,0.5454629377026394,0,0,0.7144373148632296,-0.04115735912427676,0.3888791064126486,-0.20238355292807267,0.35193992473769803,-0.23073553390752868
10,1.0425936128039912,0.5519910713760655,0,0,0.8800664046156981,-0.11418579933414492,0.4478680011975553,-0.21544247954116094,0.15348656566347266,-0.03105553295607817
11,1.0455486034821544,0.5615810714183874,0,0,1.237561736869613,-0.18543798005880466,0.5265782954025353,-0.14189885386735124,-0.0202993832368978,0.06711523981923594
12,1.0426588096625986,0.573275378670385,0,0,1.2548540817021745,-0.15148571247871945,0.47458312203944314,0.1565978272602202,0.017770172392978737,-0.058500261130190745
13,1.034098322009947,0.5852008506661838,0,0,1.0292537399352009,-0.01999239783679637,0.3261275858004223,0.4421699735865435,0.4461321555869982,-0.2877583798787589
14,1.0210847981542774,0.5949207308100424,0,0,0.8656134195933922,0.10488921249790802,0.2550163717027506,0.37321462672809425,0.69411463984436,-0.32518232585313495
15,1.005714978205049,0.6000209425803619,0,0,0.8496842374384124,0.19061180499034472,0.23664980471490016,0.0944688256629463,0.6846124058566083,-0.2342932779876216
16,0.9906431699425643,0.5987780038398776,0,0,0.8940144372424956,0.16704089775786915,0.12079249065370716,-0.21409954278268917,0.5599659015421631,-0.1294311917537396
17,0.9786788704553046,0.5907371942515234,0,0,0.993901307481851,0.08234898702567184,0.11070243326550712,-0.41634559381186925,0.584128614508942,-0.04672443411396738
18,0.9723765024225909,0.5770611923403456,0,0,1.045204364499521,-0.014308358136571444,0.13047890823648026,-0.4328716137813116,0.6676640416317606,-0.042188923385869846
19,0.9736687897938999,0.5605606721625308,0,0,0.9710045717099312,-0.02585258100744188,0.13730743026535852,-0.244006978579031,0.7826038614506079,-0.03584692882659297
20,0.9835781628829372,0.5453734715542682,0,0,0.8767255763411355,0.001253992382237304,0.12615807590755204,-0.1684664845719489,0.6160073477312203,0.0031933604550354487
21,1.0020366080752297,0.5363217882445264,0,0,0.883237993275196,0.014937286839016888,0.08509659290404611,-0.13531114136521588,0.4425445328458298,0.026799736206229184
22,1.0278456336505728,0.5380480657923258,0,0,0.917950891470278,0.02446952632356506,0.00915933050535804,-0.21028993743709334,0.20843580915487978,0.03507637444322498
23,1.0587999093779694,0.5540921294812814,0,0,0.9363321679067886,0.04927973053824275,0.025069361766060144,-0.2407571092867882,0.02108441111400182,-0.06280678469274037
24,1.0919725787380457,0.5860982371368125,0,0,0.9991675833627767,0.12664981761280636,0.05549353345947754,-0.2105543995640577,-0.26950029048390234,-0.24515989793712425
25,1.1241205309464148,0.6333161250326299,0,0,1.245680647820433,0.19364613924533497,0.22257106955053618,-0.1904169519974559,-0.37028527594312727,-0.4290563039398003
26,1.1521257868928723,0.6924934938245081,0,0,1.5308501921623696,-0.02273996365788253,0.6339829220664867,-0.1543734981391003,-0.037567914544404314,-0.5842678749690421
27,1.1733636585938791,0.7581753796142399,0,0,1.3086167912669562,-0.1531207257288419,0.6405663695767935,0.45349718348568613,0.12069580757598804,-0.5358026978589041
28,1.1859031400163456,0.823354808529385,0,0,0.889263911237722,0.04898204010070706,0.6348840821437837,0.8926054970238911,-0.1253431679092134,-0.16792252620874307
29,1.1885104068488563,0.8803706079280773,0,0,0.760798350197386,-0.02775573526678387,0.492543551597428,0.7944853468804374,-0.23186321163709742,0.2656308088867053
30,1.180517181071711,0.9219212315330163,0,0,0.6540667681515778,-0.14895610891044447,0.4951681668401064,0.794638552380767,-0.19205016409557626,0.45542809637230997
31,1.1616792245448693,0.9420538742709649,0,0,0.7599997033195555,-0.19706527340931734,0.49830208939894516,0.9544231895694185,-0.3457426843608711,0.5360323102926889
32,1.132146280029778,0.936992888323309,0,0,0.9096992452407532,-0.139110838966291,0.48252544760678123,0.9371887372680079,-0.2991811817899952,0.5695523711792723
33,1.092596275512774,0.9056903293264115,0,0,1.1046730434462888,0.03024245471507438,0.4687535055428826,0.7698533381603657,-0.34788081994640585,0.6357697078207035
34,1.0444915080881412,0.8500180967537655,0,0,1.2017525507871398,0.19101451896507457,0.5239297463337326,0.6054121583230831,-0.17400351064550648,0.6349478543013726
35,0.9903379970595982,0.7745760901946633,0,0,1.133972696496508,0.2631906181731114,0.515849265119727,0.40060381898139596,-0.06671457642224783,0.6289528907050677
36,0.9338027119042287,0.6861528712255902,0,0,1.083560638415451,0.2914580816833523,0.4966417328993919,0.13322329637732996,0.0005926469409589147,0.6359365394854513
37,0.8795763622944927,0.5929263605329137,0,0,0.8283080167353591,0.18985750014748934,0.37824181248204164,-0.0866640826485404,0.25548237907176446,0.49786786986804027
38,0.8329486355079682,0.5035203443981965,0,0,0.6089025387996659,0.05738586528414766,0.30324639708219797,-0.2023152212675749,0.2837110512980091,0.2722426372143361
39,0.7991574271184687,0.42603851117409575,0,0,0.5123311475470517,0.016324000414529118,0.3079613674786705,-0.17888187957732055,0.30469928373270744,0.11478578579882005
40,0.7826469097047656,0.3671888001777376,0,0,0.5060209654979942,-0.026795297487812866,0.27389963734176065,-0.2236449387521201,0.13125784252945133,0.016777417800827865
41,0.7863945297116264,0.33159327704243774,0,0,0.6106626112461216,-0.062290629082286615,0.20948372336282647,-0.24568326548103234,0.059780680943166305,-0.03992128391405423
42,0.8114405053748216,0.3213547949248615,0,0,0.7321014797864758,-0.15254914703527256,0.20226248282245893,-0.2711426382363746,-0.049894868094877136,-0.09659800331799637
43,0.8566934988679356,0.33592218291804077,0,0,0.8318421426047751,-0.19181976817322308,0.1818585275093514,-0.12446476643702038,-0.025265142330731342,-0.12528225144211128
44,0.9190198244488854,0.37226237974616866,0,0,0.9302055271107158,-0.15731666154945706,0.1702894728000321,-0.009279342762371396,-0.21181486526907936,-0.03272185144565788
45,0.993572235990903,0.42531175488736045,0,0,0.9974580211898506,-0.19586079260131042,0.05073002488013842,0.0948181853636723,-0.4053020726582025,0.17349312163964134
46,1.0742870342469675,0.48863927164483306,0,0,1.104681435960459,-0.19029982910627422,0.14897052128135133,0.10462642286937066,-0.525135221438005,0.49279755840226164
47,1.154472618041714,0.5552162820601902,0,0,1.2011377203790021,-0.2200123729688311,0.23199431226541917,-0.03367567512342378,-0.47554759597173835,0.7127752903443347
48,1.2274212176017658,0.6181689509466181,0,0,1.0899072599231532,-0.3024867142414911,0.22782962012887628,-0.13854530521071584,-0.3909798629407588,0.6198616188280758
49,1.2869910195480088,0.6714083320512959,0,0,1.0278037162735483,-0.42044874410360783,0.16222255313794975,0.0170620512458076,-0.2818462188162426,0.29192699624997626
50,1.328120335561742,0.71008702369399,0,0,1.2197436259976475,-0.029904108089547823,0.8267569873788183,0.12362766647179095,-0.5861449281111355,0.08361493812640243
51,1.3472410010885367,0.7308890343358301,0,0,1.4257487094570536,0.3625718638228511,0.8546055218287882,-0.08079353770997318,-0.9064682283720555,0.031448720831222264
52,1.3425568936285708,0.7321874340448712,0,0,0.9959393558767455,0.45296502341438566,0.6938995729868608,-0.27853602059350524,-0.31851262839353295,-0.04748885308158748
53,1.3141618154209636,0.7140972168948819,0,0,0.78423709408052,0.3459872488216294,0.6541736702988186,-0.7134446247320466,-0.6469865219813171,-0.05765516290530484
54,1.2639993231511606,0.6784289749730998,0,0,0.9527055861525845,0.18464165111556324,0.5553358725963724,-0.6182441864639279,-0.38976421887622503,0.003220565335206629
55,1.1956976415429792,0.6285329936597169,0,0,1.0095237244912687,0.006110968790931164,0.6258891360935511,-0.5164080369517219,-0.3829693549787037,0.04710707355948818
56,1.1143165205995658,0.5690222541638112,0,0,1.2331153793018275,-0.27065282399490803,0.5172401648531888,-0.49168661783437645,-0.36003721987305937,-0.08510252352169043
57,1.0260176495151623,0.5053769755173242,0,0,1.1117561072797335,-0.4154778822686159,0.3765697473251012,-0.3734319691703684,-0.06796231303412399,-0.3213745844690525
58,0.9376466158436318,0.4434554149720002,0,0,0.8067422383214602,-0.2586436426773501,0.3378753426611052,-0.14592823993405837,-0.033903943663801,-0.4141238946757218
59,0.8562222285669836,0.38895517807796576,0,0,0.6845580245348706,-0.11928790572241166,0.2503259413306563,-0.07802868538649443,0.017945314244989713,-0.36301883368174287
60,0.7883666833657624,0.34688088590465055,0,0,0.5621712588700211,-0.11008273538955303,0.2117519051022822,0.12214841752437752,0.16461335377299188,-0.2491691289908036
61,0.7397476220539875,0.321077749974116,0,0,0.5579206674566021,-0.07455201251863054,0.2014876263593054,0.11012856496872375,0.034341797935143796,-0.05656977761485486
62,0.7146111867790764,0.3138862986329608,0,0,0.690163704454161,-0.033907720372379706,0.2279072852517572,0.1986988273629509,0.03678513949925439,0.10435398537731447
63,0.715458447054019,0.32595844485070935,0,0,0.8153573988781307,0.033385368424186934,0.1531776698706087,0.3205246818335998,-0.11222455606930529,0.20568201168342115
64,0.7428749194768917,0.35624825528005805,0,0,0.7877375718627143,0.15204459544806237,0.13274611094730818,0.37345868104627145,-0.19809355913755256,0.1723725102703797
65,0.79549023379977,0.4021601778271819,0,0,0.7968509354159599,0.188647681487057,0.03330485835702494,0.13175696793049962,-0.3261191102548901,0.013462804935109136
66,0.8700373072927723,0.4598175903735078,0,0,0.8419788029470489,0.2110789068665942,-0.0010716993816622877,-0.20934675970640287,-0.2838439792028555,-0.15121469308780727
67,0.9614942293069666,0.5244114822055911,0,0,0.9511574967561937,0.24945147611764237,0.2054012916034321,-0.5624363309193494,-0.18999494920652807,-0.26912086825907644
68,1.063313176700289,0.5905947797793731,0,0,1.029273320590013,0.18255039407642862,0.2171876717412887,-0.6414392968886966,-0.16307319408661847,-0.3471022578152403
69,1.1677576556293294,0.6528943503697637,0,0,0.9130885741736037,-0.02423032707709078,0.11798626380964708,-0.5520513876524461,-0.11785327977484311,-0.2075640469601754
70,1.2663767109624708,0.706122988053171,0,0,0.7226762663511797,0.07742873032194766,0.30764800354015587,-0.293758966536016,0.031114035997791348,0.025923628643807595
71,1.3506339643519119,0.7457879823552732,0,0,1.1574294205037723,-0.2606177550720853,0.8036071744439955,-0.6319922520534916,-0.2865342398030312,-0.15858487506084645
72,1.4126691474410549,0.7684946316322342,0,0,1.7932679508244613,-0.7140843578980225,0.7954308038697698,0.3415153956271861,-0.2022145529137833,-0.5999413071226297
73,1.4461086320263685,0.7723154332671646,0,0,1.0593076790878417,-0.357424435375919,0.834341225231871,1.0987820004897586,-0.24037773411969388,-0.4518713428134142
74,1.4467994830919217,0.7570510784542543,0,0,1.0220399215906937,-0.024544878698833678,0.5495149394337256,0.9692258632223022,-0.846334359895118,-0.1892749467691016
75,1.413352689077545,0.7242893171882839,0,0,1.3662240242432548,0.166189352389079,0.5103322465975952,0.431934958293458,-0.5791984948528635,-0.18996397642061832
76,1.3474273994295258,0.6772072778549576,0,0,1.5127717963794,0.11351396001682185,0.4685004699926601,-0.08361677283566574,-0.22001579385653575,-0.08447944021042945
77,1.2537233054333818,0.6201523520599425,0,0,1.3939252500970036,0.16572511608514848,0.5271061114456198,-0.07151344029229846,0.2331182054766706,0.09598511624570202
78,1.139662356140591,0.5581191423458534,0,0,1.1615510465617311,0.11287690080982353,0.3525258597906914,-0.09496467696776915,0.39339134373218787,0.24237672854866177
79,1.0147632887740972,0.496256452665204,0,0,0.8575110739336247,-0.007309080987530963,0.3036121452021269,-0.002259796854724189,0.5877677487609184,0.1734875645837031
80,0.8897600788898885,0.4394832261422731,0,0,0.7505625037805936,-0.07536403868334882,0.19350371051901208,0.03470836977947223,0.5003195961923151,0.06422446036198753
81,0.7755686233096029,0.392214454299472,0,0,0.62080781533032,-0.0728735934207097,0.20385663018202677,0.039861496259878136,0.5814003288829355,0.01411016463478432
82,0.6822343490793306,0.3581500003365451,0,0,0.5741863959527419,-0.05660395833141102,0.17840079651448776,-0.049529515422789695,0.362191737049662,0.02888996460012469
83,0.6179860462776458,0.34007755424055697,0,0,0.5752074084966985,-0.04812236937154319,0.15637832856917003,-0.11232137657350241,0.31907465016483266,0.0550868877498898
84,0.5884893277669568,0.33966964362957097,0,0,0.5783968338806195,-0.05017499896780194,0.09266398317028827,-0.24323785596777842,0.21108141853399384,0.015904625605100933
85,0.5963553751049032,0.3572892772179473,0,0,0.5511090108832781,-0.08434534672881838,0.08157627813609174,-0.22883753327753312,0.36295039597500744,-0.0731991459613474
86,0.6409300277357604,0.3918435583505252,0,0,0.5230707982757064,-0.1074360284101868,0.1321182437743983,-0.2091789350653693,0.08225791270243461,-0.09922666622542536
87,0.7183674851438381,0.4407360244047792,0,0,0.5933461561047985,-0.18472272236009632,0.07331388983124344,-0.03301785720974064,-0.24302484671526853,-0.06084259758578487
88,0.8219762373040417,0.4999674910696044,0,0,0.7995834331417097,-0.2500020946439307,0.1804753086646398,0.16541325755454228,-0.34947010531448025,0.09640830295392114
89,0.942805730529243,0.564418459422574,0,0,1.002330563949861,-0.3282747020431959,0.2500115183872095,-0.09432879473465676,-0.3585233745810611,0.27641915938037265
90,1.0704219411068037,0.6283104715145287,0,0,0.9941215444123755,-0.1177227057327517,0.10111671294159831,-0.035887150127018694,-0.6970322912256582,0.3669847099165658
91,1.1938072695008795,0.6857973131004957,0,0,1.0351956629520305,0.001006038128573281,0.020403216391479906,0.08413035965145992,-0.6454877781772832,0.3314421220833504
92,1.3023186395922448,0.73159849696546,0,0,1.0650925097666915,0.1024756748018764,0.3864106261310037,0.45194667983024833,-0.6021135458903178,0.21235600681290048
93,1.3866365401252096,0.7615726053440729,0,0,1.403265601150762,0.22240576635905915,0.7295644863546802,0.4145672416140515,-0.589339075396369,0.4298178028345136
94,1.43962403408361,0.7731378742533888,0,0,1.5742303641638278,0.3869635988179802,0.9202952429285257,-0.29679537933852596,-0.3748271723435946,0.6559850097613129
95,1.456996409131046,0.7654719340842318,0,0,1.282021249921074,0.2615990796624017,0.6704677343404734,-1.0045857782715109,-0.3018953564348907,0.5784677855805047
96,1.437706779419012,0.7394550667586471,0,0,1.1829942964234796,0.04877636704971475,0.6181578877228328,-0.6421002058527191,-0.12061913885670669,0.3710320758091159
97,1.3839950703158999,0.6973651035424884,0,0,1.2208315851814455,0.005204488885500673,0.6327381370893564,-0.5324965630474887,-0.22076703871623815,0.18328774130727796
98,1.3011065103332,0.6423890703920393,0,0,1.2842687885510224,-0.22594282687732034,0.5142351332434317,-0.3384669447357292,-0.06712537441499473,-0.09440982869607954
99,1.1967280315326692,0.5780705582059804,0,0,1.2608069533855528,-0.24982567542746417,0.4192659118719367,-0.3029035469800272,-0.07764981757712784,-0.32734358341056347
100,1.080209434649446,0.5078337509864644,0,0,0.9900123947294439,-0.08698726018448492,0.3194046985184695,-0.12654624118179944,0.04310563742972445,-0.35883358076556005
101,0.9616487922014788,0.4347005841473032,0,0,0.7905238781252077,-0.03878147264004362,0.24749532368938137,-0.014081059962363897,0.12042590055949819,-0.21765453723165895
102,0.8509402156691859,0.361259184303425,0,0,0.6252372223022118,-0.09293903257045966,0.1695923747300378,0.14418276187784565,0.34526590123302353,-0.05102764161652096
103,0.7568961517496425,0.2898737049930935,0,0,0.5857244437359338,-0.10345785627468465,0.1976116058120211,0.10648346931623874,0.29479845268352245,0.0921620020141928
104,0.6865472030644371,0.22306593145715176,0,0,0.5887603733532913,-0.1084488239314615,0.15172112019813647,0.07211020760950675,0.18653505967009062,0.15591066566448278
105,0.6446850706699827,0.16395767015725873,0,0,0.6469883486943028,-0.03943678883306872,0.17967887423186582,0.10492864078870902,0.08859025473864982,0.2085875898898911
106,0.6336620267300829,0.11664493569474148,0,0,0.7043169853554412,0.012506266788753512,0.05529252891070887,0.05758218501269283,0.05746237910419662,0.26439614754286195
107,0.6534140567203928,0.08637993939275847,0,0,0.7063233402226708,0.08918685018081882,0.07989799573418425,0.17332795505311324,0.188540103590696,0.2639250796052624
108,0.701649288404432,0.07946283736713157,0,0,0.7280745454812195,0.12586293254333594,0.10885910789880657,0.23820241983503734,0.09374139934363893,0.15416023601748635
109,0.7741415925948654,0.10279305940910004,0,0,0.8251505668726343,0.08705914483945489,-0.02399058824697846,0.06984240825950322,-0.0779682628184627,0.051252935087548974
110,0.8650846653736661,0.1630987102294547,0,0,0.9125654982228311,0.0179616546853533,0.1096634332088951,-0.12270266165079333,-0.08312649049413666,-0.002487836628032188
111,0.9674849320308728,0.26593950579200076,0,0,0.950955608805006,0.021998786168590495,0.2204036211940548,-0.12300944360554168,-0.24172361176658344,-0.03578279456495225
112,1.0735952694714275,0.41464271290253263,0,0,0.915568579301734,0.05476875871758584,0.2648021412031711,0.14077407266229847,-0.12782852185712035,-0.032555012609840075
113,1.175410585224083,0.6093664855024877,0,0,0.8766908363875116,0.013822973867718491,-0.0439099563270697,0.3932040410856068,-0.16482998961046794,0.042915312365970786
114,1.2652517146559883,0.846486431941777,0,0,0.7321251070945773,0.14640827697289108,0.2820877911526575,0.56239967703253,-0.12772254640856687,0.20861847649952928
115,1.336441144600353,1.118470198486496,0,0,0.9663132678290709,-0.03316279583775002,0.9010184266339604,0.31975015384961974,-0.5443882896734321,0.06301400813665281
116,1.3840128413441677,1.4143410829241898,0,0,1.7871026357898845,-0.5325987620774922,1.0451926556772382,0.5278649738130808,-0.392009357471028,-0.37210698288133043
117,1.4053173426748904,1.7207322510943275,0,0,1.865497301708775,-1.135432748234387,1.0754665850115197,1.4836640020351255,0.885633626067836,-0.687171942561267
118,1.400340549537561,2.023399474303215,0,0,0.485252514542235,-0.6788374566248493,0.7050759888726472,2.8428905713455754,0.019689352598283003,-0.2645394663623595
119,1.3716098949011069,2.3089209113130194,0,0,0.6548689333126836,-0.14082212903600141,0.4152748524060001,2.748917296877879,-1.031109848258338,0.006934807535511771
120,1.3237029270362,2.566233463946418,0,0,1.2406283473195716,-0.05987239150295519,0.1716927218473215,2.8038858321183393,-0.49649422679597405,0.22861483490069898
121,1.262506100246006,2.787696690131512,0,0,1.3132534588282732,-0.009879883711719708,0.1570541153445169,2.630653991053836,-0.10942041751639696,0.7727923054224524
122,1.194410839839774,2.9695265553198107,0,0,1.1301112936976612,-0.0643882340441264,0.21396441214841752,2.6534912280786553,0.4412832707003392,1.1074639268612727
123,1.1255884578433872,3.1116217436961398,0,0,0.9524026438055909,-0.21429564556781514,0.2505422194225349,2.5929913338281283,0.2792498805276228,1.1565959224024045
124,1.0614223217535776,3.216932979850564,0,0,0.9362266917400647,-0.29308253728891015,0.15769741257921588,2.9071836243559765,0.040457774778022045,1.0308842535302531
125,1.0061340641064629,3.2905711638810047,0,0,0.9304010266189672,-0.16712640737788623,0.16837987710471938,3.150798610779159,-0.011571547874466771,0.9434307415104857
126,0.9626136153796921,3.3388311109244304,0,0,0.9277743817189504,-0.12384113824614335,0.1814136837066999,3.2558326867551473,-0.05056320900599907,0.9730309426439167
127,0.9324361591691701,3.3682608111009675,0,0,0.9328595323682874,-0.06965234602077834,0.15082452857428327,3.2145247625654774,-0.10076403125517333,1.0091000784464423
128,0.9160232226489678,3.3848640856364414,0,0,0.9700964760561462,-0.04194168589655014,0.1300693070756727,3.1377987720329354,-0.02594107397669261,1.0022218220564736
129,0.9128874184667173,3.393502167316284,0,0,0.9859693335606092,-0.04262795797900979,0.11207398412485532,3.089760425724887,0.1389261989600178,0.975037734693865
130,0.9218955645822637,3.3975499784764502,0,0,1.0087696979052059,-0.05451098350506784,0.13901905829359362,3.0376424812208387,0.23848038364312135,0.9220249710383588
131,0.9414941233979136,3.3988470865700102,0,0,0.9926050334083358,-0.09164022469188533,0.12203156623537302,3.1173879527170123,0.3036461161360669,0.8751867268688637
132,0.9698625047887174,3.3979477825132336,0,0,0.9283326075945093,-0.09219339011846556,0.11339616487416967,3.3097246747223554,0.2253157130565382,0.8570644509600827
133,1.0049885821004745,3.3946205985456563,0,0,0.9199080486845221,-0.1745181194813516,0.10740234378504279,3.354830481619213,0.070093279212028,0.9131047004125904
134,1.0446876928017397,3.3884906871311955,0,0,0.9204502062555944,-0.3396828165579428,0.04545542320224647,3.4125173214417415,0.09174346250494897,1.0895714261542713
135,1.0866016606807205,3.379680679871615,0,0,0.9778050399175301,-0.4537685042365316,0.06508614364176053,3.300398538338577,0.15549724361655898,1.303465703742255
136,1.1282137229137108,3.3693022079378223,0,0,1.1476302633192437,-0.336763800107247,0.15220923157233535,3.1500913275190774,0.1816028081336189,1.3946953080653859
137,1.1669037890090783,3.359681637951304,0,0,1.125592392739129,-0.0849257315494822,0.17863078843168242,3.1870424059678424,0.043028093105021224,1.3106562107122295
138,1.2000567290917896,3.3542566812574828,0,0,1.0166512210517769,0.12001265480019509,0.09717549356046776,3.144776289533575,-0.2237890293778733,1.1393034264539972
139,1.225229611806052,3.357137452867547,0,0,0.7998086403006184,0.3498412892822927,0.41619904245190664,3.357121414678337,-0.13873459616416833,1.0719844791016326
140,1.2403747253468536,3.372374630883207,0,0,1.1457546497627151,0.8680224388546632,0.4698068829782949,3.4817669212923192,-0.45043083305364984,1.3963305559760022
141,1.244093306375272,3.4030213236384,0,0,1.3644577329551146,0.6429387239953943,0.1545837963269366,3.067024041124991,0.33326113439513894,1.7524624379970621
142,1.2358666048104903,3.450127661561817,0,0,1.0144994899432396,-0.2491431963747532,0.27392972130864085,2.2651768670334884,0.16703274355491984,1.5888376073725894
143,1.2162003211230485,3.5118697810334263,0,0,1.2630226039354842,-0.34328202625107057,0.20029146437328785,2.5922720376788777,-0.3975100132785083,1.1542980589051766
144,1.1866386308996415,3.583053910869587,0,0,1.290379800762526,-0.1741598664435372,-0.00843455102142629,3.0844409840893006,-0.09516485974043985,1.0353098544335115
145,1.149640565257007,3.6551994561107897,0,0,1.1263967868928464,-0.04401817682343989,-0.09255679831275122,3.474823984431019,0.2804779081270633,1.1203231078992486
146,1.108344265794597,3.7172787483188747,0,0,0.9425755821904668,0.09814599974164623,-0.12827914428917264,3.4538025795057012,0.2102609312232832,1.323150116895962
147,1.0662672587505615,3.757026369330148,0,0,0.858975298513649,0.09388166845817675,-0.17693149806606306,3.481925089996457,0.198773721946051,1.6222611630833836
148,1.0270002814602128,3.762598278116764,0,0,0.9328214744780432,0.13598636186584454,-0.06948831887859507,3.480963286253629,0.09906967960471517,1.9064285472485711
149,0.9939398351925609,3.7242951812571263,0,0,1.035572762762202,0.21943119498916847,0.08520629748586311,3.522434695354549,0.11479747809485152,2.006606141227464
150,0.9700703660845997,3.6360613715250985,0,0,1.1808892419490509,0.24627420903974503,0.24318688655737927,3.403661901086817,0.1312185384502018,1.8986961630884867
151,0.9577695968854993,3.4965152533628334,0,0,1.0959230269455666,0.18199826863802307,0.20710388422531895,3.2845388176779493,0.2894740325963015,1.676196909908767
152,0.9585967323923735,3.3093494612203553,0,0,0.895676559209939,0.19472732997768685,0.19407408781578084,3.097867033338149,0.31560036468482217,1.4873962847809006
153,0.9730460500193682,3.0830417421716203,0,0,0.8171722561922257,0.3317843870552929,0.32345333881339305,2.8449865130884926,0.439846562794793,1.4078653330680242
154,1.0002954781634856,2.8299226466048233,0,0,0.719684652638888,0.4821898336771325,0.39762394715759175,2.4474461403418992,0.42010712524438243,1.418764592650857
155,1.0380236787209416,2.564736290163939,0,0,0.6021296450182027,0.5302894683641525,0.4046453005768811,2.1320398783752665,0.25525280204828293,1.2741326026238255
156,1.0823889310816885,2.3028977655136096,0,0,0.52246774789972,0.36118154317112455,0.4761868620687086,1.7981741080411495,0.3133336525468606,1.0567061779402578
157,1.1282530934683277,2.0586902556296574,0,0,0.7218779784993555,-0.004472699059339598,0.4597867391881163,1.551201699888681,0.1477591215928059,0.8960113010627294
158,1.1696946800338126,1.8436507428787845,0,0,0.9148399194854562,0.04848035172252015,0.42123444128114823,1.5529935366044563,0.35681564870084415,0.6957989821789482
159,1.2007876598036047,1.6653623728476736,0,0,1.0320450105912051,-0.09914568882417453,0.5227084659411909,1.377829859286864,0.2388975828739095,0.24620504931360204
160,1.21653640390653,1.5268098235053045,0,0,1.697578029578248,-0.26507154171134445,0.4380843932177451,1.2323775892830298,0.13111945623791355,-0.31575806059273215
161,1.2137788654834867,1.4263740938423544,0,0,1.7244233873690822,-0.3066373676908506,0.2546947163901568,1.0829465736666415,0.5362573777731129,-0.31354312982302807
162,1.1918387435272564,1.358455343147482,0,0,1.267655817921835,-0.0763499871588075,0.28761264416897314,1.3018987246421017,-0.004051564343891433,0.20700603552694466
163,1.1527525509364434,1.314622793465741,0,0,1.1692733039180954,0.05413906094847448,0.13859942940561368,1.1363830767303758,-0.2526424256134007,0.741641022957392
164,1.101009869086516,1.2851088829006645,0,0,0.9882391359289937,-0.0037591661485157175,0.04997347586191154,1.1778478321008654,0.0688734873448091,0.9312643391573633
165,1.0428735134244702,1.2604075091957154,0,0,0.852580412712067,-0.09072467240416933,0.06700838782388215,1.2579927059067668,0.13635010537733694,0.8639367527337456
166,0.9854353157494431,1.232719409746444,0,0,0.8625597445576271,-0.18065918701434439,0.1566768295764087,1.3203364526543844,0.16501998668011397,0.6617576183303849
167,0.9355910517617282,1.1970179377164933,0,0,0.8920902032167264,-0.11129246000942504,0.16245328896559547,1.3799878599725446,0.06010112296493217,0.43271243110759394
168,0.8990982814195134,1.1515797810868214,0,0,0.8203107631368695,0.05455814956030136,0.14203077161737454,1.3234846402911726,-0.0032440893903222467,0.2610587024435692
169,0.8798401846327661,1.097922246664389,0,0,0.7290917733255557,0.1079882338962361,0.14567686659249296,1.093571501053697,-0.06554995520262771,0.16787387242261637
170,0.8793770776441678,1.0401923634203518,0,0,0.6861599743735478,0.10852192975919742,0.17055876079028665,0.9454564262361375,-0.07477186548723472,0.15600480311587656
171,0.8968300578276903,0.9841437424070885,0,0,0.7600328443237175,0.1018716078935524,0.18012977291093,0.7967032345841744,-0.2291872022041392,0.16910557092708828
172,0.9291016540441795,0.9358975673935029,0,0,0.8678204409115255,0.09384008883429647,0.21957460087883374,0.7214688817514043,-0.2978718052998407,0.20336419704232528
173,0.9713917299543897,0.9007043594297864,0,0,0.9250251534082652,0.046561860509178175,0.38293597712848537,0.46243800446706845,-0.4574110729759293,0.2346955061216701
174,1.0179190921062313,0.8819049870361837,0,0,1.0570959323878675,-0.024729749118842164,0.5684812133826763,0.17818375754862087,-0.625467175388743,0.28474410051689236
175,1.0627242599245688,0.8802429392113196,0,0,1.1762417984749525,0.051581368897332634,0.704872952273945,-0.0329066736595885,-0.7364752133046875,0.3841812946306897
176,1.1004211353590727,0.8936172495554981,0,0,1.035427285686248,0.058273810491704,0.6268942604689993,-0.058359531468007,-0.7330826620091798,0.3481397687150429
177,1.1267927271244305,0.9172984339765972,0,0,0.774936695438138,0.038771312067654086,0.5351944821564888,0.18907758445406123,-0.666975911348811,0.1306092628269022
178,1.1391811542442436,0.9445679078187609,0,0,0.7507612073179621,-0.15300612335848426,0.4862595437915837,0.43240757944912867,-0.7409311222039007,-0.17767931203580808
179,1.1366777716339906,0.9676871096746442,0,0,1.0626957799274892,-0.2887250338686487,0.5124597097917828,0.6371857032550866,-0.7795683169136589,-0.3874922539727626
180,1.1201446227299117,0.9790540959910946,0,0,1.2067092147669722,-0.3132633546840729,0.3787417775823425,0.9191627755173754,-0.5850459096952363,-0.4747447382753792
181,1.092088256658405,0.9723685461922321,0,0,1.088417044730355,-0.1066812009908772,0.2544340504401465,1.1672708077432132,-0.25309316518268865,-0.4646956862139363
182,1.0563876490078135,0.9436177407338628,0,0,1.0242945859045751,0.09467353638731661,0.32412072366370226,1.005767196790423,-0.051676245599700445,-0.3411943512447536
183,1.0178776537503196,0.8917287789251517,0,0,0.9709615718737845,0.12133057250043394,0.355656078633196,0.8435111991165046,-0.12372664170300202,-0.18733231008125031
184,0.9818102238988781,0.8187985920551735,0,0,0.9434549672183061,0.15513379763199814,0.32436118551464455,0.9006537860379079,-0.09976766551211123,-0.09938785612612172
185,0.9532413010067786,0.7298882299908421,0,0,0.8972060535437583,0.18508152479340617,0.21019550573945864,0.8089789335827536,0.047010125884774184,-0.050654799083034156
186,0.9364100010708112,0.6324285172723613,0,0,0.8224664509351919,0.2142581490168911,0.12497760343810353,0.5900055873033736,0.1960154729277916,0.006709889450562955
187,0.9341868125474919,0.5353248558490108,0,0,0.8272743420540258,0.1690107218227146,0.11084231215788232,0.3978853167959034,0.2955400926149834,0.04908787996452776
188,0.9476686052806905,0.44787609907829096,0,0,0.8166784939722883,0.15907836734920458,0.1090499616364572,0.31462799007204695,0.32296332251538146,0.0787459411459447
189,0.9759874694394779,0.37863992112624867,0,0,0.834206351819563,0.193875220810612,-0.0039177294825387485,0.1733014810871358,0.14313987181169124,0.09193829597048354
190,1.0163760088456415,0.3343829078034915,0,0,0.8826709531534114,0.12883043715085407,-0.1026889413155222,-0.03722483210832446,0.09154298040261637,0.07982210274058187
191,1.0644954870513532,0.31924453839921446,0,0,1.00373162701627,0.16450268025008108,-0.01793577208240119,-0.24900210366979672,-0.014828994862064775,0.023316881428957038
192,1.114989822667309,0.3342180178350065,0,0,1.201724990590243,0.19352592974421587,-0.04768198738945761,-0.269610366998821,0.06617110705101203,-0.09946061943420069
193,1.1621854480112381,0.37700883786121864,0,0,1.1422438130420427,0.226904856383612,0.11128666315351476,-0.14954004425563466,0.13370283461355337,-0.11357672990296261
194,1.2008251037241515,0.442282485300868,0,0,1.354678983016099,0.02876980185164514,0.4945318143532082,-0.4450717967609191,0.15480714610866297,-0.19130763944481877
195,1.2267130419085186,0.5222668858632966,0,0,1.361993053978289,-0.19872634628624872,0.5810773708654219,-0.08128623307378706,0.10441215246964111,-0.3154555605969245
196,1.2371658759548492,0.6076379572709781,0,0,1.1434136146418514,-0.0008885606388565854,0.5536623104381485,0.6021781124150523,-0.20067345357506947,-0.16625995653252956
197,1.2312074799360129,0.6885868964683777,0,0,1.1305085264677708,0.034767899068115234,0.43845577200325386,0.8151475242402079,-0.15898709948253853,0.14258296039497462
198,1.2095083135099267,0.7559453048293834,0,0,0.9226138070957388,0.041215552644383965,0.526330916113908,0.6604253983490918,-0.29044125176522173,0.41597690394407516
199,1.1741279615044673,0.8022342324495183,0,0,0.9807743234851585,-0.08375626136160927,0.4210927282655432,0.4992269259941628,-0.35070070953646054,0.5570471629099365
200,1.1281516282610995,0.822512004780255,0,0,0.9614722453749137,-0.17972298789261165,0.4342162515949442,0.673987626626796,0.014745253604662688,0.6100279265083308
201,1.07530848275598,0.8149213993523385,0,0,0.9157478498951804,-0.11722308024513071,0.39407385955755053,0.7332839386780139,0.04671587770612707,0.628547089547047
202,1.0196317067565137,0.78087037630116,0,0,0.9025107136698721,-0.02511788996968399,0.38041605938398787,0.7950085578353706,0.04986361603339059,0.5884426081251319
203,0.9651834134074353,0.7248180126930469,0,0,0.9367362761191043,0.11343163600901468,0.43020603820901376,0.5312433745864288,-0.0579755283948306,0.5884300045203494
204,0.915835336866805,0.6536824468052296,0,0,0.9995256505839918,0.2760703771003657,0.4482328239419862,0.14888379599122345,-0.037943454049777885,0.609333202439426
205,0.8750773037473814,0.5759409210177495,0,0,0.7991247190473845,0.3097910631145231,0.42007964425035244,-0.09058719466773446,0.09211180377053114,0.5238867952024939
206,0.8458274806631771,0.5005423214139909,0,0,0.6087737582632881,0.18983484781977764,0.34701370469725057,-0.17826070753323817,0.05090421609253059,0.3498656203281522
207,0.8302416887026169,0.43578444166153973,0,0,0.5676636434273946,0.11178596666242788,0.2984408426711861,-0.11444556712982973,0.06450156044916733,0.21238525162624855
208,0.8295485770984428,0.38831287601061415,0,0,0.6800922832015514,0.05612784647361579,0.3149827367486523,-0.14577018130591898,-0.011235973875079583,0.11639869425712296
209,0.8439494715692796,0.36237581511031447,0,0,0.8481592543955339,-0.047977030752265906,0.29524110433903494,-0.29912762469200715,0.03274819650939618,0.052670288137515335
210,0.872605786784494,0.3594238005674992,0,0,0.9411326548525761,-0.14436151039910466,0.25778746130619123,-0.343907152854475,0.1573046861929829,-0.053043496436047985
211,0.9137069737082779,0.3780860464285592,0,0,0.9743981761685584,-0.1989797243389637,0.15552599697484834,-0.2916502625468647,0.1586127025633398,-0.07699940181348106
212,0.9645926094592862,0.41450078602197066,0,0,0.8719329040037256,-0.17799052332388232,0.0012822735758871396,-0.07634435712545999,-0.1097158765147478,0.0736879505483186
213,1.021905527669218,0.4629363725921414,0,0,0.851990291333026,-0.3090680677033824,-0.00563569527323375,0.05629748789592187,-0.34317333614701145,0.3030964075699086
214,1.0817697010743983,0.5166084058467736,0,0,1.083972196022336,-0.36601871781093265,0.12611335504815727,0.2377961143339564,-0.5053067262252036,0.6508126053844191
215,1.1399986533911388,0.5685693057580841,0,0,1.2168152387736957,-0.2372372561749721,0.2268324119944897,0.06729190849880738,-0.2731096611190157,0.7920526724357952
216,1.1923398663479658,0.6125314483387694,0,0,1.0372493529495759,-0.1556458003588815,0.1438239479027683,-0.07894050657119328,-0.3433089892564669,0.603051009147177
217,1.2347557179504773,0.6435051708424275,0,0,0.9317121214541162,-0.090552820345765,0.1650167352411728,0.1473635273450731,-0.36032662562556933,0.2516263861895496
218,1.2637376334052677,0.6581896471362331,0,0,1.0514129690071834,0.12951306113181826,0.568608576770688,0.22813138489501203,-0.5729625073252317,0.11861714133178938
219,1.2766379140222583,0.6551171281041478,0,0,1.4891756453359468,0.41003534304845224,0.6731630799387128,0.004553104533126319,-0.8021926352596112,0.13997176399025243
220,1.2719759782869793,0.6345875074845136,0,0,1.2347849530922266,0.2580013304028496,0.8230675677283069,-0.5674730706056514,0.026429567607964406,0.004253062475937272
221,1.2496514876079907,0.5984388389668593,0,0,0.9185328058550707,0.07085714324559801,0.6385687467866731,-0.6810545310134859,-0.2829755179676867,-0.150418520683922
222,1.2110062309305607,0.5497009386551471,0,0,0.9369910137937502,-0.02792187833608625,0.5892313625517405,-0.30019814575619547,-0.07658981042933728,-0.23928752449141152
223,1.1587202888926598,0.49218725346099984,0,0,0.948845518811205,-0.07935890704954415,0.6169937056779854,-0.09735748259402205,-0.2879446609526274,-0.22233980085429933
224,1.0965716409874267,0.4300892659727439,0,0,1.0573301448772097,-0.11193929193712725,0.4640581207828965,-0.1256629666485816,-0.1437448118082968,-0.18888877961593512
225,1.029103870862064,0.3676336494742366,0,0,0.9579747561157947,-0.15637219121902976,0.47412561348375215,-0.21745923302558223,0.022221330023304797,-0.25159750659928687
226,0.9612399060657723,0.3088374780941715,0,0,0.9163536952191674,-0.20092887120793168,0.3548718646880448,-0.2629673759069338,-0.005811123109261752,-0.3409186222446241
227,0.8978734805448952,0.25735838132548056,0,0,0.7752010482511382,-0.13568978467293533,0.2767841630555311,-0.19959035933505104,0.07130769013736708,-0.3247292692300024
228,0.8434748609825469,0.2164041861453689,0,0,0.6481232986105893,-0.019899156124855235,0.2423921644985952,-0.13839160385202762,0.009242174726788165,-0.246092361077079
229,0.8017556835082513,0.18865813954492655,0,0,0.6413231940842482,0.05410792954701893,0.2417347416371215,-0.06087427379927635,-0.0408873092480835,-0.1506906101974553
230,0.7754351650543762,0.1761931721436246,0,0,0.6960575939185519,0.10196856773587212,0.24387343005262424,-0.04293021107949673,-0.06806026074209867,-0.06161173143025339
231,0.7661287940236223,0.18037673705845766,0,0,0.7759536975080981,0.07063208523287047,0.23114282171394923,-0.06178290879259468,-0.0744347390822422,0.026459464351513196
232,0.7743468884539199,0.20178705293925817,0,0,0.9197010028406696,0.017438388622091846,0.20745396047778028,-0.2005046011349368,-0.07093905807532604,0.05520143496995766
233,0.7995609704727639,0.2401625248194601,0,0,0.9444725942770043,-0.02828309448900963,0.0837231940079615,-0.2499207233626378,0.028851283179918828,0.018117250968158038
234,0.840287584755879,0.2943932448985394,0,0,0.8262679804941752,0.022757625204524026,0.10210295390944832,-0.1722492075461566,0.14093494423654918,-0.09918214127072962
235,0.8941576458362441,0.36254814842642263,0,0,0.8022024042104726,-0.00526758960834873,-0.04636731151379342,-0.3147714089752761,-0.08060162279860042,-0.2553974059223229
236,0.9579741050207294,0.4419215703248722,0,0,0.8478859570317482,0.062234137355686864,0.08073686471746151,-0.4314813455597962,-0.2607103307815291,-0.32911601798080115
237,1.027790662744851,0.5290812158341146,0,0,1.0453769661995458,0.02108024730866372,0.2028332090808373,-0.4992750278920455,-0.3935029064381899,-0.2763727494974865
238,1.099053335950739,0.6199091100206462,0,0,1.0556521599670412,-0.03757864678768422,0.2073377557497213,-0.4741134009974896,-0.19397505514282606,-0.07705675148351375
239,1.1668354466126794,0.7096510960300226,0,0,0.8964909986951439,0.04159162425853672,0.10272941192567013,-0.4990160365696673,-0.07947439118297693,0.19246700232475122
240,1.2261754226098167,0.7930212804697815,0,0,0.8649395548434328,0.18426783667185967,0.4701093372710057,-0.5605801299700756,0.052273424643969314,0.31407222781303523
241,1.2724990953210933,0.8644247482495879,0,0,1.3841709269088145,-0.2631313765998046,0.695353445782442,-0.6188290405013626,-0.2216278578401271,0.002047884057367743
242,1.3020709366706031,0.9183465886319853,0,0,1.6199405572186942,-0.5040435619451702,0.7539365301373571,0.29376032308595285,0.05307994852244905,-0.4948390720237099
243,1.312384895137645,0.9499058421072788,0,0,1.1011107820222685,-0.47182456641556453,0.7537694168055565,1.0277501972226661,0.18798322876814547,-0.5746477767081255
244,1.3024085778907262,0.9555029275095934,0,0,0.7410448414247123,-0.24934698176718306,0.45931338742584993,1.3315760103131202,-0.4111531514542,-0.27122985808517125
245,1.272649406793928,0.9334251852205463,0,0,0.913027693215957,-0.03283419760191163,0.3942505799792891,1.0787153243903222,-0.5663029754849551,-0.11457080076776771
246,1.2250807644018948,0.8842540148914694,0,0,1.1577341090822253,0.002233594663228314,0.3496934612224285,0.8510416964521517,-0.42650651296075964,0.020117148202806273
247,1.162991924485532,0.8109613501351697,0,0,1.2901207294870896,0.07844019776815643,0.40947277686537265,0.47840972578079155,-0.3028170536720636,0.27481818763661364
248,1.0907932359336197,0.7186732816311779,0,0,1.2622790421528154,0.14239573667968233,0.4073577608910534,0.42090116096689684,0.06191306498598797,0.4785013819586606
249,1.0137599037479932,0.6141633304531271,0,0,0.9856051442494878,0.17701305638742135,0.3774414113714086,0.4064661005463666,0.24647429424822814,0.4363507097481029
250,0.9376830466392747,0.5051790508489968,0,0,0.7953109325620696,0.07380802681160463,0.3128994392469145,0.36862255374017366,0.21674064769713236,0.25386886597921615
251,0.8684252400740461,0.3997048659168938,0,0,0.7468674566805465,0.06370326211392018,0.2620956739975012,0.3066530324140899,0.16649764568250322,0.10747330801342024
252,0.8114216165660393,0.3052468619893004,0,0,0.6846363169857583,0.037603578540573376,0.25602811123984215,0.20067436402862174,0.12095634680593367,0.0008706547203655673
253,0.7711945022612685,0.22821026706860878,0,0,0.6908084852858715,0.011715534739479064,0.273132587910068,0.11153054488362518,0.0066173402220301575,-0.027943453218315494
254,0.7509482762024196,0.1734275086728388,0,0,0.688418316877475,-0.024491698300286746,0.22523366339115375,0.037475394310864406,0.02844238289067796,-0.05712957995912543
255,0.7522910882773942,0.14387591986968942,0,0,0.709303151672033,-0.053330259369978567,0.16344637490988703,0.05292224918326198,0.08798406512925469,-0.09614681954822892
256,0.7751058681536496,0.14059602503286922,0,0,0.7195457867878277,-0.0859668179213946,0.14221866409384046,0.09272536405038069,0.09644313636438631,-0.1303078784590177
257,0.8175729090403163,0.16278956085044016,0,0,0.7960232790283718,-0.13095197913079382,0.08312638367970362,0.19670463370169722,-0.0008692790072337582,-0.0872005038226693
258,0.8763312407011387,0.20805183783558373,0,0,0.9134563711232632,-0.18762950691793992,0.07242435531503384,0.2310300316735268,-0.03806994303505639,0.029887360051318975
259,0.9467550276558451,0.2726840613418934,0,0,0.9757565002910136,-0.14495736201929674,0.07511194494943303,0.37319110966460284,-0.16876475805327038,0.136690268172232
260,1.023315643367505,0.35203854333136747,0,0,1.03714731648054,-0.0907784022583333,0.2627782228212889,0.09709195756304212,-0.04317715232557133,0.21492603347733846
261,1.1000024323545308,0.4408678201738534,0,0,0.9043872901872624,-0.1305898225967986,0.1408125237677158,0.08009035077917386,-0.20940738374597243,0.30246378645428756
262,1.170783475083899,0.5336685035959867,0,0,0.9718989991219955,-0.12040340319846532,0.07898898265404586,0.15723623580493837,-0.29476611437708805,0.40001698912510736
263,1.2300914079602558,0.6250216527252201,0,0,1.1094565602087707,-0.05167828431846234,0.3711219337994081,0.17006081831211445,-0.3519501969494089,0.3557600924727898
264,1.2733058335456624,0.7099273418232843,0,0,1.5124340842666077,0.20284474946220182,0.643412894457409,-0.03502719671019744,-0.637064010215486,0.46836718511680914
265,1.2971747444278316,0.7841156436128391,0,0,1.4448545443928615,0.2867585621221042,0.6960260867920421,-0.6536302115585949,-0.09108769327659536,0.4186402072647386
266,1.3000977487016843,0.8443001367173899,0,0,1.008106129646876,0.35201787995440265,0.6075722918463261,-1.0922647508416854,-0.1797089320023906,0.1601474866443445
267,1.2822128774096393,0.8883343268019909,0,0,0.9793051942315293,0.19470119358880228,0.458351699182359,-0.9329236555159928,-0.029959231156144957,-0.017758582901302517
268,1.2452845794742482,0.9152436529728413,0,0,0.9616933551764235,0.12804788382811683,0.5168714926304534,-0.6949853762669782,-0.047384754470644004,0.010638287377918085
269,1.1924448690014735,0.9251345850090005,0,0,1.0821410351984793,0.031531054529171695,0.43420363863328915,-0.9463489839251342,-0.2336871703931431,0.061243205955613035
270,1.127855730773604,0.919012775299091,0,0,1.1679984426989527,-0.1903476904469436,0.4525555952820751,-0.9062515807093094,0.10379288772040668,-0.08829417880295824
271,1.0563394171990146,0.8985565277445271,0,0,1.0842412021646528,-0.24311420444014095,0.3288269640987052,-0.8010353376581467,0.018219001176944527,-0.3263791766786098
272,0.9829949230976811,0.8658874325766285,0,0,0.9733369649112548,-0.1197394643405286,0.29105595400414186,-0.674149249518252,0.11403246131886403,-0.4687992134600146
273,0.912811020260051,0.8233684817399441,0,0,0.7789932369734595,0.01227013587120526,0.1935606666282268,-0.6471468483469578,0.073761165058241,-0.450973078962329
274,0.8503011130253395,0.7734495839700115,0,0,0.6838848087208349,0.037393023929811586,0.1695433725996013,-0.6623924111669388,0.13696304918908817,-0.37410821685743273
275,0.799204035701212,0.7185704861372543,0,0,0.6503433469263631,0.004652445933498059,0.17064669423115048,-0.6694361557270674,0.12978455695395794,-0.3066723365053583
276,0.7622963226193228,0.6611209022904451,0,0,0.6910281847771703,-0.010875714194181601,0.198015995851556,-0.6418116685710571,0.03262793349539534,-0.2659608895409406
277,0.7413378798241572,0.6034504569001169,0,0,0.7655864944658148,-0.05486631535371101,0.19936067660300177,-0.534845111799194,-0.018145406144196668,-0.239569226602606
278,0.7371343885353491,0.547919751742453,0,0,0.8231305539944014,-0.06658773470390555,0.16876873471794968,-0.38382298376551105,0.007470359875446777,-0.19854556809380375
279,0.749665363788846,0.4969860423370502,0,0,0.896532467293617,-0.03606709831499225,0.11815028452223549,-0.34913005176427253,0.17151351603645473,-0.12097066888593677
280,0.778212995060328,0.45331496990041836,0,0,0.8315211646833902,0.022495183562998865,0.13920609327082256,-0.26214207000872203,0.38204805863855645,-0.06774671023207125
281,0.8214394075353764,0.41989691264044043,0,0,0.7893629020136511,0.053184735800808194,0.06861922621043523,-0.35503965360264417,0.2447254393393602,-0.0677601271415609
282,0.8773919601776239,0.4001250954303339,0,0,0.8809558770136896,0.08359562175816808,0.031248363174670755,-0.4114003057216687,0.2928501252487412,-0.09321924874049865
283,0.9434525391662332,0.3977742944897298,0,0,0.9229270583627842,0.05890793147418476,0.21899185716491865,-0.619604428141729,0.2571987891574481,-0.11278814222084566
284,1.0162737686404717,0.41681795037994124,0,0,1.0095319616641847,-0.11717062179287306,0.2592644994214781,-0.7741560039788989,0.02070733396198841,-0.12041269708321202
285,1.0917587195917733,0.4610491627998103,0,0,0.9457644057926683,-0.16149386791467993,0.2420974737145596,-0.4568605928054499,0.034174529352029866,-0.1816126596040805
286,1.1651449768453142,0.5335314937370481,0,0,0.8971083552510164,-0.1734982854101312,0.02947476758544099,0.0712662821693853,0.12256232272033538,-0.15205047275569905
287,1.2312493872658632,0.6359845278464307,0,0,0.8323343247596411,-0.0979123278956726,0.062126601038009134,0.20599714835694022,-0.056479635053964236,0.12869957188190942
288,1.2849064774697503,0.7682691465216217,0,0,1.0102395009938097,-0.0775401995241585,0.46315820828384596,-0.048653962976019226,-0.5481236028543135,0.22385001882581806
289,1.321578885954033,0.9281388951609685,0,0,1.453515135222484,-0.15861117612333148,0.70481711338628,0.4334472248791265,-0.3947582749219478,-0.05186284333310601
290,1.338037731571404,1.1113575926782864,0,0,1.7189708778418173,-0.3422504538837805,1.0606832718151378,0.8345961577245344,0.24143661549747342,-0.3921513528220361
291,1.332942336974943,1.3121759767802288,0,0,1.3630698044766878,-0.49219682195095205,0.9142404119848537,1.7146949079576026,0.3791754287294374,-0.428538996173361
292,1.3071450010293595,1.5240527186575925,0,0,0.7248213380787528,-0.20164401522145525,0.678547749166671,1.9994382000490951,-0.5044943412201802,-0.008588276934230405
293,1.2636277657675334,1.740439420438973,0,0,0.9238832807132228,-0.10407497602623518,0.4045826121891994,1.758818806609315,-0.6029687286364327,0.11711641268624673
294,1.207100018648745,1.9554582993654972,0,0,1.1076705121242743,-0.10695982933388734,0.3655804624212543,1.7133556919120851,-0.09168754468922317,0.21624449940437904
295,1.1433725145802744,2.164381692779972,0,0,1.1689606565160338,-0.24697129885463132,0.3089301799286224,1.6609216918782146,0.16486914287777668,0.49037969107845103
296,1.0786385842521364,2.3639192341416746,0,0,1.030999233718358,-0.3184525087371912,0.31949412606486416,2.116261239071595,0.450436383559727,0.7599370463529695
297,1.0187644135557,2.5523640753720827,0,0,0.8467918817624718,-0.3248682739330421,0.23846828588066815,2.461908284789799,0.3412078264558423,0.9333251854732063
298,0.9686632976474435,2.7296236422717626,0,0,0.7366731886327516,-0.28240942815990494,0.1625638353811975,2.8221758901365983,0.18204308918834405,1.0051503065257723
299,0.931818746012748,2.89710297620364,0,0,0.7287117675124308,-0.24827744105837748,0.1604112599703874,3.040916508680988,-0.020208033074383104,1.0515090247165404
300,0.9100121102471875,3.0573781447086597,0,0,0.8342489971780382,-0.20758610645664616,0.13254854791393336,3.0603353536730586,-0.2066224782046262,1.084341599176278
301,0.903284905922559,3.2136242005291376,0,0,0.9081076146516056,-0.18460977971124964,0.1426675105376078,3.013302230516304,-0.28202494697105057,1.0671314471237423
302,0.9101258759222602,3.3688365172540014,0,0,0.9602379158558045,-0.135641755296195,0.1281202931919465,3.025825184261719,-0.23534520596709763,1.0395598880993238
303,0.9278345479587263,3.5249699515452706,0,0,0.9448042970214688,-0.05446504543292762,0.0995460428122414,3.0881110729216825,-0.1175780548191038,1.031997309976398
304,0.9529918064076615,3.6821778832951675,0,0,0.9438883831791471,-0.06048195827574325,0.10398645468889729,3.2333703536306047,-0.0070772243853981665,1.0407121072262584
305,0.9819665280773463,3.8383382426122417,0,0,0.9719515001475589,-0.1288466543480409,0.07579838942052915,3.4164102200068327,0.026137256548809513,1.047669391249616
306,1.0113970505580598,3.9890038985159757,0,0,1.0054921123057827,-0.15376700704842935,0.0404874077341239,3.727080652024758,0.027988621575123152,1.0262080389801251
307,1.0385967750298162,4.127826581662021,0,0,1.0538521896941768,-0.1603871087900144,0.02684273465133729,3.9985354039539134,-0.09043388245947062,1.0410964373242073
308,1.061840127624472,4.247402731187228,0,0,1.1161859966268899,-0.2949863669863767,0.05724513108918177,4.12434999329999,-0.024408986442929072,1.126227484133975
309,1.0804908512238234,4.340402486101529,0,0,1.1047149331621398,-0.46276212384679555,0.06369576644124465,4.234160077267422,0.25931746014964807,1.319252174436366
310,1.0949452070640522,4.400787455704626,0,0,1.1188729291193182,-0.5479452432178332,0.07703562241611908,4.231056881912063,0.40917848038163745,1.6349076931746236
311,1.1063842594516893,4.424904213943848,0,0,1.183705091061741,-0.31627369612064987,0.152486200136265,4.201449258112669,0.5351180365370996,1.8433063510434504
312,1.1163649028242242,4.412254873018851,0,0,1.0225357998738913,-0.08358899858341301,0.18566383768584432,4.28765124877478,0.35106049369838505,1.8134705460925542
313,1.1263245193336604,4.365788124474596,0,0,0.890132417008088,0.16545883397205277,0.09323249346958332,4.305317567069784,0.054888656976035365,1.733561990685328
314,1.1371150152922547,4.291620161256158,0,0,0.7221025262181028,0.3344023793541626,-0.04601635590494639,4.199602929181929,-0.24432597219162666,1.6430419694943699
315,1.148696863150492,4.198181309348757,0,0,0.700298363281417,0.49561533862379115,-0.0816577454492606,4.027426852735082,-0.2699088281353765,1.5485373709807964
316,1.160094245850912,4.094883815430397,0,0,0.5949104648994695,0.6202498081640911,0.19167488870306748,3.9095582533933593,-0.2006540932707643,1.5459150177667367
317,1.1696367819726663,3.9905070173031874,0,0,1.5951084716823698,0.5224058711872114,0.011509570417165951,3.6374838331612103,-0.17743813066444075,1.761684967697798
318,1.175415035112833,3.891583672488031,0,0,1.7291727731773978,0.1393224590282166,0.16623943656458803,2.3717896659141697,0.7640377064610017,1.898874164030948
319,1.175802102544325,3.801127223795844,0,0,0.9201196158152849,-0.21052857119675744,0.17631756272758603,2.0718134554202883,-0.06048238528964377,1.541695815896216
320,1.1698859795567909,3.71803117158128,0,0,1.0405041180088435,-0.42043341556880054,-0.17797965078474168,2.630244590955875,-0.19396217061134127,1.3801734620829027
321,1.1577178550210245,3.6373555755251465,0,0,1.116033243496694,-0.32086992746184917,-0.1799386781724906,3.7176632842357775,0.33786056435849193,1.7166618026886376
322,1.140360027596332,3.551487303451623,0,0,1.051229984349379,0.031801468620184715,0.09547147274144906,3.6170240583668143,0.2747877057483736,1.9001725112040344
323,1.119763368614055,3.451899902380531,0,0,1.136002392935302,0.1966681585653555,0.06678565390050999,3.383767685758117,-0.1985442902200418,1.8984183218473132
324,1.098511883019924,3.3310719372929594,0,0,1.211484099907058,0.4407094382492798,0.19735317896690058,3.348022111681841,-0.3480413650305748,1.7198465201006874
325,1.0794655840445884,3.1841188141535444,0,0,1.125713080936672,0.4372446354166215,0.14306324665739364,3.1687449120187337,0.11876515935740006,1.4273644844598568
326,1.0653357388934142,3.00982038398163,0,0,0.7980822650502569,0.38631283676624,0.14506970650833967,2.940008991637257,0.423574643419006,1.2958955522139508
327,1.058246647839164,2.8109055835183034,0,0,0.6682472444781322,0.385394279110199,0.1259445828589013,2.5798393643568356,-0.04187836481798223,1.2464971013586883
328,1.0593640009215832,2.593625674980167,0,0,0.7599792799237026,0.47310895771415673,0.316741800915562,2.2159521657941723,-0.08447659872776632,1.0765218996182704
329,1.068675876209012,2.366780555972312,0,0,0.8973087074894499,0.450458820865551,0.35501691320820045,1.8846338495585138,-0.19260031610534167,0.9418214789008329
330,1.0849832329439493,2.140443880392733,0,0,0.8950520919912297,0.3930574629313164,0.49624169490000086,1.713570449115369,0.11174944677936995,0.7476573808406061
331,1.1061047247446911,1.9246541101646168,0,0,0.6920872590574962,0.033063202032301155,0.3971297767532067,1.4077553768238438,-0.06104012436785186,0.511998083574699
332,1.1292503539966923,1.7283003958464724,0,0,1.171758729991854,-0.15800626741637622,0.634169638457961,1.5032381006018565,-0.11510426933426476,0.4394347973994891
333,1.151481397712418,1.5583457568883998,0,0,1.5830919328415605,-0.16186457149608194,0.33965290432565615,1.3757898840239324,-0.5667214995775716,0.3855860199074959
334,1.170152465790499,1.4194183951582582,0,0,1.2002146972053434,0.0003121178609470157,0.10252027567987694,1.6731479984299915,-0.8539837704530714,0.2351543771090742
335,1.1832372564399123,1.3137002573790557,0,0,1.0480684021002062,0.20292850552408673,0.236371619307116,1.6650997140811588,-0.4194464653328151,0.13025390549866922
336,1.18948284864242,1.240990745334051,0,0,1.1031440851696592,0.16798989400111455,0.29691299228288104,1.1516103859116071,-0.26510242319786576,0.2051971850837842
337,1.1884000849199852,1.198845856973388,0,0,1.0674675868659762,0.1452860322311611,0.38924027443772663,0.8678779854724293,-0.39593613744423606,0.17458158358350995
338,1.180143447326064,1.1827692985237357,0,0,1.0614727060630593,-0.020136717901080098,0.37864355686347395,0.8973839327593641,-0.2114663553988022,0.04113669330195926
339,1.1653456234310786,1.186505516060828,0,0,1.0445584803203398,-0.18735057075635797,0.34171789752179205,1.0382796137056434,0.09753430019856134,0.00994234321815582
340,1.1449599069927405,1.2025046849834782,0,0,0.9670758367841749,-0.31104995374812855,0.25659586511262983,1.0177055437478573,-0.03577228223467678,0.057335698065103004
341,1.1201427909208328,1.2225890116767721,0,0,1.058641774124658,-0.37163044701862313,0.20578448174106156,1.1916034878470017,-0.027850300374613113,0.2464606482672577
342,1.0921860785686244,1.2387770751675944,0,0,1.0471470800030729,-0.2928658870568434,0.2285241612809026,1.3572558956830283,-0.10905094286165301,0.5314578264094835
343,1.062485557668377,1.2441541064927755,0,0,1.0998281483524208,-0.15081577131565765,0.26085355250527553,1.285847243170866,-0.29325984467538213,0.771789467416591
344,1.0325173925943136,1.2336382825116785,0,0,1.116708687554556,-0.04760740235878633,0.30570676215138476,1.1294507229000301,-0.18472529347149252,0.8559995500273208
345,1.003790582796773,1.204502094377189,0,0,1.007719558874251,-0.04528215643668571,0.24160336285746425,0.9449972426770099,0.03231872441365432,0.840047894359378
346,0.9777568202411105,1.1565615821617963,0,0,0.8970167476258002,-0.06536198444847464,0.2089872926806831,0.8820361635800636,0.106720295690576,0.7521749218022779
347,0.9556831766277,1.092022085011143,0,0,0.8530741066585885,-0.03167727779308923,0.16385487195552004,0.8642070526393271,0.06027934595158574,0.5994738966304584
348,0.9385165464912547,1.0150372063247775,0,0,0.8565450227399444,-0.004829721618564633,0.21271932962998194,0.826826036072326,0.14104253942892617,0.42614801909383265
349,0.9267789653537732,0.9310790097600538,0,0,0.8601185591155692,-0.0015340257378483346,0.22129603981875468,0.7677857749968013,0.16746946217555178,0.3086742704727245
350,0.9205251148920391,0.8462295212125351,0,0,0.9253435809771436,-0.04089090573828524,0.1627169529646829,0.676793506422811,0.29060958103344126,0.25333324177273836
351,0.9193738516648723,0.7664932120989262,0,0,0.9235755635581703,-0.07733617498445758,0.15692415156328637,0.5479868765545131,0.38515971780900216,0.1968945024296473
352,0.9226057299808311,0.6972059673175208,0,0,0.904470033401323,-0.08842179416277793,0.14650801847923478,0.49333655533655907,0.42692370973212584,0.1440010150111064
353,0.9293062021184723,0.642586050419486,0,0,0.8918481588629605,-0.08157593671233002,0.13920026587620793,0.5027796218597094,0.3925852146804628,0.10142344069157816
354,0.9385303568621983,0.6054435270145389,0,0,0.9164067064884931,-0.08253013313169977,0.1293961115723768,0.5134263362599297,0.3173254008051346,0.04762027258257319
355,0.9494652934653174,0.5870416185696643,0,0,0.9579427648616898,-0.09955188849931311,0.16521151725727912,0.5562971296341965,0.29064478996406584,0.054913516848574144
356,0.9615661197575998,0.5870894919658742,0,0,1.0066622424195015,-0.11314386321661864,0.16440861880562357,0.5641921922067108,0.20825259451224407,0.09772265120761124
357,0.9746411862996807,0.6038415710164915,0,0,0.9890576425840402,-0.14558915393216346,0.19409448503696053,0.5514414485561515,0.27503280871773234,0.16224933151168056
358,0.9888655514488885,0.6342820073822651,0,0,0.9893210688343725,-0.11551913607282846,0.22584792276193333,0.5248035675928556,0.1778341558566175,0.24246861370001305
359,1.0047120113810506,0.674381182481133,0,0,0.9866474545161353,-0.09555295375168735,0.23401226426029173,0.5179878494966667,0.1733714724145853,0.30454850759663166
360,1.0228049689234766,0.7194190728214042,0,0,0.9814633028680501,-0.09549269941214328,0.23049253924261667,0.5121272215450089,0.09396618192062602,0.3830777007919845
361,1.043719025836787,0.7643723011049804,0,0,0.9972599929164756,-0.12916598051430567,0.22822776407733109,0.5484278742895292,0.0903062702833151,0.4514376602800873
362,1.0677565573208971,0.804353990087845,0,0,0.950718588166486,-0.1975065270615009,0.19542812770520293,0.6382580227364292,0.037520967757091045,0.4967799030290653
363,1.0947437746169602,0.8350791668829675,0,0,1.0134566052005396,-0.21141057930457022,0.2711101455628441,0.5528958816718441,-0.0863788692924702,0.600530736202911
364,1.1238818665946881,0.8533092046906277,0,0,1.0940343748578385,-0.07070809152305006,0.30217721289564314,0.29788321363075226,-0.41859682904922824,0.7736266434014903
365,1.1536798458602247,0.8572140139601556,0,0,1.122977013203015,-0.02899624184763217,0.1615314321302272,0.00831337425794323,-0.5777797798002968,0.7833198930928134
366,1.181982677490154,0.8465864229530785,0,0,1.1041938709754788,-0.08470879853367747,0.29663876388657534,-0.4556800623577141,-0.5412157113493772,0.6584565691189345
367,1.206096931794824,0.8228536844365475,0,0,1.171686225096302,0.16631414684251297,0.46062821288174016,-0.7328412262434062,-0.6430612656304313,0.4162871354757616
368,1.2230086294429774,0.7888591029929524,0,0,1.0385030650510398,0.1470984228549906,0.4869246223540632,-0.8341614364146973,-0.20737280873737865,0.0015731137938176305
369,1.2296831684065503,0.7484318799503611,0,0,0.912108434161793,-0.04093252795975213,0.658056007085563,-0.483557961899316,0.08448601619364214,-0.33866029945572895
370,1.2234327079165954,0.7058172141378033,0,0,0.9735913111312247,-0.007212161272732205,0.7216509601225634,-0.17445110759109467,0.1544354468133981,-0.4600884391841287
371,1.2023281040523464,0.6650828270089153,0,0,0.9402287935917838,0.006521547242012479,0.7230157063437024,-0.06120436629861185,0.16996712834928715,-0.4507446123711544
372,1.1656175543221936,0.6296305908095621,0,0,0.9503306910924405,-0.0663013467747524,0.6568743679060491,-0.20544677234501615,-0.05585008073516336,-0.384697236072266
373,1.1140953725915943,0.6019133992867678,0,0,0.9340061816493682,-0.21711160934047732,0.6156589428816964,-0.277852556192825,0.013560350012434332,-0.395061902579877
374,1.050349069697389,0.5833976089296762,0,0,1.1182974159654016,-0.343405304427171,0.6372374295895028,-0.2669516988866244,-0.07508431836830327,-0.5520870505499104
375,0.9788086104929485,0.5747408189541685,0,0,1.0355160801001186,-0.4308309780468976,0.4281558048581143,0.027942259598634143,0.11123007591209158,-0.6761777028290972
376,0.9055363301693469,0.5760944123073621,0,0,0.7469737195894299,-0.27720839486423604,0.3616006094429952,0.42783209316481946,0.08775937482090941,-0.6391551606756867
377,0.8377352349668482,0.5874072571193565,0,0,0.7757505991038877,-0.1279548867098,0.22621369875195346,0.5712434610359971,-0.03428019145418783,-0.5291455342330963
378,0.7830098922970584,0.608610986893162,0,0,0.8102871021485799,-0.07251533198544748,0.09529510856022028,0.6842795364741346,0.004333962613253663,-0.3801152944578495
379,0.7484665931998553,0.6396071030762611,0,0,0.7154615124454383,0.04114115458678812,0.0770356565804671,0.7801303679384991,0.052967093758256395,-0.2197102526034692
380,0.7397710510174935,0.6800408407762221,0,0,0.6927486095679837,0.08650682025293455,0.03195306391467849,0.6561581333037037,-0.017686240003895105,-0.06186854037541646
381,0.7602927461794372,0.7289203672626134,0,0,0.5828109286970805,0.16835462873108498,-0.15022897395574697,0.4741675802015236,-0.14899643713415325,0.06473947631629295
382,0.810462644409405,0.78420359459547,0,0,0.5247812627285833,0.29014792536616857,-0.0703631753627951,0.02373780593490268,-0.42830918435872073,0.10987961144286301
383,0.8874562938940479,0.842507249081574,0,0,0.6515887358796641,0.295707715799897,-0.010893519154910256,-0.4202961565449088,-0.5026153296076492,0.06737333243142606
384,0.9852819042787263,0.8990770117485974,0,0,0.7532102305379943,0.3541054846258858,0.10350553865230593,-0.643350421851176,-0.5104105631490081,0.10506063229627867
385,1.0953003396556227,0.9480951886136902,0,0,0.8691571767163997,0.16964955282591157,0.046166119395611625,-0.7864163036873114,-0.40787192952115264,0.1805822024625995
386,1.2071355905066252,0.9833171611849159,0,0,0.6124227295422386,0.2846550391974762,0.7246705815265961,-0.523809166604336,0.44070907095602513,0.1640978642689693
387,1.3098590215231176,0.9989480963382359,0,0,1.2228884973888625,-0.0714296250536947,1.4676931384657779,-1.1727254276319896,-0.5152235277528259,-0.2935933241995294
388,1.3932626685564435,0.9906111488831519,0,0,2.0589662442777414,-0.8007136181321246,0.7093596267280748,-0.25990260412070304,-0.21137235858725367,-1.021878503040232
389,1.4490059645404518,0.9562215050689145,0,0,0.592463179071468,-0.42745582915243086,0.8166571149018651,1.0546615943631017,0.05711011855131982,-0.6366660234615309
390,1.4714620268926442,0.8965755163491728,0,0,0.8420220469305203,-0.057057561977187726,0.48004926486883687,0.5339636511484613,-1.4577524000669857,-0.25094616840510536
391,1.458196284239789,0.8155034944762899,0,0,1.4020768455806676,-0.05033993843612812,0.3271318827885392,0.2780166501923771,-0.8327268811771482,-0.17223725447120375
392,1.410110068964746,0.7195225068224828,0,0,1.4992295937704898,-0.14824441013306816,0.4578845716083664,-0.10422832211653975,-0.3121317271503415,0.13992951800161316
393,1.3313082903594227,0.617044147332259,0,0,1.4251186388810244,-0.101718861250949,0.5959503867790454,-0.08418187336937792,0.04227419180689526,0.39858825987804164
394,1.2287174483176873,0.5172974601015946,0,0,1.3178423682038767,-0.023643421790923772,0.4786402731796829,-0.08350444030000173,0.058018424283441956,0.4096550436306788
395,1.111454898536575,0.42917154715295575,0,0,1.050889830383637,-0.030281705341031896,0.3891649159335258,0.0556166202228963,0.3697512664155471,0.1793317759024451
396,0.9899705807425087,0.3601576349007949,0,0,0.8032772896699583,-0.0465658938744932,0.3527361912429079,0.09481212761205884,0.2984526097983079,0.03226361706012997
397,0.875032414046477,0.3155124500149944,0,0,0.6958851744254791,-0.08653485332566989,0.2835343335850335,0.10989908892259785,0.24682755421965663,-0.03348040095379798
398,0.7766697396936919,0.297712948203752,0,0,0.6129088596460643,-0.11497041173721942,0.2740693583179121,0.11997705027489726,0.2543978023549692,-0.05990715763995491
399,0.7032021498734444,0.30623928123400523,0,0,0.5732170620182334,-0.18843239049078006,0.2713560666418634,0.11281694259045671,0.16318262001175746,-0.019213217932628063
400,0.660463231772449,0.3377010816567142,0,0,0.571058460966773,-0.21303238097821123,0.2507974512064239,0.12355675707475296,0.05376832190898051,0.022373339630246528
401,0.651294922931281,0.3863005537137139,0,0,0.47799565260329874,-0.1774284484092899,0.20892654199598232,0.14325650820223657,-0.11728671930714488,0.013827986764870423
402,0.6753540095777513,0.4445945588523728,0,0,0.49806250859969026,-0.1746979743110319,0.18852962445733967,0.18468773906803573,-0.3894945097862373,-0.005553161666616076
403,0.7292435993624232,0.5044715001313461,0,0,0.6206893780748327,-0.08964969916145311,0.05696449253523821,0.44121133167722076,-0.5063837554722288,0.11085390859603324
404,0.8069545505777811,0.5582052205513204,0,0,0.7066586332195074,-0.08584112702298076,0.06002809355778596,0.46865290478692156,-0.7525426436493262,0.3153618051776587
405,0.9005685305295547,0.5994115632554299,0,0,1.0039301415578572,-0.07684482616293313,0.08029830082065591,0.3848814769251941,-0.7076066964610013,0.4633976161427879
406,1.0011372060196302,0.6237413686520956,0,0,1.2036804549170146,0.038203038812605235,0.18296635989478796,0.047923416597504445,-0.5041300714937098,0.49694116778245506
407,1.099622888589146,0.6292059084782136,0,0,1.0943174154653836,-0.0048114935210415806,0.13073325374980105,-0.19090027301849158,-0.35157979180789445,0.3173318324410108
408,1.1877790489404378,0.6161257285691738,0,0,1.0476983949228968,-0.0763872297978231,0.31141800055366975,-0.15897295804938358,-0.32651439505464563,0.08552971709074653
409,1.2588673657843032,0.5867794454777269,0,0,1.419087636478286,0.052491449387208566,0.5131562852115057,-0.07320441155182258,-0.6815440463072823,0.1317025158074101
410,1.3081390446187684,0.5448708369449973,0,0,1.4708025799244624,0.0993609442161377,0.7238966461199866,-0.11109834100593312,-0.2610625879672174,0.19623222280333377
411,1.333041605103999,0.49492717693375415,0,0,1.1549513362186878,0.03370971616957552,0.6421435425621967,-0.4114861514740842,-0.3294366505924786,0.1099507193596046
412,1.3331537407062946,0.4417116589517726,0,0,0.9938049643191421,-0.08206223249726073,0.385597348885872,-0.35913042149490354,-0.3777549087105975,-0.012677136914035119
413,1.3099041839573087,0.38970203629456324,0,0,0.9821532992238672,-0.11490635773704001,0.4894789895424855,-0.018769751106342297,-0.33895936789909326,-0.004535927526433048
414,1.2661750271604106,0.34266800502119543,0,0,1.1175320510034792,-0.012912902209917254,0.47343742219181395,0.013122060051404098,-0.31514660888757695,0.09271964689774526
415,1.2058956235305387,0.3033724354806304,0,0,1.1011328203794637,-0.04771226389165739,0.4779549106652974,-0.1257880791229857,-0.06968887034301245,0.17044235699521737
416,1.1336965793416023,0.273420049492685,0,0,1.0633337312669018,-0.17269946570555522,0.4175786216110237,-0.11335703685486484,-0.09739914344923442,0.1208243424743369
417,1.0546417067271971,0.2532716848951326,0,0,1.055400897845287,-0.2215287373596425,0.31802152459146404,-0.07417141096865179,-0.09321645452172822,-0.07776953699321243
418,0.9740181904992735,0.2424262865056277,0,0,0.9629403657706724,-0.08841621626077041,0.23874095561222183,0.008938032885684207,-0.040758811255248106,-0.17989164289630438
419,0.8971514585876391,0.23974609453058499,0,0,0.8388639112557096,0.0006727825296961514,0.22481293074009073,0.09991268557510681,0.12959831382358478,-0.22686104646775732
420,0.8292150560905214,0.24386846971954698,0,0,0.8080293763399373,0.014867718788276956,0.2150839580715638,0.12081061283448653,0.27772534258046494,-0.24366569285000889
421,0.7750160975411746,0.2536205041684778,0,0,0.7855144809602062,0.06469782797174234,0.1930145349715592,0.07810091916943294,0.28011622889883003,-0.24160701041935773
422,0.7387455320760716,0.26834237004125955,0,0,0.8012848395115543,0.08538001340127571,0.21422090855445455,0.0019864796350388134,0.16900481390113767,-0.31145074773658094
423,0.7236889015827037,0.28803967680047166,0,0,0.868591482123853,0.022277243603955783,0.1234916381907025,0.030288682263978566,0.23339613293649802,-0.3766944990653594
424,0.7319038030436709,0.3133211407315974,0,0,0.7180340176371985,0.010153673631220276,0.03200733128674595,0.1345904830521115,0.2867155088031971,-0.3121011490041665
425,0.763890983279336,0.3451261719383188,0,0,0.6560765595821363,0.06570065594398242,0.01231254350807013,0.030445982484280182,0.09889833088199178,-0.26287013270191756
426,0.8183139608324703,0.3842981157532122,0,0,0.6557542789024675,0.0788326654141904,-0.06074336736350797,-0.11879174150509929,-0.08865883230201174,-0.27930771732316706
427,0.891843440533024,0.43110335249750686,0,0,0.8172460028264893,0.10137672073246062,0.10231152413618574,0.0022127368972617504,-0.1362338142531598,-0.2713865797116285
428,0.9792026993605807,0.4848223774956004,0,0,0.9238272425616915,0.1404075384118197,0.1738021865656394,0.14567397190983447,-0.08997503931639869,-0.12530071330107173
429,1.073465928585651,0.5435358837455677,0,0,0.8487102943637386,-0.12515706537303772,-0.062373311786226765,0.11192636622924253,-0.05183637201291379,0.13452914369357916
430,1.166622543739841,0.6041920435756087,0,0,0.5737564405302175,0.0995549838057444,0.3204101859237743,0.17499216430904935,0.21275976372320818,0.4433332512559701
431,1.250372500087225,0.6629724854997082,0,0,1.0123604044981953,-0.1116502755453966,0.9409822368179325,-0.7703706450141401,-0.057669896981389,0.20352635886178252
432,1.3170569985722786,0.7158868192484386,0,0,2.037040060776838,-0.5554461228700559,0.9405378707396591,0.3516404194699243,-0.10017984228609711,-0.5544907470933333
433,1.3605659823040839,0.7594462249293426,0,0,1.2254463296319922,-0.1400555815193903,0.6674210757203113,1.276647127013244,-0.3852225790487583,-0.5510088467428951
434,1.377041084624348,0.7912271207497947,0,0,1.0369550264634355,0.042986541655725706,0.47081047439596646,1.0620678709551463,-0.7709662392105021,-0.20645911948702986
435,1.3652456300557145,0.8101587186866553,0,0,1.376312748361618,0.06257390859557117,0.40177631783013207,0.6020408422456298,-0.46677282436370754,-0.16629989386513547
436,1.3265745447743045,0.8164579110934349,0,0,1.3187563617673932,-0.08516813253923199,0.3593850440957573,0.33080605637538685,0.030489476099945803,0.020975476417097374
437,1.2647597054000412,0.811262750485214,0,0,1.1335249997297168,-0.07662137905163223,0.4033420424679798,0.4327032106100145,0.33302858692053205,0.26460058965616867
438,1.1853591505623986,0.7961183768199864,0,0,1.0822885295199791,-0.022414062568034264,0.3806281412286378,0.49057883910153716,0.30776028610971373,0.4669465995558988
439,1.0951208185617338,0.7724930389278586,0,0,1.0041706489700555,-0.016002900264578724,0.36267092723027694,0.4805111929899054,0.32634072920354423,0.47201010659888926
440,1.0013060373029856,0.7414523765073181,0,0,0.8414205817194221,-0.0768854793654619,0.2908064597991092,0.5580171063691023,0.3030173832633697,0.3480172614222772
441,0.911048461135601,0.7035479954343289,0,0,0.8022208970379975,-0.12930197770233204,0.29015936749019366,0.4680665958699406,0.2284028715703363,0.22524402789696688
442,0.8308076385733245,0.6589214522420743,0,0,0.7477404469277505,-0.12594115022749552,0.22110385024180226,0.5316950202782116,0.24810884480405596,0.17989750407593516
443,0.7659536348444232,0.6075908243295907,0,0,0.7282753819512334,-0.05605468320249378,0.26110810342038127,0.5538210336778303,0.222055435239345,0.1953071593457313
444,0.7204940797586797,0.5498610823768489,0,0,0.7119800254282681,-0.031987630901646816,0.2797660980029474,0.5347216589378049,0.21450509067904086,0.21085944654425995
445,0.6969335879678559,0.4867764274955906,0,0,0.6346839164135841,0.0009425401452876526,0.23113556330178228,0.5250634912115918,0.18757042772136975,0.19456059728146094
446,0.6962428949752482,0.4205192674887881,0,0,0.6828792828076817,0.036719177308947755,0.19500353221849628,0.4506416877863126,0.17789495715043913,0.12696482621316094
447,0.7179119445858612,0.35466413634071275,0,0,0.7341521782101552,0.04605595907862168,0.14915043590841093,0.36658166429524736,0.1632525475802095,0.025241900117321324
448,0.7600638972971502,0.29421551691705883,0,0,0.7659686242764713,0.012258029417576706,0.13585459139893108,0.3038518735304631,0.2582451113655484,-0.12754978280605486
449,0.8196119360255556,0.2453898266363734,0,0,0.7968829577505273,-0.05327003470151732,0.09690056457187542,0.2385357677285727,0.20332237573789985,-0.21046584997826226
450,0.8924467399046011,0.21513795638333855,0,0,0.9535725086139257,-0.030457062705552658,0.10666740011758064,0.0949916399489401,0.194443778990982,-0.19402484290584143
451,0.9736496212722752,0.21044421710639238,0,0,1.0191363259485584,-0.03136349662774248,0.10008559400082308,0.10404414145848197,0.11479760499163949,-0.11115589220353299
452,1.0577347961175043,0.23747919883089488,0,0,1.0055810302241721,0.12739145665863502,0.31775328474592,0.022547668192652377,0.10806512467616555,-0.05572139099579726
453,1.1389346373093154,0.3007208432578217,0,0,0.8517771651209036,0.014952825968012251,0.05254646026751583,0.05246047696467971,-0.2162849461471821,-0.04334230840837955
454,1.211550849684693,0.40217862789514924,0,0,1.0388519666971774,0.06277258579059643,0.0005944900015930047,0.26447473232155605,-0.28911020577280533,0.09578480699708324
455,1.2703907412273403,0.5408538667551027,0,0,1.100779604338804,-0.2552979467000994,-0.02303633405216331,-0.3064162179944298,-0.031093543909868078,0.023046840520987485
456,1.3112780103374861,0.7125476573880746,0,0,1.1231307627516625,-0.4951573435542926,0.34586960554265045,0.08141478987530978,-0.19287990265716187,0.0008753284282293848
457,1.3315729025782441,0.9100897518803736,0,0,1.572672875645574,-0.13166798158649828,0.7925774897874232,-0.5274014566398013,-0.6942352920408819,0.29389839498335263
458,1.330580152364492,1.1240014657082154,0,0,1.574088713775004,0.24772019154785038,0.9689094142040456,-1.0300207103927075,-0.4213362461553822,0.2657026350873964
459,1.3097014287506379,1.3435236035052396,0,0,1.3879312240810662,0.8003408414638368,0.8119847311163815,-1.3609406599189522,-0.37415738661396747,0.12003989465528188
460,1.2722335149096764,1.5578580954922834,0,0,0.6384246415364991,0.5684088013226775,0.30414276897294207,-1.8027635907023132,0.15051390029048725,-0.11965053344865363
461,1.2228237949250798,1.757422093662827,0,0,0.5511906006671311,0.22793524024963702,0.38606350301599995,-2.0813516874117193,-0.027637390732261884,-0.2993654537172747
462,1.1667208536489715,1.934913288323833,0,0,0.7465603671333253,0.041556765057816546,0.28395021010625976,-1.8818670592574749,-0.08491478502734844,-0.378776190196891
463,1.1090247078438509,2.0860309872180607,0,0,1.1093592445759373,-0.020608860066539343,0.33981862300167975,-2.002564331455364,-0.2963245769673764,-0.47918846475766474
464,1.054109152854643,2.209769679334145,0,0,1.2160175546691359,-0.05883466383448116,0.2386337231632744,-2.257441389961287,0.029781805386326826,-0.678577284847707
465,1.0052913332049138,2.30827390006804,0,0,1.0197438104636825,-0.024417988042263295,0.2782728155661428,-2.31235685490087,0.10837744175624636,-0.8456190200850249
466,0.9647329754997568,2.386298000918451,0,0,0.8835441194609401,0.03579260866016942,0.19557890236665454,-2.268825898363206,0.03879770820096339,-0.81025537258468
467,0.933518408271953,2.45035542811078,0,0,0.7962582773145684,0.031185817591655274,0.1580159034337869,-2.272183155085415,0.07457427449527723,-0.6641348066521389
468,0.91185703965777,2.507679366208312,0,0,0.8457324972185674,0.002173002667536402,0.2365997378156488,-2.285363379181335,0.0737649464625448,-0.5468587135995643
469,0.8993670297657455,2.5651461800277504,0,0,0.9258229782492788,-0.0004971614619001349,0.2645824404557093,-2.343313247356934,0.0760346738513,-0.5094594979124673
470,0.8953915885336634,2.628320128940271,0,0,0.9855876307966558,0.060550576537623454,0.3391631450048012,-2.4164326049910083,0.1627169565709741,-0.6111510405891017
471,0.8992860510104229,2.700754244563516,0,0,0.9813091439649746,0.09582811990840202,0.3030392084804694,-2.4670057519877338,0.21950105748733476,-0.7873255274248742
472,0.9106115160612879,2.783634396326877,0,0,0.9422032414434596,0.12140546875442146,0.21708309532092387,-2.5626036365295715,0.3434983233867328,-0.9379166563560197
473,0.9291906270639637,2.8757960494070827,0,0,0.9054486776166382,0.07315994442333026,0.1917257303399429,-2.5923995646470432,0.4920755246893248,-1.0365743231586517
474,0.9550181500226738,2.974089771056261,0,0,0.9091676788231471,0.06240121744722545,0.12337625960366953,-2.64842628197904,0.4431191309762511,-1.0890865946323771
475,0.9880578871483279,3.0740293808116013,0,0,0.9136545350542034,0.0910882499475673,0.08392367137416165,-2.822891233999056,0.38168760740034274,-1.1305525000275871
476,1.0279836252282963,3.1706256999371183,0,0,0.9528124568503022,0.2927935351684359,0.06126256336102418,-2.9743573134033747,0.21041137429589962,-1.146040785815674
477,1.073929535280331,3.2592861113747453,0,0,0.9720396340480382,0.42542553248437637,0.08135219323249186,-3.176343025121944,0.3100538437800553,-1.222165114303624
478,1.124308173364389,3.336646227576341,0,0,1.021577758708841,0.4081541196895015,0.09921430063895849,-3.1841734445004044,0.48360560213495796,-1.3695081837632777
479,1.1767400244567439,3.4012013878101186,0,0,1.0894251381302331,0.2827939648099723,0.11293502263006211,-3.224253472739687,0.5739635577490889,-1.460278792518612
480,1.2281240979985386,3.4536296081003504,0,0,1.1443325520505343,0.01029717403384918,0.03793998144725204,-3.130375147769253,0.7577060962592005,-1.45870269673734
481,1.274865471742346,3.496744028171541,0,0,0.9900512141790416,-0.1617870851820157,0.16352294254574962,-3.0447046631802275,0.96446088644394,-1.475824507210809
482,1.3132571481609052,3.5350719581098633,0,0,0.8111038160032309,-0.5128894773872591,0.29413436065885884,-3.0037437705982315,1.3167322218897637,-1.5274401397463262
483,1.3399804731226286,3.574114649832983,0,0,0.648680374158281,-0.8587502872318745,1.3040561296742976,-2.8003349971654248,1.247377834043604,-1.8243085906159033
484,1.3526383209214747,3.6193869542248884,0,0,2.0156459450623747,-0.6498730028113805,0.49467435407656823,-3.0374315584864964,0.8462847483617675,-2.2837346128072498
485,1.350190875824086,3.675369334943355,0,0,0.989215483496926,-0.040847128327938846,0.6166346590252215,-1.804491888018708,1.6566491438341504,-2.2037203124219444
486,1.3331676277404643,3.7445304441853753,0,0,0.8147144998906948,0.544361056125907,0.598392623084892,-2.3049006440241033,-1.6681959092749343,-1.5278818560622274
487,1.3035973324415795,3.8265887318462672,0,0,1.3898465235202082,0.4486229960963268,0.14110224841892907,-3.2698670129585774,-0.3849832707391361,-1.197039500255059
488,1.2646891246889724,3.918152587173115,0,0,1.1721561329600179,0.040990063894363174,-0.22961350869484004,-4.151719634845789,0.08945382075074011,-1.2424116050508864
489,1.2203572251845372,4.012799294120529,0,0,1.0647673635432184,-0.16016440832220963,-0.1284322681311834,-3.8120232788630277,1.1260231159827054,-1.3218393736295693
490,1.1746960217084388,4.1015570267055095,0,0,0.9020695591095363,-0.21175706716882883,0.21588050647168103,-3.6732492804721257,0.4601900819264782,-1.543431593736335
491,1.1315007016057863,4.173696779788903,0,0,1.1100350782347546,-0.20046858891493427,0.0037819583166474966,-3.391438110521675,0.4603644164418046,-1.851166080392489
492,1.0939016552651772,4.217739076183237,0,0,1.1072624233771915,-0.26437232066190186,0.1528400919306248,-3.479833986997451,0.34893679533889327,-2.199929856161354
493,1.0641411798695717,4.222595112897913,0,0,1.03662412260485,-0.3047742144225068,0.13469909643159614,-3.539271356115572,0.33135120475207275,-2.35865303346496
494,1.0434815484876359,4.1787521675562,0,0,0.9865727687323977,-0.3711692057671609,0.19742988150369767,-3.722049902909138,0.19356402975394033,-2.3134320263636616
495,1.0322109241880668,4.079380478059259,0,0,1.032172646058591,-0.3630198797056464,0.21298988296850455,-3.7614915638717945,0.10505824656565813,-2.1764583897144343
496,1.02971200073784,3.9212177093445235,0,0,0.9280353713186319,-0.41263398385604894,0.22720226511371777,-3.4839017026562384,-0.03738445145121377,-2.0755536299966812
497,1.0345700768976098,3.7051046970914423,0,0,0.8342039982878274,-0.4542083080074586,0.2702769303738952,-3.2673297426330166,-0.19036894296957813,-1.837338120076266
498,1.044713417009114,3.43610122690363,0,0,0.8469070039134645,-0.4844145045964565,0.2662476108829496,-3.1054617200943784,-0.20610980092927464,-1.550270598027136
499,1.057591944785989,3.123180463598505,0,0,0.8327199722648063,-0.5040168749645226,0.33209893764748544,-2.858484326062034,0.0005894392672794996,-1.2929261191885326
500,1.0704048069871286,2.7785608133588227,0,0,0.7778179409885515,-0.4929280947989416,0.33117823968065746,-2.4291707756358516,-0.05536403257684328,-1.0843365433257401
501,1.0803809905429194,2.416772007265435,0,0,0.7823441655035808,-0.4015070270672061,0.4436429641836137,-2.0278391378189826,-0.10730946791675798,-0.9700988859038846
502,1.0851014624035475,2.0535659905109283,0,0,0.8165963410302395,-0.40982676784801664,0.5388835212620804,-1.8774871521054375,0.040533078014824406,-0.906499852854428
503,1.0828287060864172,1.7047745082469363,0,0,1.005606536359648,-0.4175247990100643,0.6326425633845429,-1.607525574219025,0.10352444575503528,-0.7419994178180287
504,1.07278549224199,1.3851915679975502,0,0,1.1021056041771709,-0.384468850725267,0.6528062072687875,-1.3930953270400404,0.26182262596807776,-0.5638719551702914
505,1.0553122046118315,1.1075369005361657,0,0,0.927654480107334,-0.47452334983978306,0.5448642800427209,-1.0845653343453314,0.13152526792372213,-0.416883286436059
506,1.0318467484771345,0.8815528487538993,0,0,0.8496748035177806,-0.4554428701193021,0.4173802780460924,-0.6701364923305324,0.08919490553941106,-0.29612891304236494
507,1.0047162162712728,0.7133032098135905,0,0,0.7523116205280166,-0.21090774892250694,0.35470421157297594,-0.3934256113242748,0.04094301287740568,-0.20783886093480008
508,0.976786952302406,0.6047604184716358,0,0,0.7075107251989503,-0.06322830638252169,0.3328386766534876,-0.27857390676045013,0.033923554299580876,-0.23594358187588466
509,0.9510602977998219,0.5537616038021448,0,0,0.7265400343825155,0.016002709483022206,0.38390255263588197,-0.1721001789749421,0.09089484564080814,-0.3704051178488676
510,0.9303051585155186,0.5543707469685396,0,0,0.8244195220406274,0.05380290710149247,0.3850765457670075,-0.33846089949594205,-0.09333425728785044,-0.4900893148037658
511,0.9167868906356456,0.5976133481775548,0,0,0.8730791961755219,0.01691151392793535,0.398684720816545,-0.4521086404668718,-0.07752266554248162,-0.5454537338037952
512,0.9121042053434733,0.6724795255637642,0,0,0.8966749191999767,0.0068149569412383326,0.43052643184555767,-0.4845601006418465,-0.12280848490369982,-0.5582798547718292
513,0.9171060049030388,0.76704823876062,0,0,0.9773983234553874,-0.02189309977081148,0.409199785456684,-0.6755872085822058,-0.22819620141077424,-0.5742915756939256
514,0.9318441177893984,0.8695797133187453,0,0,0.9863805081041668,-0.08392410055892947,0.36926819219295076,-0.7811887905038222,-0.21981917962599656,-0.5964296951970308
515,0.9555289290258336,0.9694484612648707,0,0,0.8941391185920886,-0.1000336636648908,0.33293898329390925,-0.8173364140908035,-0.1952003498030745,-0.599964583841142
516,0.9864861218436787,1.0578323583642788,0,0,0.7826582398750187,-0.04860213723663556,0.2691651214824345,-0.8100354059281416,-0.42606650136501095,-0.5721549539798302
517,1.0221499093287043,1.1281219411477834,0,0,0.76648630196695,0.07795236905983752,0.3311555174023224,-0.7629978950925808,-0.5253214284629286,-0.561275840545067
518,1.0591519243202228,1.1760577196596451,0,0,0.8228642396110566,0.1527631566405281,0.39615629965985244,-0.8726932444207652,-0.5708832199732877,-0.6246944741503305
519,1.0935594092733958,1.1996336615845515,0,0,0.9146336737545364,0.17667747135490847,0.39026955384829026,-0.8256058772680359,-0.6907964752571235,-0.6223937677871435
520,1.121279951563316,1.1988209461768804,0,0,1.022637407021618,0.20884520078078475,0.43410107582105384,-0.7916706785470827,-0.7086008311305684,-0.548239247457082
521,1.1385972602603442,1.1751737964263744,0,0,1.126750527547025,0.11463489216164909,0.3924100261923051,-0.7530922646021995,-0.6453630860999664,-0.43626189461077747
522,1.142754039641255,1.1313845137823997,0,0,1.2398620857295224,0.015126418433778358,0.44278864959055547,-0.8182201771883878,-0.4868067986343106,-0.4119927505476074
523,1.132470025338274,1.0708560726992946,0,0,1.1923801783642107,-0.043414724766903216,0.4928903152575108,-0.785880240133464,-0.41544791745036097,-0.4893497000932712
524,1.1082837338821874,0.9973512884253174,0,0,1.1300254646995518,0.034682110347209416,0.60494983556794,-0.6433366136415793,-0.26867050658166486,-0.5462889586786
525,1.072635904432012,0.91475498462088,0,0,1.0489221426941395,0.12017644780307447,0.48906231391159194,-0.6004423738526029,-0.03734789776427193,-0.6162382981793375
526,1.0296641238870217,0.8269538559766728,0,0,0.8687035831724039,0.17165415241431015,0.3308206936682695,-0.5681633415991125,0.18432991782808955,-0.5923775850135428
527,0.9847376796867273,0.7378050731707423,0,0,0.791072636160732,0.10033875336462801,0.2399592774715415,-0.6836799212152637,0.29757203983855834,-0.5496099740468042
528,0.9438105689647767,0.6511379512714649,0,0,0.8801284713811314,-0.025471442080373465,0.18096233375363582,-0.6141749901513252,0.209857520814838,-0.5103278957098228
529,0.9126928807550639,0.5707243571750532,0,0,0.9504076469979578,-0.06806150853201005,0.1798645505365997,-0.38730482488032636,0.1183324930108756,-0.4163670097146272
530,0.8963341282688712,0.5001706505191885,0,0,0.9239858364341772,-0.03891504102438696,0.058191850021511095,-0.2540399383594716,0.16524253725683766,-0.2715120382274468
531,0.8981912333243661,0.4427205603627259,0,0,0.9405174291069712,-0.012042228454929376,0.002682960370863967,-0.27217883486075534,0.3587436915050177,-0.11182248554358452
532,0.9197383812150581,0.40099488757821605,0,0,0.8277285413608568,0.01293499762604248,0.034254790091540796,-0.24781772231080684,0.3799233958242311,0.009859907951193517
533,0.9601734907759008,0.37671415750064235,0,0,0.7606189537333745,0.03505244884461813,0.02562200169202076,-0.24466566780272947,0.17811377908934523,0.030133248623782662
534,1.0163773513009748,0.3704545400581095,0,0,0.772648004788872,0.030953916724253107,-0.00277415573570275,-0.22275325065575538,-0.054953389777254745,0.0202843014942142
535,1.0831690733085049,0.38148377618700124,0,0,0.8618338500114657,0.06725282189232352,0.0021935471934079113,-0.3445815479336104,-0.2198942670885807,-0.026463035521522557
536,1.1538621964763953,0.40771456729518235,0,0,1.0952751752681773,0.2051493035438808,0.2903876747885741,-0.2632909273247547,-0.21330142770000088,-0.09928212850913888
537,1.2210612518040629,0.44579596450656656,0,0,1.5424070286519571,0.1820787522975639,0.6131969682553522,-0.4293629940299469,-0.11675314449257118,-0.3439189239835085
538,1.277570529597811,0.4913433368007854,0,0,1.4422573471421762,-0.12925278976141275,0.3990662733821183,-0.03894874690764042,0.06918475788029091,-0.4445121654693701
539,1.3172501044866318,0.5392939351164396,0,0,1.1391387261635324,-0.07090366800167776,0.665838547875904,0.16583592654174376,-0.2438364115226522,-0.24709925288908394
540,1.3356730465319118,0.5843701928073528,0,0,1.3936616123993173,-0.19562993388447988,0.6514289239034737,0.27580036068080677,-0.17164188192821575,0.0003103352647482273
541,1.330503254838588,0.6216261166764132,0,0,1.0925166695229351,-0.12586166517667222,0.6355161430053582,0.5932238335401384,-0.13882022453176843,0.31982896728597515
542,1.3015912469995488,0.6470295531001662,0,0,1.0334608422374338,-0.0010564594322207156,0.5542848011881224,0.6457037944859463,-0.255106438308836,0.5208971147368752
543,1.250845326267552,0.6579965681595085,0,0,0.8974577404949631,0.007071877996753104,0.4613195668124372,0.6632065954625209,-0.13641088438502333,0.6136194786568973
544,1.181963768948073,0.6537680283957993,0,0,0.9336942065555833,0.061634828500266955,0.4474117111171558,0.4955910543832799,-0.28437209762138355,0.6202563185601438
545,1.1001051046295562,0.6355301957407016,0,0,1.0439621233452394,0.1581080295817372,0.5145693971482973,0.27920865982277643,-0.24662503182577142,0.5727259586897215
546,1.0115334922194843,0.6062348313940212,0,0,1.1335145736659986,0.27293213302947117,0.5158745741165085,-0.04964294897182524,-0.19407672238624132,0.5266540817499105
547,0.9232274207963587,0.570146933379316,0,0,0.974912689133357,0.2781698629806893,0.48911366268759365,-0.24242187742862784,0.16587878026602193,0.37385900997952487
548,0.8424147171173315,0.5322090268178219,0,0,0.6981520353996978,0.13407952400788184,0.4214843666575008,-0.3551435840308147,0.17631873346413798,0.18223683695666593
549,0.7760134520552062,0.49734077471659127,0,0,0.6164548908320829,0.011807901316918785,0.35657110311197765,-0.3191295220753871,0.20742698198268317,0.04778152915355765
550,0.7300052883470413,0.4697895716723255,0,0,0.5458798192132497,-0.010015720549487545,0.3229773973999384,-0.3095194927414718,0.14786486234415724,-0.0023442618182529513
551,0.7088135945104215,0.4526206218927467,0,0,0.5689803847532293,-0.07129570239658196,0.32083538544167095,-0.441876927493099,-0.017259131743942103,-0.040705444061889515
552,0.7147785144233313,0.4473955675608508,0,0,0.5798455546204173,-0.15075518725480086,0.2803440157750579,-0.5714254191193238,-0.05012520117614664,-0.09763339238544963
553,0.7478127376006866,0.45404938565764597,0,0,0.610638525899707,-0.15326962429249474,0.23244914475003353,-0.5261745373742257,-0.12129538335238141,-0.10349675516401713
554,0.8052973242154877,0.47094930194487805,0,0,0.6948530176828824,-0.14485519517563208,0.166520661671181,-0.3074369724930558,0.07589286669374037,-0.10407258028595774
555,0.882247921077485,0.49511448356822013,0,0,0.7275269941806792,-0.17934166461882822,0.15256680414695079,-0.27509117288650786,-0.05392862671634047,0.03212052481487384
556,0.9717513827090952,0.5225824122181343,0,0,0.8338087560725252,-0.28331504033480637,0.05257293662306345,-0.08776464313291817,-0.33762610473898796,0.21414197794918868
557,1.0656396453246155,0.5489048811830833,0,0,1.0000254786179525,-0.3208064244609565,0.14248397115415018,0.06594702621935841,-0.3788413230842239,0.42154521427982944
558,1.155331490298367,0.5697297130943607,0,0,1.2372666918263648,-0.24304223778448647,0.19162319938149372,-0.002995881545437762,-0.6556198849917124,0.5919204097955059
559,1.2327389899923753,0.581385683308398,0,0,1.239842735356254,-0.17954209490202028,0.2278304020599118,-0.02553115731643339,-0.44406688625711543,0.47791702709395767
560,1.2911142836140277,0.5813669530713459,0,0,1.3629339738623505,-0.04993711442530166,0.6813202677778553,-0.16273788198670586,-0.6450939487940381,0.32833887348112806
561,1.325713627678341,0.5686294064286062,0,0,1.5724958009130814,0.27787244779404613,0.6847484061614263,-0.16277123608578867,-0.6451735213396366,0.1853777384141284
562,1.334184532326724,0.5436590561207882,0,0,1.0240888064532823,0.08961088614366368,0.4885764319363354,-0.03730319156847878,-0.0640052548506146,-0.14154671857662937
563,1.316636960953209,0.508328021550125,0,0,1.006045078223716,0.05819942812347397,0.6046521477084141,-0.2145002366598135,-0.5818501443767473,-0.26973725834387274
564,1.2754267292631447,0.46559146948295,0,0,1.133303121596658,0.09972251456475248,0.6209488855704526,-0.1781972489439288,-0.4526422322953807,-0.27459626964247336
565,1.2147304794475087,0.41908940203253864,0,0,1.0627854154301601,0.08386238291872422,0.5899791292962836,-0.09806759619264704,-0.25968284765355015,-0.26846084321262464
566,1.1400072283355038,0.3727118518914349,0,0,0.8952480891438114,0.03372891017331454,0.5278237571646492,-0.14299725676996103,0.013629199886063861,-0.19927395800391084
567,1.0574290931780446,0.3301827950998531,0,0,0.8418678440062328,-0.04938988334233334,0.4697066069479804,-0.10919998321855798,-0.05540261755762806,-0.1253208724555812
568,0.9733432172806394,0.2947173494080659,0,0,0.8976079611907306,-0.12523437777750349,0.4281945380209754,-0.1511679857379696,-0.06948920222583187,-0.12735733836905605
569,0.8938065800627888,0.2687939230624211,0,0,0.8921397098758268,-0.15032565560686012,0.2942978907884996,-0.20585974905861504,-0.27586360403426424,-0.1818777464304131
570,0.824215239866312,0.25405270050636386,0,0,0.723013802340965,-0.05046159414790719,0.28960171020451164,-0.10109781481192977,-0.14490139457542878,-0.19114860882830498
571,0.7690335246794407,0.25129808981479773,0,0,0.6005712411080252,0.03677403508990223,0.29448001755239317,-0.08938903842925829,-0.26733934491889966,-0.1449946603942006
572,0.7316204281149898,0.2605636093143576,0,0,0.6272628884238103,0.10298747328896143,0.2893407347168443,-0.06539401310974341,-0.23610698158453058,-0.09248691176768159
573,0.7141448878973271,0.2811987224234561,0,0,0.6689017153573888,0.13117736689381218,0.29880173376869235,-0.14407593990801484,-0.3650423135655634,-0.028589579824534913
574,0.7175712190988494,0.3119512833246817,0,0,0.8455512566497344,0.07656211099104872,0.2524101425702126,-0.17716259416038224,-0.2854934034854038,0.013748115136695457
575,0.7416834036858009,0.3510382962320156,0,0,0.8657189203742919,0.030271106769226702,0.1557209815774407,-0.2594545963040874,-0.1647830436314096,0.05048933026565674
576,0.7851149955918642,0.39621739537570805,0,0,0.7811774459393238,0.010036690547495663,0.08483757908425003,-0.15179774662387813,-0.03743711671046541,0.00798840057436043
577,0.8453695567858014,0.4448855955290712,0,0,0.7180156134321448,-0.018184260695504603,-0.048874030509768726,-0.12399930632282632,-0.18439593295671414,-0.058846891067464935
578,0.9188486782008392,0.49422861648434163,0,0,0.7809635419272654,0.06996423093168773,-0.05758989975197119,-0.4295123408021914,-0.5782087793564621,-0.11650997258711529
579,1.0009310401228004,0.541416968294231,0,0,0.9920866230537267,0.10429611704217163,0.11137404521185126,-0.5873460176086719,-0.5229721477085597,-0.23983546551382118
580,1.0861495282920521,0.5838090763120886,0,0,1.0997513674527828,0.044740288213046674,0.17727044901110328,-0.5923783986159075,-0.3381303502975631,-0.23107134490847056
581,1.168494637618707,0.6191089284565756,0,0,1.05215699272122,-0.16707329878627863,-0.021662001123477898,-0.45158167365233937,-0.07874108762122928,-0.016371159972742917
582,1.2418456503878947,0.6454528574053597,0,0,0.8406567775049539,0.06118805689537027,0.20122844296573272,-0.34367441082865346,0.0434712293484196,0.2450371042309336
583,1.3005049857849118,0.6614459976821329,0,0,1.1090182361864953,0.11139668129089518,0.6660210011890526,-0.5480977991804455,-0.26417372315337934,0.10987179829433194
584,1.339779127920144,0.6661938660374565,0,0,1.7135238994503632,-0.21308481405702293,0.8743311345655584,-0.046245215860617916,-0.25597550913207434,-0.41753694679234593
585,1.3565099521427746,0.6593590134104031,0,0,1.5031370421097154,-0.32052626401272816,0.9262591045013947,0.4887763678702008,0.14256404718660473,-0.7050440548921847
586,1.349440090913576,0.6412314818456447,0,0,0.8830966133935294,-0.20539756330117667,0.6500529659512141,0.7383369106829814,-0.22215763565046023,-0.49137803621981957
587,1.3193303914089667,0.612766747868435,0,0,0.8962468937073629,0.09407393646245024,0.4418530112592873,0.5344875959941927,-0.5701846912743601,-0.2904937332374051
588,1.2688276489709012,0.5755432494823012,0,0,1.1777854470200804,0.13421223345204086,0.34615488629443014,0.22118272194675134,-0.3496571676220273,-0.13509599885175835
589,1.202148761164779,0.5316297745064935,0,0,1.2609968790147186,0.05146746444002328,0.35543536752350574,-0.045299605729820225,-0.03250109371351732,0.110193461685347
590,1.1246593599462373,0.48340648577645623,0,0,1.1659904881075358,-0.05846161448648735,0.37921472856542177,-0.03928224240299164,0.24547695611675843,0.2658217793777564
591,1.042396688966932,0.4334097050446835,0,0,1.0428569398672254,-0.078530665587964,0.33184238274774447,0.0860791175003268,0.34671984081957186,0.3286826379426427
592,0.9615634378528575,0.3842461389464441,0,0,0.8389488329170477,-0.07304338999059151,0.2893447311934275,0.24313409002667452,0.3551493652170719,0.29537221868188196
593,0.8880228261684796,0.33856631837122203,0,0,0.6907535072952159,-0.06863935736279571,0.27445170093278803,0.2658457289922534,0.21119771223993422,0.2574191303529665
594,0.8268417666982947,0.29904224222740317,0,0,0.6744099278815503,-0.059704325206882965,0.2425963451352325,0.24581794444537178,0.1371488970350701,0.2762310971163758
595,0.7819345796143768,0.2682865831668831,0,0,0.7012807991530104,-0.06329645030617774,0.2516920574317219,0.21515231849268376,0.03944041271719284,0.29021547851272794
596,0.7558432961360018,0.24867572062404641,0,0,0.7578448339629122,-0.037129434569741354,0.22785518091360885,0.136892291611898,-0.07258978469370189,0.2742124476380701
597,0.7496589723980135,0.2420782564002041,0,0,0.8179038166203388,-0.03070425166143089,0.18543085508500104,0.06923374447910377,-0.108635336101257,0.20139176428564495
598,0.7630585732021418,0.2495305496952766,0,0,0.8146143700293614,-0.04428231520388658,0.12612397890214436,0.07811013921037692,-0.0040327212686442765,0.07118441112059846
599,0.7944182383543633,0.2709321418358517,0,0,0.7968973691553849,-0.06489014996463267,0.1175563556214847,0.04617594097729265,-0.004665196759823914,0.037711483959021734
600,0.8409694915441097,0.30484710494269124,0,0,0.8248674927283024,-0.07480983549429791,0.03886885300763112,0.11028760453207134,-0.17226198294243594,0.08279894217981974
601,0.8989827158861766,0.3484838881058915,0,0,0.8843010396341628,-0.11061867415443406,0.08843568193803585,0.12978856314738976,-0.21392630135299492,0.15274021008161737
602,0.9639805499302873,0.397887508705098,0,0,0.9717690665940786,-0.057247269325573134,0.13209182814873474,0.059738832295817994,-0.38447650636981745,0.2380288114800158
603,1.0309952576862114,0.44832872907007476,0,0,0.9043917978391511,0.007140318471054985,0.16797111846214913,-0.1589186335075108,-0.4085081068937298,0.17655966294646167
604,1.0948870230304935,0.49483448825938775,0,0,0.8677926052427748,0.037516442827361,0.018809005659393512,0.08037627803787804,-0.4376234564843995,-0.021664572683594632
605,1.1507330145698018,0.5327826204993189,0,0,0.8920033186664118,-0.05963502273156639,0.1980808675867431,0.4434494421470384,-0.19357838533622393,-0.21213500361989823
606,1.1942737573977176,0.5584783329865739,0,0,1.2957134315399466,-0.04784413603461412,0.5164920920531787,0.46739311370835696,-0.4621518990356248,0.07423494033833966
607,1.2223611877688356,0.5696310031671759,0,0,1.5846056894914329,0.0487672459902855,0.7006382522455415,-0.08561199182421653,-0.575515124725927,0.4441322889912823
608,1.233309441755001,0.5656554601771479,0,0,1.3644094278148085,-0.008276644892746425,0.7003444937386233,-0.46612914159230434,-0.4335486691491046,0.5234260125406515
609,1.2270421092650254,0.5477400462130153,0,0,1.0323031655163055,-0.043647470106090464,0.49829122613256377,-0.18199467579840234,-0.1743861012423366,0.4248541398577746
610,1.2049821614224763,0.5186617386260822,0,0,0.9034874840541357,-0.04133033782826461,0.4614938544067789,0.05698436544181074,-0.23484235309175985,0.38186687037841843
611,1.1697208775832042,0.4823796156935297,0,0,0.8893890177143714,-0.0054038469083627205,0.35210647248475185,0.06097153710346469,-0.36403177209922377,0.3297747888990433
612,1.1245749754201444,0.4434819861055274,0,0,0.9551031408613601,-0.02551014191089493,0.31787827283525044,-0.026621555603325166,-0.25469488198490353,0.23945116244674547
613,1.073157515737522,0.40658333506755284,0,0,0.9864477828071819,-0.04415070499623603,0.28885016274993675,-0.1520370344401597,-0.27788760515902294,0.11667106858320701
614,1.019052033816369,0.37576459096703485,0,0,1.0193971705423428,-0.010626967133325678,0.27461680904898184,-0.17097294852126801,-0.31259047582801597,-0.005351480592405764
615,0.9656225478502545,0.35413349156594004,0,0,0.9380417987614085,0.05412477417489921,0.24572057082286056,-0.04084386762602249,-0.2188716279773625,-0.08341096678215894
616,0.9159443106893091,0.34355846952748487,0,0,0.8520551295182893,0.1032571266344859,0.25117699551981165,-0.022202834013801524,-0.1158283920764006,-0.16199352213661264
617,0.8728134554669663,0.34460172401153233,0,0,0.8127430467187611,0.12412239943899543,0.22918251767609782,-0.1094203936074069,-0.058053291809466424,-0.24881578937679755
618,0.8387840734395788,0.35664424267168987,0,0,0.8674659479930918,0.14946539099548084,0.2121317848551589,-0.2563132180718853,-0.1556613966455291,-0.327658686473315
619,0.8161795892645755,0.37815885406080413,0,0,1.0015051402929454,0.12940987296489018,0.20200360190413563,-0.31678420204818164,-0.12437197008660765,-0.41805044367118416
620,0.8070288978180064,0.40705658041197307,0,0,1.0008556956858057,0.03688366928980784,0.14324294747654148,-0.3144597178382702,0.006037132213098178,-0.46324051576372827
621,0.812893859969343,0.44102189238073763,0,0,0.8166320997799574,-0.024873877965969123,0.05007772661216074,-0.20305400842932242,0.17867363562045008,-0.37790734276778665
622,0.834591003599488,0.4777715336145816,0,0,0.7038633924472952,0.003673303863845463,0.03800276427088153,-0.3426690250669027,0.09682719193098993,-0.2521066654770634
623,0.8718601407768878,0.5152101355769856,0,0,0.7440964090289296,-0.0036290665497112334,-0.021835737365495878,-0.5566699500123454,0.007396095410272157,-0.13451309606883344
624,0.9230738782285483,0.5514944736720221,0,0,0.7923943897859163,0.005287240389010444,0.15350515777053286,-0.4336679751396255,0.1796383307458566,0.032581939262206004
625,0.9850933216822764,0.5850427340895346,0,0,0.8332070403883597,-0.11211671278330126,0.09573817046655804,-0.5387860752049246,0.05694864575555186,0.1727032160390802
626,1.0533524930570815,0.614533406721327,0,0,0.7746597755130249,-0.16646448424775975,0.16686869157581236,-0.3281459714596068,0.12375297672184017,0.22093769332828156
627,1.1222071540014467,0.6389331326276132,0,0,0.7469177984547768,0.019129411360710044,0.5424125829760017,-0.46002459862367545,-0.02110698740054656,0.06595109317623646
628,1.185523059227454,0.657573248523311,0,0,1.2729725972917945,-0.143502876833113,0.5951894792123373,-0.43572566853635314,-0.317749958533223,-0.38289305430184123
629,1.2374126187634713,0.6702594625685371,0,0,1.6215060894722617,-0.12938875554628487,0.74139792881533,0.11837694639560002,-0.18038666720326432,-0.9241725726285777
630,1.2729771814369961,0.6773574815960073,0,0,1.2623436812832245,-0.05366220372435865,0.507076775239706,0.39173181317020067,-0.3015242355650474,-0.9891752293454609
631,1.2889054025101105,0.6797750091695726,0,0,1.070364667464152,-0.00016360436230956934,0.3447275385010659,0.368625686415972,-0.30783826100673706,-0.7258523131157737
632,1.2838283944188744,0.6787845994067149,0,0,1.2191269462304561,-0.0535879381619056,0.29054098123950245,0.08496211359951912,-0.14331120250224097,-0.5197620192784441
633,1.258409022773136,0.6757039268167522,0,0,1.2484567046181863,-0.1627102935247286,0.2847521964439787,0.17048286180185981,-0.0030111783370882286,-0.20616059087371807
634,1.215198446247658,0.6715332503146639,0,0,1.1663347885818052,-0.260714681572935,0.3466396740886654,0.32077632798520356,-0.039044507888832146,0.045741385670181364
635,1.158310627148606,0.6666906139231457,0,0,1.1954482144090066,-0.19982558200663483,0.29694318462640473,0.5042513348614637,0.005661304322606168,0.23051891709418948
636,1.0929640346397567,0.660954182021467,0,0,1.0147611280116309,-0.07769702346838883,0.24126490785593568,0.6169635980422754,0.19621765612109637,0.32465974646588336
637,1.0249414162165291,0.6536355751077545,0,0,0.8900847591287185,-0.02839636968747081,0.255191046651474,0.6753543918912612,0.3046755456604686,0.3423777837216462
638,0.9600266394709632,0.6439171617279886,0,0,0.8470792510590431,-0.010080252339757984,0.22744849914369095,0.6558382174353827,0.29729961205162436,0.34646546881171514
639,0.9034816539660641,0.6312336692381932,0,0,0.8210603831743594,0.004309975855571943,0.24510121942849464,0.6231211460518677,0.33780373229169974,0.34127146534274366
640,0.8596170787749035,0.6155781940622174,0,0,0.8247309806636491,0.018687814127389405,0.23921392385598855,0.539327846531387,0.28036799543427393,0.3040389265716862
641,0.8314877260131832,0.5976515814193051,0,0,0.8602079404337154,0.0434934259272651,0.20277870563531025,0.4836672156865698,0.305408019809795,0.21055184459784232
642,0.8207197269469267,0.5788285725960637,0,0,0.8486543385285668,0.06080861387803741,0.1345509430740586,0.448326257060872,0.28052458157532567,0.04202027403842132
643,0.8274597805854327,0.5609632478066401,0,0,0.7829531559984211,0.05492933290406186,0.07571599313984385,0.4598102243665704,0.2210123867296542,-0.13932676261779203
644,0.8504333974235235,0.546087576331226,0,0,0.7626189602168677,0.07639340634179027,0.06178836883915502,0.32338069682132464,-0.1075332783204579,-0.2661256052174427
645,0.8871027832813007,0.5360668486501178,0,0,0.8718621282168931,0.011369814914657592,-0.01829244251471845,0.35892679423751733,-0.24506955740848194,-0.3455172250131154
646,0.9339164084322125,0.5322683019364103,0,0,0.952059327051015,-0.040000870654498505,0.04135751449500742,0.45876051066781226,-0.1915007478156341,-0.38271107277835253
647,0.9866356765474783,0.5352835125336175,0,0,1.0284550306343154,-0.11727113881170088,0.021937856742185978,0.39252322260611167,-0.20417387552141425,-0.37812518384873556
648,1.0407132050961923,0.5447329193486761,0,0,1.0263860409829917,-0.10604362844590796,0.09302434208098814,0.2744633840587384,-0.014775234991549195,-0.32095304262669827
649,1.0916903194175305,0.5591794361204845,0,0,1.0329904897854454,-0.05582160171703786,0.04967090705718976,0.29964516458090906,-0.020189481282513484,-0.2644850259912756
650,1.1355815021890188,0.5761817608607441,0,0,1.053567480022265,0.050717022511564167,0.1553871875127949,0.4669005127359235,0.030765538240033197,-0.15305755209258814
651,1.1692155038379284,0.5925111724517976,0,0,1.1947707543022756,0.23760303039952727,0.3274047030310275,0.47063865242909614,-0.05058320284397947,0.056012544941169494
652,1.1905003313675395,0.6045286618414049,0,0,1.1860579572367183,0.3075648386984163,0.5848654383425864,0.40409195430869704,0.42270799343677906,0.28575931135607135
653,1.198574925474939,0.6086783710883457,0,0,1.1115135850133298,0.20861614960091737,0.6942431118440848,0.23629140655903424,0.49017223534663784,0.5180650405055427
654,1.1938158817973885,0.6020154699470827,0,0,1.0232990388629641,0.02824086014572999,0.6279931849561795,0.1359545245752106,0.5229523374431015,0.5846267070761443
655,1.177691912653831,0.5826690186485124,0,0,0.8387252616655492,-0.16523796239749833,0.5786121027083283,0.3120512144330797,0.3887854842962862,0.34101166992962445
656,1.152494922893378,0.5501519847377015,0,0,0.9608890561641572,-0.16183684897900785,0.47439215055870715,0.561605675364705,0.08052266635856895,0.05833156421815361
657,1.1210047571217183,0.5054660827543873,0,0,1.040166328127616,0.038486386188620575,0.3274284376826203,0.6067123232512851,-0.07321979379955076,-0.09294470985620296
658,1.0861495134624448,0.45099210430793046,0,0,1.0473647011615999,0.26117826087281354,0.25772182083746714,0.4164318530270993,0.007846013317700696,-0.1742892645632943
659,1.05070714669553,0.39019308266363734,0,0,0.9707250676176845,0.3341159778683627,0.32613970039957874,0.27723909624187393,0.2622437965399196,-0.14078363012976933
660,1.0170723292178,0.3271849898083336,0,0,0.8603846247590993,0.2992065809677829,0.33059039902943094,0.12508008554610875,0.18893615697696345,-0.08187131785362385
661,0.9870981941552399,0.26624885476825283,0,0,0.8739646459042374,0.21402443320218398,0.30747020552294396,0.0022684039801977524,0.07746476596309305,-0.05986016003412246
662,0.9620168513808744,0.2113657900347349,0,0,0.8932929885864302,0.13556447800778954,0.26655826549047335,-0.07830161772128537,7.020195407322513e-05,-0.06710948181731721
663,0.9424386909269408,0.1658460663883775,0,0,0.9147998167327683,0.10799415472155884,0.23099311140059808,-0.13151166454383587,0.013549013173698223,-0.06848512995617892
664,0.9284233681626318,0.13209414015962764,0,0,0.859329471611676,0.11876923049110709,0.3153441124654028,-0.03863953311973906,0.20938013344457201,-0.07584542837247885
665,0.9196061104444154,0.11151330371357256,0,0,0.8643229986806955,0.11618715871553574,0.31206380780508264,-0.02234826969939613,0.08232525471321446,-0.09105879840450806
666,0.9153556142702773,0.10452297069323,0,0,0.8909018025394055,0.12382288970577608,0.27925583083102107,-0.059024026932417144,0.02373739920395945,-0.09979989010702701
667,0.9149365601045402,0.11064958488036071,0,0,0.8852054428580877,0.1610709132789374,0.32140802462399937,-0.10102963299197916,0.06325010024054283,-0.08626337856606775
668,0.917650808932743,0.12865672851861001,0,0,0.8821878355868835,0.15602205329593588,0.2905208589676992,-0.11927261603638979,0.0929128734547815,-0.05512108062610345
669,0.922936568193285,0.15669175742415076,0,0,0.8730492095385781,0.1621225692648556,0.25330779102037376,-0.11717985646603093,0.042899254127558135,-0.007559532753441032
670,0.9304136930997985,0.19243811806628958,0,0,0.901474672597816,0.1490949328400491,0.19769326094706594,-0.1396116174857835,-0.03956892162220793,0.027370427592259636
671,0.9398736155143677,0.23327125439157537,0,0,0.9399260894033041,0.1271332406133632,0.1566765383735969,-0.19133918185088106,-0.10893647526900825,0.06150256554596231
672,0.9512213321391998,0.276419274180201,0,0,0.9618433297366302,0.1299853661603985,0.13780212523264404,-0.2606103319742984,-0.13805076625879678,0.10245587356478059
673,0.9643835742093975,0.31912673818834497,0,0,0.9341678663269825,0.14804746763830132,0.16364772581738993,-0.2873368192509288,-0.06771984045178858,0.15796220808188782
674,0.9792030838194912,0.3588149521463831,0,0,0.9129328928316721,0.123220384787957,0.20528171074709262,-0.27618972024229976,-0.007262388971462145,0.21352383259319696
675,0.995344422144744,0.39323025789887106,0,0,0.8862195513515235,0.0814398998079483,0.2057770607368306,-0.21643420331867322,-0.016390824032052158,0.31027954859175155
676,1.0122391643283792,0.4205739950812225,0,0,0.8585127136407754,0.04719010778584259,0.2824641263228002,-0.11016413676451921,-0.04117498013073215,0.38203443737265474
677,1.029092714814823,0.4396103647266967,0,0,0.9360114702275967,-0.11789221010552522,0.34829746582922405,-0.12747042876265524,-0.11667246868599745,0.3960356498315669
678,1.0449584552120956,0.44974772995035495,0,0,1.0459138770901384,-0.22721939560983057,0.38830810872083893,0.015358478705045666,-0.20995907023672095,0.3263473555430234
679,1.0588614846326123,0.4510841524971134,0,0,1.0970980699199988,-0.20598973323106815,0.39484472315619507,0.27716341895430835,-0.3272374530143379,0.1591002056118363
680,1.069935400576631,0.4444004486282178,0,0,1.0603471088713126,-0.07476473345344646,0.3605420042733727,0.5652996871528868,-0.28081343340274345,-0.012120390066021286
681,1.0775335989621193,0.43107758136889684,0,0,0.9543508035346487,0.12139656644306887,0.31856880413498573,0.6268351388654593,-0.22707431382801024,-0.08211138109017344
682,1.081293190835447,0.41291896102947845,0,0,0.964660576786518,0.2814299364862634,0.2825829961880593,0.43139882220702225,-0.1840433208663173,-0.02288867832277719
683,1.0811528436944422,0.39188288032249763,0,0,0.9641435369049328,0.36296319043955116,0.2595771034113608,0.17169781716545313,-0.046814406853736786,0.028862173068231488
684,1.0773402322095555,0.3697735743742942,0,0,0.9644553684270172,0.3287831898741479,0.2620275111170718,-0.03266240356612023,0.007439150016771446,0.006399100576381585
685,1.0703445436825167,0.34797694236737764,0,0,1.0054333014613301,0.19736366550498133,0.3214398576837429,-0.17909372983287408,0.09757188575645605,-0.027485909046755335
686,1.060880122870954,0.3273274334627894,0,0,1.0502594504486125,0.04740585508360652,0.31284290207586807,-0.29949589950144306,0.08068611932225674,-0.03999344585122973
687,1.0498374718957488,0.30814669566050246,0,0,1.060879800630814,-0.0069910282578898985,0.31811851463135377,-0.3718555968832379,0.16271115293748276,-0.12044071976931157
