id,ASVM,GSVM,walking_nonwalking,normal_abnormal,ax,ay,az,gx,gy,gz
1,9.569342863031252,0.18901100144056068,1,0,8.711289006217358,0.24600761499092524,3.576631944277569,-0.1647827233129923,-0.1316948168164397,0.04343732070180586
2,9.546101991054938,0.18182004562344048,1,0,9.573410538117802,-0.2671245655841073,3.5165264576162394,-0.07604212414208032,-0.09027980592597684,0.017092574522214375
3,9.509461621297186,0.17477648191088963,1,0,9.859859307595457,-0.08829013486134453,3.575853989291842,-0.023752837591892097,-0.1166108954729293,-0.0069076000163807725
4,9.464659610536392,0.1687071865121735,1,0,9.34575676196702,0.1131828026237263,3.7211105320908,-0.0526839965640357,-0.16504741238027645,0.020981886394960635
5,9.419919131426534,0.16427138801519525,1,0,8.958122468587106,0.5278289070152107,3.5428388473543206,-0.12096777017804722,-0.12538135617782228,0.049834314910586645
6,9.38537755121997,0.16187886540147448,1,0,8.82804036764238,0.871851871434604,3.2805516769811125,-0.1319810283937509,-0.08137379249943767,0.04676137150052856
7,9.371383366462346,0.16164753378851138,1,0,8.607525279289927,0.9233338228984417,3.1188861634565046,-0.14069176387132534,-0.08079441506899908,0.01776062841886455
8,9.386477876557942,0.16339620549331207,1,0,8.188958975998197,0.5923416800682918,2.722902050733098,-0.16028910601283763,-0.08889974423558797,-0.01778937853751923
9,9.435508562014569,0.16666773936137466,1,0,8.089970183006226,0.3849430129077236,2.5996409200068147,-0.11631756185853319,-0.08280936281778535,-0.020011969959347058
10,9.518329643350022,0.17077967415003287,1,0,8.5023291400765,0.5280923768398239,2.6650913643448564,-0.07024017470433007,-0.1282736543391269,-0.012464876050823711
11,9.629426390152084,0.17490101891455753,1,0,9.087296728393635,0.6940698151274318,2.71133515687741,-0.03533034522871591,-0.1511644683255926,0.0016190609475485954
12,9.75857881944975,0.17815313581251563,1,0,9.497600092807215,0.6811948821557317,2.940019766797702,-0.022756399869685875,-0.1595568281223801,0.021053316372685062
13,9.8924263461886,0.1797285092702151,1,0,9.637993803541066,0.4700387134284244,3.118841363615345,-0.03306332080523991,-0.18135710402435112,0.036395275133292694
14,10.016594592026236,0.17901456646392153,1,0,9.685735814678614,0.18252834890279904,3.0768561636727627,0.000992009659749221,-0.21144968543833262,0.04783916074827668
15,10.117951668414921,0.17570357665776865,1,0,10.122939341582072,0.005276933733501835,3.0297925978044176,0.11002641789002403,-0.16261147941045923,0.041927719369772784
16,10.186570491844602,0.16986741681621526,1,0,10.339254263419008,0.050019207783108324,3.309459514433853,0.18203573263745204,-0.07891638267695097,0.03136835029284117
17,10.21705543191104,0.16197955038322556,1,0,10.17488393175694,0.4745643377759802,3.303153194941641,0.18971466200826534,-0.024914969377897167,0.026987538374064635
18,10.209025615873607,0.15287537196426101,1,0,9.788918286630535,0.9290877057947503,3.2119219621115835,0.16349750084682077,0.02743921103539801,0.03314811499434367
19,10.166723012520752,0.14365379667982467,1,0,9.38081994348925,1.197229715910688,3.0044887241732243,0.12119227570646209,0.05419099360023338,0.0278599500776081
20,10.097901412622674,0.13553484687488865,1,0,9.15743378213669,1.2711223760629318,2.766184074125879,0.08415830276715362,0.014805995502778285,-0.0110544284017019
21,10.012297283418691,0.12969710054384653,1,0,9.242061174390207,1.0608475678697826,2.391977611533311,0.08106860398826146,-0.009309967800753839,-0.06149550656371835
22,9.920035616914793,0.12712225800549032,1,0,9.35683994285911,0.7029087374694045,2.3180471455469323,0.08284379369581706,0.013196830450796351,-0.08919010765732674
23,9.830273860685802,0.12847040953887431,1,0,9.461198455343277,0.48327163994519684,2.3399825338720537,0.07680909579638096,0.0024335423785324327,-0.08085448788017963
24,9.75026933164322,0.13400084251191233,1,0,9.44722761708314,0.5598976977565292,2.3598521837203132,0.11656779164596054,0.01117771654234338,-0.04278057451819285
25,9.684923901915097,0.14354348895603886,1,0,9.381098964259445,0.6057378873511511,2.4010887797012077,0.15500898417696599,0.00657765129093748,0.006799266253322314
26,9.636756744711564,0.15651837702473892,1,0,9.30221795059522,0.7233711763508485,2.5435996360856445,0.1510431773318157,0.02079705127914707,0.039795530293448136
27,9.606197224289454,0.17199554287860028,1,0,9.287857226001892,0.7455158442463807,2.7229529166969755,0.16210115580982687,0.018229732518632413,0.07268358460320201
28,9.592069352554367,0.18878566135497957,1,0,9.258310710166231,0.7140253341698823,2.813328968342725,0.1705397078568786,0.0004701152501686142,0.09627500940037029
29,9.592143916729128,0.20555174518112995,1,0,9.22149890430086,0.6756775420702139,2.8869814777128733,0.16675483477262404,-0.022895332543973055,0.10035148826014609
30,9.603655845630458,0.22093367423530783,1,0,9.218367931500175,0.6408058617592629,2.943924986863043,0.1786855506383,-0.05040800884918954,0.08770339308894853
31,9.623717742823953,0.23367857321227756,1,0,9.101277755878083,0.5740790060037831,3.069007618998106,0.15290641998151158,-0.1014958798522814,0.05219139727637153
32,9.649599735269778,0.24276946871926477,1,0,9.074984658580394,0.5518425070414908,3.0703666772833715,0.12630734060823887,-0.21144969802625382,0.02554292968598954
33,9.678882092974046,0.2475410629851665,1,0,9.186250105220523,0.7184873929776958,2.860821877919184,0.12006050729322017,-0.27988600337148667,0.013928513250282852
34,9.70951159529567,0.24776598342843217,1,0,9.27941249335276,0.8504021938639245,2.669089652535551,0.09867734676494878,-0.2917095412394008,0.007538692855961333
35,9.739800978210999,0.2436919133644419,1,0,9.293189291571522,0.9711890718362386,2.5698742972267064,0.06161463359440298,-0.27350133697978823,-0.0016812748416824381
36,9.768405695564619,0.2360146113017737,1,0,9.377729898057444,0.8887475666802371,2.540789958374351,0.013675088901374666,-0.2359688170352624,-0.018146780083706855
37,9.794300456679261,0.22578470380002538,1,0,9.450404385723395,0.8303243515709554,2.5031582234272505,-0.004920031037261131,-0.20669879792116153,-0.03408679853459745
38,9.816765299710712,0.2142621540908231,1,0,9.437181801678845,0.8634552158523513,2.515118982237204,-0.02965791670949808,-0.17928819032456195,-0.05247890811743675
39,9.835380534784251,0.20274443284780735,1,0,9.462191844250478,0.8889947365257751,2.4792510616543515,-0.0471389736030158,-0.15152844377949545,-0.06306396172079606
40,9.850023209691184,0.19239859495584385,1,0,9.497936249758988,1.006492973505452,2.4901735435590986,-0.0649980199232641,-0.13360487371757776,-0.07221579516256127
41,9.860854523519626,0.18412388245815517,1,0,9.54449729415967,0.9578710778935877,2.511001340832872,-0.10428104057471917,-0.1075572360017737,-0.08341579880481266
42,9.868287071599974,0.17846281353309992,1,0,9.577098163975938,0.8140310578628335,2.503676247360446,-0.12303369925541971,-0.09805145258261011,-0.0822677456244323
43,9.872924158431347,0.17556829625560555,1,0,9.548273905742857,0.7518015591971587,2.4255531604776084,-0.12373718881736336,-0.09484350715468017,-0.07283238822372884
44,9.875472713725516,0.17522500322291812,1,0,9.481307892982294,0.726971394536847,2.3617946679475845,-0.12052931839239997,-0.0874069621145945,-0.057434247192930575
45,9.876644687227147,0.17691654959395933,1,0,9.45941813105971,0.8174789021313495,2.395779712335201,-0.12170311442749779,-0.08680641421116127,-0.04522383122735978
46,9.87707149997342,0.17992546113416724,1,0,9.503334586416063,0.7912546970013141,2.4332431852955754,-0.1538738953972129,-0.1136477645646201,-0.0480807615848278
47,9.877254049357713,0.1834491048239552,1,0,9.57088122936663,0.7324760245971582,2.387155734324442,-0.16588236683111035,-0.14141605938465726,-0.06207513329070558
48,9.87755615477645,0.18671171464524827,1,0,9.607933998180844,0.6599152635783042,2.3246617334187394,-0.16780645719012816,-0.13749417243775405,-0.07264224834560286
49,9.878230509513347,0.18905279917334747,1,0,9.685425802010332,0.6529223024667511,2.249914498181558,-0.1572864443175936,-0.11332659778522958,-0.07102938478583869
50,9.87945410964766,0.18997803213312628,1,0,9.632790327526807,0.7667764465328913,2.2411665067128204,-0.14562453714072948,-0.0974654876291935,-0.061159706713815695
51,9.881350802311315,0.18916939557773088,1,0,9.537478677278513,0.7552524561885076,2.2764011076631663,-0.15039603723325404,-0.0857523680628749,-0.051698928309691666
52,9.88399032675902,0.18646263715513958,1,0,9.545552540957832,0.7669294099992414,2.3569603138173028,-0.1425499842583967,-0.08620479981325826,-0.051699645233502824
53,9.887368150508587,0.181807651383862,1,0,9.59165320470352,0.7797209683398667,2.3048181400135888,-0.13066868823714395,-0.08182860547214406,-0.05588641439457216
54,9.89137988280626,0.17522953392711932,1,0,9.614341573427193,0.7722670793799044,2.246188314686311,-0.11633216390510599,-0.06081458301006882,-0.05111341610493846
55,9.895805246065759,0.16680550233484487,1,0,9.557226806548039,0.7705049273878981,2.202656778322103,-0.10754801205867702,-0.05469237627780813,-0.046917093098650525
56,9.900312953991667,0.15666667452504418,1,0,9.539979620351886,0.8251274245549558,2.1439869859846676,-0.11739210947733916,-0.05536411190287798,-0.04496453542999265
57,9.904492213266956,0.14502444115558155,1,0,9.641650795197767,0.8698483917461622,2.0939877162345355,-0.15048434580951084,-0.057950066204351426,-0.04606904450110175
58,9.90790736661116,0.13221030573338302,1,0,9.728677486921152,0.8287635945040742,2.186521032058875,-0.17812463686844462,-0.07549670146134721,-0.05197904581152401
59,9.910159317340845,0.11870930346244193,1,0,9.80055938242584,0.7216201190274538,2.1299715792792884,-0.14740560462624708,-0.05821663728046369,-0.04442591518942631
60,9.910928472303834,0.1051653604092207,1,0,9.656414806026877,0.6623282252231664,2.1496729063895166,-0.1153588951733871,-0.029373185857227733,-0.028948646409848202
61,9.909979390784942,0.0923446739057795,1,0,9.589365120370893,0.5521397993322131,2.194593852640051,-0.08020930284217563,-0.03460975494141861,-0.01374205813826563
62,9.90712781647506,0.08105751281989293,1,0,9.61525387582402,0.5138386409484437,2.1026315771971813,-0.027698668672641365,-0.05046552901808246,-0.006048053275188175
63,9.902193657911516,0.0720530664612689,1,0,9.608721122393266,0.6202686324381217,2.11887935330425,0.013552544670127233,-0.03906510799415821,0.0019176923610321067
64,9.894973962292768,0.06591023798280947,1,0,9.547268641032518,0.7149687588503931,2.0663084046615547,0.007318980584809762,-0.0358411604057453,0.018140232117469568
65,9.885263127945615,0.06294759910223331,1,0,9.56207018562204,0.8373858583293062,2.0853964343558222,-0.017327728556597918,-0.0421433566798162,0.027190940326283455
66,9.872928131135472,0.06316971519758825,1,0,9.65113961312875,0.8807598843905423,2.1158537480996498,-0.034890707913253174,-0.03321032843810347,0.02781614411543477
67,9.8580216391443,0.06625809171922178,1,0,9.70535071048326,0.8066028892824115,2.1748082824126893,-0.04657755717234839,-0.036630300692782745,0.0330501329977427
68,9.840893950819174,0.07160641420463193,1,0,9.67157366369731,0.6880564359708631,2.060145068929277,-0.04569573917371924,-0.015843853061456987,0.04579325850151386
69,9.822255846088268,0.07839349416441502,1,0,9.671817336790692,0.5730593440258067,2.0303758334204987,-0.03728867045475061,0.02191928912881471,0.05563415022019437
70,9.80315490069496,0.08568353009158511,1,0,9.63355099532583,0.542352625940498,2.020122006829792,-0.03610918059349818,0.03578694695500784,0.06633144381837261
71,9.784854244662572,0.09254095651557137,1,0,9.55487816641639,0.6068473048357526,2.076865699613314,-0.03130110115327047,0.06145863285315511,0.06992767378142582
72,9.768634837771783,0.09814537792707011,1,0,9.398236224956127,0.661604332885523,2.130618532649048,-0.044135418204796835,0.0881894386905374,0.06675538036147693
73,9.755569505740075,0.10189099063733477,1,0,9.372594323728505,0.6696760484066325,2.120218579981783,-0.07172720036815033,0.09294823826302512,0.05641205195609956
74,9.746330435730956,0.10345564866823494,1,0,9.367870579498176,0.6760622975594442,2.104519003582653,-0.08000072554998315,0.09226829263411869,0.03843352062222686
75,9.741085124157166,0.10282857258620116,1,0,9.442087369560982,0.563311437083618,2.086640624242901,-0.07021995055661644,0.08565038556202245,0.016320177635307062
76,9.739508789398467,0.1002927183950499,1,0,9.572610033756288,0.4847523839677631,2.1268595487857596,-0.053656891450566124,0.08075374796262352,-0.003992277095184064
77,9.740903632171728,0.09636638605419727,1,0,9.583348331403156,0.5256459531481336,2.17064178696091,-0.038464145283783745,0.070394151001954,-0.015773832790705135
78,9.744383260909157,0.09171606048079434,1,0,9.544021718178287,0.6213137824667645,2.1614136585420747,-0.03023587342366426,0.07135030373622975,-0.013331587916285954
79,9.749067861440532,0.08705646838936193,1,0,9.470439404498414,0.7126354206774658,2.1850272446994876,-0.02733518295715734,0.07153359125571931,-0.008010096896506677
80,9.754244751233406,0.08305374417986776,1,0,9.465418201762871,0.683783188419998,2.2072403600612325,-0.033961385630442355,0.06980450692903965,-0.007755476264244619
81,9.759469871313236,0.08024447473043435,1,0,9.47572365771791,0.640328688242027,2.173685433827805,-0.04192920491033291,0.06643391466973922,-0.003612159280365971
82,9.764604797196247,0.07897909854923418,1,0,9.530567993906518,0.5815641084994289,2.1790016231520486,-0.05011586944934905,0.05591867394111082,-0.0016119865652965506
83,9.769793893933914,0.07939422858802395,1,0,9.58573971343748,0.5046160152000488,2.1096289366420757,-0.04429779581415236,0.05780682267607501,0.0027283044230295215
84,9.775389728369818,0.08141554283390451,1,0,9.564341005518322,0.46537812408180756,2.0706346835735014,-0.024632405495897527,0.06082708624757421,0.008444594822455668
85,9.78183857897669,0.08479054195963137,1,0,9.510091632514408,0.4170612637999978,2.1237653479295857,-0.0006669678620394273,0.061060960055225336,0.019688452430682096
86,9.789545643996048,0.08914774793235956,1,0,9.487796620478065,0.43086286928679646,2.126519466793502,0.040565423198318906,0.0710480261101819,0.03014807521677735
87,9.798748350434783,0.094075048154695,1,0,9.449910649509366,0.4383857144892101,2.1600933960476247,0.071943486366381,0.06683714586046033,0.03043575579287295
88,9.809428762179175,0.0992052146466841,1,0,9.535197967708434,0.43591953545448725,2.188103274845617,0.09835847183102894,0.08293319372066742,0.028766159323179545
89,9.821287444673114,0.10429296616468894,1,0,9.53461675434581,0.5266499538646805,2.273777536451073,0.10573800330209085,0.07586389863918545,0.028512863075913
90,9.833783071256187,0.10926771064859923,1,0,9.566303898278436,0.6374563680902182,2.2316670960483296,0.10166176279839663,0.05730098146964751,0.023344607383527883
91,9.846222110539506,0.11425050673580392,1,0,9.607006809180891,0.7041169235202719,2.2151420841401537,0.10153864726843786,0.04798546370923304,0.017116895870835792
92,9.85786899574224,0.11953150996860125,1,0,9.631141969984753,0.6531568993103748,2.239522593511216,0.0886907228103928,0.046552328070692976,0.007806801104993392
93,9.868043099513025,0.12551195077211888,1,0,9.692440774010354,0.5814610089525405,2.1605716699307846,0.11198841874024477,0.06127955868764868,0.001234404021382408
94,9.87617480028591,0.13261952251215722,1,0,9.684086929016445,0.57516086334489,2.1572430557517643,0.13033410113836627,0.08741290754282517,0.0032167011656516675
95,9.881807773872463,0.14120745649889216,1,0,9.603723499616196,0.54619767849411,2.287435203943352,0.1339966399085134,0.10607745513973181,0.008519287640863949
96,9.884555856027504,0.15144793876960586,1,0,9.488289037230436,0.5953099707581134,2.3290236304446705,0.13522374492482825,0.08340814758002311,0.010699295351314366
97,9.884044430947524,0.16323298991868582,1,0,9.459375544528653,0.6262599173269563,2.337823318289071,0.10673550870863993,0.08191155033381867,0.007982367397327168
98,9.879878722103312,0.17610101836679365,1,0,9.451808600430763,0.642732942339916,2.3795551573365596,0.07925442799351849,0.08665660579303994,0.0038455181342299033
99,9.871675822285713,0.18921157460107982,1,0,9.53133953809232,0.6353480947909306,2.329381437596424,0.07066502534914389,0.09258717133307673,-0.002371680916369405
100,9.85917250526177,0.2013891278838457,1,0,9.613623365924749,0.5749014587378496,2.3013009211811672,0.07377837644726433,0.12408074956096761,-0.005993407507144938
101,9.842385874756456,0.21124563640545635,1,0,9.705987668423903,0.5804996096310723,2.2668377903633536,0.103729300975399,0.17489543567713267,-0.0065604960831863604
102,9.821774270968069,0.21737254920702276,1,0,9.651348449105953,0.615431712882904,2.2929613164804907,0.11510950494287814,0.2194515860490172,-0.006138201057372415
103,9.798335705011029,0.21857151617910017,1,0,9.522236377656387,0.6291164741195299,2.4573532820814328,0.1263855824448545,0.24210864335989385,-0.009798527163913117
104,9.773595650705785,0.21407733192745046,1,0,9.437312555678242,0.6807497736193011,2.5813064970857726,0.12237433563591438,0.2653777121680632,-0.012247793161820078
105,9.749468621583238,0.20372259428595552,1,0,9.315670490296506,0.7277412352881983,2.7322881458359944,0.10735579518091086,0.2744208756147795,-0.005630946640048355
106,9.728014551920916,0.18800322648373627,1,0,9.211789918091867,0.8772364570046585,2.9284629516411282,0.09025967730804692,0.23154595601925482,0.002771647870330997
107,9.71113910434393,0.16802542409000615,1,0,9.11730240178504,0.903871325473563,3.0312670875199705,0.057915664171035684,0.15238084420192824,0.008019353425189312
108,9.700300970835048,0.1453426325140734,1,0,9.078078230825774,0.7799243874598003,2.9444769785323874,0.036465082765632345,0.09111093234259686,0.007235926367850933
109,9.696288420012177,0.1217180485750462,1,0,9.139140958494412,0.6314691311662389,2.9085128637528923,0.017575811800878666,0.04291879330898165,-0.0032361199411660956
110,9.699112575777894,0.0988652051322169,1,0,9.242755284080383,0.5324882147818963,2.8228261536956074,0.01867634159569016,-0.0028145984735733834,-0.005802594831069148
111,9.708038437158558,0.07822074138233234,1,0,9.28388466558867,0.5586798629534719,2.73847547510039,0.037162094080326585,-0.022562837529033482,0.00045501355921121037
112,9.721742670193176,0.060789846767463115,1,0,9.314752258545287,0.6545758786434063,2.7542207781890276,0.034420464635128864,-0.04360378157336136,0.007752287219554612
113,9.738558931311442,0.047082277450316,1,0,9.392094845214139,0.7165842104167925,2.723086196570581,0.016957356642402135,-0.05500169496775695,0.013546486724462082
114,9.756754214353423,0.03713404388422276,1,0,9.471112300917591,0.7121568448309409,2.6592847853428436,0.011923351129906624,-0.05435412554986951,0.014426630745878438
115,9.774776397428049,0.03059390900427657,1,0,9.469357922916151,0.6643661779849968,2.62422682876718,0.01819039235498464,-0.034503888932556716,0.012623366130356747
116,9.791424055329509,0.02684717829924864,1,0,9.438966035954333,0.6323678107698065,2.637544905370749,0.03548044680448374,-0.017091229072048117,0.00846705150950128
117,9.80591260679523,0.02515006948841628,1,0,9.45353394505448,0.6490921985436884,2.6399078099346345,0.04659181055121779,-0.003894431781757143,0.007483048183222372
118,9.817839954293069,0.024752810528530816,1,0,9.364964691705374,0.6993528126204385,2.6630568471664278,0.049245906046930715,0.007760099873579378,0.003118552722748371
119,9.827081160884207,0.024996132282937632,1,0,9.320742245368336,0.7470136309974134,2.6697890633255055,0.0330403791518698,0.004826141792019503,0.002622038417409729
120,9.833657472644708,0.025373166711726285,1,0,9.369779341314866,0.7553106930600809,2.693381042096643,0.011648202321542263,-0.00374719158584276,0.0031845226449389824
121,9.837625523853704,0.02555631140375807,1,0,9.42270238005041,0.7550835459201801,2.70586835691724,-0.011488691606994445,-0.0012295143731700126,-0.0007641418132572668
122,9.839018404035272,0.02539475261688677,1,0,9.423201511097078,0.6939503547790433,2.667823268581898,-0.0255442391670377,0.005587748017883651,-0.008937595038399962
123,9.837848134912123,0.02489124784735945,1,0,9.414203726801055,0.6209780535404319,2.678153987595903,-0.02151090435389033,0.0026434867099058533,-0.011808642656253136
124,9.834158082663626,0.024166346377149654,1,0,9.4930993341643,0.579518143701234,2.699046029107082,-0.019084928560553466,-0.005084170078974362,-0.012711432573748302
125,9.828099300987548,0.023416264431816627,1,0,9.501355521352775,0.6216679043037876,2.6873741610714226,-0.014095801849832636,-0.007556503203924712,-0.01210608409025275
126,9.819998056173805,0.022868967967263898,1,0,9.4518027054872,0.7043559042624286,2.7339979814952633,-0.01094598587609187,-0.011954541914783123,-0.013344757171377938
127,9.810383895926252,0.022742112151567326,1,0,9.492052410676019,0.6436102654709557,2.6950131185943644,-0.014171735943255737,-0.020901005886942423,-0.012719506641835708
128,9.799959569316194,0.023205935389297164,1,0,9.429527757385058,0.5708778852417024,2.6351584791322082,-0.02211947710403555,-0.01127867284191341,-0.008433203955778554
129,9.789513678224578,0.024353839635313197,1,0,9.349821773804551,0.5949072500777259,2.656468568078023,-0.014485430421029682,-0.007671362653955438,-0.0012318292659535435
130,9.779798126032649,0.02618335803956641,1,0,9.336955793453722,0.5918940826723538,2.663028580664356,-0.004347385137600441,-0.014500684582528515,0.002424395807450373
131,9.771407574250802,0.028590269729628234,1,0,9.279866990809996,0.5468022685541777,2.739493702362502,-0.010179001420795048,-0.014775461084296924,0.006062561546929623
132,9.764700970767526,0.03137794712562331,1,0,9.285807142326851,0.5436844456715851,2.6836896609932728,-0.026660761709997812,-0.0131501958986508,0.0051468167629705975
133,9.759793854877744,0.03428202351255291,1,0,9.314355383440414,0.5848380753933341,2.7060268956062825,-0.025137096567098283,-0.017943135417627855,0.005109790130162205
134,9.756627653844468,0.037007540372631334,1,0,9.370028971624173,0.5867861458023087,2.7432394841682304,-0.03640814091411316,-0.01897850087900571,0.004557587150556793
135,9.755095110350213,0.0392729551407892,1,0,9.446084356052788,0.5232782334012801,2.7447631154752217,-0.040404262973500506,-0.022853466855124377,-0.001794291157110308
136,9.755178078878847,0.04085367863307928,1,0,9.449294743955301,0.5023496264188092,2.753378976185926,-0.03336752308878529,-0.023813238772029576,-0.012731075916254553
137,9.757044355257664,0.04161751191624214,1,0,9.427786452040511,0.5311424762387583,2.7870893499024443,-0.0402333936529088,-0.031312817722977525,-0.015679927124782684
138,9.761059314155542,0.04154537413296862,1,0,9.418378182007004,0.5698153320952892,2.7265679187623215,-0.04328135081797503,-0.03366132782077344,-0.018331984881412848
139,9.767693825334364,0.040732861144305604,1,0,9.361911035169934,0.5558627486937181,2.6937631587671746,-0.04011384325374474,-0.022528752083252564,-0.021188041042684323
140,9.777343403605412,0.03937139357806298,1,0,9.30509589488863,0.5482013541424631,2.6972437996641974,-0.03074643644333985,-0.016294405507831115,-0.021933972318366992
141,9.790103439882074,0.03771185705969305,1,0,9.304493725320238,0.5754161240910612,2.697632546187775,-0.018526709404413318,-0.007941093097912069,-0.02117412606739033
142,9.805561833718581,0.03601790298673101,1,0,9.340597676934921,0.5953931085852208,2.6718138656020205,-0.002333767067450642,0.0033406012019682116,-0.016228949371639097
143,9.822668526395233,0.03451897202794456,1,0,9.425978019194192,0.5994310203623854,2.696716699930085,-0.007186742697153621,0.015324344770736718,-0.011604704972321127
144,9.839723834858528,0.033373267301636804,1,0,9.42423467777491,0.6193195414285988,2.712847661557184,-0.016952753937933048,0.013418236273085585,-0.010177567096228182
145,9.854502894499962,0.03264805441222836,1,0,9.384038322437238,0.5926064223575479,2.73936569684743,-0.026305008705797005,0.011766352538220606,-0.009385991685746685
146,9.864511001262638,0.03231985369436989,1,0,9.390799253219505,0.5241898273054867,2.7749887284729353,-0.03298987529902529,0.00013547328663763696,-0.013998215624317205
147,9.867347131597574,0.03229212150525577,1,0,9.437108415800232,0.5626451562913553,2.7188839773682725,-0.03274692318003594,-0.015242684740152161,-0.017266198606632425
148,9.861137189637827,0.032424477077937,1,0,9.497681240696899,0.5940021383446844,2.689777927622894,-0.029461356815002726,-0.010838645150175049,-0.020245117590725892
149,9.844981854797082,0.03256614680678933,1,0,9.49501370476056,0.574780246269928,2.7178965179489243,-0.032987468015302696,-0.0035980079803133603,-0.020466203532740458
150,9.819349289153239,0.03258690910049347,1,0,9.56450318331976,0.5338804243550855,2.6752324267662075,-0.033123082129316035,-0.0012125875691415692,-0.0218594557677671
151,9.786337439040661,0.03240073981432014,1,0,9.514597458054112,0.6342618424911711,2.680117952824929,-0.01803016825686747,0.010416231844804218,-0.02046289082205247
152,9.74974010058636,0.03197977180472716,1,0,9.40776039411914,0.6861469142657066,2.7123648149175645,-0.012297443376581849,0.01573540224003247,-0.017022611941758633
153,9.714876410518565,0.03135834171554325,1,0,9.346459267511278,0.6781867711883657,2.7245675001649565,-0.021775234563701694,0.017568437778113802,-0.015397756637655802
154,9.688180020009732,0.030628179160435393,1,0,9.258132964575342,0.6185046024733166,2.7855125053082492,-0.02959007763555056,0.010270850861055713,-0.017963265420952106
155,9.676582511683325,0.02992604758653491,1,0,9.26464639860563,0.6094309658810911,2.7524169126524076,-0.025689869419049733,0.0031395129524013484,-0.023713343239504185
156,9.686756645604003,0.02941497765053569,1,0,9.267127068208268,0.5835751965660873,2.719189548182522,-0.016579002337302348,0.005581490321833621,-0.02661176056409937
157,9.72430477785817,0.02926052450885286,1,0,9.36203783327495,0.5825657064176718,2.6807946430172405,-0.011444396800118443,0.009735924357895179,-0.02723553957459365
158,9.792987633208039,0.029604536954067794,1,0,9.292926818093557,0.6456645135988833,2.6832102423229203,-0.004966054253147256,0.004172327873446321,-0.02182650250448356
159,9.8940918441714,0.03054025992356322,1,0,9.511142775067713,0.6381489601155708,2.6686809623588554,0.0007574726082445923,0.007420793309321943,-0.020410042277320864
160,10.026032578570309,0.03209337931041283,1,0,9.394420387002318,0.5930267318401325,2.614183017950664,0.00992345692813911,0.012366179086312119,-0.022258654744448696
161,10.184277595258257,0.03421323248315824,1,0,9.727912906157032,0.5859717877550277,2.765312294079039,0.014243323696943548,0.0098811669785061,-0.02102878328484072
162,10.36165528146038,0.03677674329479607,1,0,9.191482095601389,0.5738162973191852,2.5690744637461993,0.02029809128986645,0.01069001323019364,-0.019417729779204782
163,10.549062456472058,0.03960511885799147,1,0,10.134300968373234,0.7150342062954348,2.8953036478332206,0.02604031158760955,0.027382179233099015,-0.01387374223852663
