id,ASVM,GSVM,walking_nonwalking,normal_abnormal,ax,ay,az,gx,gy,gz
1,9.682117353831732,-0.017337510350910867,0,0,9.712419249695456,-0.0021642122853205857,1.3182394470256569,0.007893849393018914,0.003887025305312282,-0.006991130829973949
2,9.70381200004421,-0.012248556197844067,0,0,9.728163738901634,-0.01582319061209249,1.2921603629176373,0.006869851262472283,-0.00040687206292411776,-0.008482855720200915
3,9.748270438869866,0.0011159330728114905,0,0,9.705039605708599,-0.04142279712058378,1.3079541403568578,0.008739172560720918,0.00873359232922675,-0.00854056614624706
4,9.815752998105602,0.024504055820640316,0,0,9.591090106947773,0.011079195386267546,1.2113414428582168,0.007405962508259076,-0.011052168240891235,-0.00931324869058382
5,9.903375084050648,0.05909043338013649,0,0,9.388097064262075,0.028092159773117138,0.9812935249586063,-0.011341448999021812,-0.021932765507052143,-0.004274314044139899
6,10.00484679060291,0.10524050322549848,0,0,9.471889496299804,-0.1389874450768773,0.8777392324349204,-0.024012982992896257,-0.06776788206219628,0.0005481943743137579
7,10.110770223189455,0.1623427155133934,0,0,9.68346994088675,0.07912939629090594,0.8457418985437084,-0.055213052010278596,-0.09455687304203503,0.015604318624165678
8,10.20958146242922,0.22874475845936118,0,0,9.601803701190004,0.32269117678669634,0.9318156021923991,-0.14611477568925135,-0.0866376215064655,0.02920042638123719
9,10.289081191010075,0.3018192311092969,0,0,10.18007299179914,0.19129407993432218,1.13386225187382,-0.19471294619945717,0.023542530489481694,0.05769076852407668
10,10.338321063104264,0.37816720286275374,0,0,11.239295687413506,-0.2584494377998308,1.211175760218081,-0.1699039154679143,0.20522227548067665,0.10661712907640661
11,10.349451265146518,0.4539451018067811,0,0,11.7634022730722,-0.7687994212631337,0.9848745039563259,-0.13797228883365548,0.40216427445423936,0.13636036551909198
12,10.319062563776813,0.5252724040983922,0,0,10.982266335818629,-0.8648464792992572,1.7339195306888873,-0.131134923070441,0.6727209416444132,0.13746206342074654
13,10.248648657038547,0.5886504207030955,0,0,10.029062055866936,-0.5517963672161346,2.1270378787599906,-0.13320978154940624,0.7175229273887911,0.11860026870103768
14,10.144081211138019,0.6413084486430741,0,0,9.411597616848068,-0.34294352631461505,2.2277612457840084,-0.1779849438949612,0.8280935583927898,0.06511290431760464
15,10.014330394284352,0.68140548283236,0,0,8.728636053172005,-0.22159526657441847,1.982270124368253,-0.22953755382333813,0.6877296815073075,-0.03512394685631206
16,9.869919051414646,0.7080559005945132,0,0,8.548960583143447,-0.12157986973249904,0.8874507253078455,-0.25894426639573054,0.5912922131882519,-0.1403612168447341
17,9.721651023133246,0.7212030092845686,0,0,8.467505787730813,-0.7403156918292763,0.5453167576285297,-0.2672948577554861,0.48023028228386616,-0.21721269356752237
18,9.579978716657038,0.721412686281926,0,0,9.702640436171862,-0.926030995623652,0.3113672199617171,-0.1331321367482164,0.3654415601588371,-0.20885779642671887
19,9.455034908813865,0.7096798698859349,0,0,10.843622249881431,-0.23036480509026644,0.9970858626704383,-0.06360330730249912,0.559689623617144,-0.1659383533511781
20,9.356984613632008,0.6873234808482733,0,0,10.447565028653768,0.7374577069332439,1.9039549791895363,-0.20662506324316482,0.5551136226117624,-0.19884037635411547
21,9.296128380865735,0.6559958669211717,0,0,10.041405271563839,0.8459137406321627,1.6013390670281162,-0.4157732709878253,0.5458881643683107,-0.3083885304361731
22,9.282231670052767,0.6177710572905594,0,0,10.111279099011652,0.19822984839562255,1.5290251147732379,-0.46218596923594807,0.62524976287803,-0.3725202146396674
23,9.322854589347179,0.5752290367930695,0,0,9.721583677125155,-0.36278387457866645,1.73502237915941,-0.33223169577921996,0.6586458231373326,-0.3276969254958664
24,9.420887211952754,0.5314427306771203,0,0,8.61704323018047,-0.34842349881020696,2.0889161681993778,-0.13156348218218866,0.5503604263224172,-0.20476501107155634
25,9.571913527267537,0.4898062685337377,0,0,7.312348979023341,0.25529334959325806,1.946597976416805,0.01132201358044012,0.48216145562669194,-0.03286904199551165
26,9.762310316291064,0.45370314683689034,0,0,6.215364149340111,0.7790943722490323,1.9386351132930122,-0.0006831649052630816,0.2643275560108715,0.1434925226088748
27,9.969013252556154,0.426073322616555,0,0,7.3237569464702315,0.8989048260332733,2.732326684287206,-0.04106315006498404,0.19895378952373624,0.27863484847019115
28,10.16154918885882,0.4089736347230318,0,0,10.379981012059305,0.09592991574221658,2.2709847086402086,-0.05343341397451648,-0.3005565157752051,0.2618556331991599
29,10.306269309291926,0.4032279477383607,0,0,12.565439828887433,-0.06292322240502549,1.324369409466737,0.0129743598954679,-0.3753522644052046,0.13415199019274704
30,10.371963141643775,0.4082424547800643,0,0,12.227665956919006,0.05829521701746791,1.2208110955643903,0.05918847811102404,-0.20858152558636484,-0.059023924226960005
31,10.335544828128537,0.4220339034272041,0,0,11.476110351608826,0.0367482164975148,0.9562954281923634,0.1212811281595986,-0.06010524614690427,-0.20852520190419677
32,10.186507553291943,0.44149020968720676,0,0,10.592027685290098,0.22190294112323133,1.0964233667281515,0.25045870040530777,0.15292866702646365,-0.21480732408943493
33,9.92927551491832,0.4628479193230038,0,0,10.447397064213604,0.5801210779547566,0.49708487072636526,0.3312091431965902,0.24479009605163382,-0.17964506739565872
34,9.58318091567315,0.4823256345386052,0,0,9.57957246246277,0.7470516508461937,0.45523653730895935,0.35602304317205624,0.5982563584453886,-0.1437549173223655
35,9.180315349757171,0.49680788210530213,0,0,8.367748858647143,0.6336658753817188,0.9367338803105025,0.3744134407390882,0.48551873829078834,-0.10972581598169609
36,8.76184889223258,0.5044500359912926,0,0,7.809681669497349,0.36052830178505907,0.44331892165856224,0.4014886281209767,0.4224433943361369,-0.05568261002831367
37,8.373564700223573,0.5050845006780937,0,0,7.556394341750746,0.23377171371278072,0.6041944460104732,0.43704554078416535,0.45765945983710593,0.023638111559017027
38,8.061328178291589,0.5003467803129897,0,0,7.786850090882488,0.18629953667360444,0.6718310508302606,0.4239703562670205,0.36361122686616243,0.09991139492968788
39,7.867025183360305,0.4934911640102294,0,0,8.138956706867654,0.2328230322711416,0.2856501763296462,0.39615905776832727,0.3050812735650573,0.17502065764849817
40,7.825242413329789,0.48891543910962476,0,0,8.136654764067858,0.4933977367206113,0.27429873330825566,0.42716522202883284,0.19686887691332097,0.2533975376255524
41,7.960734425576156,0.49145617886222365,0,0,7.838878931555612,0.5583176223565164,0.34926806271896943,0.3902978008738834,0.14882468352744518,0.33328848446791615
42,8.286600342521965,0.5055494980537969,0,0,7.9879317246678285,0.7685640553695186,-0.05363904240794426,0.3027580309721891,-0.008994731827025988,0.40027443501465965
43,8.803075524962082,0.5343771974352671,0,0,9.056719437629594,1.2596382642272446,-0.5653341812521632,0.17936271309575333,-0.01614785321886423,0.39866474088019843
44,9.496871157465337,0.5791348180667802,0,0,10.084583602859237,1.5661675900237928,-0.12469468116593974,0.06400204255970136,0.06271205292467658,0.3162514679304159
45,10.34102715237789,0.6385616109467821,0,0,10.562085910316245,1.9639145034807617,0.31535427987026887,-0.07015027381339323,0.22463422633622498,0.21621841543829204
46,11.295296934102034,0.7088522145854577,0,0,10.571842937703382,1.946819463289813,0.2708366724963602,-0.26827176967437105,0.278581898612318,0.07535736238958514
47,12.307181705575431,0.7840154875857539,0,0,11.129268845785727,1.825605985514667,0.6266362660402925,-0.5061568522118751,0.38956652327753494,-0.12226324285289308
48,13.313838446907356,0.8566578649261122,0,0,12.52616616416443,1.7889920267937447,-0.5382724657332412,-0.7758939587417389,0.592163252304123,-0.37000016638861855
49,14.245106370072968,0.9190660059646818,0,0,13.582615842289359,2.225065715303859,0.48378630915204474,-0.7016049636717452,0.9898543519583376,-0.5591786059815413
50,15.027773486156416,0.9643822874663724,0,0,15.249046027152039,-2.4370459138759446,4.823873953261436,-0.43789896480187057,0.9184437505506424,-0.7293198294023198
51,15.59098315818651,0.9876427470604885,0,0,11.642696488838215,-4.830314004481375,4.142731262223775,0.6517844035189432,0.09826458700552551,-0.6097340563462149
52,15.872455972598368,0.9864908184353248,0,0,12.68629747233513,0.11288880508338803,5.885545943067933,1.0816864768185555,-0.5383521087041471,-0.3384919955130556
53,15.82500145089995,0.9614661270663277,0,0,18.11883002714496,1.7678303327670881,4.343685665641817,0.7157318287915174,-0.8637694508428501,-0.2541525373644884
54,15.42256714283456,0.9158575625810114,0,0,16.805696177355674,3.003662549558781,7.144702020284599,0.8668001791882263,0.19140833057399884,0.04962206726899849
55,14.664868165641595,0.8551846631741605,0,0,12.332414143736495,0.5263660134818265,9.707906125196157,0.3590762381199419,-0.40667130433327825,0.190727371269405
56,13.57967801518567,0.7864286305970579,0,0,11.623906775689036,0.5963914657700398,5.627533996743812,0.5134414635289626,-0.12066430320087745,0.15445083322128852
57,12.222275542579862,0.7171645436391028,0,0,9.282098999782816,1.2192707336385222,6.468158339873595,0.6009338639860515,0.476618790067331,0.011925950693887983
58,10.672140143861245,0.6547353410151446,0,0,8.892086192107275,0.392259153872108,5.594726533060893,0.5120333094792702,0.12430463903523788,-0.01694083909859923
59,9.027421984884368,0.605561527597275,0,0,8.346436874880265,0.20817507489506526,4.263395367982781,0.6361523331778447,0.19978962395847938,0.09945583539589352
60,7.3978407432868645,0.5746255774885055,0,0,7.92849390289106,0.5025090143637735,2.5872162659453974,0.5397345432842665,-0.32540792472953073,0.2682425378453691
61,5.896613063494984,0.5651315149209044,0,0,5.852025520124993,-0.037966395524715854,0.7111048045181699,0.4499323483216177,0.042872218728224575,0.3802195215408444
62,4.631973408809284,0.5783262505799658,0,0,3.2429757214211614,-0.7396243671876609,0.4247582469981479,0.38477989699289933,0.041886269128705786,0.38676068913346673
63,3.698905683894367,0.6134752653301538,0,0,2.737067540315665,-0.5736914228038247,0.2117123031358572,0.3483846129805039,-0.09432274071893011,0.3722612481005082
64,3.1717572991435534,0.6679988680933738,0,0,2.3051339697718247,-0.7571839830619944,0.8803662330491691,0.3258721311839398,-0.07591621002470186,0.36149487275853726
65,3.0983373008623727,0.737780694160286,0,0,3.2253551530692044,-0.9341384351939291,0.6270428696575262,0.3388324302112473,-0.5756632909946923,0.3037073711102267
66,3.495884328784819,0.8176467816861641,0,0,4.453454191247082,-1.3070084133008677,-0.06538209593124439,0.40573303542279016,-0.5709777930754623,0.17215683071498158
67,4.34904362652437,0.9019828826412106,0,0,4.7347928997574344,-1.6556885220850357,0.08371717967291223,0.6114045289615833,-0.573429281027409,0.017535195395175954
68,5.609867342883384,0.985420029127017,0,0,5.185538406186712,-1.5265160468385435,-0.17044433881858911,0.8017245868733136,-0.7608408198475004,-0.08200778741724576
69,7.199910311515952,1.0634849971980886,0,0,4.958427174204421,-1.2666945273143475,-0.0773002986650176,1.003585594370637,-0.6500870772486206,-0.1597037368175142
70,9.014642320368733,1.1330924323779192,0,0,5.4752271940939945,-1.1196130470430383,1.4654214169100555,1.20893692157605,-0.7441894771489298,-0.26078298948302187
71,10.930426083039098,1.1927594305480513,0,0,8.128746154207597,-0.8691593971217806,1.519709006690938,1.233417228774948,-0.9667402378895008,-0.20947837040880346
72,12.814013878425545,1.2424624844041134,0,0,14.574987525821538,1.8859358058180598,0.19909776925068912,1.3807971225063098,-0.8291912493518733,0.14057505647211446
73,14.533875711400247,1.2831362456278752,0,0,17.07163302015785,4.534194581885556,-1.762973627358831,0.93207430511533,-0.28259281843467265,0.4478073057033686
74,15.971954837499592,1.315923222836051,0,0,16.83049550047834,3.590243723699307,-2.3627605233942734,0.30117853003805306,0.4143530701640846,0.5691197961844208
75,17.03406672127636,1.341387905083131,0,0,17.04102628504085,-1.957293891462435,-1.9661099496916261,-0.44161634788256293,0.3365608522731665,0.4857536668590451
76,17.65733790400977,1.3589534279192446,0,0,21.37376106075295,-1.4926919772879395,-0.7398050007777169,0.46391526985680825,0.5673087573714424,0.6339946097901373
77,17.81369162132142,1.3667644800104195,0,0,16.289536415502848,9.803921885640227,9.700476037004403,0.09142290762713093,1.1679589855606178,0.9176265333747675
78,17.509177460166928,1.3620400632242202,0,0,9.444096072688675,5.386942431658367,9.681389476950475,-1.0871794188298887,-0.9343288142710603,0.8511679660326926
79,16.779785286235107,1.3418189903625939,0,0,10.48246018672134,1.3137533244326525,8.33233004825259,-1.1166834116959847,-0.24818448704971205,0.5610030381123577
80,15.685134198425493,1.3038911115637752,0,0,8.889163198790301,-1.762750682984101,5.894039555740022,-1.6437904483630064,0.08100115552747454,0.18017316093997657
81,14.301746456335461,1.2476779253797574,0,0,12.695339811478188,-1.2592591215696363,5.598027479661821,-1.282049712907068,-0.48217563052425105,0.02771963004560215
82,12.71722663729347,1.174859681898792,0,0,13.955626466361718,-0.5981098165345574,7.546692808871038,-1.357522491918381,0.001944274470164417,-0.09334869790330862
83,11.025745547298175,1.0896106691433185,0,0,11.604632591454058,-1.4262694349339045,4.895321381982195,-1.2582128516779258,0.14390398503606863,-0.25550565462701225
84,9.324358630133316,0.9983810901406198,0,0,9.682655656378152,-1.3173800951758712,3.496209386413995,-1.0599891199034643,-0.14223618871145724,-0.3443212474690108
85,7.7093727598392165,0.909244535605216,0,0,7.782239776692634,-1.4761206215957376,1.5874531088584405,-0.8324015569540497,-0.057513061654251976,-0.25641784354260677
86,6.272253328045721,0.8309070609414626,0,0,5.416091546127472,-1.3082341077615935,-0.19254183500676686,-0.6829010596800698,0.23070586274939842,-0.10724299913558533
87,5.0950931408227635,0.7715367248739745,0,0,3.424925884091256,-1.0269097271064611,0.48493264460456414,-0.45358971839601336,0.5278626745138645,-0.029240062617777104
88,4.246077959225986,0.7376090400095703,0,0,2.8318500379097227,0.7700180518804025,2.56855210532483,-0.21388682381658672,0.42032266633577947,-0.05714593617915472
89,3.7755106245787196,0.732966315215319,0,0,2.2925504811861885,2.3294015563612653,1.8035732076546738,-0.3024653445182588,-0.05984181185022597,-0.17717034985311
90,3.7128235490566808,0.7582562915672229,0,0,2.9507417917886998,2.493218221338271,0.42966137326193726,-0.49539536127924566,-0.2981478067648874,-0.2332125683991619
91,4.064761480020695,0.810850238434091,0,0,4.20517856386589,1.6841429182060563,0.6812113777766107,-0.6488235761663298,-0.28925490931138,-0.19160572220604863
92,4.8147133990588005,0.8852511454633313,0,0,5.304169693323346,1.0009908799094718,0.16897354195211203,-0.7285035743920962,-0.5747483885503544,-0.11447831658468949
93,5.923101996875819,0.9739091592157674,0,0,5.9317805907895,1.2786607184542769,-0.4187552550840502,-0.817497743649109,-0.5445400566703577,-0.01196258555843638
94,7.328796617357194,1.0682890835271464,0,0,5.829681568123827,1.4329906307853029,0.07817955932507496,-1.0278254241500746,-0.5896814233614462,0.0443610279934948
95,8.951631029625965,1.1599974432338778,0,0,7.572686943364058,1.4659895364447733,0.22877300783671176,-1.2529886479152479,-0.7555952331582435,0.018849901752116264
96,10.69616994084562,1.2417745600617875,0,0,10.282472479197722,0.9815010803673241,-0.5015368932984332,-1.6328775158546074,-0.3059585093499081,-0.10445692408207416
97,12.45677954533319,1.3081899684483482,0,0,13.671981952219287,-1.4777997164825931,-0.9552572229690358,-1.6939721032390211,-0.4465691277276245,-0.358276709904259
98,14.12382800083057,1.3559528873832603,0,0,14.611328369758828,-2.0910805798225995,-1.9742797284970603,-1.0583054311043294,0.18234320152956215,-0.5177446741121164
99,15.590614189574175,1.383860663744608,0,0,12.889888824606432,-1.6134077079183629,-3.117388871423485,-0.3836984887930336,-0.10846498667354962,-0.48163051886373703
100,16.760527418933382,1.3925228324603967,0,0,13.297876503401307,1.435017371752561,-0.8333840428752401,-0.42879683415750186,0.3233079491978322,-0.29409652138365433
101,17.553922509931514,1.384051038174967,0,0,18.881634937381193,-11.223236166812066,12.865887578297462,-0.8878711203054062,0.6231729866062766,-0.7560250043923143
102,17.914113218343164,1.3618448147755353,0,0,10.097156833677355,-11.695359331781162,13.107478648368758,1.1265488625791626,-1.2678842282140155,-1.1174698376710903
103,17.811826038558927,1.330455145713834,0,0,7.450424288842717,1.7844837877991941,8.254441711464585,1.844325643899491,-0.6247067423601024,-0.8003071242762733
104,17.247677057734837,1.2953755399837594,0,0,14.06482445179726,4.078452033004252,5.272677622306261,0.869782403300672,-1.5819082868090715,-0.4317885461036418
105,16.252668556029526,1.2625981943431395,0,0,18.863238001940886,2.586339492533786,2.182157911245525,0.5867590605411017,-0.44088290613576103,-0.19057328313902425
106,14.88689223709405,1.2378955160735359,0,0,16.533298464194676,-0.8990122311139257,7.744562635354444,0.7567128064060906,0.36500019221001617,-0.130062300848763
107,13.236415059828369,1.2259568679464812,0,0,13.025287786247285,-1.4469438537549706,2.898810667860037,0.6900898112162852,-0.3480950144837987,0.010443582669310614
108,11.408148197946558,1.229610807472632,0,0,10.354329110214845,-2.6734436329252644,1.8390655557198448,1.0988851326216293,-0.06446377595791425,0.08326888359642526
109,9.522748691753044,1.24934165692104,0,0,7.646866250268648,-1.5338617428325687,1.681131977900022,1.312287441118591,-0.19806479819031259,0.1625163277471431
110,7.70610389423201,1.2832024291632866,0,0,7.3490261135138235,-0.4245670972709687,-0.25854701129168917,1.3384135728069955,-0.14604423845149583,0.23818596874727693
111,6.080277342347931,1.3271102249983893,0,0,6.1134456525177425,-0.10118837624271283,0.11659591308710648,1.2875029428998475,0.4313399017075938,0.40335815777865175
112,4.754780685090417,1.3754391196312719,0,0,4.366146773314265,-0.6137860415186047,0.9576403016274516,1.2093542786510032,0.2530262074481804,0.5269281182450068
113,3.8188191326888146,1.4218074748117777,0,0,3.9896767311240895,-0.5204604036436242,0.46451748299559187,1.2446477368274933,-0.08474916258478676,0.5052741653752737
114,3.334940831246912,1.459968337045529,0,0,3.554082439836338,-0.26212900830668484,0.0314514457284973,1.3310519170735702,0.03415762408738443,0.3796038513471266
115,3.33439831380329,1.484724509229841,0,0,2.994267985671626,-0.03224182633915305,-0.3979053423015912,1.40513832253088,-0.16896218460523776,0.18635153388473058
116,3.8144932275458188,1.4927879075636927,0,0,3.196426119381514,-0.24605197009314206,-1.0059068359326857,1.4741002097600926,-0.2972796380698443,-0.045489802678883966
117,4.7381734468535255,1.4834861755205841,0,0,3.5799560696046067,-1.0470617919398044,-0.8810123521892517,1.4985823885279508,-0.4422385225168481,-0.22055251783221996
118,6.036123432182115,1.4591993835148105,0,0,5.100697153181684,-1.2532319481278675,-0.9497242468175735,1.6112616478698731,-0.5337844399785491,-0.30631462658905523
119,7.611480687339764,1.4254015362137091,0,0,6.800731614618264,-1.2060853372679976,-0.9832728734957389,1.8512536690578754,-0.21056316274948483,-0.37816533641186334
120,9.347103555372783,1.3902025493699663,0,0,7.6039585297297325,-0.6361750863165085,0.6808861384166438,1.8862226007374745,0.11729733155614235,-0.42802982180114996
121,11.115024403642359,1.363352990813244,0,0,10.7637264773,2.1837960938196224,0.6731470693032544,1.7569536826482106,0.3476558402693659,-0.20736037331346133
122,12.78737797794122,1.3547942772423294,0,0,13.245032698609622,6.342262197720727,-1.231232323334371,0.8328588284767439,0.0953412697420763,0.13366925780659178
123,14.247754194423077,1.3729928046691653,0,0,13.630916291588354,5.035910874487926,-3.2310589188263275,-0.14945353265652994,-0.3265741625470848,0.2424120456633414
124,15.401698393293254,1.4234286273241274,0,0,12.885731948856186,-1.9782308620222135,-4.4654370945838,-0.6300659904136198,0.2238579394846804,-0.0198545333600639
125,16.185066669974397,1.5076362272255885,0,0,19.24565325874379,-2.53412892359598,-4.042993935548887,0.11985578416591915,0.5407390100538283,0.11295673651822927
126,16.569119082731188,1.6230686745860765,0,0,16.179357634922184,7.583646709333245,8.407413764117482,-0.05075495076043859,2.2239512744933227,0.6105511591268936
127,16.56154610581471,1.7638112920545295,0,0,8.962181437878472,10.147969959239866,16.780479575900277,-1.5351993814751088,-0.9281314149717768,0.9845827026120865
128,16.20314960490595,1.921914504185408,0,0,6.620889281623059,2.9823319714274437,5.048338179811664,-2.2495949786849,-0.767049684322512,1.0189778429990608
129,15.560700345738109,2.088963544210089,0,0,11.491495355137808,0.7197753225991819,10.391033629667831,-1.7357375583875034,-0.5887904043201984,0.8536048249004464
130,14.717307120808655,2.2575032429219872,0,0,15.138141839433679,2.803102982995298,6.513248110139652,-2.4848133446315677,-1.0397960264877235,0.5641877720674279
131,13.76201002896261,2.42204884751391,0,0,8.681977714481462,-1.9905128495078857,0.45075960322614494,-2.6341578807455575,0.6383821328677758,-0.3547141693216323
132,12.780129863104134,2.5795638978276787,0,0,13.76657403042377,0.1515843479146529,2.883543562517744,-1.897808531489824,-1.3698898899402725,-0.6337504874389153
133,11.845449023394332,2.729425713014738,0,0,10.98864995997038,3.3245023500813247,0.32169528218198723,-2.087620605047195,0.32223045677254786,-0.570321827063839
134,11.014835104088455,2.873006086899529,0,0,9.234682969084025,3.8982147681423776,1.5774958992361492,-2.681886256951356,-0.2850804160410982,-0.48144095900069533
135,10.325518896577055,3.0130445956341516,0,0,9.602500825254774,2.1840336538407503,1.409543478631838,-3.0538502469345317,0.05467338948114447,-0.4848728164091863
136,9.79492205282888,3.152969553281273,0,0,9.442105514610045,1.859908274891909,1.8190076537759334,-3.1549854011013907,-0.12555845742146177,-0.6716219268109886
137,9.422698575808397,3.2962540880501674,0,0,9.480336061689615,1.6368281254653403,1.1726378948136296,-3.2457575225881423,-0.0652745097644282,-0.8688600153204449
138,9.194477790876455,3.445835358287565,0,0,9.038550127910588,1.412818201860808,0.9987388232910317,-3.333865268987049,-0.09857210317315625,-0.9527217076722441
139,9.086670222924718,3.60360423728197,0,0,9.129667755916353,0.9419942343362405,0.7775003084141289,-3.4597643255107267,-0.206932708375579,-0.9607663623164858
140,9.071644403719247,3.769982660555817,0,0,9.358872662151482,0.9720644074704832,0.4685723261907913,-3.574999099685932,-0.1601164611895855,-0.9740805348571672
141,9.122597578411673,3.9436231345674937,0,0,9.899814374798282,1.2596384475482898,0.6181710318058841,-3.755523840899467,-0.10159423901415196,-0.9643811746653396
142,9.217506598626441,4.12127395419666,0,0,9.697831782921094,1.701570498917013,-0.22216397591019424,-3.97642062116479,-0.10868248639393409,-0.9387263559717367
143,9.341661007838205,4.297849629037807,0,0,9.689083324988266,1.8308345021004524,-0.7079996071576826,-4.122185519641044,-0.08310317155141812,-0.9372450309208542
144,9.488465586529685,4.466730652529922,0,0,10.016771399751592,2.1017757860956694,-0.7867729802849981,-4.195031741317498,-0.050228753552736476,-0.9128301374806036
145,9.658448507546353,4.620293457014641,0,0,9.823824183052354,2.006686808499265,-1.2390265788092052,-4.406737527622339,0.07639676991121387,-0.920181101060118
146,9.856691491378653,4.750640837438375,0,0,9.606673827700392,2.0319149215160754,-1.0922414434029502,-4.680191901838795,0.1360184283509596,-0.9876042937532434
147,10.089172888423148,4.850465055497354,0,0,9.159166997025878,2.810093137226001,-1.1551638924448413,-4.842761446211075,0.05682101264514341,-1.0850709299638661
148,10.358745028399063,4.913936923980352,0,0,9.282886329874493,2.7621169212394547,-1.8944466021175679,-4.887591272615731,-0.059195716046485575,-1.1263465308350258
149,10.661606659248289,4.937489284454102,0,0,9.02848213344443,1.46237094232711,-2.0112676820968,-4.968380330914416,-0.01607641705233726,-1.0444467267210331
150,10.985134991960697,4.920364813266467,0,0,8.255007164183175,-0.6665130062871591,-2.1202093509523636,-5.0466523842540605,0.03663378430877142,-0.8966041118641643
151,11.307775251091508,4.864826997100381,0,0,9.457740276244849,-1.7312109437965666,-1.8273605089638587,-4.941191917351897,0.16450155785499065,-0.8361494649519908
152,11.601322279711738,4.775982324896112,0,0,11.045280727296472,-2.4134241327653556,-0.5039610718584847,-4.679690967846735,0.21652370053237102,-0.888623275685699
153,11.835383129236135,4.661221943209076,0,0,11.771211620498848,-1.387665909177632,0.21613340085753965,-4.458404393351806,0.22293410702037741,-0.9855065886175558
154,11.983191759680462,4.529349969814941,0,0,12.667558702873007,-2.5240531559894497,1.4260711341883099,-4.529398060725706,0.7227977134548136,-1.1612852983829984
155,12.027444484632463,4.389510703783757,0,0,15.346252001193607,-5.215799055355091,1.68604941381203,-4.332476075876734,0.7484004909649533,-1.4037017102209506
156,11.964620322117284,4.250056739784918,0,0,15.282251565842849,-4.370181882076723,1.0870786968246224,-3.64578217168604,0.7557624270452079,-1.4608429796466902
157,11.806478351795393,4.117524767096769,0,0,11.764174468977155,0.0960030800237254,1.0657150433696647,-3.126802721568653,0.6466127660237844,-1.0576471882758247
158,11.578122063781088,3.995902476059804,0,0,9.87528609191724,1.4881100806709595,-1.2015027838373054,-3.5427553206558327,-0.08634516619110374,-0.5421970870421576
159,11.31300556252921,3.8863459878357585,0,0,10.150593473351627,-0.2963017943470267,-3.0070592883598635,-3.8995775975966698,-0.19991803221695065,-0.37324582972680603
160,11.046125597007777,3.7874140258487747,0,0,9.19911365805485,-1.770939442654239,-2.5656990608266734,-3.9690475384425805,0.4893901499812692,-0.4852965698177217
161,10.807050381229455,3.6957469056754877,0,0,8.026394843919505,-2.521993548350528,-1.9770141901896268,-3.8320546776852575,0.4546276727538884,-0.7683634728553983
162,10.614337721624556,3.607004077774342,0,0,8.961832167096398,-2.2370457850805257,-1.2129074146386418,-3.5533747926280186,0.2737841346729285,-0.9901980414596037
163,10.472463286415394,3.5168347239222855,0,0,9.305939884741955,-1.2106767417090527,0.3653502172944132,-3.409567910036596,0.3411649245784361,-1.0539986935287933
164,10.371786590472565,3.4216870864096367,0,0,10.469846975510155,-0.9714421407471555,0.728468685689107,-3.4308962352030483,0.21171688997132826,-1.0449287046013944
165,10.291450546922013,3.319325092007966,0,0,10.006916929364625,-1.2484718326970077,1.486515665309564,-3.358938888452368,0.5522702501991444,-1.0491070878682929
166,10.204561587205909,3.2089860730718303,0,0,9.935514263992879,-1.850525716517241,2.94091762635905,-3.2724765669036655,0.2778230500742054,-0.9689254697369264
167,10.084628502455177,3.0911777192619154,0,0,10.248128213585328,-2.5463578452721327,2.5047230116749337,-2.986769158402174,0.29475033321931204,-0.8053183689646556
168,9.912074938719156,2.9671827909613433,0,0,9.62420958486612,-4.545875539051657,2.5352966091213913,-2.7583466662430043,0.4089233322852229,-0.5809176564232885
169,9.679655869676283,2.8384113913866273,0,0,9.627391443932156,-4.179403160877542,3.269310787799742,-2.428759144104728,0.19183927128896908,-0.41940354450435113
170,9.395774012687877,2.705790209540365,0,0,9.5260354266905,-0.8487341365270848,1.9788035695625865,-2.1164697806773063,0.15784826733702073,-0.7879114479729012
171,9.084988751206698,2.5693793589989453,0,0,11.273062796622721,1.1715322929404381,2.379652711201162,-2.043494375491555,0.14570768722037344,-1.0066809685126619
172,8.785412005440119,2.4283469334908476,0,0,9.986934326878554,2.332153791797534,2.8379694891134615,-2.1433595428775947,0.5485461768488272,-0.8462066425193989
173,8.543173921132176,2.2813211173313874,0,0,7.715805045026297,0.7397346442458516,2.1955569181659738,-2.266114677014302,0.7940114901203164,-0.7364359009212341
174,8.404704269336277,2.1270169226392115,0,0,6.499648673367268,-1.2181036159655845,1.937240755306281,-2.256769312381582,0.6644342754696503,-0.580215395875575
175,8.408132441336114,1.9649464000604921,0,0,6.077327375503371,-1.5320336095793208,2.226411380731506,-2.0219581861270672,0.6878719175932518,-0.43576513608589146
176,8.575469514932234,1.7959990574531681,0,0,5.675833192211474,-1.4885392840776583,2.462973355218381,-1.8001006800627148,0.6638319626390208,-0.2464855718011549
177,8.907218531196758,1.6227226732113345,0,0,6.115902844205628,-1.1978380739123453,2.4757783399930147,-1.8188103871850854,0.3477033068390683,-0.06334012053576737
178,9.380635953121722,1.449217691492999,0,0,5.7824573520332665,-3.1659444221066106,2.1628020309740044,-1.6945506627931943,0.6756690896980573,-0.093520861664095
179,9.952146981111685,1.2806535413219202,0,0,6.991828536968717,-4.329118224010129,0.9173967851733051,-0.8861657674378132,0.3407762592364451,-0.4159562446406626
180,10.563538936958965,1.1225080233116258,0,0,11.563106307394929,-4.1794039135102174,0.6640040309732737,-0.17312229382496258,-0.17981675168902403,-0.7150151828890573
181,11.150672906608913,0.9797073690723276,0,0,16.07809575182199,-3.025978563256009,2.153193899996892,0.020302437026889823,-0.5475645303264091,-0.4875186265164604
182,11.652803049223289,0.8558775442610379,0,0,14.219830826710371,0.899948036591609,2.1818174294644117,-0.2371068346764377,-0.060128389904288065,-0.21140314589500808
183,12.020479228793258,0.7528828523418615,0,0,11.956946647196778,1.3630546651887834,3.579278210985202,-0.7703765904586473,-0.34467448715024956,-0.1672911746764991
184,12.220571970102325,0.670732726432328,0,0,11.295964925380968,0.10815295937673311,3.8347202925490995,-0.8871399904854534,-0.18997156218921643,-0.17322915582844797
185,12.237957517377282,0.6078222160196317,0,0,10.011373275573275,-2.841023164361499,2.557616684451241,-0.8528795381394384,-0.14314490817301273,-0.11425659768553613
186,12.074339724896662,0.5613882412375735,0,0,10.273470528622719,-4.924513807545356,3.213127253614949,-0.5722826035094079,-0.17368598885312975,-0.21007244987922716
187,11.745201840938094,0.5280453761023077,0,0,10.968667675774265,-4.970853718415568,4.246809990757935,0.07828107171545091,-0.06458475712140158,-0.278522742854454
188,11.275962447889942,0.5043026938967152,0,0,8.604174028350762,-1.9584015861880626,4.202201141562108,0.5689013718859008,0.03410003035783013,-0.10661127126848739
189,10.698268771657665,0.48701476291671003,0,0,6.301344611633188,0.288815063443039,3.604549090869931,0.5074559387150873,0.13713940233182956,0.05586169112812278
190,10.047156372699142,0.47374925709952037,0,0,7.544353220235363,0.5500759705175221,4.263348930116621,0.42629915389551687,0.06932009719730323,0.14159842816365228
191,9.359497836715565,0.46305804591590727,0,0,10.840692594095954,0.6309715271090994,4.555060801022616,0.3165036042376411,-0.08320742790472997,-0.12169956466268886
192,8.673678450624589,0.454634516417707,0,0,10.167847810062138,-0.012951818970075047,1.7385082833682932,0.31540784445185566,-0.06026810642467981,-0.4035872998915701
193,8.029920336617847,0.4493363060474308,0,0,7.944670520466933,0.4015018958590728,2.18434716376986,0.43521307475608284,0.2906383221602076,-0.44699569761573815
194,7.470433363738781,0.4490503259211313,0,0,6.881204572895681,1.015416837636492,3.09724039062843,0.4014611080906171,0.016746798088780705,-0.4136017747495785
195,7.038720018095703,0.45638342450679614,0,0,6.692792455194297,1.525572483608928,1.7256489916908975,0.3584061244507498,-0.3041673600777719,-0.2369691171463138
196,6.777712899561441,0.4741888137591378,0,0,7.128414535746703,1.990421347993128,1.4319733238650798,0.31379436300850655,-0.3313987439269038,-0.06360032276487305
197,6.726733467521169,0.5049834326292372,0,0,7.244720068973453,1.7923756372326642,1.721902836890938,0.2336624104999972,-0.26539219451806095,0.02041219942340612
198,6.917466929501044,0.5503556832574924,0,0,7.137645469993819,1.4347186072877918,0.7288710544179153,0.12800169785178228,-0.33070968292561215,0.05646857333958775
199,7.3693305479822495,0.6104846752610998,0,0,6.847108105577144,1.2900858524897005,0.5524296516888735,0.06842435216249958,-0.35182181111483424,0.11092625802094735
200,8.084827316190353,0.6838795183760903,0,0,7.150247289832594,1.2765715005665756,0.5648904556948627,-0.07721910382531563,-0.6167407036440608,0.20084253659585735
201,9.045678028992832,0.7674022165398301,0,0,7.900206300125502,1.457595349873681,0.49979688029725283,-0.25010039554763674,-0.6174006636147507,0.32485537275470605
202,10.210609758226948,0.8565748512515784,0,0,8.20265217486493,1.6001680226660322,0.6429606349759007,-0.6679354527280428,-0.3038936841863219,0.23800535351167093
203,11.515572467626486,0.9461112869908258,0,0,10.028527551973689,1.0540098715546473,1.6247167693801594,-1.0333008985401344,-0.14723028283892864,-0.05710691913040767
204,12.876846914470551,1.030570250186255,0,0,12.148710052668324,0.19533025106185536,0.46704228429980355,-1.1791440814491003,-0.19071995814825884,-0.37428485994049115
205,14.197040949556245,1.1050058174353898,0,0,14.046000376778766,-0.45467301610213784,-0.5042937757098385,-1.0588645358165916,-0.0623687306374525,-0.7185533249958811
206,15.373439533800015,1.1654964129864975,0,0,14.995995630785007,0.13951695567365258,-0.5359428704269142,-0.9125198548513449,0.09120429812463625,-0.8642874592171503
207,16.30769670397727,1.2094668780436046,0,0,19.28448759785746,-0.9529332785504011,0.9269357854895683,-0.6414984045237688,0.1448415247897257,-1.0724527556004337
208,16.915552132939737,1.23577330399748,0,0,17.785506028163486,-6.4160857801203965,4.286325464299731,-0.06738260037416292,0.7615955945760322,-1.1242094520214867
209,17.13521950972907,1.24458021620277,0,0,13.09292923011539,-2.478985527253964,6.39375496348375,0.6202909984604956,0.2856986809899582,-0.6798454278388109
210,16.93337046536356,1.2371077494434808,0,0,18.509502885890267,1.089362815260031,8.912476641220797,0.2327429255239103,-1.2359993592870124,-0.37015771775362316
211,16.30813213969739,1.2153519102640145,0,0,15.458646626126258,-0.6380293755391127,5.624583989893443,0.5383237618679089,0.19133039311276875,0.032367073200767246
212,15.289042778605008,1.1818753592389202,0,0,9.05149661751019,-1.1885827788200876,10.605022213366945,1.0588064150242267,0.23706770744496786,0.14176703857682393
213,13.93434943754391,1.1397227760435495,0,0,9.844935367757294,-0.2041379589864712,6.572157624371616,1.2090349820433905,-0.7244308549969894,0.11583963391920998
214,12.326331361764518,1.0924402958989003,0,0,10.725130641167082,1.3558641858278013,4.407517785935431,1.438481803649577,0.090830478658628,0.07417261986468258
215,10.565396300499462,1.0441049308886223,0,0,10.39470639604717,1.1541174276144572,5.6939457128024005,1.1686421157555336,-0.26901957231993784,0.11814292278214722
216,8.76348556764248,0.9992425568978774,0,0,8.739216826230903,0.8928655346730506,3.835720638365083,1.0940688009367558,0.22709205832089227,0.18458112883843997
217,7.037008707876825,0.9625513399372729,0,0,7.089148131500404,1.342100472250072,3.293800591132988,0.9268174650912887,-0.21040761096261146,0.21142159067055266
218,5.4993735940468165,0.9384267730039118,0,0,5.932314918437682,1.2185193155593486,0.8148327697124634,0.8781719839293601,-0.09936082947002917,0.27706721070438434
219,4.253289050749872,0.9303630942792953,0,0,3.1141838031673355,0.38745884855470575,-0.12419636823071101,0.7395942806695134,-0.09839924095493784,0.3593733347489597
220,3.3832874271477795,0.9403576147711062,0,0,2.7575176227558553,-0.5548477517933328,0.2197247017284011,0.49380167826868043,-0.17675533751508718,0.5004621224894998
221,2.949154125313103,0.9684625097808123,0,0,1.5396020543226836,-1.2918593758000598,0.4806270226953081,0.329223932225796,0.008173509651335474,0.6098366903442632
222,2.9810211413663783,1.0126127033045504,0,0,1.193286287603468,-1.2741001001739187,1.0671270398305772,0.3164176696463575,-0.29846578038250743,0.6172574189966964
223,3.476750516314877,1.0688089515745463,0,0,2.3400048640958637,-1.2690873844857482,1.442801269137611,0.5832382698258857,-0.5895135595189438,0.4893946760490201
224,4.401960532856545,1.1316573903606149,0,0,3.797583834598485,-2.05001627345999,0.9936593570840451,0.9252283370574185,-0.6157383115531833,0.25947738167705386
225,5.692726288159108,1.1951766270765154,0,0,5.234864898206172,-2.340264374543026,1.1865146995457674,1.2367036790082597,-0.5629545154527201,0.07189097307665965
226,7.260699903548896,1.2537057678450554,0,0,5.922966869040771,-0.45106652811264936,0.2684702152123011,1.292438233746857,-0.9266831657132022,-0.055169776252394886
227,9.000186375221226,1.3027064420746906,0,0,7.920954340694535,2.1411545181731757,-0.7574926678676538,1.158244574936476,-1.375921754974861,-0.022810753457572833
228,10.796553293817098,1.3392661367310932,0,0,11.557772428430606,1.4473375902077645,-0.6742706756644936,1.0181618140279216,-1.3084329214179158,0.1073105699950083
229,12.535187477857106,1.3621839581572524,0,0,14.206704899673527,-0.9293540934891482,-1.359031539475653,1.21410850979091,-0.19802299635772488,0.2706534282323585
230,14.110053123300172,1.3716391867410016,0,0,14.431870797407628,0.9955006646051969,-0.3451033116042761,1.268274926221969,0.09328804407398437,0.42480629319818497
231,15.430871892860376,1.3685707540806233,0,0,16.783938455702252,3.823344172109006,-1.8094057280347056,0.9260054020149602,-0.21896323534308224,0.5232729058226478
232,16.428132577140904,1.3539863236660583,0,0,16.08624183858361,1.802500386671766,-1.08295700911865,0.22729342206799402,0.5555622733201359,0.4639361623417648
233,17.055513112008143,1.328441992146502,0,0,18.588502065868788,1.3599235306147675,4.113142021003593,0.2990906073021065,0.5893816805259323,0.5548252100236286
234,17.289755962075628,1.2918790033766214,0,0,15.491025679517568,11.171169875621235,10.521748764428661,-0.3396987705565844,0.11009453878327576,0.8730154935357147
235,17.128530364073136,1.2438815721669236,0,0,7.082582280824274,3.284859044883882,4.824675934245325,-1.8028214627236179,-0.3701637440572719,0.7176867668534257
236,16.587317555554492,1.1842648623831111,0,0,9.521716494845466,-3.369951739479085,3.715572641482088,-1.3401063552351065,-0.7586936545757721,0.44107301836196305
237,15.696656311420915,1.113779506959802,0,0,13.22244709427897,-1.0248033781489017,8.75330950123416,-0.9133187335338977,-0.4494462841390744,0.26521540142166816
238,14.50079748528627,1.0346889033322657,0,0,15.498958807711801,0.31682920355564115,7.496710634888995,-0.993678466045087,-0.4254112478790686,0.2500066479388712
239,13.05786222587248,0.9510389767336994,0,0,13.317736776817453,-1.3352490422501724,5.798582755902259,-1.215019665155844,0.3997975177719394,0.1308549202756911
240,11.440531227106014,0.8685410377944894,0,0,12.449967096236854,-3.0985706787301175,5.786482400044674,-0.983151826851002,-0.21489724246504735,0.029795577685589495
241,9.73580395385617,0.7940773456530963,0,0,11.757943683015123,-2.4237507106977914,2.018881444354261,-0.5909087164342599,0.009143826790411121,0.04321783604549334
242,8.042643205065257,0.7349090071880653,0,0,7.745846056601507,-0.37926858702731825,1.1931671260565149,-0.41642037596060966,0.5515940422110911,0.08821290605197095
243,6.4670627162245715,0.6977212691186334,0,0,5.318174631689967,0.39784703546706524,1.3122619626820122,-0.5315475121492093,0.1547756854905465,0.0028598550766097686
244,5.115028828797765,0.6876707604405113,0,0,3.7276210046061755,0.7415757149247152,0.8397988431241054,-0.4374499970820085,0.3364108513933351,-0.17344079559993764
245,4.084133540409797,0.7075929436390451,0,0,2.966895328894665,1.7010416513974151,1.1685567226632307,-0.37599501311401606,0.34250640337584565,-0.34708844551443224
246,3.4552041701626615,0.7574941789867616,0,0,2.451589976347549,1.9295093743746774,0.3884280676783698,-0.44823231642749106,-0.1192555989879032,-0.44883369659272465
247,3.2848880930326096,0.8344069829628568,0,0,3.1272726071678103,1.5237620421183575,-0.14602188231105856,-0.5403778999387363,-0.23615462877959478,-0.397410295252263
248,3.599974665870281,0.9326383843932121,0,0,2.630206206681004,1.391603365098301,0.5016321546355583,-0.6060203454187201,-0.02246300290426505,-0.34068153647962723
249,4.3939623573369895,1.044390725230614,0,0,3.1859286866209575,2.092434750871797,0.6041849624167699,-0.8143019764512947,-0.3193577955634201,-0.2904891418910163
250,5.626202796997925,1.1606785890592057,0,0,4.317336112166943,2.316573744815425,0.9226094073327556,-1.1325514789874649,-0.26576592806597266,-0.1631510317729172
251,7.223810321635956,1.2724046635321635,0,0,5.320437432672969,2.2863586789311903,0.9444056325109199,-1.4952594389836122,-0.6915028932125434,-0.044853139749903743
252,9.086345048763903,1.371404229662747,0,0,8.045757972198738,1.7425623644908272,-0.9583388446662187,-1.8263459415935732,-0.8981420975595861,-0.03522691650257606
253,11.093017638059072,1.4512518317108314,0,0,10.238207208843063,-0.17492228867411178,-2.806305885012024,-1.9248307470886492,-0.04493636207073132,-0.21875002664620516
254,13.111831392707806,1.5076762543974616,0,0,14.632860451844941,-4.621274352777542,-1.6087933504529512,-1.4768996479168437,-0.22141081356325987,-0.5578717474047097
255,15.009746913298017,1.5385570050237507,0,0,15.761684833676231,-2.9968575360222327,-2.924425410565266,-0.5888461090844823,-0.1115643981098611,-0.6413577800599222
256,16.66276953463873,1.5436335664728889,0,0,16.639504853491236,1.2682541437780486,-4.061561535598542,-0.3231226018660445,-0.16517957537531855,-0.49096680915140384
257,17.96493903782946,1.524164101570861,0,0,14.075467246251087,2.542894044448516,-2.822171145035971,-0.3110769875862873,0.9101317993449357,-0.30520758292439004
258,18.835491369585466,1.4827487769386485,0,0,17.069563312713672,-10.290890891663668,10.74042533958407,-0.7760541712599708,1.1512564071822455,-0.6881540395066177
259,19.223757279447682,1.423379145825759,0,0,10.83647328421103,-16.09355805084746,13.463747402612729,1.3282440655192274,-0.939561310080543,-1.1493344949305229
260,19.11156502883234,1.351571054789459,0,0,7.947889942045924,0.881913818163786,10.87210500117358,2.548525908663956,-0.7112311149223333,-0.8908074577481205
261,18.513153274455153,1.2743086918833562,0,0,15.29058159014184,3.4832086675242913,7.78024929424025,1.3930332383277948,-0.674367524453188,-0.6265833397064836
262,17.47292432982666,1.1995619368726833,0,0,16.640105859023855,5.486488695319869,3.08079554900528,0.9672199871578282,-0.4287525753744244,-0.05148194721076373
263,16.061534152433474,1.1353334691268184,0,0,17.696487028441016,1.9691361830185752,8.586177478337303,0.1979958075559791,-0.1459773757597863,0.23449472071416064
264,14.37066640367512,1.0884385522347972,0,0,14.024216765858768,-2.101961239542658,2.4230423273198,0.16909034801541817,0.10191748033804654,0.24826657407878186
265,12.506638454080854,1.0633740475205586,0,0,10.821865368581577,-3.7036179017493995,3.6093573183294727,0.6704699712428345,0.2100786887084171,0.08077436826056325
266,10.58307434922712,1.0616127856013313,0,0,8.251897202773165,-2.4138841072509196,2.1694435587993213,1.1353978575099597,-0.12173932119289932,0.026042478500991225
267,8.713197382314807,1.0814967664074526,0,0,8.544775811392427,-0.6852623306010345,0.4317510992520089,1.1655401417795084,-0.2557550945239994,0.2266861367231874
268,7.002514376897641,1.1187021241738515,0,0,6.041033528227975,-0.3684750468836634,0.6710608413193965,1.1391132723224702,0.12835833791284104,0.46497165187413264
269,5.542598640436643,1.1671054260521352,0,0,4.8368567364306845,-0.9007628913230222,1.4404282873756045,1.1724460376614239,-0.06786306453569169,0.6412148022926741
270,4.406407426331452,1.2198281645228128,0,0,4.117062412379162,-1.0912919576065583,1.0242303322974378,1.251341229951858,-0.23613248048162633,0.6426272677752193
271,3.645257459182238,1.2702540195450582,0,0,4.163640302449966,-0.8334169228999406,0.3895899155936815,1.2576327425267837,-0.40150300563914826,0.5061181687829457
272,3.287333469153815,1.3128677417407237,0,0,3.9107760061776453,0.19120134479212675,0.0018300292890639685,1.3102108114491402,-0.27743701750743993,0.35738855750787596
273,3.3374697185303224,1.3438323636409952,0,0,3.3455575887007356,1.2830621205255481,-0.3876331204829387,1.1834940147464188,-0.348394569051409,0.24693128537486575
274,3.7779461884608954,1.361287565170062,0,0,3.623103276083407,1.0757054135418138,-0.31918412815419406,1.062277025076167,-0.4763216678981746,0.11012647929625567
275,4.570155055748405,1.3654002933714657,0,0,4.007790842847427,-0.04318489312062163,0.2151285903151109,1.148409116372144,-0.46669456151441063,-0.047035313923967786
276,5.657139287624891,1.358215147537351,0,0,4.357525723602854,-0.9957456705840193,-0.2681577466758656,1.2674275461068696,-0.6752609273198098,-0.17655799355178198
277,6.967085414236886,1.3433357339897483,0,0,6.159302268143968,-1.3873825017003263,-0.7533357688924663,1.3811001248065575,-0.8242449475078855,-0.2453002384279912
278,8.417799858791142,1.3254387996388943,0,0,8.629040675053426,-1.920901436042761,-1.2885114553015402,1.381024218288997,-0.8210325711393093,-0.25720953921937556
279,9.922016985399011,1.309613122886932,0,0,10.23260634675091,-1.222695899290059,-2.1582184891526013,1.4794894892421098,-0.3777250426155145,-0.20205935972645056
280,11.39316680775234,1.300549376412977,0,0,10.997091421643791,0.9966494334016233,-1.2820257404267543,1.416593698254843,0.09875315700598569,-0.07144072702595426
281,12.751090552936423,1.3016836409529822,0,0,12.785927539946398,2.7933546390142605,-1.8847025009789908,0.7732418083476765,-0.4296111027856278,0.03255668993194145
282,13.927184332271311,1.3144852221289636,0,0,14.046728015411645,2.789325310021875,-3.8076451738911534,0.1865792866117781,-0.08432133682954163,0.05965428710137485
283,14.86853432561991,1.3381272040004704,0,0,12.660515464498326,-1.3732849522476145,-3.1601346430920843,-0.28852889528713227,0.6415594959832275,-0.015645449367023823
284,15.540712211553888,1.3697304534911114,0,0,15.211921783154388,-0.5194016234117514,-0.2717826419668028,0.5668524670734868,1.0052786660435147,0.24893577988378013
285,15.928971902961916,1.4052083412043015,0,0,15.335316136427814,9.177482248258723,10.48713400112902,0.5426952901555326,2.1471644720461547,0.7806360889971232
286,16.037628758598295,1.440515504243547,0,0,10.561155216446267,10.870215257418284,14.404830480015482,-1.394185927125852,-0.4972362745501421,1.1584055480820783
287,15.887553729001741,1.4729348733463492,0,0,5.802432286696625,-0.37075905548866894,4.897284143917338,-2.036236581879538,-0.25323824954842844,0.9275709386835647
288,15.512146036754565,1.5020173065491498,0,0,12.14866948307811,-2.512233160360869,7.550566859725773,-1.2121154529261426,-0.9772499645134404,0.5264698377697831
289,14.952690376348809,1.5299214525630527,0,0,14.23952449099698,-1.5973877590677754,4.455625199717814,-1.4491743170142486,-0.6003312844710704,0.1751954077969724
290,14.25417092773734,1.5611113055334567,0,0,12.47616566672829,-1.6020670572598,3.1046244719232923,-1.0346766729152805,-0.5354195629526998,-0.22540853484822868
291,13.46219518003931,1.6015604511964676,0,0,15.516938988607304,1.7519513158442996,3.1214891929775255,-0.7495807872885861,-0.8919712098967337,-0.16230592706750654
292,12.621028723021238,1.6577199779973089,0,0,12.635731004649873,3.9217160148306442,2.0370956239928395,-1.2006668290209883,0.27104652489397946,-0.01894479580709606
293,11.77232596257911,1.7355094604923123,0,0,11.24732248909372,3.1582087483915267,2.6237193769520726,-1.8253297487432603,0.13077318425409418,-0.062141010416732353
294,10.954111941252417,1.8395069191390716,0,0,9.760892950015053,1.2793711444320546,2.1205344795599492,-2.0205764182154633,0.4344719467521562,-0.24185193877860894
295,10.199791828090504,1.9723967624419034,0,0,9.738429623651333,0.7224373014900999,2.57121194610399,-1.9989702783652483,0.2040886612145876,-0.46826124190379004
296,9.537210515895852,2.134645647519355,0,0,8.926898067086894,1.86964912634983,2.7524369982828847,-2.045526198251256,0.1836585367384972,-0.6016721530812317
297,8.987895467357824,2.324348322261998,0,0,8.520731502073124,2.6900987049378142,1.240425388616734,-2.2863834973089134,-0.19350354055793875,-0.6542680239674802
298,8.566587410345154,2.537206979540367,0,0,8.471106365824786,2.2910728250276553,0.7532852472401373,-2.443759128064136,0.027964528101651946,-0.6429391913165586
299,8.28109284801095,2.76664379733705,0,0,7.960145371321051,1.5149409509811107,0.7227328143659455,-2.645523424204609,0.05484087503350706,-0.6314138932412257
300,8.132454810039087,3.004073056829775,0,0,8.043490064743455,0.7047297170224928,0.4554854310801692,-2.8065356521662626,0.17383026484179348,-0.6270649858877185
301,8.11543922546662,3.239370007070096,0,0,7.518465434482108,0.743037392725495,0.6954973377974355,-2.9683142888052343,0.16500964814355698,-0.6496976908913417
302,8.219338728240384,3.461566684444085,0,0,7.436112915153574,1.716853753038018,0.7433816690822022,-3.1654006566081487,-0.09088788763207399,-0.6649446718876998
303,8.429065196685123,3.6597763585481746,0,0,8.14030066572294,3.1849410529756765,-0.08357264573474309,-3.456131848152828,-0.22821899675085722,-0.66195697274359
304,8.726422005004615,3.824296919983518,0,0,9.252123230926015,3.1420224003772232,-0.5567341839907747,-3.8579561149044297,-0.024784796532066382,-0.642475846330489
305,9.091350467626881,3.9477779433935063,0,0,9.036172157975747,2.336913209123196,-0.6619268825912477,-4.122198194909072,0.1262036686615072,-0.6931706428744873
306,9.5029085238624,4.026277487785985,0,0,9.583674824289437,1.6610541419427338,-1.152885498457619,-4.269578491009183,0.07651103968725059,-0.8738060306487999
307,9.939819100278237,4.060009700842666,0,0,10.262477693166147,1.1621610012593306,-0.9046390294209266,-4.112857795460791,0.09998268156339012,-1.0089604578946825
308,10.380597822473907,4.053609804718761,0,0,10.047963325016418,1.0100892666829504,-0.6513942436873666,-4.053373112452737,-0.2142422130843284,-0.9872290609868322
309,10.803457502524495,4.015813487786309,0,0,9.698570638546732,1.1025445488347618,-1.4157401191927286,-4.045082525980894,-0.37393078282844316,-0.7749295727748964
310,11.186318493212562,3.958539012306387,0,0,9.91701268028125,1.892752238711792,-1.5344090101224355,-4.174556454766599,-0.24522201830058432,-0.5104222890860105
311,11.50727706343548,3.895449285122981,0,0,10.739267798428207,-1.687552749191415,-0.5319520083956536,-4.192147811610761,0.49547354652555176,-0.418483722853777
312,11.745765456170783,3.8401521677861274,0,0,11.271677663265775,-4.251742052251144,-0.4146513598786644,-3.561347639141767,0.6868729752306466,-0.525931949392372
313,11.884399692125516,3.8042765120210413,0,0,10.71896241826024,-4.547777256207974,1.8538120507543252,-3.1256395935356944,0.8336958380178363,-0.6602883874066676
314,11.91124556361452,3.795730569255289,0,0,11.157019901375284,-2.2806530774705025,3.4752560919616275,-2.9461086410994635,0.37248438900212905,-0.6914603094504486
315,11.822040114904095,3.817471523017425,0,0,13.031981801894368,0.854450251227853,2.269912085776362,-3.206544900262088,0.1360270829112734,-0.6017794126137118
316,11.62183341883016,3.867047836393798,0,0,12.431583368182972,1.5564287216716406,1.3506972830476036,-3.6784630835485475,0.5240932184774655,-0.5589173392963255
317,11.325572873691662,3.937016272650745,0,0,11.805140773819264,1.2222418352430233,-0.03436917885915516,-3.9774830947036834,0.6417400114673757,-0.6422800652334962
318,10.957343399190531,4.0161339759823855,0,0,10.81882386252826,0.7743635988438988,-0.5282692595979327,-4.143725442887929,0.6851984131935793,-0.7380974508720933
319,10.548271618589173,4.091058758072921,0,0,9.94152751361101,-0.22311741698987292,-1.577102369331499,-4.375297363176519,0.4619554270080507,-0.7615592728195932
320,10.133403430471171,4.148211091077214,0,0,9.668253602606455,-1.444985992293288,-1.5674120116183943,-4.390802255007761,0.5145377680096569,-0.7682644004787477
321,9.748060179358943,4.175467568557429,0,0,9.031962164592134,-2.174298031971078,-1.1177189778755474,-4.3524693888453205,0.4484862755982965,-0.7908605675821967
322,9.424223204006987,4.16344305060905,0,0,8.369789983246148,-2.8689928827532483,-1.3344276988887545,-4.193078194654248,0.46010354550036464,-0.8378904375802724
323,9.187421163771532,4.106241894055127,0,0,7.958621419665274,-3.2326384428024126,-0.7373013924300902,-3.9423963624714475,0.26327198374157434,-0.8765427833218361
324,9.05445412431019,4.001683216795167,0,0,8.783383455535294,-3.1702381969112166,-0.206644295376364,-3.738882191774702,0.03780379202242635,-0.8705422914613586
325,9.032123667786388,3.8511016750924862,0,0,9.126010197097003,-2.3155707141776323,0.3280396228440917,-3.5185307606550027,0.03265425820243492,-0.8747542158470831
326,9.116986639175854,3.6588739458884576,0,0,8.671920156086184,-1.9432603118242548,0.4621207829456577,-3.471499659283778,0.06514938255749356,-0.921497054532159
327,9.296053886720705,3.4318179559170314,0,0,8.590956320699751,-1.9825873791427646,0.34904743320341053,-3.2128981905401828,-0.04002197120988221,-0.9727577562194623
328,9.548325622822382,3.178570840428603,0,0,8.805831511879537,-2.1777497763203684,-0.27904673763262283,-3.0076130338332976,-0.3460647593755381,-0.9723706873986308
329,9.847044420776871,2.9089974466485313,0,0,9.397979979557757,-2.89834251972705,0.005798376206050227,-2.8096375967549942,-0.30766323771599463,-0.966369557168954
330,10.162493876175883,2.6336362515613834,0,0,9.819289175871951,-2.851902946445723,0.05290901848456796,-2.4929995956928144,-0.2711448833257333,-0.9686710870614168
331,10.465067534386897,2.363165198698123,0,0,10.004512319747445,-2.9826957730232406,0.8598493998798666,-2.185637318072433,-0.12630263141365972,-0.9802408136596098
332,10.72822692113139,2.107866963334315,0,0,11.116972649014494,-2.6263350028399657,1.5671193904876526,-1.921807241544087,-0.10830528434643438,-0.9296004779263809
333,10.930914227783534,1.877085372532616,0,0,11.687308904294902,-1.9368095726606003,3.171883897609695,-1.6672434653085084,0.4111250726342669,-0.7302245652818179
334,11.059023411949735,1.6786825006946426,0,0,11.920648940644972,0.1564523706427099,4.423283463364739,-1.4737709208184486,0.11905932739631625,-0.37286349206624625
335,11.105701574825828,1.518519911302397,0,0,11.584130636188005,1.1000213579067322,2.4211589786222354,-1.6807546909874596,-0.04118478847183907,-0.017734821824048168
336,11.070572701210606,1.3999927288740337,0,0,8.251779364942763,-1.1618476827527726,1.9014568177556856,-1.7081264362754345,0.4704106905273738,0.019854450364814518
337,10.958379334596525,1.3236475468782987,0,0,7.146871023250359,-2.1991881412950693,1.6387065770500415,-1.2402355356959538,0.45919208317668586,-0.1344745006844063
338,10.777812898742997,1.286930949363303,0,0,7.161302717177758,-1.689892142439327,2.8192347268202074,-0.5923268682003883,0.6470877135277817,-0.2884775185571466
339,10.541190181117589,1.2841510100510922,0,0,11.223477719483961,-1.0717970018874385,3.6573441338827295,-0.5358009972260693,0.38239924319340113,-0.37416021210342454
340,10.265060082685999,1.306762791866045,0,0,13.748375122363884,1.9713291625011358,1.7521160663070208,-0.8546659968887539,0.2561133299166082,-0.3088969968247667
341,9.971072371258225,1.3440651786503446,0,0,11.822292497711599,4.515841413501125,1.2311123743600147,-1.2084312595652822,0.3516594888528672,-0.34429421502941854
342,9.686002882296268,1.3843028280153413,0,0,10.140429174339246,4.06830017438708,0.828996669882468,-1.4353310220980378,0.38839272579664763,-0.5306520516410437
343,9.44002919141017,1.4160382533559008,0,0,9.273589752522003,2.180335059183483,0.1883422432875175,-1.611656400498528,0.20171339108493735,-0.6967788742532783
344,9.263075201049848,1.4295569972720126,0,0,7.6800811772144675,0.036378791213650195,0.08457168202553461,-1.681439474397588,0.10332991106261742,-0.708000179960922
345,9.179868086085959,1.418039950433954,0,0,6.9174052789179346,-1.7981223520813476,-1.0767629274032993,-1.606162815001199,-0.29308337231399956,-0.5749564768318526
346,9.204874655788492,1.3782896312415949,0,0,7.414136481189006,-2.7171975581618293,-1.1308556505298843,-1.383211203421867,-0.32172706172217996,-0.36719274357230686
347,9.338339879528766,1.3109070936763578,0,0,8.527652424587846,-2.0925800626339512,-0.4205737365923209,-1.183950669662832,-0.34171752464643995,-0.2314952230231747
348,9.5643149716826,1.2199417250833622,0,0,10.766575299978554,-0.9900140041442492,1.5706986422590734,-0.9599291080466554,0.014102734813592003,-0.3129616713515797
349,9.85106683405441,1.1121361523527773,0,0,9.715337450765043,-0.22030746279506902,3.3779411822146277,-0.7226270398136733,0.05432842032455047,-0.5383650881823047
350,10.153859505662265,0.9959361173690277,0,0,7.195855286004553,-2.0657559787165343,2.913790574499469,-0.63164012906224,-0.33910965313171465,-0.7768433879696253
351,10.419913218845117,0.8804283833612665,0,0,6.354129782956799,-2.3294806842986757,3.6892857392796663,-0.2475999850172717,-0.1593753350494669,-0.8371686797476887
352,10.595267409459861,0.7743302728877415,0,0,8.193712871151266,-0.13638487596032578,3.597649747982726,-0.16344831804818313,-0.37442916782091806,-0.6349368497369459
353,10.63305245344131,0.6851133609806008,0,0,12.231183486514162,0.9982472168448715,1.719144541950955,-0.3023426665123119,-0.6365080374361991,-0.36922842565993214
354,10.502197544846249,0.6183205292904027,0,0,13.498808984871122,1.3484362903456126,0.6870503391577444,-0.2699837332788716,-0.06004733145096293,-0.05410380617464972
355,10.195073118368382,0.5771278037974082,0,0,12.414409588982224,1.0540806202445634,2.7276889811524856,-0.4545440345461136,0.18494995766696495,0.11809255291073559
356,9.732365170145341,0.5621937201036656,0,0,11.025828302924419,0.08655212427300019,2.940862139974189,-0.507827760518766,0.14959792002069772,0.1871034231540923
357,9.163824287550076,0.5718148935462496,0,0,9.565671445851967,-1.0766689654215718,2.8677061790194074,-0.3651654988461325,0.41249953707490306,0.23295756716349902
358,8.564307739183956,0.6023681721551968,0,0,8.793266382613492,-1.2376704674333312,2.412376986482583,-0.2277073633717687,0.07082437562465514,0.34284001756287186
359,8.025426815418276,0.6489814756954589,0,0,8.63794183684162,-1.3115280311244741,1.8904234316181578,0.02935221785029487,0.32079736491199073,0.46748088852190645
360,7.6438718968980055,0.706345968965963,0,0,6.326158000969033,-2.117103971591015,2.757736959385505,0.3287074192531203,0.6626472125612711,0.5430815106561768
361,7.508030660384193,0.7695582653071309,0,0,4.423064117744379,-2.677581431546123,1.9734308489500227,0.5947148141668108,0.18515657994017878,0.5714299936536672
362,7.6848405111639835,0.8348632569331563,0,0,4.29322454407887,-3.1876377265261366,1.0801791822227957,0.7993061405688093,-0.07835701368335896,0.47748785121567394
363,8.208889072114651,0.9001672028061544,0,0,4.712977409165684,-4.166625430217216,0.5491681364228215,0.8820680088946774,-0.3340236601804546,0.2459162083210753
364,9.075527356352472,0.9652139843523139,0,0,6.330801659174434,-2.4527260800715305,-2.106129082799752,1.097694661120929,-0.7677613331587406,0.05115269290273415
365,10.239188759564355,1.0313602053974296,0,0,7.672139521662515,1.1192043449223816,-3.1744459966944083,1.0322384632067723,-0.8387793491739345,-0.2410889143639204
366,11.61732345387493,1.100944201850531,0,0,10.304349723439294,3.0005921801081334,-3.7712778266447247,0.7015712723835422,-1.107098976369853,-0.5872134277355533
367,13.0995156224181,1.1763260864860936,0,0,11.782937967302038,1.8277840551022337,-2.779386867895154,0.4760964238814792,0.03232538945919408,-0.6222045470404254
368,14.560576745492813,1.2587770688912328,0,0,13.139546356794456,-1.520050604222914,-1.1717956340467746,0.4685671194572894,-0.07128281858464909,-0.491715264188529
369,15.875780787954245,1.3474825162629918,0,0,18.48915266405115,-2.272044739394778,-4.374604233535364,0.8322298772731086,-0.3426065331723749,-0.24141372891359156
370,16.935972993260656,1.4389425776995006,0,0,20.058367791674883,-0.6036433470240281,-5.0608140251364215,1.0604730161383054,0.7080666700246467,-0.04150206445371011
371,17.660124966724496,1.5269796530848094,0,0,19.97543555062045,2.0107392644301507,-4.615797851931409,0.5672647647160968,0.6147714575595401,0.05942304418274594
372,18.003178641591457,1.6034155636585592,0,0,21.714971720146327,0.13067951589755444,-2.7768835529867784,0.13640807127437832,1.3698629481852542,0.23725054855038902
373,17.957825617433265,1.6593084855526363,0,0,21.62876965244398,6.439151689204772,7.622983766282186,-0.29265294236119543,2.397308540463861,0.6446846079649032
374,17.550126584532045,1.6864816455187384,0,0,8.530984015496115,5.862961887934193,5.971690953357696,-1.8145029455244905,1.9725946502086096,0.719184279761546
375,16.83032590273832,1.6789824367170092,0,0,7.259508033677659,-1.6148300603836478,7.181700664926575,-1.6336430802382178,-0.02504753265698676,0.5715597233244514
376,15.861418811553328,1.6341393271251092,0,0,11.809194735618624,-3.2966661738058556,8.830428140073495,-1.3519662192439401,-0.6923048990001819,0.151696091035291
377,14.708448177394443,1.5530374230297688,0,0,8.333358496120121,-2.72752537728914,7.442401896034884,-0.9827649066127463,0.7604445603614497,-0.25505815262744963
378,13.430912028076541,1.440425041588677,0,0,5.9215622051478505,0.7251860573692755,9.861165548350318,-0.869993189044912,-0.7754057092718344,-0.36738490769405385
379,12.079404963874396,1.3041867125705764,0,0,10.107958021990555,1.8636970608248435,5.238386005266989,-1.0925270697056368,-0.9186823885172305,-0.2389860735385229
380,10.696289113785998,1.1545382449639054,0,0,11.592284446565124,-0.3312226192926319,6.236174270016722,-1.1813481906827208,-0.296743437351183,-0.08906981122612811
381,9.319163840601004,1.0030599266757498,0,0,12.541525415072957,-2.7148643355180573,3.895642749996247,-0.9780670300102742,-0.42715862590225073,-0.12340499061957884
382,7.985344963718594,0.8616449807188731,0,0,8.407523473242462,-2.870278419696144,3.638963551132491,-0.704727682185807,0.6104314422572075,-0.06737391200236008
383,6.73559661951815,0.7414318948284022,0,0,5.194135513189653,-1.0358869129038415,3.5527178770849135,-0.5381005653099918,-0.15711082178542196,-0.042494340549512934
384,5.6159438579317165,0.6518044590455678,0,0,4.657578480727679,0.3593678974699156,1.6978657561784305,-0.5172383899685408,-0.12244887585850536,-0.06656716320630056
385,4.677210221889397,0.5995587039395823,0,0,3.3158854278267547,1.3146701439435544,1.2051317783881725,-0.49821090194800416,-0.002981266952109116,-0.07847964361351428
386,3.9725563643909108,0.58833199638473,0,0,3.925958420235829,1.650441578717053,1.7689317738612809,-0.45767869935209193,-0.09242560824860942,-0.1334984486670159
387,3.553546793050623,0.6183619613353547,0,0,3.8740994232778863,1.4010161608560365,0.3587154214529591,-0.4816836069945425,-0.3949560878354526,-0.195034738338532
388,3.465249610834512,0.6866016488941773,0,0,4.060131562168146,0.8132577401285277,0.07745153465723062,-0.44769777161805063,-0.3083389382753098,-0.18985702773582247
389,3.740811978955996,0.7871763779469468,0,0,3.675548211015702,0.691903727991956,0.8396197059107667,-0.4421036390247617,-0.3879520156156805,-0.185592605776705
390,4.395999816292658,0.9121330587561373,0,0,3.724972358825303,1.11862760928706,0.5997104435431043,-0.5977044080466907,-0.5650549197456854,-0.15663829507944477
391,5.42433319281661,1.0524000076547935,0,0,4.223997146123844,2.013843711427333,0.7159630542072352,-0.8397535452907231,-0.6204942105467711,-0.08184853196493293
392,6.793581660260993,1.1988382187107745,0,0,4.966154784685656,3.109139453434806,0.768935872461296,-1.1134466859290146,-0.7345266369539446,0.006103857064724121
393,8.44440291349421,1.3432282156868445,0,0,5.982882958735887,3.0026808521509776,0.84148683416341,-1.4695537975274076,-0.7939656669194946,0.082638707865494
394,10.291764235922596,1.479017177864326,0,0,7.922973845368654,1.3684850132583173,0.46299792355724895,-1.8494529167709017,-0.7010893060016451,-0.030701604339401212
395,12.229467813657365,1.6016705136467997,0,0,11.03546842121014,-0.8319727317800713,-1.5086249359061537,-2.0620618873603886,-0.3016283341538303,-0.3116033189170764
396,14.137616709967476,1.708546195076867,0,0,15.144905246257624,-5.286885310671663,-2.3133189834090064,-1.776223641563087,-0.024368872730116137,-0.7726230764740608
397,15.89228206899905,1.7983383098413566,0,0,15.804710591242898,-5.7160979710677475,-2.6840363425160447,-0.7014197812281793,0.2691676543579142,-1.0021724362045652
398,17.376149741742623,1.8702879245972444,0,0,16.877200866520116,-1.4016225645965634,-2.850026773949036,0.4332673435996559,0.07378639307771195,-0.86527719914316
399,18.48873240498729,1.923469660689654,0,0,17.16651847839788,3.474491193495772,-3.903893956657145,0.34396563956220066,0.6336474336593045,-0.5132493344000989
400,19.154848011072506,1.9564573268413177,0,0,18.96948043567816,-6.459372762117607,11.597213332542205,-0.4611764142618167,1.9853116218593836,-0.45384042122186924
401,19.330345283675534,1.9675228530756665,0,0,9.26285413905522,-17.161918316073628,20.14416728281036,1.004027739825912,-1.974352980530446,-0.5367935443113697
402,19.004476387793606,1.9552882219375631,0,0,6.160538579304679,-1.235235804079114,8.90928854403088,2.7200227821614,-0.4250531950979504,-0.364905633940717
403,18.19900731972477,1.9195516555636132,0,0,7.782482155790898,4.258002350466748,7.236813292635584,2.0925878007706498,-0.19060057812978776,-0.2027590907102669
404,16.964967184750762,1.8619468041815352,0,0,17.374981623452392,3.38703135379032,0.6131000218425037,1.1446797872851986,-2.212643436863419,-0.05305853679401193
405,15.378264678933308,1.7861791727841505,0,0,19.45689916626532,1.3497920325116304,7.8835435542129355,1.5867698812401716,0.7572949324217195,-0.04997354303999985
406,13.53490206588537,1.697754446029101,0,0,11.631901373097897,-0.5490277322084386,6.836147372215833,1.2941007762852215,0.0008539912063868097,0.07353411240010688
407,11.545726851217896,1.6032873244701749,0,0,11.39877011856119,-1.1314037326287634,3.3456081672566125,1.3265093515210298,-0.2245849738103193,0.11358601767725005
408,9.530378638589946,1.5095944320958714,0,0,7.881764908788638,-0.05185569994772198,1.9214334911218143,1.4043001730397071,-0.06730214477318487,0.1453112548281992
409,7.610422281026036,1.422801443118655,0,0,7.208721511096562,1.175301937044978,0.16545261088719893,1.301809602104911,0.147530073337255,0.16732150048859745
410,5.902101207618207,1.3476465090874774,0,0,5.165554183726391,1.0079487840331331,0.969248794397977,1.1548913037245698,0.42090119830003203,0.3054720480381184
411,4.5093038390853195,1.287083570084938,0,0,4.173837575854438,-0.48788520797553653,1.615647208914043,1.0165379376288026,0.15162689582537225,0.5183168654939644
412,3.5172229310191447,1.242217417097127,0,0,3.2040317796525857,-1.8818632915070979,1.3857141076853308,1.0060765142033827,0.03633583786405952,0.5626281365605582
413,2.9869934000758773,1.2125464874959309,0,0,3.7485821767744665,-1.5473877391193314,0.5230972565236682,1.1487261996874063,-0.2837486352692963,0.4195781808677796
414,2.9514698176690866,1.1964434422387984,0,0,3.1921641369057854,-0.7397310440331198,0.02019281768876893,1.229710048808481,-0.10484576465575968,0.30381055747621694
415,3.4123169527376995,1.1917666934579623,0,0,2.4759460824623942,0.29447833977059534,-0.7696976729672337,1.241434883523315,-0.22473305988077727,0.21978353550089125
416,4.338717890350884,1.1964754568756086,0,0,2.981646677393562,0.30097852345875176,-0.2160972386715593,1.2456732329908704,-0.2306134559028636,0.13780386439852257
417,5.668146199080568,1.2091223626791165,0,0,4.1223357858904635,-0.8107952598493402,-0.08862114304431133,1.253219942283387,-0.31017351880184724,0.014669727751820034
418,7.309650726970045,1.2291186997826913,0,0,5.877970501602098,-1.5491682354562322,0.6566079095987042,1.4400490428661916,-0.18201368079599983,-0.10247641853058667
419,9.149873849146859,1.2567015486661206,0,0,7.897865779372161,-1.482301687321554,1.1957437785611653,1.4986523375416583,-0.3139357368458861,-0.14295854180459383
420,11.06159655966203,1.2925780758995897,0,0,10.770083609360205,-0.02236082413098152,-2.4564669215933073,1.582626315734849,-0.22871464810820633,-0.08175474586496294
421,12.914093601208616,1.3372859880876318,0,0,13.393194759639444,3.4798965943757274,-0.2825965559789457,1.4044383301440246,0.35553473042368094,0.1524402323725759
422,14.584131577888796,1.390393753961605,0,0,16.977569982569083,3.7648278317617696,-1.8238667111757352,0.5012580944311992,-0.6767306510121953,0.3882461817863969
423,15.966193636342815,1.4497544076245847,0,0,16.249150162190052,0.7094324800246685,-3.8081693089157262,-0.19576039778393187,0.4718677431563638,0.3667186900605581
424,16.98057393318036,1.511080805500702,0,0,16.47033127974589,-3.4680919566593533,-2.161412763159972,-0.17426061540224247,0.6501440715747477,0.39039850957898137
425,17.578351465530464,1.5680759370078459,0,0,17.3955898048221,6.590852532205028,4.629733908767445,0.6978664615639342,0.9019339947814284,0.809547425146674
426,17.74278553216657,1.61320739431082,0,0,11.394202522767744,13.003983814122304,14.548746917404067,-0.9958720892495374,-0.684696204628766,1.1490507863761024
427,17.487235416529835,1.6390012571906816,0,0,8.455091451928336,6.0276295418821375,11.239362107874914,-1.9992312476357719,-0.4230356768449581,1.1397338306108364
428,16.850285919751762,1.6395368174209637,0,0,7.750210734891246,0.38170577466006306,6.7961973127782045,-2.3402648129075883,-0.11265058052174406,0.6914895339229755
429,15.889308425920627,1.611736268486022,0,0,13.295218763784339,-3.477348363623543,4.663908741950315,-2.0780705594760014,-0.7123830180280136,0.2780126034311309
430,14.673903169507215,1.556101932979967,0,0,15.230782902010956,-4.536163700383897,5.6392971993764585,-1.5519341329590761,-0.21480609664520428,0.013631007084800887
431,13.280280059584186,1.4767330501438583,0,0,13.835741729213211,-2.259086811820872,4.790648801966139,-1.0694773979086252,-0.5355020130552092,-0.06524932887120677
432,11.786874038938638,1.380675551522231,0,0,12.110430263538277,0.8265045955026953,2.3139882986277676,-0.8805721905338718,-0.24653622875750492,-0.09496689471438263
433,10.270941091623206,1.2768265132257448,0,0,9.645011896634047,0.8146666410601482,0.8042483055195307,-1.0657904259614326,0.13300062487625436,-0.10529670138939468
434,8.805839645698184,1.1746722637802725,0,0,7.20932032065612,-0.4661552652873957,0.8739163272031552,-1.2265769584033015,0.460850971087559,-0.12827537858871177
435,7.458946946459808,1.0830950508327977,0,0,5.860297851742432,-0.7641488096301666,1.1746712375306814,-1.0395560197313491,0.33635113426232377,-0.1613621739604583
436,6.290308025386163,1.0093970673805714,0,0,6.503357625494935,0.23495042149896103,1.4004793578544936,-0.7732001764760112,-0.004978952008792703,-0.26281076734249675
437,5.35199241907794,0.9586205678542492,0,0,6.287265523178156,0.8160678513036242,0.5096001509685345,-0.6799551504441682,-0.1173115339940839,-0.37347133368580143
438,4.687838466392455,0.9332042431119398,0,0,5.965665398097006,0.9499614926233644,0.4267071592913636,-0.716040530938181,0.009447060313601752,-0.37059227478752266
439,4.333028931567736,0.9329866301776689,0,0,5.427183369793703,0.743273634112755,0.38043836461374947,-0.8440442299960762,-0.2162846977406616,-0.2716760855065162
440,4.312948079306495,0.955525588520796,0,0,5.185086846892723,0.6308997458936467,-0.4353292763878214,-0.9385972605472956,-0.22119952218845176,-0.14051898275278032
441,4.641041635479238,0.9966521932358182,0,0,4.646839579243461,0.6713730601024418,-0.5207878510996753,-1.0068544723492674,-0.3165408097027593,-0.0025688193953764225
442,5.315822558559074,1.051135998151901,0,0,4.502676230385518,0.6518893303931365,-1.1137696212852186,-1.1781225234270118,-0.5197502347720081,0.07183572965991188
443,6.317578456604855,1.1133210968988265,0,0,4.88050532219161,0.5504224385537955,-1.4886613826038222,-1.2980901455747287,-0.5754737018971531,0.08362977412267082
444,7.605604714443919,1.1776061214542144,0,0,6.500317992346378,0.1705632052382817,-0.59635197910452,-1.4560779823812697,-0.35563311457135965,0.056344821269168496
445,9.11683192518877,1.2386906307905672,0,0,9.474518737190563,-0.8513679145628027,0.4594546408878355,-1.3377784814055003,-0.18110864898285883,0.03293897133441805
446,10.766548649630137,1.2915931051219287,0,0,11.345496488429058,-1.2567297215886117,0.15525134601980897,-1.0199520451823518,-0.08789298325248819,-0.1272312732044877
447,12.451650594447917,1.331542967882157,0,0,9.124509966986107,-3.052243916851487,-0.29908477844933345,-0.7725611078567456,0.2348316172000322,-0.3943267700896864
448,14.056594227491601,1.3539222391150596,0,0,9.002882398227452,-1.6483795760901498,0.1648629124784272,-0.0500200318145797,-0.08117022998537636,-0.5288176591556686
449,15.461967075960315,1.3544371232862482,0,0,12.773758947933082,-6.779624933789813,6.326161250340959,-0.1703016581880395,0.2960302563303632,-0.6769860483720856
450,16.555134854525814,1.329609708351484,0,0,18.783854591288193,-13.106293252192724,5.839597181960702,0.4595589823662965,-1.6924929770108639,-0.9967996978899839
451,17.241775353548324,1.277513415109358,0,0,12.179677396380487,-3.9926740368841385,7.98482509342485,1.7137770437180484,0.7450456793360597,-0.895675450484698
452,17.45661455402084,1.198510305951734,0,0,13.41924915929353,2.203980618368091,10.662247095840025,1.3034615394540723,-1.3762229671160104,-0.7559918708293668
453,17.171702861905736,1.0956887120956684,0,0,19.526489149334694,3.9852022811831995,3.277565204323386,0.7658050164547876,-0.6900717344299361,-0.4625349724627952
454,16.401017093799293,0.9747978929786539,0,0,16.07010678174315,1.2916978324391484,7.495605705210799,0.3016759885989756,0.12479904151365807,-0.35850408639437187
455,15.200702111197252,0.8436770797568921,0,0,16.265534499280307,0.3846290991208164,4.47390004385636,0.14136475914239738,-0.4406724893950412,-0.3520477712921398
456,13.664766691129934,0.7113569738243558,0,0,13.768979118545579,0.5829030643701403,2.7756617722588897,0.09060366462089132,0.5005187985456435,-0.19786853701933813
457,11.916618472133655,0.5870823363730732,0,0,10.831139636261092,-0.8049605985385839,1.849776693703903,-0.036631753010436995,0.12898500657394138,-0.17061412721296362
458,10.09743151776106,0.4794624685348725,0,0,8.611582256594257,-1.5619892491613327,1.0194611517370722,0.07716925025580544,0.6364912350720766,-0.12502328715153632
459,8.352797942938913,0.3958589228293108,0,0,7.3145742564857015,-0.7699255691043649,1.3266459944122166,0.013234220098929392,0.3574126561366222,-0.043503090020173926
460,6.819272235375613,0.34202370896289835,0,0,5.994218501306603,-0.287888984986655,0.4141699663859095,0.003988312442509347,0.5673495295427006,0.04196210322258075
461,5.612269373261888,0.321938698247432,0,0,4.492347414342368,-0.28850395125848877,0.7659385766187828,0.1291932453084017,0.47986687778745063,0.0528578846974139
462,4.816435817505761,0.3377891273906785,0,0,4.467707303063044,-0.10772750174157146,0.33049893328513075,0.1780371050690862,0.0449200960874702,0.026192409174617896
463,4.479207625680838,0.3900244520502736,0,0,4.508806967815764,-0.142011354667141,-0.18911028069914904,0.22737715541374934,0.020576706617657443,-0.06323046506289944
464,4.607890869487906,0.477494918504224,0,0,4.284575099605483,-0.6248253398145451,-0.8822829746317736,0.2829284977775746,-0.14356612296949636,-0.25520060621522944
465,5.170294865539463,0.5976730983394041,0,0,4.4777089988913295,-1.143280744797429,-1.0505148377918665,0.41757473096923226,-0.3840032168678509,-0.4198459462942566
466,6.098737066887405,0.7469624624538398,0,0,4.9360239060971045,-0.7031497625197637,-0.2697188055422454,0.36236712693015316,-0.5284299096289676,-0.4791872726561103
467,7.297088605073229,0.9210722992945005,0,0,6.1823224553952905,-0.24261886880508843,0.3581257256071741,-0.06349819755642612,-0.7790770881494646,-0.46817035209087854
468,8.650364573133125,1.115422859357724,0,0,7.725882468644464,2.951118357800756,0.5120408475919187,-0.27869921378982276,-0.7972040339290645,-0.4801868058701134
469,10.03611927045636,1.3255444426638388,0,0,8.89846055735481,4.690707747983239,-0.076275471765299,-0.851111480000437,-0.9546011601010463,-0.5318758712433631
470,11.336593451744077,1.5474382073731292,0,0,10.43554562347367,3.8300445662291103,1.3347678137655419,-1.2983406488536973,-0.6706034245230736,-0.5077713395506499
471,12.450259189316563,1.7778631351238139,0,0,13.244183801733374,2.137695312079496,3.4317288355702864,-1.5318808860084352,-0.6257148264891909,-0.2660557715829252
472,13.301226171002806,2.014503474880625,0,0,21.76257030306861,3.2329222983875976,5.795572184164522,-1.8818916612200383,-0.7283994129468734,0.5325726362903692
473,13.845060008880369,2.2559620697611207,0,0,14.487332325083818,3.425175570571647,3.502081789497943,-2.805181498460411,0.9877844443849789,0.8816504235867342
474,14.070124173592669,2.5015294469135596,0,0,7.42576068298721,-1.8637471761745699,2.964857574858631,-2.6803787410097892,0.044126062317608086,0.4002315206677132
475,13.994620208225319,2.750717676260598,0,0,10.339151320542971,-1.9330989767230762,2.2461298511426535,-2.2625107697006697,-0.3482715820014138,-0.10110609189942639
476,13.660598316214895,3.002633542802312,0,0,12.197818136785044,0.4593064897718849,3.6545032383179277,-2.528055553033649,0.0022503764738531383,-0.2584307712136846
477,13.126639198073583,3.255362395845072,0,0,14.490735501703403,4.284070783652555,1.9732790741562243,-2.808400303123996,-0.3066491197607716,-0.27492250331220575
478,12.460483523745067,3.5055708942971417,0,0,12.84987779075297,5.679738284190822,0.25116506793779403,-3.25613543189612,0.3234851283440778,-0.2987354460085334
479,11.732153573849939,3.748474638617185,0,0,10.586541564022726,3.7418999802956865,1.2134403709741102,-3.7823921678106105,0.29767003067464376,-0.42629737406007984
480,11.007707574522705,3.9781868867945187,0,0,9.800845595176773,2.1051633613542657,-0.18948920731985722,-4.188745891772488,0.14284260266920912,-0.6040556037018279
481,10.343817481799455,4.188335992421859,0,0,9.660130323021514,0.8307234446490362,-0.922516943625677,-4.446550735590888,0.5778580854779827,-0.781865854805559
482,9.783561911288798,4.372767412012483,0,0,9.051424869844553,0.020319348165651948,-0.7884091070859766,-4.43269055475952,0.6199903074373116,-0.9511878972890893
483,9.353876449402591,4.526151196250675,0,0,8.619673288317628,0.7018842494845491,-0.769140320173782,-4.405513816228052,0.36605150967810085,-1.0199847652247682
484,9.064942528382364,4.644382446423787,0,0,8.58068522704011,1.1389241170186017,-0.8501034665417231,-4.486063903350454,0.2937824633319049,-1.0326780313685906
485,8.911523299863157,4.72475137307587,0,0,8.786441054598841,1.279441808489586,-0.3212593635637478,-4.488717493123078,0.4004250349976608,-0.9345216102188684
486,8.875974199823824,4.765931029231619,0,0,8.875445732839678,1.1742734013915872,-0.4022822861278611,-4.6102027036741156,0.3512894177744406,-0.8640171302861168
487,8.93242500639525,4.767863595846513,0,0,9.109680296260715,0.030832405632967085,-1.1612187038167348,-4.6441688014915945,0.47220537560241294,-0.9443579273197351
488,9.051481009138204,4.73162342722869,0,0,9.714226773901746,-0.31192906088367806,-0.412317147738217,-4.459005130796303,0.49973983440922054,-1.0777047828616668
489,9.20473979996917,4.659312729616587,0,0,10.217781900678965,0.37556962859011006,-0.44893267791384295,-4.390931383169496,0.2947823287825887,-1.1237130129492217
490,9.368473080593935,4.554016942110327,0,0,10.012090740027151,1.4184548380516437,-0.5617187910834274,-4.302475140935579,0.22020777067070996,-1.095436173252791
491,9.525982929922645,4.419814957517028,0,0,9.733667850416643,2.1181647129021774,-0.6939539519120906,-4.331074482027718,0.10145424014391846,-0.9829151768955102
492,9.668397756629636,4.261803432733477,0,0,9.475395985538682,1.5026982872808998,-1.437122842812837,-4.390183319821333,0.18976703393823388,-0.833297762052705
493,9.793975396746662,4.086061159317244,0,0,8.82869944879908,-0.1059846422025984,-0.66714779742589,-4.336035695992275,0.4580341980221563,-0.7097309844965038
494,9.906245115838068,3.8994662952361345,0,0,9.477489280574323,-1.8277249333884438,0.2246258741505166,-4.067713662903872,0.42930892157269746,-0.6423865069952258
495,10.011466786325848,3.709304267403921,0,0,10.58112127394423,-2.271122807611875,1.116847048690202,-3.6329713592864756,0.41787090871755583,-0.55904789557683
496,10.115894964112657,3.522668985821689,0,0,9.669688862197907,-2.2119793806033075,1.4962211746521297,-3.2807506422367134,0.41480822738584616,-0.5246851707587512
497,10.22327390840908,3.345741118946758,0,0,9.087829230546284,-2.208713067248425,1.494835566887546,-3.067456430262744,0.2877969445788557,-0.5375277679837809
498,10.332944914956242,3.1830868827801244,0,0,9.147119043280656,-2.197866142791448,1.233873424304588,-2.9294855589743043,0.3414834840255503,-0.6030889836576527
499,10.438924951560711,3.037132117256046,0,0,8.476695617802168,-2.9985462980270956,1.4899589328216274,-2.8638396033704656,0.42385795448246033,-0.6298506865815979
500,10.530230068263657,2.9079297619635693,0,0,9.444309088917214,-1.774113486167814,2.5651721778937753,-2.7283650092463145,0.2367566698468783,-0.6267912998237407
501,10.592498681561647,2.793276114219991,0,0,10.850915024600571,-0.06982130717196644,2.5867994346565464,-2.5179876095091718,0.2488513052417339,-0.7107320838812419
502,10.610650888672593,2.689165692126956,0,0,11.481274678444827,0.5549828312140206,2.1886273718700586,-2.425658093750729,0.30856734814760484,-0.8271667686988016
503,10.57202490168745,2.5905161470694433,0,0,11.296764247944406,0.6579360999931478,1.8084229062843358,-2.4844152768571894,0.4962316731970372,-0.9206944113234238
504,10.469299243573179,2.492043903329721,0,0,10.534729249471702,-0.241634689831583,1.4645674454678477,-2.5800675015481436,0.37039839594029633,-0.9709631897108113
505,10.302596334044201,2.3891339534623905,0,0,10.389721143090865,-1.2675286851005987,1.4820754471657525,-2.5123333822039946,0.22543856287533892,-0.9138134020042314
506,10.080403057119753,2.2785406207847023,0,0,9.886234611457823,-2.453927813008974,1.461789229990912,-2.3672442887775387,0.09559889201805213,-0.7526207722396809
507,9.819210363412452,2.1587945918782685,0,0,9.697984440779647,-2.7426892958628835,1.0872557079382066,-2.1005028369984,0.09828638578204935,-0.6008811949377391
508,9.541983460397748,2.030268782925182,0,0,9.159789224161939,-2.4286460989127083,1.07454547245313,-1.8144782351965394,0.21068310419416117,-0.5449567665888404
509,9.275719512380375,1.8949431208218588,0,0,8.832010866385074,-1.792456202311468,1.4419689143176975,-1.6086120259292924,0.19778895284437875,-0.5632599254612775
510,9.048452859569892,1.7559720309401332,0,0,8.486599929470046,-1.3518860481909925,1.318473313124779,-1.4651869403522255,0.32895374723134313,-0.6116162420083511
511,8.886131128549458,1.6171778986740881,0,0,8.357878666180909,-1.2794469843789866,1.1957825555686041,-1.3433868434064413,0.33973879395483886,-0.6630161708964789
512,8.809792943568794,1.4825707574126896,0,0,8.21976948710027,-1.117504366624511,1.2647853878039914,-1.2391493360054908,0.33312834367003996,-0.7085433245036111
513,8.833419649955772,1.355947840231805,0,0,8.15971861237368,-1.3582176403955784,1.1432398936330035,-1.2004642617087953,0.349441736222474,-0.7415569784800741
514,8.96271767419253,1.2405800062837329,0,0,8.219581833391304,-1.7124436827891412,1.069956506400008,-1.111846690435766,0.3099802765044928,-0.7310901445112665
515,9.194931984419961,1.1389634057446343,0,0,8.871426974819576,-1.7804341132491932,0.8935578718465601,-0.9484896917582503,0.140055894243123,-0.7005971609053951
516,9.51961280278638,1.0526118373344822,0,0,9.28190352440648,-1.8048490522634177,0.7511409107450848,-0.8169574439797949,0.04499983860153519,-0.6599628154552419
517,9.920081479694806,0.9818841010786666,0,0,10.206833889044669,-1.8990093800317651,0.8042111973867935,-0.7464528214857545,-0.0550402985141432,-0.6156389263585361
518,10.375203841691555,0.9258678764759948,0,0,11.266222469254403,-1.8611380586331634,0.9216445195347794,-0.6293572077830064,0.03311599912466437,-0.5845526987794301
519,10.86102488615353,0.882362503318701,0,0,11.37765149554463,-1.9871448274115866,1.0483807219661345,-0.5976413069672112,0.09292322878125403,-0.4951212919422272
520,11.351885078776167,0.8480088471117051,0,0,11.46097722395036,-2.0090878752520758,2.0967423312538407,-0.5251757819415629,0.15507835226598696,-0.3153819895538021
521,11.820834048240474,0.8186021742682162,0,0,12.489760664231301,-1.1993715712945885,3.979490508984457,-0.5954896003286597,-0.06259822182925465,-0.03169788205754327
522,12.239448040979566,0.7895919238389867,0,0,11.47582372957765,-0.06023422430515771,2.6844877893719894,-0.81430851677048,0.025737127407728523,0.20800253186911655
523,12.577477127602672,0.7567218832815196,0,0,8.875707532678355,-0.37206398904256005,1.5218223169040697,-0.9134103110511594,0.04347335975797362,0.1735960920679536
524,12.802994449280481,0.7167082356417719,0,0,10.48199884729841,-2.3585290186933574,1.9304072519254523,-0.7818612722312919,-0.4722889157851062,0.10525855204147876
525,12.883736999527613,0.6678159861905972,0,0,12.386448031080283,-2.6873752021096413,2.368878471218976,-0.6827913592554599,-0.7545504450292833,-0.022868712150219312
526,12.789999019125458,0.6101993268568221,0,0,13.343852558656295,-1.7139077124023172,4.789815812785267,-0.6746214843564431,-0.5371810272547587,0.04282071599410251
527,12.498867256582464,0.5459244487438819,0,0,11.409916959572392,0.050582225009805006,5.5182135952525275,-0.44129497355339753,-0.12772382460104745,0.09112551098045849
528,11.999079086513204,0.4786796255896882,0,0,10.458708044988365,0.2509705007499172,5.032411030735487,-0.2117012644531418,-0.06165744128392685,0.006351514072437178
529,11.29557179045262,0.41326598684299026,0,0,10.57653164248624,-0.36970120778398446,5.1355926540041885,-0.060124076214748245,0.01684429664003889,-0.03264700140020749
530,10.412838328131814,0.35501483846022736,0,0,10.46530539930532,-0.07714016867502949,4.651771751197587,-0.09377843585508276,-0.07890347302005984,-0.006999744148948256
531,9.39634347740304,0.3092676650765948,0,0,10.406777595991652,-0.15813612845488606,4.740772393553005,-0.2541621793495721,0.14723912327345706,-0.1369709645303414
532,8.311422434103305,0.28098877245159415,0,0,9.346684186911883,0.3830352727590612,3.910979364586956,-0.09263646479915216,0.23676496431309715,-0.35937404825071634
533,7.239360941404878,0.2744941877439951,0,0,6.7456679974058575,1.1366215901838144,2.9518299116843663,-0.029424583778807398,0.3813193537535984,-0.4592643857332197
534,6.270806915541309,0.29321925917391983,0,0,4.302133549404578,0.9370299655112353,2.9757944102012543,-0.10830339743600975,0.30761433748986966,-0.47970467288805496
535,5.497207945263306,0.3394414899122735,0,0,3.4364829037487183,0.6279093328326427,2.2080678723734954,-0.12729596484098726,-0.06531926627483575,-0.39513506735133747
536,5.0014040728232505,0.41392612937777584,0,0,4.056313672665756,0.41110412006596936,1.3403778792003052,-0.07422333897460927,-0.05970678279975087,-0.22529172880400702
537,4.848654399969933,0.5155432957371129,0,0,4.045713739208819,0.3986090450809369,1.3871280742438155,-0.008763724643064335,-0.12834775711063906,-0.005041248794376117
538,5.07922224325712,0.6409738285541734,0,0,4.511627429773572,0.985409920273869,0.613053957664047,-0.08544111466602534,-0.40121547777292,0.19251158740891886
539,5.703318472357711,0.7846386751808441,0,0,5.162528557528449,1.603690415439634,0.1673815538954317,-0.2991483354228275,-0.3897449524791142,0.3141822268794813
540,6.698861251506484,0.9389427530896806,0,0,6.260028842161967,1.608205743454526,-0.11938058067587681,-0.6220248932116431,-0.6922793703959883,0.38862708574894683
541,8.012233166344814,1.0948413923344718,0,0,7.522792241797523,1.2693123857634971,-1.1046810800004998,-0.9420120919305283,-0.499753825572889,0.3834217300290192
542,9.562006640104004,1.242653890687995,0,0,7.334148684189846,1.2034635955153703,-0.11332864898621882,-1.1643187557706332,-0.29677244346175324,0.23677983231800775
543,11.245420602736951,1.372993135031775,0,0,9.302471681159558,1.609047092220539,0.5349984605281504,-1.479902894703485,-0.532173237668843,-0.013220624964446431
544,12.947146178482745,1.4776604431183515,0,0,13.843326283657582,-0.016719919759751664,-0.9625238056571265,-1.7931465861994642,-0.39591951090024563,-0.3799590746794157
545,14.54951785793648,1.5503670449613158,0,0,16.565458675705692,-2.473893243879555,-2.59094359479872,-1.5787669874320494,-0.06982093913809856,-0.6938306537479922
546,15.943005418744592,1.587186843371187,0,0,16.71474165683741,-3.5528301021869884,-3.8133998311153077,-1.0581040837824178,0.5494025838069541,-0.8689051960393709
547,17.03548855783522,1.5867154267568158,0,0,18.3956769297521,-2.976126402033402,-2.536752381086865,-0.23733327792212497,0.38413166886998973,-0.9032648741025185
548,17.759069485047462,1.5499820858899884,0,0,20.36809317673219,-6.656401009018229,3.191484643489807,0.694655581254909,0.9151640061632156,-0.9870371873686061
549,18.073712339033555,1.480193333979314,0,0,10.971059133212904,-4.345554132135239,4.842121671808405,1.6458763212172727,1.360237863885022,-0.7040915301203803
550,17.967732276622982,1.3823647769426584,0,0,15.416906686674734,3.0904604154904436,6.617080016255401,1.0771871390973986,-0.9371954571611648,-0.36524753562706413
551,17.455770963204483,1.262865513194717,0,0,17.868812522327275,2.6463635185601873,9.810583400969412,0.6540373718311463,0.22967912407579075,-0.2054832266532064
552,16.57513739520704,1.1289076174844321,0,0,10.311747793673524,-0.5433407078401971,13.061720318989149,0.7129845106581705,0.24033625079851784,-0.07493574392276624
553,15.381295502808838,0.9880517613470113,0,0,8.501055419089665,-1.2565496040009745,8.844083307706738,0.8914614663220408,-0.45599602448259735,-0.006670846168609776
554,13.943126423557356,0.8478060049603315,0,0,9.689036399138697,1.3878091269076311,5.841962998237198,1.1128198966157445,-0.12926793908024037,0.08078263905085306
555,12.338505824717569,0.715341873192542,0,0,12.372548117298917,1.378293098659748,5.806724334865332,0.6677589771146303,-0.5126793589511356,0.15838798974176593
556,10.650537712294357,0.5972852203104568,0,0,11.913562269255271,1.510123124084405,5.595969855738837,0.6106887269336171,0.183376692907903,0.24299139568513395
557,8.964404467855907,0.49951549836108516,0,0,7.61949186006022,1.2924617081597451,4.395494105925855,0.3729537960208361,0.0366563450135427,0.05044668836681305
558,7.364489434721274,0.42693303317353226,0,0,6.279954480713867,0.7166396603235998,2.4022615287533307,0.37216472455266253,-0.3945316843386559,-0.16718769845902262
559,5.931450055377181,0.3831972213698857,0,0,5.892799554692337,0.8665079488016092,0.5350696233779474,0.2453031526974975,-0.34057256425591714,-0.08691871797454885
560,4.739170916926531,0.37047113691160416,0,0,4.076985449588739,0.15509761487119086,0.10385608574315222,0.08227194888444024,-0.07402752489399246,0.07212206332008966
561,3.8517331889476663,0.3892246982910562,0,0,3.203431375998754,-1.3474530569001155,0.6110531136928516,0.09736364576539905,-0.025807862084240463,0.18680799664527853
562,3.3205666186313363,0.4381506279005555,0,0,2.7135361078144675,-1.9344959168538947,0.857575474564685,0.24913883920208715,-0.13369284103124215,0.18437405614256389
563,3.181855287951639,0.5142290916532548,0,0,3.6573375794131784,-1.75008640868853,0.9722417995812195,0.3346327464123749,-0.5838712353898219,0.1275227898786887
564,3.4541567769393904,0.6129378532311192,0,0,4.727978157298235,-1.050621413248348,0.0967318111782129,0.4305734132757568,-0.6600593639961583,0.10045138928009317
565,4.13616480700129,0.7285647140541566,0,0,4.716558881138901,-0.3627323077342693,-0.3721678287218877,0.5037219856371563,-0.5467591004521436,0.05077401395028065
566,5.204669068996608,0.8545642423318658,0,0,4.876786732332433,-0.5308309202182376,-0.0790880141749753,0.5548707300367782,-0.5499173302383807,0.023008585549759524
567,6.613034632363735,0.9839174343135098,0,0,5.628635353872324,-0.9953596125462137,0.2259398954829954,0.737519365264203,-0.5622549133463297,0.055406814122567837
568,8.29082038951762,1.1094813372676866,0,0,6.153123064805034,-1.5036524420408488,0.5007447290956121,1.0084336411062078,-0.3051006198538961,0.08607551217255463
569,10.145311342558648,1.2243314611230856,0,0,6.464722403345897,-3.1023454100413255,-0.3107563035917158,1.026672127338828,-0.5104371346799877,0.12146936295654556
570,12.065617595431144,1.3220950442104147,0,0,9.853708188220136,-3.047906238145611,-0.5715499721655128,1.4470428999478415,-0.4908660287617201,0.2672762257033803
571,13.929548493474528,1.3972583116498882,0,0,15.416837747985975,4.116787181000968,0.5998934307932842,1.5277854913133437,-0.7782285260379436,0.6265388723254618
572,15.612794913348633,1.4454258322461822,0,0,15.186110937215993,5.665230209582814,-3.432303062658449,-0.26535555403729066,-0.8646047418422977,0.7886186668700237
573,16.999293260074353,1.4635314092686993,0,0,15.65209488567318,0.02550894103011893,-4.826287286510211,-0.3279463254804241,0.39817365297334517,0.6149645735185726
574,17.991281231412795,1.4500373977627778,0,0,20.519869333231547,7.914544936108644,9.86112989189462,0.02110666870147667,-0.2412879520162096,0.8955188972829449
575,18.51761281796903,1.4051674954923878,0,0,12.124045455269343,7.074873299528745,14.534607970403618,-1.576205974541793,0.9077535416303258,1.1486314207083896
576,18.53934076954264,1.3311609819877597,0,0,8.386865147695906,-2.328218129606774,9.973728676259055,-1.437294882755323,-0.8723669601530483,0.7953267052585721
577,18.052269418827773,1.232447983764321,0,0,13.688538554870068,-4.5293912466856705,8.570200187505664,-1.0407044792960516,-0.5375892735160411,0.29359378581890205
578,17.086829159125426,1.1156093835958052,0,0,14.51325500098744,-3.857644371840595,6.99433131254613,-0.42126371422436365,-0.9200086390007131,0.026463679807636236
579,15.70583526102301,0.989039444491797,0,0,18.9529983393089,0.2748036799323226,7.3970305123637035,-0.2865127368337892,-0.9785422516297396,0.05485124476301923
580,14.000415719223035,0.8623249495874364,0,0,13.345471567051602,-0.2958771079655907,4.099131253869997,-0.46524302628267766,0.7117483317197858,-0.04034800475987977
581,12.08406070137468,0.745422978665998,0,0,12.520828328938812,-0.19218187303579523,3.6456808558003395,-0.31209683320001996,-0.6991265601633618,-0.041250696597086
582,10.084798290326878,0.6477426179846973,0,0,10.024708498715842,-0.6719477142063383,1.4495330371725892,-0.41375157274238006,0.4149253529990487,0.018203032411700466
583,8.135926067650185,0.5772362159972582,0,0,5.839253432583466,-0.6222560869465628,0.7080956780979701,-0.4578967957631322,0.2793619718736991,0.030819515085170272
584,6.366189248275306,0.5396015262940003,0,0,4.172606598291287,0.14332642463768372,1.2803418875906092,-0.3862310303868467,0.30718257217568673,-0.04220287535241353
585,4.890497031544897,0.5376888216213852,0,0,3.4679498348091755,1.5871533938672968,2.226992939163554,-0.2884891979162252,0.2208778350353318,-0.16100437727179034
586,3.8021118117450863,0.5711929473885115,0,0,3.520262983319252,2.475374919457568,1.3443913418436582,-0.26092548009424993,-0.09358547749708385,-0.27377746177815643
587,3.1668268703321436,0.6366862288704508,0,0,3.447126882998681,2.54666206468003,0.7834478270138203,-0.3875422980627739,-0.04684512315328478,-0.2813931433354757
588,3.0192078035431793,0.7280110441650058,0,0,3.4694046590517287,1.8184534568160973,0.5913674221004134,-0.611375364433921,-0.1077788744403627,-0.2073704187347444
589,3.3607531412353957,0.8370000514751853,0,0,3.160520790896752,1.3340937866237446,0.0004484718026646648,-0.8375969757656505,-0.11417024289821538,-0.11357501360745158
590,4.1599024502649495,0.9544346432968177,0,0,2.657001902654744,1.1377481648133305,0.04923264560276767,-1.0333394615037008,-0.05419809913367805,-0.04012401556879349
591,5.354054380426997,1.0711027216128834,0,0,2.613786813791586,1.3525547920617378,0.2604921553737613,-1.1866001852250823,-0.3871202591629729,0.0205452725781122
592,6.8539211770728805,1.1787901485895327,0,0,4.372072866484447,1.3172932541532056,0.9051488702984234,-1.2997824693039866,-0.6307640850127618,0.122583504044617
593,8.550438620891745,1.2710452770520317,0,0,6.596822992812435,1.2611612311660916,1.6106213544284516,-1.3108578083433127,-0.5189404648492888,0.1991211395713254
594,10.324000915709002,1.3435951003090054,0,0,11.415747930319064,-0.07906747741806121,-0.44548942667894537,-1.5561182213387181,-0.9643556648699824,0.15025255926691178
595,12.055117165429428,1.39436200497537,0,0,16.254450567994713,-3.878799107340835,-3.273331068352627,-1.4950009085549252,-0.1720344163127404,-0.1209371718953738
596,13.634985186356026,1.4231251807009748,0,0,14.02201597543285,-3.6498011618465913,-2.6021272019820656,-0.6818359540805641,0.8203678418711972,-0.3448955780874487
597,14.974292814251825,1.430974426474774,0,0,14.784884145978632,-1.00368397950421,-2.463688252921779,-0.3582002375696929,-0.3515663357284331,-0.362722812765908
598,16.008931871192022,1.4197788429257299,0,0,16.858044028014966,2.0937628280225633,-4.625178012389,-0.16267441523263496,0.023678070851018647,-0.32466146067512774
599,16.702045233014484,1.3918840433938333,0,0,16.943527560465313,-3.6306169766174445,0.12118378379176653,-0.4672413204861613,1.9695895383423279,-0.5864375052671582
600,17.04257167768182,1.3501311637287128,0,0,14.162305108343523,-11.232130666941984,6.042528256925747,0.6438247665278141,0.8608411156205138,-0.8763777760873116
601,17.04103459654316,1.2981075704907945,0,0,10.043504605774258,-5.668407622165989,9.447101847738624,1.7065245006894327,-0.32624327600450864,-0.8179416821038719
602,16.723768347106862,1.2403995491847697,0,0,7.7279847449198895,1.991790940464415,8.670225721620254,1.7841658264653208,-0.47991946331327007,-0.6017477908867871
603,16.12705503354986,1.1826017417556238,0,0,11.096448363439691,3.560755999066812,6.348377253336875,1.182754407723556,-0.32223886460471707,-0.4216734342901712
604,15.292543001885269,1.1309457105955367,0,0,13.83349444454857,2.1172068293374755,6.8938703318284915,0.5375705706698535,-0.5225209278545676,-0.20886385168682128
605,14.2646922538499,1.091577859578486,0,0,16.959992964337605,0.1652164197119698,3.797269067047748,0.5177202654043135,-0.46173115639961193,0.1338185870340294
606,13.090068071281959,1.0696624272207196,0,0,13.814160748766819,-1.4141602839685754,5.002288482151001,0.7436832660648796,0.40427531840651526,0.27741859648844874
607,11.817600665984356,1.068544221972398,0,0,11.369046508004386,-2.1239770557589024,4.244045465155976,0.7835425651289908,-0.40542700028183704,0.21708456431873094
608,10.498811178997208,1.0891680417572716,0,0,9.653568414773265,-1.4889054632530305,2.1010629116095436,1.0510877952360465,-0.062015966577249636,0.08495337424488991
609,9.187384272477251,1.129860453590933,0,0,8.371208941488973,-0.4716869332858817,1.9590660552984103,1.0668319872172907,-0.33629798983850007,0.07828286353873926
610,7.937961532654405,1.186487863479522,0,0,8.09190115931233,-0.2695114010459009,0.8694869120625327,1.1235501687836547,-0.17554219144505023,0.24568794383823675
611,6.8043323227812165,1.2529399991577461,0,0,6.5560167111710195,-0.7270040547490964,1.1788171022812288,1.1849292388272608,0.050256059848598635,0.4400076342872242
612,5.83726362404886,1.3218516700009384,0,0,5.246591276375999,-1.3393821907346815,1.7021606528176747,1.269305864543019,-0.011825312929407177,0.5236037414144997
613,5.082156265481549,1.3854595418413265,0,0,4.809764283213869,-1.5155785521887475,1.3004963947576094,1.3710058637960698,-0.21733305070131123,0.471617859333127
614,4.576652867279951,1.4364878150893556,0,0,4.806828194472928,-1.201474204995199,0.492968207374158,1.462176158899632,-0.27045783102847565,0.3531344193897145
615,4.348292254726671,1.4689651292091213,0,0,4.692351610083659,0.058336967760652066,0.01210137935051311,1.4874866124522785,-0.2516608254308807,0.24027270028876876
616,4.412313670706943,1.4788942968214547,0,0,4.667705866991454,0.5149468555793307,-0.254724111869805,1.3594867946718332,-0.3282518283729439,0.12481617545302354
617,4.769770707542944,1.4647223140240826,0,0,4.55606300863631,0.45310734197263564,-0.4110987529757882,1.290990083839157,-0.4222871162515728,-0.021037559775835015
618,5.406211682135171,1.4275804967743215,0,0,4.455729717340397,0.041501686059277565,-0.5414208601267769,1.2921188162660378,-0.5352604076731199,-0.18637089249202374
619,6.291273465268341,1.3712731081469665,0,0,4.8023056133293505,-0.7098698256496258,-0.7124777349345812,1.3500986582929875,-0.7722783314846758,-0.348005246963419
620,7.379543335129973,1.3019874772417455,0,0,6.243272154758791,-1.1387194397522573,-0.7462093670302925,1.3210876215815894,-0.6995674176500032,-0.4443534217462751
621,8.612901323299834,1.227695860551455,0,0,8.402844350593925,-1.1096888830546368,-0.1334020538696213,1.2302803676816634,-0.6632983870049525,-0.44198498963690824
622,9.924260827045433,1.1572425036678775,0,0,10.779980728365217,-0.0025592810645649264,-0.8601770506927175,1.3510223342158676,-0.4220437866457724,-0.35283958925126724
623,11.242273947513919,1.0991704272478904,0,0,13.177342048111287,2.353396274140805,-1.5891383144805218,1.2652082771504158,-0.18765130238700614,-0.14577793813682396
624,12.496327327632246,1.0604334873838257,0,0,12.894738136763113,3.286453687955045,-2.9616112167421096,0.5768143326487721,-0.004340774949925294,0.09464608005419504
625,13.621170026882542,1.0452350360545788,0,0,11.666190324994595,2.017424798986347,-3.1665648625506115,0.1407999321014092,0.13977900581558914,0.11886925935493825
626,14.560792466295108,1.054292913887833,0,0,10.978333558203975,-0.6646569954080436,-3.8280236338144906,-0.21658373524840302,0.11193201198891549,-0.006569074631587121
627,15.271516719625303,1.084799288618108,0,0,14.03593861944821,-2.269226893394339,-2.6004551740201967,0.14178610084334428,0.12317144095538443,0.06111845271546278
628,15.724373967091223,1.1311911645756467,0,0,18.008372042773775,4.1192272663932705,1.9827053768115288,0.16414503452058193,1.5325168878226783,0.41366753655587807
629,15.906634372065005,1.1865999105728107,0,0,15.286690447754893,9.0438374333838,12.047006056334109,-0.6652443091143756,2.0105234216336823,0.8155209347205344
630,15.822089535606395,1.2446007584161984,0,0,9.47878534713807,6.660181219736514,10.986136684413289,-1.6651872145115187,-0.21575622043679635,1.0890741671218003
631,15.489795343633391,1.300759320722283,0,0,5.41225853215319,-3.011995370735475,4.563718301836683,-2.0197195386983333,-0.20891604015924123,0.7126772156259134
632,14.941534830944299,1.3535455851943983,0,0,12.14255807879307,-4.735760118566037,5.716052861433965,-1.0482348895891762,-0.9366017391134815,0.2559798325311789
633,14.218764255405716,1.404424004816254,0,0,15.413266176469703,-1.4709939235109317,4.646706828762171,-0.6259179228441333,-0.3816816532159401,0.12284521588261287
634,13.36972293332622,1.4572136073945186,0,0,14.737376464772767,2.083057534557093,4.340573832218884,-0.9350093181232387,-0.2548090059077334,0.06850417232614579
635,12.44681299266851,1.5170165893183591,0,0,12.55900213382584,2.13614502257376,3.330405175670816,-1.2154836457524838,0.23190710858593414,-0.04940086630588655
636,11.503898431513546,1.589066909774339,0,0,10.826171912760593,1.9219721022792493,3.110398922654468,-1.4249266353864651,-0.004901844274548262,-0.21940721619117406
637,10.593214848701527,1.6777675239627938,0,0,10.146292273998021,1.7324687146131958,2.180978143573448,-1.6378189826797191,0.23319836946982103,-0.30742743900132263
638,9.761954721846793,1.7860430174351525,0,0,8.497083617501163,1.2182638269044668,2.071816348767317,-1.8570735906627482,0.2544326286328084,-0.3631282978324087
639,9.048937982970209,1.9150102697896816,0,0,8.1076837133876,1.0077400154965737,2.341255402746707,-1.9447875603773088,0.15251246989810724,-0.482971455118285
640,8.481908578141375,2.063899316068446,0,0,7.683302913700639,1.5657653156697553,1.8295730456545696,-2.036583031371736,0.061881119568143135,-0.6167235877892381
641,8.075924666918123,2.230138831699242,0,0,7.114861107473012,1.9045089713432022,1.668801925695909,-2.184347766228984,-0.009432279278187274,-0.7136442951546352
642,7.833115632310215,2.4095377239580853,0,0,7.031484283283327,1.8724583100014416,1.4587725845693988,-2.2999670824966825,-0.14318861674516178,-0.7278398106781171
643,7.743843084319991,2.596525443257444,0,0,7.606723812980527,1.357869259725914,0.843534233916898,-2.4592322555236743,-0.16441446903954987,-0.6634062083600399
644,7.789078737327388,2.7844430386518653,0,0,8.091059790693645,0.7388610977532964,0.5610856560651812,-2.664002643551853,-0.0777657909111411,-0.5700462523376361
645,7.943631477151223,2.965895679923469,0,0,7.996993436684695,0.827513553180501,0.5296688196864395,-2.868889335507472,-0.026827862046319567,-0.5043481285521112
646,8.179745308631565,3.133181670911862,0,0,8.093070558377924,0.8726551442943566,0.49094056567114697,-3.096354451885684,-0.0984537071635405,-0.49412420877344554
647,8.470560700839872,3.278804233802397,0,0,8.581583775560345,1.1746185750000218,0.16137171776041326,-3.181220396794871,-0.07863851329422614,-0.5016910663586872
648,8.792963707546388,3.3960561520277497,0,0,9.250210716214017,1.7751925171699592,0.6590311442983324,-3.225504736413999,-0.005044943654816688,-0.5185010451261453
649,9.12940980801108,3.4796488769268796,0,0,10.718426527362904,1.2795382331691194,0.5167400404444599,-3.43278504468038,0.14889045714389731,-0.5252301745707866
650,9.468410882857187,3.5263376134343654,0,0,10.581064592495531,0.4422870224719568,0.17068811236000728,-3.5475609292311647,0.3667014472925612,-0.5673874414555315
651,9.803567582391876,3.535472237519242,0,0,9.877280535796164,-0.3092822718400962,0.8730011623145273,-3.5643448454978355,0.20749756754096993,-0.6449423989123084
652,10.131349216163006,3.509386865049754,0,0,9.420806403378023,-0.08249305096195433,0.6528260528727969,-3.443598072597911,-0.09533165243882154,-0.6475336143372011
653,10.448205771653175,3.453537950845125,0,0,8.782832174723053,0.5843013812737331,-0.5126589791480455,-3.521885697182505,-0.21633200422153384,-0.5703439111446479
654,10.747884628888743,3.3763146978757606,0,0,8.276092730925933,1.2291404139700721,-1.239509422582292,-3.564077485279852,-0.10398469627132255,-0.4493519430123088
655,11.019858420238322,3.288472322660939,0,0,9.327822539560959,0.9198019954559538,-0.4567528979369659,-3.5852589361694,0.20072506794575745,-0.378719135207644
656,11.249481422057547,3.2021786985892353,0,0,10.83995263174648,-1.6535246609263128,0.753302739040473,-3.3887207154531866,0.47764757082455145,-0.41168139116945895
657,11.419943435623248,3.129725758333094,0,0,12.46578710961591,-4.855993579964839,1.6573691335992136,-3.0287411233230115,0.800103309280427,-0.5551626597827912
658,11.515477714155397,3.082040626183156,0,0,11.365244631972509,-6.50097124719084,2.9611853833509767,-2.5508508929625893,0.624164606238042,-0.7778811885632856
659,11.524867388561983,3.067219048918923,0,0,11.149405225885372,-2.1087459832221316,3.1659571434369753,-2.2918847816203534,-0.15690632746571526,-0.8038767988706661
660,11.444265877995786,3.0893561117368176,0,0,10.879123462762344,2.5796702397345705,3.018536536991505,-2.452809923790263,-0.007761231747731368,-0.6208290152448876
661,11.27866146723282,3.147925863783745,0,0,11.063125760920919,3.3900597149286176,0.835987940258776,-3.0045440547186284,-0.09593021617285725,-0.4459382588056011
662,11.041750697397694,3.2378503592288164,0,0,11.657429796203763,1.2076758774637577,0.1380450563495727,-3.2792242693861424,0.5069727714532362,-0.3951208193577776
663,10.754337900239864,3.350235165522019,0,0,10.97133036990392,-0.4931901676109232,0.8250067281636911,-3.434352033008524,0.4361232666339009,-0.4645422998583952
664,10.441610325117578,3.4735986424699656,0,0,10.081753715182394,-0.9982731279649786,-0.11377255422086083,-3.62502334625039,0.4462275982360573,-0.5202825265470422
665,10.12980695603442,3.59533881197033,0,0,8.787298008229993,-0.5248986108637422,0.205061733961094,-3.732993023916822,0.580523658553824,-0.5757812869541158
666,9.842916917349838,3.7031748591167095,0,0,8.431974430023677,-0.12069447637584631,-0.10367298849470617,-3.8307626267277177,0.4232920661669121,-0.6062883033144842
667,9.600043714636243,3.786349084168909,0,0,8.978524711663646,-0.1805638264565146,-0.38948066797175906,-3.8873409079646493,0.4905730312820087,-0.6049059112188999
668,9.41388938071936,3.8364528801212128,0,0,9.46872869554742,-0.8213731074518064,-0.29031520429206914,-3.888055101491728,0.570839689761568,-0.5882599676586642
669,9.290476731684397,3.847827704812623,0,0,9.97198126400313,-1.5757980923987096,0.03524274486878365,-3.7931514565244964,0.5382051637488986,-0.5552687043332589
670,9.229871919495235,3.817575670793348,0,0,9.830311725263101,-2.2318986700239067,0.3153630563893327,-3.627136675949916,0.4411065108682515,-0.5105565641153951
671,9.22744900356952,3.7452824849353887,0,0,9.49288566334122,-2.452970470365072,0.4900687771548536,-3.452865658332003,0.32949866689686674,-0.4785748615987894
672,9.275231058275224,3.632595201437727,0,0,9.092390640119573,-2.1821502946785376,0.4207394934364818,-3.323722315990856,0.2880025163962628,-0.48483025455190315
673,9.363011958617722,3.4827969568117285,0,0,8.883394941839558,-1.6552473010453375,0.14830711151572787,-3.2433813506330176,0.2132462232374661,-0.5735549359939163
674,9.479197470946533,3.300477622831797,0,0,8.980269785550053,-1.2908976395386698,0.38601171321093486,-3.1926088865100533,0.279753364228373,-0.7152650034358328
675,9.61148645260691,3.0913256184075233,0,0,9.093082208246848,-1.1820009622815049,0.5674170546251128,-3.1414858222473763,0.21096633499404466,-0.8410578336095595
676,9.7475770168873,2.8619885519914257,0,0,9.445708158436059,-1.7692108256981824,0.292989597949168,-3.035025356496157,0.19243957304795198,-0.9154707600009538
677,9.87603106903579,2.6199001280118557,0,0,9.224322400236314,-2.89808305535395,0.2910073700707419,-2.7697817004905465,0.13918952088479494,-0.9323615363111711
678,9.987312630545846,2.372970799843475,0,0,9.324909003325821,-3.5687930802295886,-0.08846983558502224,-2.3807628015291105,-0.17886595463625088,-0.9007687820483965
679,10.074887180521443,2.1290937559346332,0,0,9.379692825327531,-3.421057713805191,0.19287186039032317,-1.8737384881985484,-0.052320839104535735,-0.8306648385733926
680,10.1361666638573,1.895506281459307,0,0,9.870821071721778,-3.4460458903941333,1.2564629285443019,-1.4636201605705361,-0.25921364677900355,-0.7413542187014469
681,10.1730229248838,1.6781323447608898,0,0,10.863644215167726,-2.9947567402645605,1.6931980560031321,-1.1267254055982434,-0.35819904725994556,-0.5714662613608655
682,10.191588099828117,1.4810769266711254,0,0,10.592834554174672,-1.8841631535316536,2.2616501108685365,-1.0316782370474173,-0.09278649279188335,-0.35446158990812227
683,10.201147635163455,1.3064235863680185,0,0,10.374950028624921,-1.2778299593588582,2.298022885261532,-1.1478306220818284,0.0157029167819003,-0.15774390487428808
684,10.212134695584824,1.154407199231918,0,0,9.955174000999099,-1.0496027714063119,2.4727954996107555,-1.2608362467214862,0.21567151733678533,-0.02175259693259798
685,10.233521741368458,1.0239222014195601,0,0,8.833279908694458,-0.7858183857520596,2.4558972093628224,-1.2841289634201394,0.16742513187362693,-0.049214121521718085
686,10.27017837443749,0.9132269818074187,0,0,8.301627797862574,-0.824241299126747,1.9181116156221019,-1.1385300985806814,0.04095131942382012,-0.15609412654674895
687,10.320903226305791,0.8206568721149753,0,0,8.804220772657064,-0.7278626298622954,1.9873214178485206,-0.9512263512635025,-0.007675793616201758,-0.21995199368325047
688,10.37775254783697,0.7451752142442122,0,0,9.503191608679343,-0.6732283021946691,2.796201671824411,-0.7969750710772034,-0.0520407690026639,-0.28166087269597595
689,10.426974242667795,0.6866566825568646,0,0,10.656734196298371,-0.319623215795717,3.320351485118177,-0.6062146919439024,-0.11743722161068966,-0.3512894997436868
690,10.451423206832438,0.6458767780341235,0,0,10.38692553765617,-0.06684423583026472,3.6340602076236594,-0.44330649525152543,0.2600889556874194,-0.36965910550689157
691,10.433961742730558,0.6242493715312396,0,0,9.555410982132438,0.28560366988141134,3.5525597657032035,-0.3506920965978,0.1416932621908447,-0.3295748049121107
692,10.361167646590431,0.6233973933354692,0,0,9.840017298966083,0.4861362396429498,3.2249812093723333,-0.4319534387875429,0.03498592536475742,-0.27348803248317766
693,10.22667513413123,0.6446572564360749,0,0,10.392179504241666,0.6000208940380859,2.8399036289698096,-0.5639698796256198,-0.10319418229323643,-0.2607820166054269
694,10.033558695436213,0.6886082151574182,0,0,10.873265117749591,1.4681955007026686,2.5907690423581307,-0.5913559963923796,-0.036002259841400375,-0.2878844663977212
695,9.795271276881715,0.7546923760924507,0,0,10.588941456835311,2.1275238824548777,3.1309257921736977,-0.6348459021494295,0.05382480325758758,-0.3932151882055681
696,9.53480028311426,0.8409623631388934,0,0,9.631317168074068,1.8250751460394388,3.0827529086127905,-0.7206240320411399,0.059684971314116785,-0.4941213084454657
697,9.2819746934377,0.9439721010659812,0,0,8.49974860847208,1.4311745692130649,2.14447364340801,-0.8430018939560183,0.01801335518230186,-0.5103062358436024
698,9.069234406206919,1.0588155570890048,0,0,8.268449088905085,1.128724318710807,2.1554705587265444,-0.9264575764052998,-0.013077114157635314,-0.49388708778961754
699,8.926545762098733,1.17931721907012,0,0,7.996456000826165,1.0357911330454086,2.059438122441243,-0.9536245130990728,-0.05549042176310237,-0.4332146293881327
700,8.876377742460823,1.2983813559959199,0,0,7.5778010160162586,1.1341087812513706,1.7971437238795647,-1.0317008252068227,-0.048514183253727666,-0.33833466724399147
701,8.929676633995145,1.4085043837928894,0,0,7.414285619248236,1.3779334776418197,1.984792521249286,-1.2067000135561787,-0.23623479284252677,-0.24737453759790096
702,9.083614718417225,1.5024338916029645,0,0,7.668615605527012,1.1666275694670336,1.7492502658284625,-1.4462745930150376,-0.40380561304042706,-0.17571485440143042
703,9.321590963296845,1.5739154960209711,0,0,7.697548955417955,1.356910986384035,1.891248352068414,-1.617026704056982,-0.44162058738331,-0.09678650174159875
704,9.615567606421013,1.6184174211916909,0,0,9.202011850542224,0.9933646589341706,2.254397954119813,-1.8493633611481384,-0.45194326268946633,-0.09661284507485099
705,9.930378588460755,1.6336873978859372,0,0,10.66648012954162,-0.48496925181294515,2.21510817777298,-2.0055577538884837,-0.40006105389532093,-0.17946255271336653
706,10.22922359124546,1.6200010139389445,0,0,11.485302059864372,-1.676261943503554,2.6325200374835345,-1.8142675263424202,-0.25120968047729986,-0.3509692743391738
