id,ASVM,GSVM,walking_nonwalking,normal_abnormal,ax,ay,az,gx,gy,gz
1,9.717565445109702,0.0015825079533494742,0,0,9.46340370154669,0.8191259833611599,2.3304036766959597,0.017361145582812675,0.0015756552105548982,-0.0058138522531737315
2,9.689519765525445,0.01038015666166161,0,0,9.471071731424553,0.8500741264956705,2.3435769632414343,0.010646373256537108,0.002938355224183854,-0.006550313621768232
3,9.664637214114043,0.024177829910026375,0,0,9.501668108652073,0.7879667637224403,2.3334833324699513,0.008931648249746384,-0.004294696222940508,-0.006056154215446126
4,9.646103970519952,0.043111494682455204,0,0,9.396276847530974,0.8572675504236638,2.201513464661424,-0.0034524649926052716,-0.0034631590697879913,-0.002835989458096362
5,9.636769873924802,0.06679434829854501,0,0,9.159902463445983,0.845872355638182,2.2163177551971374,-0.00032211167908276586,-0.02665250190380593,-0.010535786142944193
6,9.638606509679562,0.09427305821157121,0,0,9.451723831959889,0.7528454339848073,2.469640969727322,0.027748389325795108,-0.035959951718557745,-0.020311882449022583
7,9.65220884865315,0.12405899439774146,0,0,9.436026679209576,0.8001920626733253,2.2078294657150392,-0.019428924184368528,-0.07386368467628603,0.013094543793888086
8,9.676455233322994,0.15423999291407217,0,0,8.99758925278076,0.8890968204363181,1.6748593316836733,-0.10434189909322564,-0.1485890416118043,0.044393170225458925
9,9.70844329311217,0.18266317440461113,0,0,8.871953815541515,0.5336701511269321,0.8602810989815867,-0.09976396439234496,-0.20987948856523556,0.04955799836569969
10,9.7437981727066,0.20716588244738068,0,0,9.424259965660372,-0.10258543730402496,0.8659747203304987,-0.010495470739164726,-0.1829360701033972,0.011456952364098405
11,9.777377288425207,0.22582490329027335,0,0,10.019041061600836,0.34790342041496075,0.9415502393814128,-0.01954393274010621,-0.23591962997870194,-0.05000640575310677
12,9.804264214029322,0.23719529567126163,0,0,10.358857545773075,0.6377707569879579,0.875586125663727,-0.007526692455901218,-0.2505279529705491,-0.09049070852346622
13,9.820803851225893,0.24051601146784166,0,0,10.596112163532089,0.4697268738435866,1.1757291174824318,0.053238491621856635,-0.2089029269283054,-0.09178909421981646
14,9.82536953197508,0.23586570121327755,0,0,10.31928609227798,-0.135891022697075,1.2923577098539099,0.09853633391859239,-0.10516097137055042,-0.1097689907499485
15,9.818625913238611,0.2242565920952229,0,0,9.636586536339001,-0.05903088440275576,1.3374626500900453,0.1625015663852035,-0.0018418288172735928,-0.1104495302640723
16,9.803238925054423,0.2076555771561276,0,0,8.971633838289335,-0.020659363655028434,1.2440032769911213,0.23197129889246712,0.04295402498806337,-0.10396083867557333
17,9.78319771501131,0.18891846512061955,0,0,8.882012792773203,0.24055898045547106,1.2099499495817618,0.2681916506331411,0.032526703313830264,-0.09680930634707383
18,9.763043736480396,0.17161893477497064,0,0,9.24610247645212,0.7178269875179949,1.226646109625043,0.26645793089099695,0.013979649594388407,-0.07576122923827279
19,9.747279719635062,0.15975644793513355,0,0,9.75997350689933,0.9816082802606468,1.2130269483118232,0.22786195493758607,-0.014720913095004734,-0.05935958146719063
20,9.740074682279204,0.15734401245515586,0,0,10.056087104252587,0.9491924010667769,1.0975108379974419,0.16496400113481574,-0.0462127005267829,-0.05622189872355198
21,9.745186102721656,0.16790589657376656,0,0,10.031738285528984,1.0438132712881045,0.9044407320601585,0.1263158307652856,-0.014721894850583339,-0.048630723112786954
22,9.765893343732373,0.1939479654977996,0,0,10.064951718754207,1.060935863009788,0.7814764352751427,0.08829047556973801,0.01990609829611551,-0.018298634700779203
23,9.804728689162365,0.23648750701206525,0,0,10.228343640893103,1.115033186028383,0.7922592984472782,0.034805319977142986,0.06454042432915104,0.02734846207539125
24,9.862888693283859,0.2947358100372218,0,0,10.064811637975499,1.2972402807435492,1.077967039445906,-0.015803027584416898,0.15961636830094708,0.03236131566925988
25,9.939363820980864,0.3660108009434425,0,0,9.603297078972485,1.3497861192869411,1.620484339558982,-0.09492985218942056,0.2782536239933104,0.009325993782983218
26,10.02999533887381,0.4459207144958651,0,0,8.955220043642203,1.2313975101301837,1.9648788688422139,-0.16967870770494906,0.3254138236211057,0.02501272723661633
27,10.126809307654185,0.5288116155042,0,0,8.447805264320955,1.2737724227277325,2.0709523147510387,-0.18684509052700862,0.377885768577238,0.11527800034968125
28,10.218025864828851,0.6084224735123336,0,0,8.941448787137459,1.3284521985567392,2.0686600028880724,-0.20444804532654937,0.5728201337186793,0.2513653381370343
29,10.289037784058909,0.6786495247946932,0,0,9.602980304918148,0.9418303753350871,2.409288877910628,-0.23860477582245496,0.8222679786004798,0.37906857849017
30,10.32438966280848,0.7342937076065782,0,0,10.715493429172493,0.13307654582912531,2.6848794869192885,-0.21694419540274026,0.9132991967205739,0.3734824209187692
31,10.310451867093194,0.771661932577543,0,0,11.419623312176018,0.04850694130855709,2.3715604412116678,-0.0703112693555395,0.8184044100750907,0.24461836139625906
32,10.238218527863435,0.788924921036761,0,0,10.469407164648963,0.8910472513400015,1.8899702866196835,0.023724258983771333,0.7070881475479719,0.19279962821773747
33,10.10559122653912,0.7861955552860701,0,0,10.208189117383315,0.992551781899737,1.4803642537539528,0.040254646124870286,0.7135837319252684,0.18297919244223787
34,9.918656826866627,0.765356733768648,0,0,10.013366446890148,1.0835153629734182,1.029646670943377,0.07312882671321093,0.681381225736841,0.11893109798860227
35,9.691731201541414,0.7297096170897448,0,0,9.676465665322219,1.3273208420588176,0.9310729600895757,0.06916184113218087,0.6924878870182586,0.016068516977877454
36,9.446193458819474,0.6835232231488395,0,0,9.356981117491717,1.8584539075126634,0.9417066991204266,0.03647069949814333,0.6295932693606555,-0.08377647923686103
37,9.208314029787491,0.6315542669806145,0,0,9.060172561933054,2.0672036256674318,0.9512204458921623,-0.028056743414706993,0.6065918403908691,-0.16783508264610508
38,9.006392301231179,0.5785861096210136,0,0,8.536907388777422,1.8675830436292407,0.9560960438094614,-0.04326953911144293,0.5281081275575055,-0.21429735745741688
39,8.867591629428357,0.5290169398348317,0,0,8.016550338626155,1.485562356364725,1.120793293371755,-0.06460220124379719,0.5179520090409261,-0.22522676358254945
40,8.814895111395561,0.4865140700710121,0,0,7.894920552363902,1.0407798785122206,0.8730705974507814,-0.13582895542349083,0.3994309919435242,-0.2573761753035245
41,8.864580464024415,0.4537450234582464,0,0,8.504208992986403,0.6000126370963393,0.3840641472958833,-0.18983381049861622,0.31481961653376483,-0.2561648807439554
42,9.024501428543005,0.43219626894788127,0,0,9.149171237410332,0.687916296824335,0.00442437058382578,-0.22279744295985776,0.23756412232473073,-0.22606924823468033
43,9.293280460775197,0.4220936916340149,0,0,9.917401067402139,0.6842146200329248,-0.29114766324830765,-0.21369572603998924,0.21394114221941168,-0.20236705792334606
44,9.660332755005454,0.4224399477654786,0,0,10.170403594962776,1.0340035412059505,-0.3074184185721592,-0.155554658806707,0.20011985032678584,-0.19561826585099512
45,10.106542770754508,0.43117783096476014,0,0,9.973051616351619,1.66003586204248,0.033140562636759616,-0.1597250016580626,0.23912767413632374,-0.2252720461516596
46,10.605442574530029,0.44547311272170503,0,0,9.779473424967469,2.2533268418157664,0.3803018506996577,-0.27617084384945295,0.23081599526566293,-0.28591727000672423
47,11.12485407374784,0.46208672093156633,0,0,9.823441241863806,2.7082227256294726,1.6998624744828463,-0.3974666251331536,0.30941742721943344,-0.32106195700624235
48,11.629053074450136,0.47778251386286985,0,0,10.118297486874436,0.6575891798340588,4.787366153658398,-0.27943800198100266,0.5088757418013783,-0.3606910351940218
49,12.081499290892216,0.48970622661803237,0,0,9.927103979935389,-0.6532730031065247,1.8731809605606797,0.09294900045279676,-0.0449279742454677,-0.41991161983269554
50,12.448021074227409,0.4956832257524469,0,0,13.030040868391069,3.286741605634181,1.7523679508283547,0.023166789987128247,-0.06857757708294097,-0.5541454432647674
51,12.700084633554042,0.49441401673029645,0,0,15.261721748589391,2.8003707943117195,4.249819513858606,-0.14929345746500697,0.08289419472697014,-0.34948252641180777
52,12.817534596884206,0.4855801926243561,0,0,13.42623331545383,0.21948422208673068,5.902722389088182,0.10184116268473774,0.24989760800003274,0.0366007588639785
53,12.790165280880498,0.46989126391066066,0,0,11.12135134964086,-1.064196916011084,6.106634066894801,0.18414399687832408,0.3220945515912723,0.01848727378648484
54,12.617811560387633,0.4490947598687508,0,0,9.070359114616334,-1.0003061597109608,5.011996214664434,0.2916268391748294,0.2924233138094883,-0.18564273858263355
55,12.30921235581533,0.42594049318262206,0,0,8.063221905834554,0.6637326782838272,5.255111257205854,0.27594732497723634,0.6581925711750192,-0.3560768636672586
56,11.88033468374419,0.4040524148754847,0,0,10.329068702911306,2.4358282533956195,5.920501156349365,0.2405797127646142,0.6834004681209478,-0.31351279530091136
57,11.352858311834703,0.387648090090396,0,0,11.461649261488974,2.3709376318273168,5.357633630573833,0.21154508004740644,0.32320491421552494,-0.02263792175660069
58,10.753158280985195,0.38107976613460404,0,0,9.86084047966274,0.9331243558352572,4.426154068406242,0.06307778408191024,0.09244192916276625,0.090050021617924
59,10.111708815920183,0.3882429514341455,0,0,8.251617313805019,-0.6206585823050429,3.4296157989612226,0.038236063761742586,-0.06233414220235749,0.07028884523363385
60,9.462635815457281,0.41196493521871413,0,0,8.982671269818951,-0.2330459332395011,2.752651806446906,0.10047314351322531,-0.41163580894520974,0.08819612960465019
61,8.843150397227532,0.45350431787695544,0,0,9.7829314133277,0.7503472100234443,1.9041305417920829,0.054244625033633975,-0.2755485993037911,0.24834988914163939
62,8.292629353088012,0.5122591838012863,0,0,8.27800047566863,0.3850792882009223,2.553740640918153,-0.07753125271106341,-0.19659811761948762,0.3883616241641502
63,7.851105883511082,0.5857263610227695,0,0,7.914353159890425,-0.7344065569200908,1.865965793078886,-0.11021715442537904,-0.4621685404858237,0.4379760798508524
64,7.556976761768189,0.6697072862236815,0,0,8.159191269441482,-1.6916966656733292,1.1791147003737943,0.03413536208866303,-0.5056303136024718,0.4249918387720315
65,7.443880420286043,0.7587266176438129,0,0,8.05293555726266,-1.5958246705464036,0.5976741000503583,0.28450352767758763,-0.3450035551158552,0.3574358009005607
66,7.536924884421081,0.8466126127545466,0,0,7.474694190312662,-1.2296557748029684,0.26657834672468467,0.5743515958126135,-0.21803048829473964,0.2804144176836976
67,7.848695043328127,0.9271726803831449,0,0,6.444594549570969,-0.3921900518806299,-1.0443805370909653,0.9177249335916057,-0.5455666880174492,0.2304164371186194
68,8.375697619826807,0.9948743806359914,0,0,6.536383858237175,0.15007346189482412,-1.237363072573669,1.2021830213291664,-0.8114140701007502,0.2576824372625687
69,9.096018849685185,1.0454188090970016,0,0,7.312935282182172,1.3848590988742024,-0.4455693019345754,1.1386037343212019,-0.5796226240415612,0.3739867810835233
70,9.968863477274786,1.0760982578322242,0,0,9.453685486912079,2.272747893771027,1.527719684341887,0.7066814626681877,-0.82108228015563,0.566234402045185
71,10.936290597133254,1.0858869663998925,0,0,12.486049500485015,3.006640317870952,-0.5547074189363007,0.017277676091844576,-0.7314980862768832,0.43814370261272095
72,11.926996860589155,1.0753083783303568,0,0,9.3868085432537,3.0247906566880647,7.125283425930272,-0.09984809082010747,0.3038777170321102,0.17279311646860626
73,12.861653068050327,1.0462019488818788,0,0,8.697286862408276,7.8208049255120695,8.62663906398422,-0.4821103184549289,-0.3272653399701051,0.24476093268968316
74,13.659237693531983,1.0015212396331816,0,0,4.771267855308234,3.0939434837290074,7.991488066399258,-1.397200404205555,-0.4112179816436161,0.14936219189786887
75,14.243972536005852,0.9452189232781445,0,0,9.017389659123623,0.5422882030336214,5.863719705239666,-1.0806496226329065,-0.9107866189011878,0.14550427123957685
76,14.552581414927293,0.8821650234626394,0,0,15.439149117510636,-2.8539109280586175,5.6627930912010855,-0.8950004379030582,-0.19718208933022227,0.4016989648415908
77,14.541399974436374,0.8179853208927016,0,0,16.56818640204449,-3.257521075916603,8.371019088589325,-0.5200953323600209,0.04566595444518013,0.46660402303007636
78,14.192422013945544,0.7587357791260497,0,0,14.14945938036525,0.6557231660112239,7.433703444457288,-0.4393935264250293,0.3225606601292084,0.4551175963621301
79,13.517098799646757,0.7104071939670562,0,0,11.933602790448647,1.471045710052333,6.369319161654336,-0.42400451160001346,0.35445029300224895,0.5490450059052677
80,12.556976464841773,0.6783183355242997,0,0,11.769947970570696,0.6897193650027286,4.2614828924735955,-0.3631245286275794,0.4818444697204813,0.48347346819741394
81,11.380952555951783,0.6664820473687039,0,0,9.331323400434915,0.6695121056960779,4.073523411863468,-0.2398963328347873,0.5626934685343374,0.24167716623684896
82,10.079617437103755,0.6770353626444314,0,0,9.20787831766967,1.6280819438554244,3.2143615258811935,-0.22790660156563175,0.3570467681844656,-0.04860009267513209
83,8.757507699708738,0.709829997937819,0,0,8.492229740091732,2.3388656373166485,1.9644363284835127,-0.29971228250904197,0.20924753134490048,-0.29198312274467275
84,7.524137034264936,0.7622772873560368,0,0,7.416507367227165,2.238968887366385,1.1693425008957112,-0.273815512485093,0.07173541528762281,-0.531170238601451
85,6.484559410194885,0.8295135358770089,0,0,6.3329716310220086,1.258230307935618,0.4700530682232529,-0.29228165910334913,-0.18304919109497575,-0.7208666007354237
86,5.730125134028057,0.9048936352986252,0,0,5.694737753339368,1.0233022108572234,0.03762062876458558,-0.3485678588716077,-0.3034084129342638,-0.7944704938415938
87,5.330077246990157,0.980750495496457,0,0,5.035724393122123,1.856509773852788,-0.2944573896986515,-0.5161961602316246,-0.461749944374547,-0.7350913426745085
88,5.324675931413586,1.0493005980202157,0,0,4.37525517899567,2.364069485079175,-0.6829054756907379,-0.7989892289837442,-0.7591396336539618,-0.5836476500638094
89,5.720576743544317,1.1035472047776904,0,0,3.1620958160304333,2.2725372102893604,-1.2808326240265806,-1.022239545102275,-0.8888410680285288,-0.34511240704655216
90,6.489174801115516,1.138036908662669,0,0,2.939179903781097,1.9732430350827967,-1.0958487975032485,-1.129856450630966,-0.762169902511416,-0.013370094143544226
91,7.568488438129438,1.14936293243211,0,0,4.029184585823992,1.5259593375513505,1.3575842081977618,-0.9856173430785392,-0.41838903741167194,0.11603724763442651
92,8.868786792942847,1.1363741013633473,0,0,7.803529210145429,1.1110311848789134,3.3683768403648315,-0.75072229404619,-0.33245278248613114,-0.0013597602528854472
93,10.281521349412115,1.100119761872642,0,0,14.715236685713995,-3.534537158225908,2.279083673279139,-0.8137098586306003,-0.6807294248502692,-0.4630055040124766
94,11.690363153539412,1.0436058669725605,0,0,11.955669519820491,0.7702255308024348,-0.4055230214459508,-0.48337543692739693,-0.7059062864188094,-0.6656262560321269
95,12.982638833787949,0.9714400791531781,0,0,12.160041154383622,-0.43518595135119176,6.493111555851204,-0.4599507239614756,-0.26955368250610073,-0.6156102775809278
96,14.059489567581643,0.8894189845239061,0,0,13.11321654789486,-9.518669937500318,9.012685701387976,0.4564674577685839,-0.4833949097914468,-0.6869825681577886
97,14.84359597720254,0.8040842164133961,0,0,7.419879500690896,-5.241737123723151,4.034046969749623,0.9226012871021999,-0.24027699395399593,-0.2422849973892301
98,15.284009908703796,0.7222589109653085,0,0,14.37166945507687,1.9187825638991511,4.505161757732832,0.5372918235758724,0.09262088202682012,-0.22496933081632386
99,15.358203125049986,0.6505723980757592,0,0,15.889491483274446,6.459382404023678,6.982364498288393,0.5781672913268024,-0.1874405493882876,-0.2732001128436942
100,15.0717137701731,0.5949874172841887,0,0,12.573733419704146,1.8720483397508916,6.761702519029705,0.613410207784644,0.06794925343501904,-0.07237664303491029
101,14.455797674564202,0.5603538276517446,0,0,12.948757185810583,-1.2053764408891672,5.551845836741418,0.4932157495387198,0.24485213591302848,-0.10373028434005421
102,13.563501668663282,0.5500181093545442,0,0,12.624474574469769,-1.1499057914732294,3.2511453538590853,0.48058296176461035,-0.006184903053704136,-0.22488773795679892
103,12.464686836680736,0.5655187101785281,0,0,10.734022177315964,0.2034055934774627,2.415096212155724,0.5297019829697625,0.15449752112168344,-0.1797616342448664
104,11.24061467412758,0.6063973539227545,0,0,9.632677937564855,0.5113793151771096,3.0229197372061143,0.5389013185581503,-0.041280898148235205,-0.008283907702933515
105,9.978616316023732,0.6701562116348794,0,0,10.508505720459908,0.1335817849080891,1.8662474531485966,0.6474517748524022,-0.2683078227376713,0.07925018459775596
106,8.767099591581577,0.7523882589779861,0,0,9.897665508519433,0.05063474814845117,1.4518895964754712,0.6114979346492138,-0.06885319417987136,0.17971648775364804
107,7.690845096110829,0.8471017359912282,0,0,8.509318125040783,-0.017592705429131737,0.9985465901405876,0.5085638877294025,-0.208844571661891,0.26517019035005607
108,6.826372590901433,0.9472464459220472,0,0,6.891866823475195,-0.5894011903899051,0.36961566055021455,0.5960206669755866,-0.3686411405008996,0.3204995842472891
109,6.237220940898381,1.04542301024633,0,0,6.533751832981756,-1.1077640207491135,-0.7627889255099766,0.8201402350222466,-0.6716204128076333,0.3197446559179632
110,5.969226560836399,1.1347122010299835,0,0,6.365125498246389,-1.277743606643657,-2.070875764230284,1.1032890449961044,-0.7070682658014814,0.1595268765237245
111,6.046172097981827,1.2095110658080093,0,0,4.85450558071474,-1.8961268679828807,-1.6646688189218295,1.345253951050276,-0.5982866719401898,-0.0397370894851658
112,6.466416529229963,1.266231979160742,0,0,4.297650095976511,-0.8297958927879296,-0.9778530273076916,1.4813663870825342,-0.5764563308435092,-0.022415048531389353
113,7.201264467410362,1.30373320951702,0,0,4.013247726509661,-1.2517338501871713,1.013519046530905,1.0115448102984042,-0.41793785479508555,0.20065345240676608
114,8.195803096990732,1.3234054591026254,0,0,7.238679549973127,1.2048496808979727,2.1275443655456776,1.0723587052015076,-0.902175116707536,0.24515786617110033
115,9.372631061611289,1.3289132105416148,0,0,9.96405316449048,4.483786629608299,1.3920456001616341,1.1800335158822146,-0.46455845868213613,0.2280309225672191
116,10.638360028555843,1.3256504164816412,0,0,5.257578242507149,2.5576999531934526,5.198953480113111,1.224444526705892,0.17599349260811634,0.34764310652472247
117,11.8921996039488,1.320001195696819,0,0,6.242821521034207,6.89233716685275,12.632192689355325,0.7322049690270955,0.5456160918927959,0.9340773770606517
118,13.035558179345852,1.3185037286378742,0,0,5.73546398911455,6.638495022280921,9.764239622565572,-0.4607131429546801,0.15178675736635558,1.4429035039822222
119,13.981471913304343,1.3270138418089754,0,0,8.605945094165756,-0.8470235099687753,2.9002064870686697,-0.30467220720882326,0.3338962651383969,1.0629776161908893
120,14.662741562171146,1.3499639893312503,0,0,21.141968240153368,-7.428596822233181,3.310809912561455,0.4424986064419197,-0.3500736579267116,0.6759231410768899
121,15.037801812505316,1.3898116606447748,0,0,17.04284510921351,-4.408860249055988,4.493536824347102,1.0647619285890084,0.42797932717216036,0.7308675410297699
122,15.093570453363823,1.4467523833941265,0,0,10.91758240549577,2.3096920484628827,6.539619133932935,0.9861293847036592,0.4392002584086272,1.1385898037046085
123,14.844988813983736,1.5187245888527152,0,0,10.796348746053587,1.9954509622896086,3.4446383112587036,0.8903249352806952,0.5439578066637245,1.3540581626577421
124,14.331673942067978,1.601674591789465,0,0,12.841358416028903,-1.3888827685363498,3.5327776196943317,1.2031407224494837,0.10325722236903134,1.0109178725632768
125,13.612655746558287,1.6900156230657541,0,0,15.625362006434342,-2.004863397992387,0.8680431400974747,1.6263212886796892,-0.09073445588635176,0.45118308731930823
126,12.760195109021357,1.7772192987768392,0,0,12.524682028499665,0.5438570490075675,1.636607702373293,1.7404196698585355,0.2962909064386195,0.2610892597491591
127,11.853325384138712,1.8565021874837528,0,0,10.941582270801076,1.6988721714131894,0.8866177497081142,1.6378583551367336,0.0648267028102813,0.430576585441444
128,10.971464002255214,1.9215881662058385,0,0,10.563176846853525,0.6591478922080455,-0.2384219321544153,1.5943358461653978,-0.2572970419718309,0.7007861839924613
129,10.188372775458658,1.9675260536274364,0,0,10.446021747669949,-0.3667031989277398,-1.9879674551740307,1.5729999290091992,-0.4015250306356867,0.9598642418560581
130,9.56676089523145,1.9915195559419248,0,0,9.225650885207514,0.41016709229508674,-1.982911401459187,1.5409671829472051,-0.3615754199204704,1.192780812195159
131,9.153790893191355,1.9936876799629546,0,0,8.700264026533706,1.0962992577191024,-0.8410114581107959,1.6456214063885926,-0.4179519511681719,1.2842903933727892
132,8.977683945295105,1.9776323357559342,0,0,8.978714120008604,0.7676804062082364,0.07092181039810604,1.747978309312982,-0.7716455875451541,1.2020554515431112
133,9.045575715100213,1.9506664077774385,0,0,9.007085689463079,0.9331948984988755,-0.09165261155402378,1.8675381436976142,-0.8553917765970692,1.0259361381544163
134,9.342741734210854,1.9235685971888175,0,0,8.915594833581078,1.7271721973673433,2.1027561942563437,1.9383023912540147,-0.7168581449696558,0.8107850031746134
135,9.83327706263031,1.9097894159284141,0,0,9.564105893429256,2.642443416374576,3.0391441743848895,1.9435706116628975,-0.7666654012663318,0.41343926934948283
136,10.462292504995064,1.9241298228818888,0,0,8.27688395834074,4.550439368597216,4.35245573380173,1.7556169604737357,-0.5181525926590935,-0.041628919693637335
137,11.159696003508735,1.9810283154637873,0,0,6.390413531352927,2.2102257149081135,5.584416342575339,1.6760925476112212,-0.1971988328935086,-0.1263749791021237
138,11.845636757493617,2.09269069654618,0,0,7.373020147321038,-2.376636324140164,6.581353606098026,1.8040511820044896,0.14200616119110196,0.11106754953039229
139,12.437607150875087,2.2673462166987965,0,0,10.523318347285725,-4.863859516025405,3.625894778772347,1.9671368194378078,0.008432913604018146,0.19270710783776737
140,12.85892176485858,2.5078973122575796,0,0,12.584692557045013,-3.3764100018701293,1.9173997899215354,2.275029745036238,0.22016802818227954,0.10825928371010966
141,13.047845786482474,2.811156167702839,0,0,13.374770834564252,-0.8354065830836512,2.5442063838129423,2.6672405410822977,0.516388974089614,0.1138259124665657
142,12.966206873849139,3.167757072919133,0,0,14.160967623581573,-2.9722331292090782,3.0105135908335656,3.082083086486911,0.6586971771890956,0.36606498078695043
143,12.606095721721148,3.5627293672316527,0,0,14.039162997348699,-4.700014410870601,2.096444295068214,3.4833507508178525,0.6488839369173386,0.6902054337584923
144,11.99333646837312,3.9766343197657674,0,0,12.831988776939228,-3.427406699466005,0.8877921499605567,3.8627344294767556,0.7342618889268203,0.995495200362281
145,11.186783211053303,4.38712160679454,0,0,12.293324315905208,-1.747930077490176,0.22430040752486077,4.110031915261816,0.8264662499020402,1.1945767152191198
146,10.273101785323444,4.770745306528526,0,0,11.054880331407198,-1.175220792455151,-0.24269655337136134,4.419751669088309,0.9133718222113947,1.3386688466022216
147,9.357397463003874,5.104882974879374,0,0,9.63357594379563,-1.1042203731689137,-0.9270758907349937,4.761092424179158,0.8920279719681337,1.4844381244849227
148,8.550707117476682,5.369608042171606,0,0,8.171017846937415,-1.1225766567668125,-1.9038195401107243,5.117881448026957,0.8567868358952424,1.6368600447266224
149,7.955895723836281,5.549365519266975,0,0,6.456706205642327,-1.598736854729154,-1.9159340710053183,5.35384389013794,0.9012454730832931,1.7395425004178902
150,7.653837836809397,5.634297276196278,0,0,4.975115104944427,-1.7055003505284132,-1.3629363260088316,5.533793167797037,0.7021290792237531,1.7409910907808845
151,7.691882970449862,5.621069788844421,0,0,4.608882250817236,-1.0936622028584806,-1.6770889994746554,5.5344147160803505,0.48577346489332246,1.736606902463039
152,8.076439769221642,5.513087226000299,0,0,5.069074317795011,0.5374070513206471,-2.3253263959760324,5.366115777670095,0.6619530031789598,1.8882629210940125
153,8.771024391957868,5.320029371253666,0,0,5.913940492764882,2.2467528972224113,-2.7467457441367555,5.1058792883308515,0.7715446137761373,2.1177381568836315
154,9.700334314527945,5.056731384169454,0,0,7.6167729443513945,1.3941643184869894,-1.6136472415842442,4.6622509688862825,0.7917143077855806,2.2202461998192238
155,10.759952024213794,4.74151207263443,0,0,10.589101217266473,1.9060591114590928,0.29657697668133903,4.21861536488663,0.6867925884930176,2.10729575962359
156,11.830324944626463,4.394149506091044,0,0,11.776279963872618,6.155185504722564,2.463389570360316,3.6040714454743434,0.7154505314754087,1.9034765831141414
157,12.792885242641301,4.033781817823317,0,0,13.116979731521004,8.948762225608585,3.8020875069854183,2.969200118470492,0.48421318750021314,1.6101714780592304
158,13.545745500267003,3.6770508550106626,0,0,15.859213352628549,6.010667121749501,2.5155046866819615,2.6872931440372128,-0.03449810952705309,1.4017662532323683
159,14.016491124502457,3.336776850590165,0,0,15.272124406758033,0.7187609516524784,1.0733659961592863,2.906920387310402,-0.20349324785926592,1.1936550405301978
160,14.170220260783513,3.021340498317661,0,0,13.474708094061802,2.1771032370166816,1.2845190407813996,3.08096816709871,-0.002789962413025298,1.0299648747006214
161,14.011966026355656,2.734782277912115,0,0,14.015275845191937,5.068839183568176,1.5973279888350302,2.76142835614453,0.12325433561421545,1.0197161729203086
162,13.583626496432561,2.4774725226944407,0,0,13.695877169786474,5.831622569144273,0.8742216898063879,2.400540332278938,0.08404639338295795,0.9962092770217753
163,12.956260970918752,2.247119822603255,0,0,12.091154519314138,4.97485341616688,0.6317621040812,2.166650123340027,0.025329062661938486,0.9632922267267313
164,12.219073165698482,2.039882672346834,0,0,10.267146734016167,3.6640513082717474,0.13679311026735846,1.958652156925608,0.02650372938998931,0.8945448064737849
165,11.466712008006517,1.8513981960067785,0,0,8.227724242768224,3.847726555835016,0.2902939792257436,1.828631346187859,0.028414183564299277,0.8077227669609313
166,10.786693210692471,1.6776050358407317,0,0,7.392410762792411,4.460223057016749,1.3186705157962326,1.6313642983631094,-0.025176686718073826,0.6979817421879183
167,10.248658895908775,1.5152978152712808,0,0,7.721899319699016,4.2925478419054155,3.0557879845612432,1.3941786888067982,-0.010835630451390693,0.5933055066088407
168,9.89677708650939,1.3624053021075464,0,0,7.643662766422163,3.7216270954388975,7.049838442750258,1.1702954440945834,0.19971678486578748,0.5507869610734787
169,9.745958220333264,1.2180305348429525,0,0,6.695044570696678,0.8589114768828098,6.590909009348634,0.9425844006027244,0.07284205572850848,0.6528716801409674
170,9.781979360327561,1.082321429339256,0,0,6.904139304177675,0.39957876430988504,2.9067295003771947,0.7604205740549707,-0.17535060472394035,0.6733903258010528
171,9.96522338711098,0.9562493301289754,0,0,7.774309062408816,3.01670082296186,3.475733776663722,0.624224236085494,-0.13030074987001133,0.5036654191498892
172,10.237500585317365,0.8413620108036912,0,0,8.917081022496665,0.7996368900998454,4.716409409993775,0.6940088355208096,-0.162567583993495,0.3694131077163848
173,10.531147192051499,0.7395528998265533,0,0,9.882491175370662,-2.6392833884150737,4.602005179861622,0.719608033794702,0.06726347982958096,0.2846317524325441
174,10.779240186081307,0.6528574031478842,0,0,11.323087498214871,-1.0480947538445429,4.749628351287315,0.6686900431762665,0.2092510882373587,0.2376393693646546
175,10.925476451469372,0.5832597906474006,0,0,12.3013362344979,1.9991239248809982,4.566660494326102,0.5881168112505584,-0.020091279244853516,0.3453534489404404
176,10.932223270105368,0.5324811393398771,0,0,11.74120372236794,1.7875705421950798,4.360277777582119,0.43968248364085377,-0.03226773895078191,0.42524918355258456
177,10.785533249629347,0.5017262876072208,0,0,10.45876225366373,0.32204479875205816,4.212337440554415,0.3616585088080019,-0.08257372647352113,0.3735632919005003
178,10.496473019837731,0.49139209567663844,0,0,10.206302891254078,0.18029186861591995,3.2420458929483367,0.30327076897657074,-0.10575634379074506,0.37123420252036976
179,10.098781273545868,0.5007700143623328,0,0,9.725343745059595,0.6812168047256674,2.621187314184131,0.19313258999363137,-0.1268034910798095,0.379428852435454
180,9.643456561855691,0.5278016803238534,0,0,8.857155351946982,0.31189575157437477,2.087857748370637,0.05875756769808354,-0.16894036250110817,0.3890657406554653
181,9.191255202213988,0.5689588285093934,0,0,8.350046973014287,-0.10496779219003405,2.222455068692914,-0.010696284141638103,-0.2098028280399634,0.369691287201043
182,8.804239382728571,0.6193139502431723,0,0,8.176317273691163,-0.3753415879991242,2.0383007024208144,-0.00821251065753555,-0.3567974238392224,0.32059584878486347
183,8.537503232848572,0.6728446003907907,0,0,8.176496664815676,-0.528149540505247,1.4634651141105814,0.12349508957322558,-0.43076493772001484,0.2804588837850203
184,8.432082025398437,0.722973748463806,0,0,7.512771896993949,-0.4663244904460465,0.7129934630494829,0.3340889829914236,-0.4355707225085713,0.2568468235980889
185,8.509870890059828,0.7632961180331117,0,0,6.6538027208009645,-0.9219666214031489,0.23811952561731736,0.5576546611598281,-0.567702932205697,0.2742311662998288
186,8.77116212941985,0.7883852838626838,0,0,7.037749061574987,-0.7673056649081236,0.12375381300010047,0.8213076666999449,-0.6842701245420889,0.28035569751396455
187,9.195114114924575,0.7945336570052848,0,0,7.962764128112369,-1.0881274101538863,0.9583753050234017,0.8332468368710808,-0.6530372453683048,0.23023039513907706
188,9.743037329182654,0.7802678583440245,0,0,10.374436492272142,0.6334280384408367,1.786264670133321,0.8331347779675123,-0.7521538527127827,0.15955978823245895
189,10.363855980707976,0.7465212825006817,0,0,12.137557817766162,1.9384006492696866,0.4153526924339644,0.4733187081487113,-0.7053458087155884,0.14156003164821357
190,11.000636691751982,0.6964307175768913,0,0,12.590299219602844,0.6408526303884173,4.530235450648694,0.19199564511804718,-0.08482662828208351,0.06289831017782267
191,11.596886683441186,0.6348253743724208,0,0,12.83384960473088,4.881063889117378,4.644170104545558,-0.16122824311194428,-0.17154413763802187,0.09142798443847311
192,12.101549808881288,0.5675478184040808,0,0,10.000250982723006,0.7597256947891411,2.51223203876868,-0.7649996223766179,-0.3523093680099364,-0.04819771369623815
193,12.472215468572013,0.5007522269021656,0,0,10.93286003227775,-0.8276577830231866,3.9110021943634568,-0.3221411170517648,-0.4563399953067699,-0.1850940167772163
194,12.67674507595997,0.44027716971004605,0,0,11.032318587007474,0.1318706874088899,3.90378181208769,-0.3068381503504115,-0.2210043202259166,-0.062486006484069996
195,12.693985481193941,0.3911377999146211,0,0,8.829834206865195,-1.0563530297370725,6.515130951274986,-0.2595220797985249,0.028178217609788364,0.0034368138601485933
196,12.514298750919897,0.3571610935829207,0,0,10.125625122796395,0.5312320489977584,5.737554185040019,-0.06814012171382611,-0.07977941740975018,0.09773181129666875
197,12.14035210387381,0.340785334474953,0,0,10.488373197973216,-0.659178773935059,6.020636584718024,-0.08415533831524141,0.21644061652825405,0.19116689777514806
198,11.58816425894087,0.34303036407806237,0,0,11.174725384441736,-1.2302227942972892,6.0517059677568685,0.17648947246171706,0.3890587301701806,0.13509495163109608
199,10.887976695594261,0.3636099813911504,0,0,11.402808199554391,-0.5755949861564832,5.296454154233642,0.3367058092271463,0.4869525984143527,0.008128866217906677
200,10.084266297446325,0.4011224631491901,0,0,10.063651587650778,0.0917459005310472,4.5056950339313335,0.33764755387812945,0.4176477005536001,-0.07660560018615559
201,9.234243280873704,0.45324575070341533,0,0,8.872948064291148,0.560462674903445,3.421930066564123,0.28338063110648465,0.34389870016306084,-0.06033874637509237
202,8.404471421788347,0.5168895247672292,0,0,8.993061503196932,0.7455115700114245,2.371669611323387,0.35471169482277976,0.08758452383506422,-0.17523588050877967
203,7.665674723557479,0.5883016560384551,0,0,7.184206741515548,0.596572726103798,1.546391779840768,0.3972038892020397,0.08436302285419404,-0.3927592834893715
204,7.086201980366046,0.6631643326823482,0,0,6.315444872355918,0.25108419276205285,1.2452768981962903,0.4422908378545826,-0.030432597970521582,-0.46602400577141745
205,6.72491586736238,0.7367287545368065,0,0,6.142653824477211,1.4377185890946131,0.9863235872947101,0.5034378697434919,-0.15958010102946302,-0.44284238432657047
206,6.624422339461761,0.8040292655916427,0,0,6.02188412870045,2.123073223453826,1.2606132017207015,0.390717246599583,-0.30019068587039444,-0.34973626434608307
207,6.80555884504043,0.8601987043432661,0,0,5.790978502720982,1.7087631088313338,0.8604424737337092,0.219984297179661,-0.5474041737680134,-0.2682190910764124
208,7.263951061769872,0.9008793514455246,0,0,4.96118008561517,2.061259638116338,0.7462651608034403,0.001418272662150478,-0.9296395993101266,-0.17506519672237816
209,7.969266183762292,0.9226845703474833,0,0,4.58445787024733,3.3671054140947874,0.5335832258216663,-0.4244439517555014,-1.2076698756234023,-0.05898399882676431
210,8.8675157430681,0.9236224404146123,0,0,6.521059152256583,4.159372781234576,0.5049272671590497,-1.009756618406282,-0.6424462617708291,0.040868024419514905
211,9.886330366379072,0.9033707043123007,0,0,10.134895899020655,1.5227671922736596,1.749841047615217,-1.1523608542160289,-0.11496685411042018,-0.052563151387215276
212,10.942558561328491,0.8633184359542792,0,0,13.748480688592972,-3.1444933857548216,1.7292367589352513,-0.502270436119718,-0.21478572938696475,-0.35167818060972167
213,11.951009406639873,0.8063613153109739,0,0,12.529180049427591,-0.5896603901566054,-0.3771623916851064,0.13180311335612693,-0.527127301504168,-0.4788025398904614
214,12.832918546410996,0.7365180146108339,0,0,10.874615023342672,3.534683219264371,5.380649201257961,-0.155096198804367,0.004390523075598576,-0.36081400052776835
215,13.522887190442312,0.6584814877473524,0,0,14.942022294147135,-3.695146323522298,9.179019214710863,-0.15780022143494168,0.15091244897015865,-0.5857127196489339
216,13.973513066292337,0.5772112365862886,0,0,10.135572021408468,0.6493394775512409,6.923688054539151,0.5584222601285362,-0.34744972562794885,-0.26303136212686656
217,14.157502313858744,0.4976250852926118,0,0,11.03865497048211,2.465240610631874,5.605659145227825,-0.13952066010471498,-0.4950244657587125,-0.07460156593026725
218,14.06757845303491,0.4243957474098596,0,0,12.061223736465367,1.1737783091846645,6.009604042993316,-0.2730548443782567,-0.18249729011968957,-0.23575660055883932
219,13.714852411982001,0.36182650286656076,0,0,11.374409040110779,-0.6405767218307854,6.73719770371717,-0.11862373401608266,0.0718983850576607,-0.1988346922453089
220,13.126364896284741,0.3137742745645713,0,0,12.49881796091854,-0.12267123340867939,5.900588879319896,0.1373105009367399,0.13130388813446014,-0.2891531162378023
221,12.342305698011033,0.2835901244948518,0,0,10.795244641947235,1.4635948651150525,5.024670150253136,-0.02516832581982144,0.18144745115184657,-0.31135179734979124
222,11.413158588297847,0.2740434918573255,0,0,10.775660323470362,0.30809486560973726,3.8452460427233186,-0.21751418669982947,0.14212621554189842,-0.35446022935155275
223,10.396868316906252,0.2871924197834481,0,0,9.462019387820128,-0.2492404598217517,3.088505915287842,-0.19949662887581524,0.3416174431354103,-0.32362796615592615
224,9.356073984492495,0.3241728078759275,0,0,8.098708632647238,-1.0064035702434595,3.183395904375109,-0.16532977830234305,0.3201174511199563,-0.15457872656851715
225,8.355419468935747,0.38491414050479245,0,0,8.63694019977415,-1.170435468393601,2.2329895685811465,0.012237855784497608,-0.1703833749786601,0.03588010597150697
226,7.458885409807503,0.4678390155748053,0,0,7.7484513192985425,0.08423027554469832,1.6401039321410111,0.15996431006409767,-0.16181371545847673,0.19113795875846476
227,6.727008315305876,0.5696452407718424,0,0,6.892754020353345,0.13424174710011513,1.405709599414027,-0.023344252060407723,-0.2531329366279258,0.3167468065511036
228,6.213824725350847,0.6852771218760801,0,0,6.5238413584550194,-1.0296186346128071,0.9272337397639316,0.012765744868203005,-0.3692445292170392,0.26852559843942897
229,5.963445184393933,0.8081587480749393,0,0,6.545266872725481,-1.7549004095264884,0.4248612018626424,0.26725100043320427,-0.6624953884635788,0.18790378029691251
230,6.006313469335485,0.9306991100410018,0,0,6.891313697640076,-1.7953680675015666,-1.0348240269339946,0.5722110644356018,-0.8165872086153202,0.09291989502864682
231,6.355413048998259,1.0450085030610312,0,0,5.335710441812488,-1.7562222730265715,-1.1308818912738918,0.6889128390207144,-0.989329846801911,-0.10651886623782819
232,7.002928556608223,1.1437094890740949,0,0,4.891986300010122,-2.896169270701387,-1.7407776084970883,0.9519091261427887,-0.7791538644779682,-0.17361488058718091
233,7.918104063544015,1.2207007265655407,0,0,4.256098980731844,-0.5980726096358795,0.8137780805594236,1.3318552274126256,-0.49958832089994026,0.02459472546865264
234,9.0471279450336,1.271744085785208,0,0,6.409756233021521,-1.686177765287332,2.1410851212466913,0.7782022925140261,-1.0726456725629894,0.3230153973792675
235,10.315658023685288,1.294787432258696,0,0,11.73379958002264,2.950324939612641,1.766449367898683,0.9563580487029428,-1.3360025923132164,0.5108676177592074
236,11.634057785653916,1.2899953194572553,0,0,11.582484734188549,3.4153895662667444,-1.279769033362206,0.20780278210299186,-0.6098115307494653,0.42696170316483745
237,12.904759623499102,1.2595254512457668,0,0,10.136618368916983,3.386433400449442,7.218115848698369,0.36932772997093105,0.7094622607963914,0.5031331217332898
238,14.030730141345234,1.207139307825103,0,0,12.369156680442941,8.201183376752562,11.789993105168646,-0.5201292792511407,-0.19411511246569865,1.1226967293831793
239,14.923961377367677,1.137743390401649,0,0,4.124989158145292,0.8002041593045689,8.139655507508802,-1.2328979510131721,-0.2628031486534711,0.9116012189075936
240,15.513165345280695,1.0569202354218674,0,0,12.677818910451201,2.7700401826337706,4.811565578976569,-0.5787978124323676,-0.2696397115671443,0.548102118990959
241,15.750141927039637,0.9704637463937962,0,0,19.87265503167009,-1.4155189179266379,4.537305191570639,-0.8582380709324906,0.07279819574312743,0.7378301224493636
242,15.61436292638696,0.8839215057599751,0,0,15.606190236524512,-3.070021104378274,7.589099043730007,-0.5318177669566104,0.3987333733678195,0.5284340951454317
243,15.115196802170244,0.8021664712837857,0,0,14.922529857375812,0.6913079384722016,6.119020937713735,-0.35937774676454515,0.07177050438460626,0.40501050486261814
244,14.291241947131827,0.7290426842789673,0,0,13.051006987592752,1.5063074429238783,4.4571446090400135,-0.40945437489073533,0.33366985859296405,0.45643088404435783
245,13.206673706402883,0.6671329036062146,0,0,12.006077757948049,0.15037758525647427,3.7084824609017075,-0.33861798333810617,0.5226508731862052,0.43455676507552565
246,11.945131449709509,0.6176780117025978,0,0,10.141968986517568,-0.0984316935860713,3.069948770068905,-0.23979386528154564,0.6057874463832842,0.2202361268424413
247,10.6020987402315,0.5806513197340772,0,0,9.312561446295726,0.34892668598507165,2.5415030022354754,-0.0795955089154953,0.5141545960553761,-0.0029509925768159387
248,9.276798692006555,0.5549734710658399,0,0,9.336732960932853,0.6550957439599717,1.3231632601340955,0.057726990065195945,0.19787788191107886,-0.2852390866805172
249,8.064417727696007,0.53885007668556,0,0,8.041277241661055,0.6121024708478295,0.841286483004956,0.1011739859308372,0.03185401743542937,-0.4417765585765858
250,7.049157923282485,0.5302095868228915,0,0,7.6864159192928945,0.8216358982254159,0.30795000942788087,0.14327465879379683,-0.18206322765250857,-0.4556117660232427
251,6.29836524613515,0.527197844069834,0,0,7.174922153710307,0.8065838338248109,-0.3431281010965446,0.12831621327023646,-0.4738708963308763,-0.39502203676676434
252,5.857885206330548,0.5286523193327478,0,0,5.6248946654388945,0.917863995555509,-1.3421085347308404,0.07472151985794555,-0.797903606790101,-0.1948574215608064
253,5.748864687988625,0.5344545505351189,0,0,3.969284649099263,1.8584215513786855,-1.0063970108700793,-0.10388968418216767,-0.7012106615194142,0.09349035881757312
254,5.966369009358069,0.5456654916423864,0,0,2.6603371313232937,1.5648910788619568,-0.16941869236110424,-0.3193181236784243,-0.5811224528147966,0.333181158186372
255,6.480261400263799,0.5643930301155107,0,0,3.9262912145044617,-0.5580240101095595,0.37532110518995726,-0.3054884264685993,-0.4386892365934462,0.4169102964940453
256,7.238619373263784,0.5934135036246321,0,0,7.3354196701841134,-1.025593575481951,2.0390316781463436,-0.04846173203451907,-0.183944856716062,0.33522797971367413
257,8.173471467333647,0.6356460461481593,0,0,10.99448299742334,-1.4161075918093575,3.893011238090744,0.10454169291511356,-0.09774732923896556,0.09016920165619959
258,9.20800458921643,0.6936302478042896,0,0,10.018699616080179,-0.9206265692167084,1.6166383853408317,0.23261961442432533,-0.3186656798429834,-0.0034568045835229053
259,10.263976321367924,0.7691559754833084,0,0,8.37040841704928,-0.553952658538515,5.8446588929018,0.43067971360815216,0.16868301998562849,0.02002503064821612
260,11.268122953554169,0.8631285247653055,0,0,11.976756720250076,-4.236254431256421,8.540226174280436,1.1467587317556076,-0.42567539100049706,-0.48469516658573314
261,12.156817846307849,0.9756462874202011,0,0,8.607487178306073,-2.9795091628103236,2.80051039098348,1.5319596192251848,-0.383870477185728,-0.2761408779692439
262,12.878841481322267,1.1061783441335689,0,0,9.818035948667886,2.3304705527934275,2.9401183632172017,1.12080510769765,-0.025649671219893772,0.19536193256402562
263,13.396629816727428,1.2537120436673992,0,0,13.97285509242769,1.900062957756938,3.3120693463779687,0.9178686025887589,-0.2895674779742523,0.17732109368235496
264,13.686598796291184,1.416803513518892,0,0,12.181109563840904,-1.4773856623840464,4.938737403755781,1.2137768889253886,0.105956989234373,-0.013832962122732783
265,13.739049075945932,1.5935522361882395,0,0,12.141593599049008,-4.310109023878951,3.9517455074617005,1.5374914529390107,0.14680846900745523,-0.04049910595671454
266,13.557886885754904,1.7815663524135752,0,0,12.93387533585603,-3.7459829615380693,3.037945165751156,1.7646856189027151,0.2908630438051149,0.08835563780607339
267,13.160171558790012,1.97796967902642,0,0,13.055680700036538,-1.8144835828679229,2.7923619633898884,1.9686495974167235,0.2924085384363245,0.31886587224245333
268,12.575394483290781,2.179457595978992,0,0,11.642741027614836,-1.9818472517176995,2.528169700313921,2.142046260086182,0.38049667327451103,0.6305809141006877
269,11.844365035058706,2.3823757448961973,0,0,11.375594341952036,-2.272379623224698,2.3845933616976325,2.3560871325257877,0.3738343271124089,0.7971982136325256
270,11.017579230633196,2.5827882522523002,0,0,11.307571132120952,-1.5119049693213382,1.6894244474812334,2.5419192200197775,0.33864692646371025,0.8185410846212035
271,10.152950982017368,2.776518463504126,0,0,10.381614711246574,-0.9564424892277352,1.439168943096485,2.602445418605133,0.35463510882213034,0.7863082397329282
272,9.312794206684433,2.959176413809071,0,0,9.685025620652262,-0.49411007356544706,0.7555447669093309,2.660300942260769,0.26385450236461133,0.7831920979210245
273,8.55998961170864,3.126220090111439,0,0,9.463545941109622,-0.32834317714688194,0.28818905682396,2.8200042773723553,0.19011697006922873,0.7652332519562585
274,7.953384349852202,3.2731136738024316,0,0,8.643952821577944,-0.7374421631545577,0.3183396725626872,2.9922852210706434,0.1624653427885797,0.7275562431248985
275,7.542658287515237,3.395630589430453,0,0,7.49705686382523,-1.3380205829672316,0.18719393118909208,3.218772133061948,0.060430233258065395,0.7106734514807853
276,7.363127654849093,3.490301832720049,0,0,6.492456885407907,-1.5504053441925458,0.38545468618938383,3.485414782560778,0.027181401147594375,0.7276431980573107
277,7.431197826299768,3.5549467449158128,0,0,5.657596066780792,-0.7955922638788165,0.5767216788129582,3.715050791752837,0.10398034001190948,0.8268558890336365
278,7.7413292650116485,3.5891695773040984,0,0,5.311718429303706,-1.0609322919374082,1.6120317875885952,3.670750707283257,0.06593153297215258,1.0177879940078953
279,8.265331043868215,3.59468481436661,0,0,6.475962572570064,-0.8315751834479794,0.976972695806386,3.494979219693935,-0.16772117375359652,1.1679192155855977
280,8.954477936440128,3.5753578938628245,0,0,8.826258242264112,0.36647852020296806,0.4422755353863647,3.4659655422113227,0.12532520389696422,1.212907391672514
281,9.74440122525599,3.536906102223162,0,0,10.074304014519496,1.3476142003028955,1.2133233891038826,3.59242021341581,0.2530486648054512,1.1530461718834242
282,10.562091605333707,3.486275789421507,0,0,11.342807889440408,3.233529938132374,4.025074971749092,3.377932066456156,0.640975164292885,1.1384699570641965
283,11.333895255501485,3.4307816050917506,0,0,11.215084730099612,5.427969657639078,5.948346256276764,2.826775483318235,0.6909184514439409,1.2303324946445617
284,11.993254609491045,3.3771552769529087,0,0,9.547615455552688,3.4065187361048315,4.548335739398988,2.5678268205716823,0.4430892141338113,1.1814126666240026
285,12.487174671213234,3.3306913074334146,0,0,10.923316095703067,1.0889564319511138,2.8923982960501755,2.708499860002161,0.35391843682379814,0.9615001376491299
286,12.780829362502798,3.2946660847366345,0,0,12.967894687477681,1.295743142043072,2.604346563618042,3.118287645327895,0.5054167666699324,0.9468248106778229
287,12.860099370789523,3.2701289977488934,0,0,13.461708694231977,2.7855595746498922,3.653355934151323,3.31546647530129,0.7356540635872016,1.0988293771439501
288,12.73200137590716,3.256046495522547,0,0,12.683645743028137,3.13790409664118,3.0991793973561337,3.1936245475676137,0.8713620112810329,1.1545761852769802
289,12.423018574083333,3.2496836724751743,0,0,12.073672873212805,2.9948376324533736,2.1024929200450653,3.085555206670904,0.774286033559941,1.0558321164247662
290,11.975459652153095,3.2470798672431282,0,0,11.873636330642176,3.1197224261239023,1.2804449685403383,3.063665003610239,0.7068567840235624,0.8907449521003341
291,11.442209652562916,3.243512556224855,0,0,10.69765653618495,3.1087007756751426,1.272316185543458,3.0390432604730098,0.7079938592037287,0.808588920802154
292,10.880495061201973,3.233907644938048,0,0,9.46182645282235,2.3656168284106176,1.131369430075295,2.945120726064121,0.6915623180121927,0.841311134913416
293,10.345457404407576,3.213204998408458,0,0,8.836906828665056,0.6877382461227224,2.03336702648357,2.9241049745548806,0.8249778827515072,0.932486976264175
294,9.884354790449803,3.1767100133616677,0,0,8.484053295137752,2.051538298645364,3.3753311566517388,2.8392602726790965,0.9170413378061658,1.0372950226650148
295,9.532067986816099,3.12045915657902,0,0,8.520808997825899,4.187457649069572,2.9137559448202457,2.6453209683487797,0.7328032613524342,1.047819221860821
296,9.308313820903098,3.0416096660590344,0,0,8.737362874850946,3.0577913493215685,1.86076071124893,2.6650133133319507,0.44393319332702436,1.0463540601566899
297,9.216675049730425,2.9388369558601988,0,0,9.150160913060606,1.1876803077228162,1.4247993042839053,2.7476582776344363,0.4466291449196903,1.1221235174136361
298,9.245360002118138,2.812689106799707,0,0,8.449249414697563,0.3586988886735258,1.6115163403142396,2.7220474994711803,0.4322082106298303,1.3417718377352914
299,9.369533270837406,2.6658135748319336,0,0,7.612187001624145,1.1682853521701497,1.364224403643164,2.5027805976952475,0.39464641280751117,1.5273950191655006
300,9.555026752836746,2.502957137330271,0,0,8.31389422595763,2.614671309837159,1.8186590890564711,2.243496306818286,0.2834655478955888,1.5174703670340879
301,9.763133425397434,2.330666651740298,0,0,10.761779767258687,3.520502769442853,1.4221812995567202,1.8982316155102568,0.14422706074877342,1.382370189652285
302,9.955971784399829,2.1566853909892743,0,0,10.291181899594164,3.0146705213922496,1.654678754187289,1.6252063668196668,0.28191991838518077,1.2428990812352376
303,10.101694336060506,1.9891223827504323,0,0,9.700146329664864,2.198144291835783,1.961060606995911,1.508655075898913,0.040252648711533286,1.0773858252377602
304,10.178759764698825,1.8355364508740553,0,0,10.530722664665788,2.3865338664970093,1.5920033877836295,1.3829203988674872,-0.035312730552067184,0.8969786190732659
305,10.178643429095073,1.7021004520374057,0,0,10.515140282660038,2.6177236336093226,2.0044692414259355,1.2685220321792259,-0.08366109653373283,0.7961945105644421
306,10.106629715025473,1.5929919545866962,0,0,10.000205424644625,2.335594264775385,1.806314077831312,1.187399292582978,-0.12927069394813276,0.7574866754508548
307,9.980609144290135,1.510104867420883,0,0,9.471264418218698,2.08020043487352,2.334499912008862,1.2098995733082842,-0.10017951904101112,0.7649066387337603
308,9.828061363711276,1.4531069758621318,0,0,9.296092796271331,1.872354946438944,3.061052405884878,1.2794044529478115,-0.05720867018588665,0.7753331976746946
309,9.68163149460663,1.4197968582088716,0,0,9.223468791902905,1.7602011037210388,3.504485221719505,1.3050847051020684,-0.052185035998070214,0.7399279836058386
310,9.573878554211234,1.4066567865873187,0,0,8.684453904221186,2.358742966306185,3.6837377537053353,1.3618885697822212,-0.1774007559340336,0.6595838494457772
311,9.531888148465912,1.4094689814731935,0,0,7.753486948851602,2.8470985941197657,3.3210383337404243,1.4498563484591145,-0.3829394573970602,0.5999266388516922
312,9.572515688230274,1.4238657399441146,0,0,7.142211200680931,2.6930670028607655,2.1190252682934156,1.4930019397533816,-0.574586408404955,0.5216778355847095
313,9.699045208081188,1.445717082786508,0,0,7.335912575792298,2.516094904012731,2.4649818385046545,1.358914745451108,-0.5299482403413922,0.4910961944556162
314,9.899941549449302,1.4713165959213044,0,0,8.041803926541663,0.8310017413951037,3.9128101076231725,1.1467463780380585,-0.26266916036186866,0.539251193161925
315,10.150076514506262,1.497394312890945,0,0,8.072664631351415,-2.0880637927617207,3.9518676342050454,1.0607975915115577,-0.08047180729149657,0.5300069444517717
316,10.414347077132252,1.5210401573905024,0,0,9.5411144877283,-4.3894275988568605,2.9651607385092267,1.2446956547727466,-0.01893225241492288,0.38859278454203633
317,10.653095353794027,1.5396348513176275,0,0,11.095204301783378,-2.2865514472174797,3.3534204933795895,1.6477593386408012,0.12772492006197508,0.28756201827567074
318,10.828338616318142,1.550849758365275,0,0,12.408444787247062,1.6628966134332266,3.9835488970993325,1.7057347631071982,0.07376991999449947,0.48740313138768004
319,10.909653683091737,1.552719090238295,0,0,11.255735040995603,1.5914805796753244,4.033643951240627,1.402513247748692,0.03199058828630799,0.7545089440747337
320,10.878703041835436,1.5437488952356528,0,0,9.335309252876744,-0.9544601557946586,3.8598210047581087,1.1675182381657276,-0.00711331954693895,0.7729508409719018
321,10.73179319370425,1.5230272105912095,0,0,9.762686687909536,-1.0780348600285294,3.504176249144648,1.1474333868328088,-0.25862023799356204,0.7772745434053595
322,10.480337152844715,1.4903209007597185,0,0,10.841763407484445,-0.40983638228346086,2.2159946071372962,1.1089917681320673,-0.45618438245676807,0.8893406652573127
323,10.149445339918115,1.4461553059631358,0,0,10.099019518800008,0.4897743273067,1.4781227129133014,1.0401270738176411,-0.2896542121030246,0.9921817185651333
324,9.77502287198449,1.3918611964457253,0,0,9.373052716900496,-0.0057556095857825024,1.7630511418594226,1.0055751081821789,-0.22324068085856202,1.0666797846378853
325,9.399791589236303,1.3295537595284403,0,0,9.27481639192807,-0.4961555885668276,1.883531410623932,1.0654427156962358,-0.18703338720240822,1.0618408406979127
326,9.068678314216882,1.2620009133283985,0,0,8.741506058614059,0.6362211248830227,1.437598615199919,1.0930537353142464,-0.35668989123134137,0.9348038557864401
327,8.824031984371242,1.1923547373653192,0,0,8.373876899653421,2.2566149068547476,0.19936872895154945,0.9904452258330051,-0.23168947072354154,0.7229708908189019
328,8.701128819824328,1.1237607516370192,0,0,7.916700702553933,1.7724084811883052,0.6158281316377453,0.7273451575990096,0.10056699096651914,0.5509380897711621
329,8.724388025527933,1.0589132589646109,0,0,8.455815936501129,0.25245910968060953,0.8336329649342051,0.6217660293241367,-0.007870726201995817,0.3885536027004805
330,8.904650352691386,0.9996653811535394,0,0,9.048382454511795,-0.5770090700891181,0.9093312588304112,0.7247656004336924,0.11057660674006183,0.24464101424571372
331,9.23777177663592,0.9468018971667792,0,0,8.89993923297972,-0.20044125446126093,1.2970504534054936,0.9128157221361307,0.05241502564193848,0.22396323874897248
332,9.70467580158614,0.9000338249899684,0,0,9.025312023031237,0.6066674104275361,1.0258977064944965,0.9864793747080631,-0.16456656294745794,0.3133834472261302
333,10.272913344327087,0.8581994954536527,0,0,9.148711925010442,0.9861922955510269,0.020241015633966544,0.8680815308334673,-0.3745102493239019,0.4197950859731563
334,10.899681607262085,0.8195972996039813,0,0,9.357113397684099,-0.48165727128576746,0.8101125655538165,0.6134539319964164,-0.32176305232882646,0.4191595974163707
335,11.536091842987823,0.7823567941636379,0,0,11.163474684218693,-1.446033232653464,0.36874182143386697,0.5623422595061577,-0.5713880269115753,0.36236951325693817
336,12.132207399302672,0.7447745680734975,0,0,14.271758902601949,-2.6249557172454354,4.463256119009593,0.5919238546862233,0.3171488518273536,0.27067964627145386
337,12.642063766902922,0.7055769176032388,0,0,14.764973208139619,5.488829534439172,6.3779791134293475,0.51178125442243,0.3977346527747447,0.24888436869255728
338,13.027742489994228,0.6641023087728412,0,0,9.453526267579354,5.149691628457165,4.217922409580477,-0.44908314750529016,0.13990987577488012,0.021720607870178998
339,13.261818497843182,0.6204130287360835,0,0,10.63204880015197,1.5738069674936215,4.08798393193909,-0.5234844603272351,-0.30991975482801193,-0.1722711351394512
340,13.328088162924194,0.5753445935491915,0,0,12.327299986729413,-0.4803823499104796,3.3447739974530686,-0.6857488573677178,-0.0802632526225849,-0.3237907382117912
341,13.221045278487727,0.5304875381824558,0,0,11.16554674673045,-1.886000455567184,7.457661323590764,-0.5346024217368717,0.22459478313739994,-0.38589132350153943
342,12.944767088613823,0.4880843122493868,0,0,10.792601467037137,1.287051668565863,6.32532550632841,-0.3802442393374487,-0.03532976782657721,-0.20593595382391588
343,12.511723967589244,0.4508313548810016,0,0,9.59682577331036,-1.2562265380834974,5.9433917305020465,-0.27336740494084594,0.15672002623129971,-0.03116458295492903
344,11.941779454378079,0.42160249706418895,0,0,10.13730941697086,-1.2585509712557965,6.101757001538577,0.033613164661949566,0.3277070328857246,0.06456791966641667
345,11.261443071452938,0.4031334906991569,0,0,10.214027381971164,0.25595894846623557,5.799781312902057,-0.0419547859822047,0.4851397310649223,0.037349045267685066
346,10.503264858750473,0.39771009138256214,0,0,9.927399019076834,0.27344252844443434,5.306189810474054,-0.10752990506590877,0.470034056805886,-0.06552349019979412
347,9.70511965215793,0.4068880533715132,0,0,9.289495214383665,0.25912969246988093,4.15678982314092,-0.1431533199697556,0.28281595191811265,-0.18437275049702745
348,8.909087814590412,0.4312618090346128,0,0,8.213419609642374,0.9584110690377138,3.2490405103400044,-0.1435464458342669,0.3381664759978738,-0.18830106383095144
349,8.159731364208566,0.4702998455178707,0,0,8.020766005939658,0.1685156017021732,2.8529361710593815,-0.09473229014378615,0.20590259675628894,-0.2542744042602332
350,7.5017371667279455,0.5222710498376228,0,0,7.510678908389302,-0.3925281903208853,2.0693165912732616,0.10895911415527774,-0.03469331157209843,-0.416603508820525
351,6.97707099343276,0.5842834666840161,0,0,6.14380041850543,-0.1354299980789266,1.8233116858025311,0.26653981832886553,-0.15349242525112297,-0.5464215665722535
352,6.621914343530702,0.6524398051266426,0,0,5.871512285781501,0.33151106165631977,1.3456741566708434,0.37678692567240724,-0.33520927716560384,-0.6196531532390291
353,6.463724429426259,0.7220911356051712,0,0,5.829693504011367,1.080654489832,1.2972132430600862,0.3685521678786578,-0.3697720515139601,-0.5921663692578774
354,6.5187465971778,0.7881572741614199,0,0,6.403151161479261,2.146213576500233,1.4939244063852282,0.23851751793713075,-0.40838049131694293,-0.515730109821693
355,6.7902158012728675,0.8454881777669027,0,0,7.173079437934677,1.9007908543507803,1.3694289948317921,0.0032445134499587023,-0.4995537682151774,-0.44059202047672985
356,7.267366388104009,0.8892561077155647,0,0,6.865066631638828,1.217292623421366,1.0352282823820433,-0.18784344255573673,-0.6454931614787205,-0.3614295109907812
357,7.925311747750629,0.9153724949800682,0,0,6.7503101972328885,2.041164059717517,0.46035286533100583,-0.4423979487364579,-0.8763439590581201,-0.2588049676138258
358,8.725878697188813,0.9209047560085726,0,0,7.106132373616547,2.6266270280587274,1.1394655197244972,-0.8545275228143073,-0.6844201895898097,-0.13231681405526358
359,9.619504930171477,0.9044385035787209,0,0,8.653251442144153,1.4064435203160233,1.7954345424853593,-1.0286051161145051,-0.42415190813262926,-0.12620382873889704
360,10.548224207748106,0.8663161954875704,0,0,11.407508143426183,-0.2775261930898431,2.4356451414054434,-0.8281082264120144,-0.20206888825533165,-0.2928341275430725
361,11.44955889317681,0.8087019103328097,0,0,11.983401501678394,-2.7349992336925366,0.7523986249684012,-0.3267303352311412,-0.4160558457800339,-0.4220449584317185
362,12.260925166071733,0.7354658492209382,0,0,10.427566947996295,0.4609777765169207,5.098795085099565,-0.11224297963304483,-0.25203917455332264,-0.44343046499721367
363,12.924074157829283,0.651923341614904,0,0,12.938491404626701,-2.4867088113157214,8.957862204050679,-0.12867834169467904,-0.238552753070705,-0.6570984100513999
364,13.389189036254793,0.5644763153045866,0,0,9.201051336812215,-0.7149474379505791,4.342449294260788,0.12097981029139046,-0.5559950674573848,-0.4039964131165138
365,13.618461371170639,0.480189575745795,0,0,10.628545923546916,2.237065770374318,4.719376959937211,-0.370165018239403,-0.23268201318929543,-0.22870064958198275
366,13.589135756112968,0.4063128057245766,0,0,13.703797678625142,1.0314457723245416,5.687838438209267,-0.1627964181666046,-0.19892389648816827,-0.3999734206221909
367,13.295993905240104,0.34975450372788847,0,0,12.681229426841371,-0.023740084843003998,6.550291884755163,0.0633755054311917,0.10716140821096436,-0.272178562673293
368,12.753040311081767,0.31652792365856225,0,0,12.268660346166678,0.3085247846745512,6.7705020344361655,0.0363291260176068,0.15583446644880317,-0.24931654065477513
369,11.99395271743612,0.31120754205827433,0,0,11.090132822429398,1.2440598967326195,5.0594645152168045,-0.15753415522787576,0.13810088685211425,-0.2656538288727216
370,11.070890481236782,0.3364459124881785,0,0,10.770493761892187,0.4651821549301179,3.6855332634391695,-0.1732811550583282,0.08233176297444478,-0.3549526933473083
371,10.051513347622139,0.3926041805515883,0,0,8.886649291236637,-0.6130125808195294,2.953641128703997,-0.03510802493464626,0.16239600402036553,-0.3005997211692924
372,9.01437819718739,0.47755058329716976,0,0,8.022298077619853,-2.5725256392366007,2.496696265948413,0.10846996945763585,0.08622092236925963,-0.04018913036195165
373,8.04309763917315,0.5866805831527002,0,0,8.758496862864362,-1.9684796223288807,1.6307653296372573,0.48389235642819695,-0.23609884014212915,0.2017411427444783
374,7.219726551743483,0.7132002563131222,0,0,7.534104675532833,-0.19500929557925542,1.2869623849432938,0.5957773682241939,-0.26935223519262125,0.30503250889321243
375,6.617860642919569,0.8486826145038662,0,0,6.209129346256425,-0.09981971449666995,0.5602340989185174,0.5730777875331572,-0.23538334829778215,0.32068785180395687
376,6.295979838504807,0.9838613142950101,0,0,5.566730547761585,-0.45616039381945406,0.5063279530688926,0.6689158588046589,-0.366881102905198,0.33302771469426223
377,6.291664873650377,1.109581918031334,0,0,5.961923837980379,-1.1616002144372795,-0.16765037510323727,0.8383092458630471,-0.6715543906828414,0.33130800643955144
378,6.617378370325941,1.217792388198628,0,0,5.4824692845485785,-2.282507541668428,-0.14148537679824552,0.9951461196449051,-1.2164681816608418,0.2325302088658454
379,7.2584541391913735,1.3024230486656478,0,0,4.428885131560698,-2.4221119401692377,-1.475680675625428,1.202705018361671,-1.0913266180981047,0.11142419266556734
380,8.173764335969423,1.359996962120865,0,0,5.020922729522379,-0.44913634189330137,-0.8605644376606739,1.3902089807070779,-0.5677737458477299,0.22168887426292172
381,9.299219935665436,1.3898457923143657,0,0,8.140738224353397,-1.4985370581755173,0.7958983503495339,0.9608646492896082,-0.8350029270221717,0.41482207892135087
382,10.553766960989241,1.3938836644832286,0,0,15.738576660473614,3.1923424690319475,2.3471243245773716,1.2243329501484064,-1.4265693967527464,0.627458477013901
383,11.846945784833144,1.3759873502061932,0,0,13.992803344355396,6.710521709738935,-2.484124281536435,0.5700118835689427,-1.0209902641603754,0.5620105649357516
384,13.086700805391645,1.341121535142802,0,0,9.00362910503154,-1.1375816519129547,-0.187922804995929,0.17242801129187232,0.14240824327279636,0.2014570879261098
385,14.186291266785636,1.294416995551959,0,0,12.754994627860556,5.3064010143662275,6.118215150713301,0.30154198823737677,0.8021274631998554,0.29541375333274145
386,15.069773172810102,1.2404257005228767,0,0,10.793308203421637,7.137495808552449,10.23118549338527,-1.0490328558746704,0.7181946146018368,0.5918452812927107
387,15.676125116877696,1.182706541176907,0,0,5.420843408941555,3.427717974085405,10.256032100637942,-1.1870356405261986,-0.26947050420741775,0.48888028125059774
388,15.962346283294133,1.12376031371368,0,0,14.336969783291114,2.363342059274018,1.939641126379706,-1.0408705766057358,-0.3891500507143812,0.5746169772687699
389,15.905791105906607,1.0652117645724521,0,0,15.803219686524715,-4.73468919098277,5.884448627390311,-0.9284751609238393,0.7717070471822424,0.7473596400185832
390,15.505750216627234,1.0080908420129706,0,0,16.389407062000004,-2.9882508515271042,7.757359203214807,-0.6393339552571216,0.3450734281308713,0.5272491116852146
391,14.783975839437822,0.95309160418474,0,0,13.660412677887965,1.517176006407554,6.431394478140375,-0.7058984370489593,0.5098001846713592,0.36565533001728884
392,13.783718015021181,0.900745566024894,0,0,12.45052587487835,1.6890528505589546,4.522019251877523,-0.7753877146805217,0.37752128145460984,0.3791589053166905
393,12.567047839761429,0.8514997524442475,0,0,11.705437173550642,-0.3115985656805634,3.1366876394630157,-0.6624066861178134,0.650764958837836,0.295326376057493
394,11.210652662165913,0.8057220382976872,0,0,10.102594811699852,-1.032256305343959,3.078552324226788,-0.3593904639993356,0.5865440636979258,0.030415257060222137
395,9.80059877181205,0.7636721256526661,0,0,8.837185545329147,0.6443104597713023,1.8433100929114188,-0.20409275046974776,0.5827912537494355,-0.2071019711997928
396,8.426621304551174,0.7254849587802618,0,0,8.689676182911574,1.7352605476898462,1.379528728154971,-0.03456278053856984,0.35576425847991483,-0.43186336176661155
397,7.176378912661294,0.6912116889341794,0,0,7.047972983907792,2.132495611393776,0.8980403273022394,-0.026790118705760525,0.016125439953651333,-0.6068975854300583
398,6.129939726898954,0.6609424735680502,0,0,6.00716283079433,2.2087204147607538,0.1518192549302002,-0.13073251196410365,-0.26029412703951804,-0.6378258592239717
399,5.354656753172583,0.6349971947834553,0,0,5.710055571313671,1.2286159687559153,-0.3045033180397677,-0.31029967097377853,-0.36144042992276293,-0.5961753424900049
400,4.900591652680311,0.6141306697604383,0,0,5.031219588883231,0.7824038874333117,-0.6363002360851802,-0.3596855685030221,-0.39178050101668815,-0.44912736143188176
401,4.796735995982125,0.599677007856816,0,0,4.077382658521018,1.1984773267056896,-0.5931577037004775,-0.34936320354809863,-0.5085308006686109,-0.18115195132103637
402,5.048402266361987,0.5935622006973179,0,0,3.7222398852555436,1.5468878477103347,-0.5893217563904226,-0.5707339502428491,-0.5488569076186044,0.0810402623587297
403,5.636243341789242,0.5981404137784513,0,0,3.466666269968448,1.557163119115855,0.1684590313553684,-0.7412032422744452,-0.10012117149794776,0.17026584187689445
404,6.517327323741534,0.6158493558027271,0,0,3.9343809530050784,0.45710206060213426,2.534339777410393,-0.7043045113963288,-0.0953062901454046,0.12316836447589383
405,7.628473613939981,0.6487296106655568,0,0,7.343198391478243,-1.812382665103502,3.2741424650538518,-0.29264210465734536,-0.4038102658373813,-0.16113029057233813
406,8.89164902310059,0.6979074326583713,0,0,10.345969227571077,-3.510219113798557,1.929375614230645,0.020290141134615552,-0.312432707883647,-0.35459191182868377
407,10.220764447772792,0.7631848220620796,0,0,9.962234686238851,-2.548426057164171,-1.4784362932815087,0.13463574721069002,-0.15336674822357962,-0.1652483495394664
408,11.528923032734165,0.8428895848934612,0,0,9.084053469931339,0.5624202898774318,3.524966071272867,0.23783418412441631,0.08407692387500493,0.025015593009209282
409,12.735170724426201,0.9340897000176014,0,0,14.258923727170277,-0.6079133879343037,9.494770348790304,0.9081837327166331,-0.32081548626384443,-0.5187965339617717
410,13.770008411283808,1.033169489994063,0,0,10.49498286133974,-3.914658842179187,10.486098804601147,1.4394273743902233,-0.3867302877125556,-0.5292816210183665
411,14.579220190664529,1.1366353978892312,0,0,7.375586212685097,-4.826162710026064,5.0536329689430675,1.4177948227726491,0.14246455681831782,0.005770786612320133
412,15.125932486359728,1.2419321839662871,0,0,14.380435886545454,1.778284088092304,2.4674272277004294,1.4777324191600276,-0.008324194416223866,-0.20510278828284254
413,15.391161309332787,1.3480555674220798,0,0,15.23148496837733,6.6252712609339435,5.304648397070777,1.2677925498936453,0.031190049081859458,-0.19674577480330444
414,15.373225473931123,1.4558333277227185,0,0,14.468644503192005,0.9542675829049956,7.291422960143084,1.2449756842222113,0.0820336540400099,0.07507209802355107
415,15.086276859881538,1.5678532719343978,0,0,12.27529086720509,-6.110333489071268,4.498534017545275,1.5045670513512834,0.2925004266370883,0.17379405117092703
416,14.558081583751306,1.6880870059975386,0,0,13.63269165901056,-2.3136061347467995,3.437499512346986,1.7481356729026407,0.43893289015900355,0.17195808112825453
417,13.827254558491187,1.8212776915702902,0,0,12.797959169891442,-0.02468471964325549,3.5794304717028007,1.8664988426203792,0.4923346358842509,0.36340302351171727
418,12.940287236771356,1.9721514051095157,0,0,11.593841599703802,-0.5851879588622814,3.5487414710534226,1.96080176930499,0.482679619136804,0.6209220919083114
419,11.948730319919287,2.1445103882065717,0,0,11.373105900264289,-0.8458434641851853,2.826225335610396,2.0521058390270364,0.4413362756826555,0.7388765975812528
420,10.906766322386442,2.3402903749215613,0,0,10.917148301509815,-0.6359336345315959,2.1429088855562606,2.075407867671465,0.36847205513777004,0.8065223810240436
421,9.869209151549006,2.5587056782794226,0,0,10.030210204634328,-0.5144792141798074,1.2248671453871767,2.1379149301682014,0.34419753252862384,0.8168545008682032
422,8.889789893577674,2.7956421141119008,0,0,9.13097845864029,-0.49089329468047455,1.1548564136951336,2.2742167049792674,0.4399216597199008,0.8170601010387896
423,8.01949369116971,3.043464681577966,0,0,8.23666576163124,-1.5183416788663975,0.865131181229004,2.5150325366089703,0.45375606497615384,0.8458921845589262
424,7.304721816657285,3.291367691429951,0,0,7.700242879149806,-1.8004162390016005,0.1409528918532212,2.843669592763544,0.4752218043869448,0.9349809991566803
425,6.78514558031106,3.5263085697034082,0,0,6.682123023567463,-2.2576249324950086,-0.21081604528259365,3.2155879882511313,0.44986885861512194,0.9794119674142885
426,6.491263513717223,3.7344492826271476,0,0,6.327797563296882,-1.4408936861178294,-0.3074503953973436,3.739047899051983,0.3648254882995267,1.0132785769334498
427,6.4418421460682245,3.902910485858049,0,0,5.953008987301296,-1.913768240452925,0.22357501881186928,4.109037669819703,0.4242798316865286,1.094339778632665
428,6.641577909623784,4.021557084635239,0,0,6.001739469271941,-1.6346125375549025,1.048493756470227,4.197499245544807,0.3128611469046355,1.2792622077879514
429,7.079421326259293,4.084508473153389,0,0,6.231627994684384,1.8138306226878989,1.943919342695634,3.954252452393547,0.24074908926944616,1.5468798375901918
430,7.728027020302486,4.091111778983371,0,0,6.507370539853403,0.5709328760508527,0.6982710540028735,3.7490829826114958,0.0742222206950823,1.787992476824872
431,8.544727685180618,4.0462131168796756,0,0,7.174117469482576,-2.10675515745677,-0.24437423910073064,3.938164489367608,0.09833988195803667,1.7741538412881013
432,9.47427041621683,3.9596741323131566,0,0,7.128708937234775,0.02730401784032321,0.22666566957028872,4.082540021949723,0.05506388900625034,1.554198849137681
433,10.453277097147895,3.845184549452809,0,0,9.643937483076996,4.664909866675725,1.8031005138542655,3.6425787695330514,0.09992868415152885,1.4365847499920863
434,11.415991386810019,3.718517250818488,0,0,11.609547376515646,7.8795739827904185,3.9932496554664314,3.0686531127519014,0.3300558136628785,1.4932733503975981
435,12.300448437296348,3.595465523613446,0,0,12.125870795457585,5.577359208851551,4.554364900131603,2.7666237142360326,0.507312420073179,1.6427632573947981
436,13.053972193462757,3.489772970893527,0,0,12.49519683878537,2.1270959231689086,5.043278542574157,2.6860961729555006,0.8003659263456179,1.5927173984971106
437,13.637065284584317,3.411380849139484,0,0,12.377133345116997,3.992747570280358,5.040918088168739,2.640768391540025,0.8418945464104842,1.379850901103322
438,14.025262217027334,3.36526168188366,0,0,11.66222603259668,4.402142498386656,2.7599208531346657,2.6655867080417677,0.6309147424069002,1.0977141696742911
439,14.209089265450395,3.350999958488242,0,0,13.774368565712688,0.2724657235425843,0.1489254559868217,2.948580406249389,0.5086832722532747,0.8922404623555052
440,14.192644600468444,3.3631481638823657,0,0,14.729224875172108,-0.019801254945992563,-0.24121786266244422,3.349655640169342,0.5755683538447333,0.9710156376889134
441,13.99140238197429,3.392252051518062,0,0,12.50533874201295,2.1983252391625676,0.8471725824765352,3.4156123986967093,0.7760493428254902,1.15389497004128
442,13.629746149422894,3.4263294400983324,0,0,12.675750018641146,3.8510316060763436,1.3717819543833671,3.311237400902239,0.6769800682089017,1.3334039367803066
443,13.13857427471496,3.452532836303579,0,0,13.338787962418117,2.8057134548704328,0.1919852383804393,3.312276382373933,0.49404654939901227,1.3888500193493512
444,12.55315472348003,3.4587414462418775,0,0,12.256315075432266,1.94702812084498,0.4628949395023883,3.2989695113287607,0.5793801097457899,1.3532896031946153
445,11.911256957552894,3.434894723590272,0,0,11.243939153116225,2.865542614609421,1.2910779723742933,3.175236446578998,0.5629298830167895,1.306323502109665
446,11.251483882815572,3.3739635235580487,0,0,11.042820066371274,3.6732816178537915,1.5394144046319587,2.987270505624492,0.4555558910722873,1.2978355306871132
447,10.611683877253764,3.27252893373392,0,0,10.255620567083467,3.2370596673430945,1.5412078361373043,2.8749249089850832,0.47535645673583166,1.291683656270367
448,10.027327459873877,3.1309882859400866,0,0,9.69850035949414,2.9869594241774924,1.4512997356158688,2.809851680401526,0.41936665223749947,1.2983109008409774
449,9.52977232419902,2.9534278118191977,0,0,9.097212169769437,3.2068899923636383,1.086875644232426,2.737836882751046,0.37425639842852987,1.263605326084337
450,9.144415332106316,2.74719835995169,0,0,8.364625283690245,3.7088646332266424,1.29818524229771,2.6197318712141215,0.39296269707771864,1.1507624087436492
451,8.888828862580606,2.522222029371808,0,0,8.034705768870296,4.224055331684385,1.2710068268248609,2.4100220470635207,0.3610885410667484,0.9860176842878846
452,8.771077787788839,2.2900618603498213,0,0,7.599841316282597,4.325712026495682,1.3633169039458113,2.1449168111517793,0.4062363509086827,0.8200624493619773
453,8.788499022985706,2.0628107653926904,0,0,7.037201256221421,3.892033392964108,1.1923302873812536,1.8865182176988373,0.36743558784405744,0.6760034042734956
454,8.927290119216252,1.8518919679328212,0,0,6.724542960377654,3.668272237443776,1.1832601767123696,1.706149922777025,0.33409494375144305,0.5667053898961514
455,9.163265029896653,1.6668964065603453,0,0,6.702806328940412,2.8806407655713975,1.1603404846865115,1.4664449444345335,0.17173607693770546,0.4655203850360289
456,9.464030753106597,1.5146006092572462,0,0,7.67008089015293,3.3907077507670373,1.5137118934615514,1.215834653123288,0.17188397332670394,0.4443551254818587
457,9.792567066527573,1.3983053602879416,0,0,9.960441079627298,4.47812342821905,1.8647448941261542,0.9563573235932539,0.1041291282037418,0.5693123355528873
458,10.111790643970444,1.3176076430857908,0,0,11.093157923690484,3.53057034909902,1.4188198607735545,0.820648986183654,0.05368315397777569,0.682338525015011
459,10.389314513255712,1.268663078027522,0,0,10.094562597092132,2.0261210434553036,3.12095917571215,0.8954032323006319,0.14969106813584615,0.7477959110391016
460,10.601469249641964,1.244916448834623,0,0,10.312058855292396,1.509299234132355,4.817424052726847,1.0658398135579918,0.22602725111818636,0.7646432973917678
461,10.73580420608473,1.2381892412635498,0,0,10.938189503346145,0.7232451263244722,4.969344614960039,1.2155438413092787,0.21970560283213214,0.6031007508747093
462,10.791636526449683,1.239940555497457,0,0,10.682047255525694,1.313260841994801,2.2488543753954615,1.4149289593529388,-0.038591246766584215,0.4598546751496217
463,10.778618660046476,1.2424841659471655,0,0,9.689754166425605,3.0930902135935034,1.2964021082646713,1.4000967072729833,-0.11928944050364708,0.5701767441257883
464,10.71366524832011,1.2399592330005282,0,0,9.869713375220456,3.258824177212863,2.315519528311039,1.2625593525660876,-0.04703895491983544,0.6675724836796734
465,10.6168626481967,1.2289095596062385,0,0,9.377604091131651,2.812508743665931,4.228854094511354,1.1701466295705947,0.14757537587328495,0.667049446745164
466,10.50713297419314,1.2084106327413902,0,0,8.105825894420425,0.7950605950439532,5.548435277058125,1.0218517628470738,0.27578673600136006,0.6102762907345988
467,10.398441763100035,1.1797741745549433,0,0,7.735395254815512,-1.4575244940753334,4.937858358101936,0.9412446108249003,0.2954061119498462,0.3906861980375713
468,10.29726242442892,1.1459354457239082,0,0,7.338614084666774,-1.387519281331085,3.8499355851584864,0.9665333521324007,0.3121017784581686,0.14908992892831668
469,10.201842126109609,1.1106733303754872,0,0,7.402597107087541,1.4390758622418582,4.588501451268936,0.8943936247019075,0.3782338717280305,0.14082391679070475
470,10.103508237152194,1.0778211594110294,0,0,9.293986057072996,1.687327631904725,4.939265717885048,0.8205073822235778,0.2361864368979649,0.28166446411071405
471,9.989810810031482,1.050601519629278,0,0,9.725281694769604,-0.19824051823199784,4.689303095445962,0.8385126501695289,0.16486617819490887,0.40405164009563155
472,9.848829380078884,1.0311717357721375,0,0,10.02083575196195,-0.7677341675511219,4.131689880255489,0.8969460251343258,-0.04925115157212633,0.455452774621202
473,9.673663788456162,1.020410721730546,0,0,9.677377941863915,-0.42323494676594275,3.334797748736141,0.9002222662521515,-0.2271066300456921,0.5448807282579895
474,9.466091581784955,1.0179252012450197,0,0,10.107403000491232,0.197686691342384,2.9840016280023223,0.8451641055660807,-0.306772009112278,0.678728104830344
475,9.238577179896758,1.0222166562218176,0,0,9.874875306274744,0.9651788775775393,2.549261445605136,0.7843912399625675,-0.3590913996724337,0.6992158328227253
476,9.014150856250136,1.030938403616958,0,0,9.249351332591987,1.08601630733743,2.089002984252655,0.7067114385463036,-0.48363303434625654,0.6278179072041742
477,8.824053777866908,1.041184202236866,0,0,9.086471474313615,0.784459515326221,1.7046860690676677,0.6540096822443286,-0.495674716049157,0.590351076529303
478,8.703427630356725,1.0497753609207525,0,0,9.086895878875058,0.661279588211642,1.4282024568202776,0.6714664326967507,-0.4718873188962154,0.6007292157732633
479,8.685681558758658,1.0535379959596345,0,0,8.486953268866875,1.118483164696781,1.124074999243933,0.6391474184242288,-0.4075805770218742,0.6097992490042805
480,8.796462116435134,1.0495747793347374,0,0,7.132916985785392,0.8117997339215091,0.8720747365824214,0.5634769107983848,-0.6006169785587346,0.5219176097786513
481,9.048346702030786,1.0355326826542568,0,0,6.19333280422731,0.79947707761764,0.2480637084053494,0.6074847618307053,-0.8331029094062385,0.37709209280321343
482,9.437404748955768,1.0098534071775012,0,0,6.384941167061937,-0.06918661979517295,0.3914242615056482,0.6478995585058088,-0.6713630226528571,0.2761976326877405
483,9.942510873817268,0.971974637684046,0,0,8.47010618582197,-0.1799659345060776,1.2125108768097068,0.7996701487271985,-0.7293924051281578,0.23254403307337462
484,10.52769004000313,0.9224378351483544,0,0,12.368153505350529,1.2609561204875015,2.3619780767856358,0.8793218585816021,-0.6885232274657553,0.31999453132556016
485,11.146951130370455,0.8628607640877636,0,0,13.501410822938112,2.0724512580138663,1.8665030022337035,0.67018814136022,-0.5982116637671819,0.4536337883072365
486,11.750350084802438,0.7957563815221232,0,0,12.887309595358879,1.9886354742975845,4.928780824152245,0.42482173750766955,-0.13824272566679413,0.3978892041827804
487,12.289770294960835,0.7242217813323152,0,0,12.519743602249497,7.258328203538622,4.893012756656307,-0.018880195283530608,-0.1557234929786671,0.38253945193085476
488,12.723245972008069,0.6515629519565219,0,0,9.85669574783288,1.9367086573125065,1.6216958552391374,-0.8576522008534715,-0.259948133223325,0.1619870532556799
489,13.017395816003656,0.5809371233997596,0,0,11.008729708751275,-0.8731613326735469,4.890123769485987,-0.2458404077566875,-0.31087973011163217,-0.09370602726453718
490,13.148296050114848,0.5150776052512737,0,0,11.804169327189099,1.6958240195920626,4.140175169588522,-0.28477312295989504,-0.36570378194728465,-0.0918130304962897
491,13.101553367572219,0.456135412945114,0,0,9.016338763711653,-0.2109826505896001,6.536757585336303,-0.4206284939601575,-0.1061963642647408,-0.07638577941704282
492,12.872320071177016,0.4056464907931238,0,0,10.320636677192507,0.6389116844465017,6.145048854889849,-0.2520344370675469,-0.193503707401501,0.019939367584219544
493,12.465651724336082,0.36461343339215196,0,0,11.737813258939203,-0.9710046603721817,6.039670295728524,-0.22045403588427834,0.14177350349501455,0.17464117635792922
494,11.89715167214826,0.3336700224778797,0,0,12.19824787524232,-1.823419652712543,6.354736118861077,0.06420162902455587,0.3755393368501458,0.22811607289366445
495,11.193462147533005,0.3132761625276629,0,0,10.958473294627565,0.13700270911924942,5.3493058315685005,0.17058412264106435,0.3796876282806364,0.200763477052006
496,10.392008855257215,0.3038773675230501,0,0,9.335578236317437,1.046623712481511,4.591590488252575,0.014186623967226834,0.4061184301644932,0.19316722935010294
497,9.539556625333516,0.3059669257776715,0,0,8.751277576274756,1.0892742752766118,3.7905092580057373,-0.06909469703023766,0.3318452095349898,0.14653181258074796
498,8.689484088951078,0.3200156012957449,0,0,7.763948012133432,1.6303580542197116,2.8050324076895357,-0.13901791495557278,0.26211719275563533,0.016694384651001717
499,7.898030315650473,0.34627606164511143,0,0,7.326356049987524,1.5504126733699213,2.4113423296555023,-0.10143440511240905,0.10722699515526256,-0.16366342263332478
500,7.2199701495643644,0.38450963252358034,0,0,6.514439784697396,0.8682335116216999,1.7039353169258489,-0.05155618793179188,-0.042047160625611986,-0.3584282038795081
501,6.704231425663854,0.4337051990797361,0,0,6.0492712861838545,0.6493140867543477,1.2386376281597642,0.05391415172605599,-0.09755677099101288,-0.4426407565154225
502,6.389928356087319,0.4918598879453246,0,0,5.896063530108921,1.182736837279401,0.9372264110906842,0.07687496405587259,-0.08504070173169927,-0.4607423114131938
503,6.303189430169851,0.5558776243538256,0,0,6.209839798206585,1.24934933746902,0.708913519072196,-0.015389783692190634,-0.10613695432277206,-0.4398351264570124
504,6.455027398941616,0.6216265471575362,0,0,6.413200614567629,1.3745457331061504,0.5953468714653899,-0.10653481091794542,-0.2581793820039425,-0.3735814621193029
505,6.840366331149205,0.6841814162746434,0,0,6.699487315388498,1.9875365099762359,0.5946614204734775,-0.23131519273678705,-0.2862736006924642,-0.29434871604190826
506,7.438247432448198,0.7382536706600655,0,0,6.321428679929357,2.323087358201694,1.0726611055193638,-0.44887439983893435,-0.4747375963850207,-0.20389100688226142
507,8.213194369500659,0.778772171129477,0,0,6.395511517425034,2.895072505948422,0.724097157436461,-0.8514596071989876,-0.6677416050853919,-0.12457979077797668
508,9.117688381683132,0.8015292605503634,0,0,8.077458798851206,2.1222034158801097,1.0423268391359217,-1.043542305786749,-0.332575110844059,-0.1047540796044549
509,10.095610805025188,0.8037742732097373,0,0,11.259700447508559,0.276773619042267,1.6231383091022575,-0.6961077240188231,-0.34127598487091165,-0.1852826846248692
510,11.086332171180874,0.784644937546588,0,0,12.788054976198874,-2.7736750847883647,-0.1343257178787669,-0.34566483097933887,-0.4701023313189619,-0.4008254317764424
511,12.028954170256203,0.7453749409917136,0,0,10.262429959174971,1.1408192412208256,-0.6532813361320688,0.05412553943635737,-0.4552510270297207,-0.5038982965950514
512,12.866184995001554,0.6892717534316675,0,0,10.870574175864116,2.9168396097148643,7.193588962172269,-0.138880870960582,-0.06176529381693368,-0.6146013490196216
513,13.54748075822199,0.6214903481816898,0,0,14.183666781505352,-4.8067100922308,10.106976448090585,0.1721176815599984,-0.11002047045572426,-0.8164765762462735
514,14.031320089044641,0.548631667326649,0,0,7.92440078484703,-1.6126673825697182,5.263118236002352,0.5259693094702265,-0.33650538911228023,-0.38108562102015253
515,14.28672468515026,0.4781912444671385,0,0,10.934442124248756,2.5249378740756176,4.23386043606308,-0.04927402540210817,-0.15214909860103482,-0.2654682729207463
516,14.294347117465813,0.4178949440990707,0,0,13.662468133131949,3.210661535803955,6.379050220070766,0.0726601980289633,-0.10784248491091178,-0.29765536012712435
517,14.047472762260597,0.37498436214427266,0,0,13.427133195611647,0.6094378165902804,7.081798145388534,0.3216222537532287,-0.006585460276240641,-0.07881886617637938
518,13.55303867474998,0.35553305449167516,0,0,11.72533545341805,0.007978413710351996,6.765337596537427,0.3307179674163326,0.15942476130881023,-0.12335523495450502
519,12.832452246244433,0.36387099701503495,0,0,11.598018441959978,0.2587842527511497,5.121942450638445,0.14944096465613513,0.11756124385431933,-0.21676843192443196
520,11.921863823446369,0.40217478212730723,0,0,11.339743282073378,-0.1561359925747251,3.8632866381817785,0.21218288356949452,0.12448433519103479,-0.22472903291333532
521,10.871623649509418,0.47025949697011155,0,0,10.152825041116994,-0.4844574826544725,3.399283212387924,0.33682269411095755,0.1178027035650015,-0.08641813732354871
522,9.744764397370767,0.5655888285559646,0,0,8.675814213851835,-1.7119994377661216,3.017876445972304,0.46480449565240756,0.0877453375831725,0.10566144494751534
523,8.614393361327643,0.6834972621167399,0,0,9.547700965865557,-1.8042921568442754,2.216853151258462,0.726817169457774,-0.1326557323985537,0.2889082841825636
524,7.55987504522488,0.8175909181127224,0,0,9.025883153376927,-0.7112231908056335,1.5961052159843092,0.9330249586437735,-0.12073172685454434,0.36727322660240314
525,6.661716935960358,0.960270981698313,0,0,7.0290666940999,-0.18271616197156745,1.3118687362370804,0.8977367880561171,-0.02185825472205608,0.3910018383707471
526,5.9952282623878785,1.1033195232723474,0,0,6.379417281853659,0.22646905165043962,0.6122500514275765,0.8822230440902832,-0.11405102183765774,0.42896999813604403
527,5.623331281263379,1.2385047228702837,0,0,5.46359900214705,0.26790147843099815,0.5240460342067211,0.9233023098887283,-0.08479764501799168,0.45362785104941666
528,5.589282037142907,1.3581844799552198,0,0,4.981727706347175,-0.2885423699964874,0.08379963590128661,1.1591127766056193,-0.21389636508433343,0.41512586414686986
529,5.9103621862721285,1.4558898924647208,0,0,4.217202177328457,-0.7720954193872301,0.19286264587561336,1.418961478481626,-0.6119637031241235,0.2799786821830635
530,6.573731446225168,1.5268451944729486,0,0,3.155401710142461,-1.3402027842757593,-0.9518453117752375,1.5380567861251209,-1.0091249896258676,0.18426443104354734
531,7.535519639786456,1.5683476403965728,0,0,4.211904790668775,-2.0937856489342903,-1.1836459471309195,1.5743441291906228,-0.6509377934000775,0.24883619871984503
532,8.723832858107338,1.5799214692392678,0,0,6.3321866297371265,-0.9903799077911366,0.8436136916702588,1.515493754054256,-0.4620117325814553,0.39868103092377616
533,10.045636062014903,1.563192040421205,0,0,12.308665515982295,0.9594738894645037,2.5732164309965397,1.465503788906979,-0.8601425972603612,0.5252165873355112
534,11.396583465129543,1.521489859199337,0,0,13.896121115361536,6.889422957331665,-0.30541524498910366,0.9988585906075689,-1.4210212321461346,0.6232485981199098
535,12.672115104317578,1.4592667435579343,0,0,11.153051053488154,3.9786024867681515,-2.6050982403170564,0.0800689459273172,0.009602912882946072,0.28290212552150273
536,13.777879350176045,1.381465645729488,0,0,13.226329183245651,9.389040460436375,8.318453179510088,-0.26954329233297225,1.094036445670806,0.3849466976230398
537,14.637897844629048,1.2930022611458063,0,0,11.338059667425535,5.745656930614756,8.21292042851247,-1.5846691471425418,-0.344246242116078,0.5297303903013753
538,15.199655288955789,1.1984646198888558,0,0,6.399061852942473,0.515599177638912,7.666286711212719,-1.0320674371186298,-0.22849097360759169,0.17167859721539824
539,15.436113393850642,1.1020367904429047,0,0,16.103607103811388,2.995283681897248,1.998691745156823,-0.8323005010888986,-0.3659882979376903,0.3644505067712586
540,15.345186155988369,1.0075671910914046,0,0,15.439454363411304,-3.390758789734223,6.241286957130423,-0.9554325790066517,0.6629230768376254,0.6856103787107274
541,14.947313184949778,0.918668193479254,0,0,13.822747110687843,-0.7006759884227465,7.68231450179841,-0.8759695313032599,-0.00801766392529363,0.601945512447547
542,14.281593774523683,0.8387407760199865,0,0,12.52345977267319,1.363492779361581,6.234770223008237,-0.9615808181877251,0.29476987764408535,0.5230280440518474
543,13.400852111798555,0.770850999979767,0,0,12.24197280885795,1.0247508594282957,4.843931615769853,-0.7268697110663543,0.04963166083883603,0.4842615513792004
544,12.366141321349232,0.7174441518260037,0,0,10.768040415317904,0.27575810533928813,3.0958590802466848,-0.47466000319616675,0.22089922893233024,0.27643307917379534
545,11.241393806722002,0.6799583378339403,0,0,9.22789856633185,0.037519523893432535,2.932315089660711,-0.32663347803418796,0.0721029300680434,0.04006473498054685
546,10.088970740554103,0.6584633107545375,0,0,8.360775533185933,1.1612481400786825,2.139229105155451,-0.3835151787625757,0.05340512007010625,-0.049720834228909105
547,8.966674866673292,0.651470376823222,0,0,7.562259406528093,2.691920442913869,2.0650706994467094,-0.3998561975717701,0.11073316645878414,-0.08634130247748091
548,7.926404541562398,0.6560210084099346,0,0,8.143834765108869,2.560989375286113,1.683568917587899,-0.5257373723351996,-0.07949952595515236,-0.2783941842865715
549,7.01415466210099,0.6680788065864036,0,0,7.95966752483467,1.258219068784837,1.474535147170052,-0.6100042945853799,-0.18057090946268053,-0.486896087073663
550,6.270677501805935,0.683155800504018,0,0,7.2999452827171245,0.5552382178529914,1.1172881273135211,-0.6251010195594445,-0.2666038725302218,-0.5612371909453026
551,5.73195616918423,0.6970354858959337,0,0,6.720428839632306,0.28976593931830874,0.6805775023040651,-0.6364963096348459,-0.2910412362705598,-0.4898137418459804
552,5.428768087952631,0.7064327307456995,0,0,6.5392005249499965,0.5493631940796252,0.3225805190012743,-0.5468258263247626,-0.4539954426533084,-0.3217628090383892
553,5.384960634034251,0.7094543639375889,0,0,6.187109405002542,0.36133910298587013,-0.11367304370050343,-0.5131569062027209,-0.6029637980747726,-0.1360784117735492
554,5.614510582455393,0.7057758439906395,0,0,5.513283957314512,0.5079000331994215,-0.3371598185131286,-0.5850146131216225,-0.5884868470135189,-0.016131028283225945
555,6.1178928905773855,0.696507449267918,0,0,4.634986384076659,0.6912524436158571,0.023471687060150927,-0.6942803224238406,-0.555279076998601,0.05021821069816034
556,6.878652233141001,0.6837776390362796,0,0,4.872072457040196,0.7033776740976968,0.5391151097013409,-0.689892738164912,-0.36264741500274633,0.10218191426918052
557,7.861244362592312,0.6701135908463342,0,0,6.099553060007209,-0.08839164591070109,1.2630602047216803,-0.47620981057155,-0.10442418192383356,0.11808203970117133
558,9.011098890963632,0.657750525638813,0,0,7.6707123268883715,-2.558001432411166,1.1059475007802126,-0.2058468748022375,-0.08731213489835293,0.08550893682942615
559,10.257447432668414,0.648038409585761,0,0,8.866689690357962,-2.4667363393277864,0.06927763646138035,0.01712277215235881,-0.1652813971965412,-0.009592132937052905
560,11.518873597973151,0.6411094226878048,0,0,9.140253967419802,1.2320662776501599,1.6795605137818952,0.10521780506250504,0.33946134764993896,-0.019227901283506106
561,12.710924483637164,0.6359021304497785,0,0,14.00917227204874,-1.2977372148764477,9.718436477220031,0.2170175476935034,0.7175645619542176,-0.5169417514614209
562,13.754602753034003,0.6305218649557112,0,0,13.96869684836918,-4.666334529828179,8.800149626079671,0.8387033836161538,-0.022912610952647183,-0.8145748700302177
563,14.584285287990626,0.6228031995941248,0,0,11.297490594489854,0.9987282070624673,5.725468622337378,0.3824707831670406,0.3130352112979509,-0.4038952245650522
564,15.153752557782763,0.6108890890849484,0,0,14.771775924358083,4.1559588983278335,4.024315250177677,-0.20790312409236852,0.04626662585396468,-0.6079340208163567
565,15.439528904167728,0.5936716424851753,0,0,15.078872880127463,4.971854480368191,6.091164880258782,-0.35562863421895113,0.33520062512463283,-0.624234080266242
566,15.441335508223922,0.5710168359146055,0,0,14.895518628096452,-0.9755130384371804,7.666231269813174,-0.049039276560089926,0.22149866585019642,-0.3734687256032515
567,15.17990743645963,0.5437699763382008,0,0,12.07121121970487,-1.090385545650174,6.262917932195581,0.23140953065520042,0.30561724628567627,-0.2851726165897615
568,14.69274973018821,0.5135861349928308,0,0,12.002842944873535,1.5586209865042433,6.224220247750656,-0.07596576669438437,0.3060945283393491,-0.36654932098656073
569,14.02867186913392,0.48264952385334037,0,0,11.887228032263502,1.3094883331246063,5.304399172193503,-0.22008535818834377,0.3108042659616414,-0.3583552851374769
570,13.242054899635237,0.45334427281242,0,0,11.831754726647459,0.6443486471144996,5.39916854520113,-0.27694822402345565,0.2369030672027204,-0.24930066651989893
571,12.38767571190389,0.42792685343637266,0,0,11.038217581650798,-0.53768515053592,5.058377978337234,-0.27852813143744276,0.21682173507580663,-0.14301700954423166
572,11.516610439656132,0.40823912937310863,0,0,10.042967211009643,-0.9301907182527588,4.68698075965664,-0.27841447183596574,0.19972265755145402,-0.10768303681126681
573,10.673423478230259,0.3954940205668657,0,0,9.430841855074757,-1.2040761100372555,4.243505315663509,-0.27181493190316075,0.2207387013464972,-0.08990420189288259
574,9.894610467412964,0.390158046783417,0,0,9.056286463764891,-0.9880331290983438,4.13842902356982,-0.22181403178866937,0.2583040483414432,-0.022444832622872002
575,9.208099801412136,0.391942296232861,0,0,8.922138752584614,-0.9420795792035838,3.842511484282776,-0.16547693423188725,0.3021429894398434,0.11522148739358096
576,8.633508001777583,0.3998965672424362,0,0,8.232930064432626,-1.02331963729964,3.580439704533487,-0.09646073001162378,0.3621605924665784,0.21624505756057436
577,8.182801373204928,0.4125843594242011,0,0,7.727973497823354,-1.124178424922814,3.3718369769909886,-0.0061711632502693455,0.36015840197898946,0.2827015445648335
578,7.86105997092042,0.4283034144422657,0,0,7.206584100985074,-1.3647333119646579,3.180806113684843,0.09865673586003516,0.27432628980668333,0.3369357641849949
579,7.667157109609901,0.44531150742401676,0,0,7.06931419552625,-0.6691831642004832,3.0042455723674344,0.197589312601469,0.24200140976000362,0.3793413224102893
580,7.594311149735657,0.46202146563673757,0,0,6.990570262551626,-0.2893035722923467,2.81133784624481,0.27052729883735865,0.24423329887764209,0.361118126133528
581,7.630587446990977,0.4771406779608709,0,0,6.629179820437427,-0.4868597383447476,2.8006864070774418,0.3162051697520762,0.19771936888628233,0.283601364610027
582,7.759498915787101,0.4897448987895348,0,0,6.58325684950087,-0.26310516968227526,2.871140924178979,0.3839624424149287,0.0978706275604011,0.22144773276788046
583,7.96086012075958,0.49929016751855704,0,0,7.0237602208837195,0.4007496375194303,2.9311240366784714,0.40896746656187255,0.07483837255317426,0.21029909515247264
584,8.211985880347806,0.5055759406631513,0,0,7.821142252568048,0.7486044039079889,3.311589485339401,0.4377049135955801,0.18302711188121507,0.1979234245342115
585,8.489205947751515,0.5086741444620511,0,0,8.366135944659897,0.4678921574882437,3.553987868835904,0.4890466610998552,0.22122043530228197,0.19226610717364678
586,8.769545119288177,0.5088348812820488,0,0,8.097541148796283,0.16517339621052207,3.6500446693698554,0.5073422615522301,0.1505715198888615,0.172175138090164
587,9.032361108806622,0.5063767997906871,0,0,8.02062517649325,0.26781201824004847,3.5255028564737536,0.4867518587818919,0.04528119044009064,0.12401083147880414
588,9.26076529338068,0.5015743449883707,0,0,8.242667328637129,0.7440716287817427,3.592741536734936,0.4256599496819236,0.022029930437417092,0.08514282917080085
589,9.442726652425792,0.4945638340931117,0,0,8.614374060482271,1.1483487645766688,3.4603332135058897,0.4138041404453638,0.004849409744244829,0.049779330283885655
590,9.571804354116756,0.48529735717691425,0,0,9.123682812758336,0.6362048581832691,3.6329938076204904,0.39299310606706894,0.0788367460063193,0.03452676580525538
591,9.647443732542273,0.4735693534979844,0,0,9.513956854353314,0.07098794401584078,3.6444350070630622,0.39342428167930454,0.1146109496382188,0.053687516433907526
592,9.67474263915819,0.45912299463123973,0,0,9.515120964368187,-0.08919373726171814,3.587955736778821,0.45375175104961374,0.1000333720317305,0.10788678999446122
593,9.663610717752121,0.44181734363524316,0,0,9.330698581569997,0.4034672171615044,3.176879632806348,0.4838459508397494,0.07437217120134859,0.1712777374350103
594,9.627333116991188,0.4218114150649249,0,0,8.906253671703478,0.508504171218327,3.038215644133405,0.47193488334441364,0.052737798318185376,0.21151561125829538
595,9.580689900956411,0.3997079893835557,0,0,8.771707631660396,0.7471769594376968,2.926423534294599,0.44054260540038503,0.007216269619832549,0.18202906576047884
596,9.537912934801623,0.3766045589420193,0,0,8.772283305328186,1.0776580520779484,2.9101081937909616,0.4212201369249067,0.0058451933441210635,0.08980671019271971
597,9.510826768655415,0.354019967073553,0,0,8.678642524180148,0.9881634533512512,2.81492474377711,0.4037510782068568,-0.05350797340178534,0.006672287280936993
598,9.507500030441536,0.3336958082837193,0,0,8.325243459616889,1.2136074209355256,2.5729891411285637,0.3596143254279685,-0.11263887218512046,-0.01300301268986665
599,9.531643396784094,0.3173031177328852,0,0,8.082770082949947,1.0140177675911157,2.498535056944685,0.22120905415519795,-0.15632421877443475,0.03842797589868231
600,9.58284305889737,0.30611154977186683,0,0,8.437389775547407,1.3884751001955957,3.398787718696532,0.056026728530803274,-0.14028131473827843,0.11124911828722034
601,9.657514985623251,0.3006955379864668,0,0,9.964646899219034,0.9746013128157738,4.464715242771616,0.023247958564368853,-0.10850392797234898,0.058845695811684556
602,9.750233433652673,0.3007535836725707,0,0,11.198118041101381,0.21676567955518636,3.9923660144888404,0.13008823240473238,-0.06400390488464802,-0.06870827840542514
603,9.854931535237526,0.3050969603008619,0,0,10.205951399597229,0.42513803544919476,3.537524189586774,0.21999349715768138,-0.11433157437271003,-0.10681602460942834
604,9.965531658392944,0.31182379869538285,0,0,9.106897981866682,-0.06083263497494117,2.8046980455962998,0.3131055507418097,-0.2136176617094259,-0.02862210028016111
605,10.075874517570712,0.31864554379337945,0,0,8.422413910332732,-0.33062688361232834,2.5530445416746015,0.37044849856041984,-0.1291968922450016,0.0842793361698784
606,10.179224651713321,0.3232932719200888,0,0,8.241855928269507,0.08235607189413163,2.7165233502842123,0.40765447756041473,-0.0618938536855543,0.15916477198640033
607,10.26788645883639,0.32391554142360535,0,0,8.770014943836689,0.9683639062330169,3.144952311664871,0.3770375005067022,0.03314540428779719,0.2001857826873525
608,10.333417039019535,0.3193902921978691,0,0,9.625868675987427,2.032541181666211,3.218427931654634,0.26188884786837024,0.06280003686352499,0.22884742374586586
609,10.367612711142334,0.30950333456023077,0,0,10.420544582468748,2.2143980827597263,3.2460756256736367,0.17862347669075632,-0.0006415637439132594,0.19894892598855457
610,10.364058048968715,0.2949824509891898,0,0,10.867245702457256,1.1978377196603889,3.311143634034423,0.1694902934016499,-0.09642808278015395,0.10334917074259597
611,10.319756965199877,0.27740572308639255,0,0,10.385259151824009,0.5601793317027295,3.2312697351727526,0.2264234215343062,-0.10846973821857632,-0.004620902774869749
612,10.236322762050698,0.25901611259532803,0,0,9.939825164691497,0.6561188107490723,3.138488632088878,0.26266055289004114,-0.09161386260026258,-0.07323884286159482
613,10.120367580191239,0.24247133941341437,0,0,9.568619215523986,1.2136667973615345,2.839939034972011,0.2734065805057259,-0.08026948995320725,-0.09267892007181616
614,9.982988081629907,0.23054789109974771,0,0,9.450361044033778,1.3690839568500621,2.6706095232999405,0.2516605138468002,-0.06854672411250827,-0.09111905351631724
615,9.83847093844155,0.22581239778078296,0,0,9.358797905174885,1.3725882282783264,2.599231169051736,0.24297707651108386,-0.07107481456577336,-0.07999176113833945
616,9.702475661163447,0.23027880603277212,0,0,9.057328774083269,1.460345129611135,2.6203523313098116,0.22233181097271226,-0.08574202726369735,-0.06455043947744298
617,9.589998256050093,0.24508378955937904,0,0,8.87680198463632,1.6696096710470965,2.6285790970084144,0.16030075487928128,-0.09775245311588969,-0.046049737778389256
618,9.513410958450521,0.2702287086944946,0,0,8.809707446584607,2.003724078141073,2.491290358473609,0.08404226253528616,-0.09607349057020455,-0.023101512623915507
619,9.480836672870977,0.30444577562473496,0,0,8.708989352352878,2.027089037575616,2.5425951314161863,0.007073080138471659,-0.13356695518031983,0.01651931121009551
620,9.495062523447041,0.3452405586679897,0,0,8.912445354796663,1.8252947527973904,2.2354754429391654,-0.10055409419849203,-0.20980666867206418,0.030238234081293607
621,9.55313110837395,0.3891371242823528,0,0,8.989396165194767,1.91031525507468,1.8720824964064255,-0.21983066001234852,-0.22943213577396718,0.03696564786845278
622,9.646677024237205,0.4321082848531819,0,0,8.936530148203547,2.33856299346273,1.6696768355843492,-0.37226593869366054,-0.32211880655792746,0.05700147758208848
623,9.763002787773427,0.47012350939474656,0,0,8.774715756720688,2.341179814166611,1.6662653680222304,-0.5072751101637814,-0.40410182448010185,0.09313645077702389
624,9.886805981781178,0.4997085450349474,0,0,8.478382223887868,1.9016255638019528,2.4484225308005625,-0.5731598954348872,-0.43601092590996005,0.149854586893798
625,10.002361613667015,0.5183999996767825,0,0,9.93240784287591,-0.11411996341008013,3.520000534013767,-0.5174981406945333,-0.46018814860331064,0.13854167915031693
626,10.095823571494085,0.5250034023963914,0,0,12.084728895615612,-2.442518748111232,3.198863542729836,-0.2411616264925698,-0.4223869754166706,-0.07980479848550674
