id,ASVM,GSVM,walking_nonwalking,normal_abnormal,ax,ay,az,gx,gy,gz
1,0.6625266481046482,1.792536161283736,0,0,0.015769689955285444,0.6244236920864924,-0.18675762875191834,0.8628082,1.5834808,-0.10105896
2,0.7546923690079639,1.777848923441928,0,0,-0.10497604764161055,0.5457153876493057,-0.24267814414509414,0.8628082,1.5834808,-0.10105896
3,0.8469327804706919,1.7618669599478416,0,0,-0.22572178523850653,0.46700708321211915,-0.2985986595382699,0.8628082,1.5834808,-0.10105896
4,0.9396103529617985,1.7430890081342936,0,0,-0.3154575467689568,0.46551710520496237,-0.19914879499217025,0.8599256852210623,1.525388592595244,-0.2614585478403723
5,1.0314778116312084,1.7204184343041435,0,0,-0.37196960919304556,0.5467578727658409,0.06676294411958256,0.8539548802951383,1.4050571234681577,-0.5937082404322029
6,1.119434189813128,1.6932063875701302,0,0,-0.42848167161713424,0.6279986403267194,0.33267468323133537,0.8479840753692145,1.2847256543410717,-0.9259579330240335
7,1.198814089078256,1.6612647131126599,0,0,0.07915884471516317,0.9627747779873925,0.2380014703557843,0.8396779998461248,0.11095011453044493,0.0030526980862003094
8,1.26417036207402,1.6248716373955083,0,0,0.6069360671370136,1.3066005370359668,0.13045763799432242,0.8312885698191137,-1.100426766578275,0.977082406259071
9,1.31038229357281,1.5847743109462766,0,0,0.9156251688795574,1.4808501976015305,-0.006755892639362166,0.7306589230649211,-1.6726985114383446,1.4613256232464669
10,1.3338248935922519,1.5421443990484422,0,0,0.9546987001344082,1.446415076923737,-0.1804817298759112,0.5165160534584905,-1.4584707628785962,1.3428247761580605
11,1.3333037371051104,1.4984059045936422,0,0,0.993772231389259,1.4119799562459434,-0.35420756711246026,0.3023731838520599,-1.2442430143188477,1.224323929069654
12,1.3105109466431653,1.4548898567869246,0,0,0.7086511703631915,1.3012965929812168,-0.3776250475625424,0.31507621047920503,-0.8117989370063032,0.4940734398389295
13,1.2698783127041595,1.4123862269947576,0,0,0.39953003312481905,1.1849685839405457,-0.38991522331889167,0.34457260416384544,-0.3632003381170211,-0.2814647821178039
14,1.2178548648961183,1.3707835479082495,0,0,0.1839490064190793,1.0310279755806557,-0.4061583606467161,0.3757547753658135,-0.2265153171770645,-0.8006447567381249
15,1.1617740750139958,1.3290140645208073,0,0,0.10085695878795481,0.8238133774639029,-0.42800042062493837,0.40932465962320946,-0.5316205751000126,-0.9567222903263318
16,1.1085667665250154,1.2854222244188989,0,0,0.017764911156830307,0.6165987793471499,-0.44984248060316057,0.4428945438806054,-0.8367258330229606,-1.1127998239145387
17,1.0636037774779499,1.2384988658588445,0,0,-0.018979679374498244,0.5725737541449364,-0.3890647228554663,0.18030005216452558,-1.030565628753046,-1.1048216573472458
18,1.0299169934351022,1.187765025717182,0,0,-0.0503798020750216,0.5473666205052539,-0.31875981983639945,-0.11644606456070468,-1.2115750617912748,-1.0779257234327615
19,1.007957764159106,1.1345157144547886,0,0,-0.012717498825050985,0.6789763126993784,-0.27765283965805465,-0.27831565370289685,-1.3065210853403921,-0.8851052255881094
20,0.995923825526576,1.0821611077786264,0,0,0.13792384737593055,1.0671222423262707,-0.2843106654983527,-0.2195410822444972,-1.2606762011946255,-0.4208491652520396
21,0.9905443131028087,1.0360088665073768,0,0,0.28856519357691207,1.4552681719531633,-0.2909684913386508,-0.16076651078609755,-1.214831317048859,0.04340689508403028
22,0.9880941961379348,1.0024799691651427,0,0,0.35569844317927546,1.3658131465182493,-0.2741450719870683,-0.130291258692737,-0.938917918644638,-0.08695194991124935
23,0.9853575261984068,0.987901127204423,0,0,0.40947901262383235,1.1999912411423248,-0.253567075907603,-0.10434097813749381,-0.6262172935919225,-0.3123878348564263
24,0.9802989646775331,0.9971326644993539,0,0,0.43611391201192046,1.0043804318711351,-0.21706177346231637,-0.06382634977344849,-0.31882933953134013,-0.5009194228003538
25,0.9723198687877838,1.032344650881733,0,0,0.4111917378957682,0.7521923229958435,-0.15030614736250153,0.004349970085325581,-0.021531604952372205,-0.6193596278770409
26,0.9621176934097704,1.0922334031822385,0,0,0.38626956377474914,0.5000042140713055,-0.08355052124965093,0.07252628995741286,0.27576612968465086,-0.7377998329768565
27,0.9512794847203477,1.1718808068065099,0,0,0.4663877470181969,0.5098084233879112,-0.08826386118466761,0.32380490824455427,0.5738064210694902,-0.6752499956833806
28,0.941786983874699,1.2633243390825013,0,0,0.5683746324798519,0.5741576869485917,-0.10785656344618774,0.6132042045306391,0.8720013078315338,-0.5750192380222815
29,0.9355878182001192,1.3567601820162025,0,0,0.6343293954257246,0.6548613822515601,-0.12426435039748104,0.9377398468534068,0.925416081552073,-0.4984284917642409
30,0.9343178217537522,1.4421764783771231,0,0,0.6202522232033575,0.7718903542666875,-0.1335980346363192,1.3403177906482844,0.4351430353604872,-0.47434522294268366
31,0.9391817749957078,1.5111283684594627,0,0,0.6061750509782412,0.888919326304668,-0.14293171887697995,1.7428957345217757,-0.05513001092683725,-0.45026195411642356
32,0.9509460290282366,1.55832841612834,0,0,0.534505310265542,0.881612525423381,-0.1527302173352244,1.8643912421506177,-0.28203434495827995,-0.5808321860362986
33,0.9699797244616117,1.5827364618553275,0,0,0.4478219551576712,0.8418930470261438,-0.16264988666044847,1.9126123079465565,-0.44028196872702374,-0.7517185227221044
34,0.9962960800433923,1.5878942663731315,0,0,0.38781459335746826,0.8260646079309497,-0.17331471062220852,1.8819851986466596,-0.4310564562317805,-0.882562608668394
35,1.0295743570057747,1.5813659140627752,0,0,0.3977880389509151,0.8729110316138663,-0.1859343455093111,1.64451072317128,0.017511845090081288,-0.9083613452595966
36,1.06916703357228,1.5733088472498638,0,0,0.40776148454241434,0.9197574552876351,-0.19855398039394936,1.4070362477422735,0.4660801463243484,-0.9341600818457612
37,1.1141036539068723,1.5743890718451827,0,0,0.49789496520674986,0.9887653490137531,-0.24144134109362064,1.0595080333656752,0.4728283318182064,-0.7489581052296719
38,1.1630940789863644,1.5934292632149978,0,0,0.6135152177963805,1.0648194513928522,-0.29395228321817746,0.6769883853958327,0.3391004245602139,-0.4966687446251142
39,1.2145205184603807,1.6352954743035897,0,0,0.7213405119524009,1.1081906624899482,-0.29907379124103556,0.1844322814884431,0.15431088274497842,-0.23823916393658298
40,1.2664029160804775,1.6995408213118848,0,0,0.8046865950358364,1.0489248420248256,-0.1553739847108961,-0.6536812306569143,-0.19083211599246971,0.03947310379518817
41,1.3163345059133547,1.7801955709249222,0,0,0.8880326781029964,0.9896590215712758,-0.011674178208817772,-1.4917947426386082,-0.5359751146625197,0.31718537147272874
42,1.3614125976668512,1.8668243349468088,0,0,0.8858067315178968,0.8895784217150376,0.03668380796125961,-1.934806227554281,-0.42825520625395713,0.701730729136447
43,1.3982221707689122,1.9466342218649872,0,0,0.8510069449651433,0.7739612721476268,0.048748986652773434,-2.2274182156618942,-0.14814855041856612,1.1269431597982147
44,1.4229488962124919,2.0071340926912487,0,0,0.8134196867832411,0.74143805759148,0.06080520601784778,-2.3760054306314657,0.13350067380661415,1.5196324151994904
45,1.4316873397392087,2.0387143408586446,0,0,0.7651577259471665,1.0271254545321482,0.072827115373545,-1.97304563880734,0.42105720773382194,1.7877732361592888
46,1.4209618643410895,2.036564926510899,0,0,0.7168957651110919,1.3128128514728166,0.08484902472924223,-1.5700858469832144,0.7086137416610296,2.0559140571190873
47,1.3884015052211556,2.0015379468907795,0,0,0.5472122436889375,1.4638543201317342,-0.09967755885564773,-1.4770710475363475,0.5709022309784987,1.6766042223589481
48,1.3334338052196206,1.9398234219605932,0,0,0.3229330649951123,1.5543539631875938,-0.37257966737956144,-1.523419063743852,0.2419743639156615,1.006176451732014
49,1.2578204789909182,1.8615744972663424,0,0,0.11317670961894,1.5732196147998354,-0.5726626067479,-1.5198671035497542,-0.03373488438580901,0.4730476300110862
50,1.1658714441636557,1.778830960527562,0,0,-0.026958993055327285,1.2486806029610782,-0.42365928468401703,-1.2771007109585484,-0.05432053173716788,0.5981133100585989
51,1.0642427151129812,1.7032066469165206,0,0,-0.16709469572959457,0.9241415911223209,-0.27465596262013403,-1.0343343183673426,-0.07490617908852674,0.7231789901061116
52,0.9613259306502159,1.6438149158652622,0,0,-0.012006721518261553,0.7311796634620948,-0.19466171138588478,-0.7515038278221988,0.21433463394171867,0.7794305516699234
53,0.8663352323821346,1.6058227926319986,0,0,0.29833026570602356,0.6074100602597935,-0.1509571989746211,-0.4476048655836238,0.6665036128096627,0.7994948938232681
54,0.788253525500348,1.5898767334919928,0,0,0.5485508246568296,0.5088826812019385,-0.12102822070451183,-0.14864024175307458,1.0948348706078004,0.7961209223502906
55,0.7348007461172336,1.5924593688955428,0,0,0.4236791057643549,0.5678524060900754,-0.17705073073665387,0.11953692071495892,1.3744323242304055,0.6465052211740581
56,0.7115486529296373,1.6070468865688572,0,0,0.2988073868718802,0.6268221309782122,-0.2330732407687959,0.3877140831829924,1.6540297778530106,0.49688951999782555
57,0.7212611157963229,1.6257757010867167,0,0,0.15535350699254152,0.6539860716690847,-0.272637890171823,0.5365357069998355,1.9270971770137675,0.3724870627796165
58,0.7635077686134873,1.6412274441601058,0,0,0.0005540340492186938,0.6617305548258265,-0.3021539671559881,0.6124831705572231,2.1961775618249755,0.26347889731452956
59,0.8345854579643632,1.6479256114830512,0,0,-0.14822490507828978,0.6621113183181186,-0.32491021642673057,0.6988051024109639,2.3684276998171545,0.1474375360272853
60,0.9277768655850055,1.6432159995682656,0,0,-0.2449496968023804,0.5988246130148935,-0.28922030810062993,0.8748257417965731,1.7034736802997101,-0.02941355131481719
61,1.0339660230582441,1.6273702013023148,0,0,-0.341674488526471,0.5355379077116684,-0.2535303997745293,1.0508463811821822,1.038519660782266,-0.20626463865691969
62,1.142602773523843,1.6029695347420438,0,0,-0.03710511231831947,0.6544516423952838,0.19550867980135214,0.3827702259938764,0.6121477319320371,-0.1847991342494941
63,1.2429502455336114,1.5738215288781257,0,0,0.5504620981525805,0.9018554824454197,0.9360469377546751,-0.8805738993215565,0.3540269774803154,-0.02347820590227472
64,1.3254598489256106,1.5437503583235244,0,0,1.0994290131698141,1.1274356246207278,1.5988090356094284,-2.021725827372941,0.07625415190802744,0.13441789379007904
65,1.383026453718487,1.5155551850307714,0,0,1.1292306654208217,1.0594919554222126,1.2154993322006293,-1.5194202778327406,-0.4658345952731024,0.2462508209694938
66,1.4118442309447974,1.4903015665851624,0,0,1.1590323176776491,0.9915482862104298,0.8321896287169787,-1.0171147281944521,-1.0079233425600893,0.3580837481707469
67,1.4116623838637423,1.467000302167011,0,0,0.9509406362132861,0.8695842525961818,0.5170353907530473,-0.6528382370102793,-1.058543847208831,0.10932060958995071
68,1.3854138665497437,1.44268704215496,0,0,0.5497553656663524,0.7037728951176068,0.2572016749441775,-0.4005973622067721,-0.7102487311944685,-0.4321316407841237
69,1.338376614664929,1.4129118651455053,0,0,0.1602553022000405,0.560628118441046,-0.0017412499359297823,-0.1339848809705812,-0.3884259879313318,-0.9551351727438715
70,1.277135333856191,1.3726166314770425,0,0,0.095415864468196,1.0472493575201225,-0.2359345286749585,0.5319268771250083,-0.8021090035983758,-0.9655613560037378
71,1.208598983867236,1.3172915796499685,0,0,0.03057642672368989,1.5338705966942243,-0.47012780745971966,1.1978386353506345,-1.2157920193462022,-0.9759875392656401
72,1.1392190575992165,1.2441919876294207,0,0,0.024146194961414895,1.505140641763197,-0.5395617252533431,1.1428034678545378,-1.1898266564023257,-0.9652828464348996
73,1.0744270721933813,1.1533286145402517,0,0,0.07217264001635174,0.9959331156391351,-0.45538548651977917,0.4156075839507724,-0.7539637564212316,-0.9348771960063066
74,1.0182499970956291,1.0479772894920083,0,0,0.12018807149544365,0.4868964245426437,-0.3712046682498597,-0.31144079924917667,-0.31824456310695404,-0.9044282233926031
75,0.9730880648456774,0.9345765268363729,0,0,0.1286050759812826,0.5920833482747699,-0.27055849496555595,-0.5081622537939758,-0.3992111433249406,-0.7182178151725691
76,0.9396917545206197,0.822031400848306,0,0,0.1370220804654779,0.6972702719863557,-0.169912321700906,-0.7048837083003601,-0.4801777235271164,-0.5320074069888976
77,0.9173811596454897,0.7205533420522364,0,0,0.21783809440878793,0.8550243289641452,-0.15085828988403355,-0.6402356702045424,-0.39146517698588196,-0.37504415456783396
78,0.9044920697033759,0.6402273538510497,0,0,0.37613517352704434,1.0690354743895176,-0.21912376805090997,-0.295871281811278,-0.12116286041528662,-0.24938106493565704
79,0.8989474558204456,0.5895342003708337,0,0,0.5344322526453008,1.2830466198148902,-0.28738924621778633,0.04849310658198644,0.1491394561553087,-0.1237179753034801
80,0.8987965824450231,0.5740756145686452,0,0,0.46251941203019165,1.0222920594486928,-0.24238864738140484,0.09865803851325643,0.10527520169742001,-0.19686718198725914
81,0.9025735139493406,0.5957369780100853,0,0,0.3823548057928441,0.7445197470717655,-0.1933280796218078,0.13827753013360689,0.05014979517449712,-0.27714272133908363
82,0.9094023333679322,0.6524553024413122,0,0,0.3465111159090673,0.5989802345505947,-0.16847169637161924,0.27718247211103847,0.021672019548051164,-0.346263690648709
83,0.9188794600406386,0.7386485967079189,0,0,0.365240913466937,0.6162623790712786,-0.17341854978788257,0.538340149906822,0.026006159146398283,-0.4016497501640814
84,0.930839906902352,0.8462356572827209,0,0,0.3839707110284641,0.6335445235953374,-0.17836540320511193,0.7994978277536033,0.03034029874559176,-0.45703580969026936
85,0.9451316438484831,0.9660636404961989,0,0,0.3947037251058561,0.7469733805863499,-0.17806431207349696,0.9093649819773973,-0.29587929112475,-0.5384138225400502
86,0.9614864498213263,1.0894848872782201,0,0,0.40484344164645264,0.8675355565948007,-0.17737386532395177,1.008007586331248,-0.6466233306004994,-0.6217202309663092
87,0.9795159328973105,1.209794792922088,0,0,0.43047024343542306,0.9481792830012337,-0.17132995211143243,1.0978655600869076,-0.868991035726986,-0.7004826117369146
88,0.9988067649677944,1.3232617155386073,0,0,0.47804546413465615,0.9722502689557279,-0.1576990641604782,1.175273886329892,-0.9094227910428114,-0.7728051608073246
89,1.0190572628845878,1.429545286569072,0,0,0.5256206848431796,0.9963212549149225,-0.14406817620686216,1.252682212587992,-0.9498545463665322,-0.8451277098918575
90,1.0401935560579445,1.5314040699113347,0,0,0.49023272820247255,0.930627731250695,-0.12750317193439012,1.2884703735346825,-0.49982127783477154,-0.8944746470653689
91,1.0624226418438647,1.633723664842115,0,0,0.4452635235961787,0.8545674876422419,-0.110599312558513,1.3194519065669368,0.006854794921760283,-0.9411681777300714
92,1.0862089158394965,1.7420294228881916,0,0,0.44496012795646406,0.8557202664611363,-0.11858196429139925,1.4182306199440273,0.31163586513555785,-0.8404168649879583
93,1.1121840283072333,1.8607569419069028,0,0,0.5177690524437217,0.983261066549676,-0.16730070945225614,1.6279848035662043,0.28594017030657526,-0.49831685975526496
94,1.1410052411673886,1.991618655910427,0,0,0.5905779769167615,1.11080186661331,-0.21601945460359948,1.8377389871474215,0.2602444754826104,-0.15621685458937565
95,1.1731667107158212,2.1324200233346975,0,0,0.5829353912821559,1.1875562472952574,-0.08291320535550896,0.4195627345197391,-0.3452548981005623,-0.06583258773856406
96,1.2087579688763828,2.2766380013978598,0,0,0.562413647003711,1.2561804343824032,0.07930067587055423,-1.259222353430183,-1.0435727104057673,-0.015744480929662307
97,1.2471733133639102,2.4139544937718074,0,0,0.5626780826918532,1.1972239467956933,0.18582772267845987,-2.379872352443854,-1.485638676850787,0.1407353784863669
98,1.2868109055571095,2.531724317370399,0,0,0.60244575516389,0.8958059001815709,0.1865243471159806,-2.439810734098649,-1.4407090838524972,0.49940816620756945
99,1.3248487716941444,2.6171044264464443,0,0,0.6422134276281611,0.5943878536263082,0.1872209715533653,-2.4997491157417397,-1.3957794908629813,0.8580809538587317
100,1.3572199635406454,2.659389962647342,0,0,0.739855431183607,0.6387103725162768,0.1551324946856755,-2.4960503214994554,-0.719273131027249,1.4278060519447802
101,1.378900634162743,2.6520657957584985,0,0,0.8495583662341706,0.7550847526769853,0.11621164751761785,-2.4790896267837623,0.08885296376213177,2.0415141630531535
102,1.384557022531425,2.5941700962095493,0,0,0.8896169670531949,0.9691551213129291,0.006089920629107227,-2.2473640535157933,0.6946495881982824,2.3599537480622415
103,1.3694845606122967,2.490721785551565,0,0,0.7748849705246945,1.400363331376402,-0.2622819614024752,-1.5383048365046839,0.8507513459377025,2.022133322208212
104,1.330655276194539,2.352152538731712,0,0,0.6601529739961941,1.8315715414398746,-0.5306538434340577,-0.8292456194935748,1.0068531036771227,1.684312896354182
105,1.267616985057446,2.192884213509547,0,0,0.3499472472141073,1.6098527010865267,-0.5251788537988773,-1.0471305353291795,0.34358657700936196,1.2368494735949207
106,1.1829968705683407,2.0293586494757685,0,0,-0.011259551955699354,1.2177785924369802,-0.4482544468588316,-1.5068645464747148,-0.5334614185598221,0.7607790844943718
107,1.0824602988115701,1.8779030616933852,0,0,-0.1973730344004813,0.8755376435579396,-0.3822553018504962,-1.598987741494667,-0.8158901524293513,0.4657659989181839
108,0.9741265673159891,1.7527832889852872,0,0,0.07617006528905024,0.6641191632994045,-0.3449372547796675,-0.7260556481723325,0.4626810568913749,0.6460662084340901
109,0.8675809455268475,1.6646945461487546,0,0,0.34971316497858174,0.45270068304086936,-0.30761920770883877,0.14687644515000206,1.741252266212101,0.8263664179499963
110,0.7726942397418767,1.6198166521822548,0,0,0.3892439673567687,0.4536436169447697,-0.2307915055978221,0.40942881695893685,1.6635686698998924,0.7900028353140786
111,0.6984575576698416,1.619453447707775,0,0,0.35431373638662333,0.522158428588464,-0.141392114822811,0.4777627424996397,1.1543345290847675,0.6846983891360071
112,0.6519869176222173,1.66020607821478,0,0,0.2974993740379664,0.5813836141874065,-0.0975239849917331,0.5627654059119586,0.9094854290517675,0.5525589166750942
113,0.6377856247548943,1.7346007527730953,0,0,0.17190753442941398,0.6114133507243923,-0.1967515626322288,0.7001546009461067,1.495545986945472,0.3360822878128936
114,0.6572983277557657,1.8320751813463914,0,0,0.04631569482086159,0.6414430872613781,-0.2959791402727245,0.8375437959802549,2.0816065448391763,0.11960565895069307
115,0.7087601985463672,1.940193103637399,0,0,-0.07759087220752853,0.6306256711124555,-0.2991493132281927,0.9898927782203428,2.1238120714619946,-0.0016998588128322842
116,0.7873355767965946,2.04591841481248,0,0,-0.20085547191158296,0.6042484347795022,-0.26572854053052297,1.1479403608473235,1.958848041950995,-0.0867520449028371
117,0.8855427463781127,2.1367878357242422,0,0,-0.2872759246176879,0.6029400657438733,-0.18981420034895388,1.2924943203569763,1.6754504021675245,-0.18298369967619366
118,0.9939612931958212,2.201892097079572,0,0,-0.2324797767679055,0.6977158921517509,0.04896989362945079,1.3853297916409688,0.9381192827829242,-0.32206412950596863
119,1.1022010562392288,2.232670054967367,0,0,-0.1776836289181231,0.7924917185596284,0.2877539876078554,1.4781652629249615,0.20078816339832387,-0.46114455933574355
120,1.2000671547420552,2.22357037739458,0,0,0.3647738201420557,1.079494564018944,0.24507914478777143,1.3750805675999318,-1.0299826173555782,0.25394219752090624
121,1.2787864459169662,2.1725944607665184,0,0,1.1266460404653074,1.4529866332509136,0.07576671944546708,1.1838449805566091,-2.482768042430439,1.3533467123265734
122,1.3320900281339814,2.081615609818036,0,0,1.6618578671355662,1.6681399121010663,-0.08350184564966351,0.9501743398821927,-3.4352791647842826,2.075943464195308
123,1.3569198303919925,1.9562667161767489,0,0,1.109416847937203,1.1234884752061451,-0.19457393051600805,0.5128747982666291,-1.9871733981438975,0.9903900178817124
124,1.3535918193915721,1.8052290751486484,0,0,0.55697582873884,0.578837038311224,-0.3056460153823526,0.07557525665106547,-0.5390676315035122,-0.09516342843188302
125,1.325402316093523,1.6389739375939019,0,0,0.30863532186823084,0.6535284851778099,-0.3492997387016596,0.2637613018851676,0.11861598388669772,-0.5704273845218031
126,1.2778303452527844,1.468268203776387,0,0,0.2203114645380671,1.0541160391078768,-0.35747815075413525,0.7810757235039175,0.3603821665881045,-0.7245590980984618
127,1.2175690468220084,1.3028552335997294,0,0,0.15021821016781414,1.3684818887596781,-0.3708646600694899,1.1949473050435038,0.4965808789373521,-0.8358853176665091
128,1.1515843055142396,1.150600022853588,0,0,0.19400802732498582,1.1442373294672077,-0.4167851516351565,0.9626313533654276,-0.026680098747869797,-0.6798138462931652
129,1.0863101735782188,1.0171667705249037,0,0,0.23779784449070862,0.9199927701309477,-0.4627056432097903,0.7303154016419857,-0.5499410765352721,-0.5237423748893443
130,1.0270264041562946,0.906128402628891,0,0,0.1860833300200874,0.7913776180868027,-0.39486655344123944,0.341252840935154,-0.6175321133710349,-0.580213532563499
131,0.9774471992982863,0.8193417421675411,0,0,0.0760224936037516,0.7211852002546935,-0.25752848866489575,-0.1435706968751427,-0.4067413782322772,-0.7665330484244259
132,0.9395532203883722,0.7574211016498319,0,0,-0.01615071975787202,0.6804351805448331,-0.1394604317431628,-0.5471182171759237,-0.24335595376893043,-0.9161277107596414
133,0.9136848647146608,0.7201641821598443,0,0,0.04656855216907034,0.8946327413183847,-0.18825520499936058,-0.24688053874160132,-0.49046254181135984,-0.7477145630467824
134,0.8988714828880524,0.7068185390233152,0,0,0.10928782408376513,1.1088303020501082,-0.2370499782460299,0.05335713963409176,-0.7375691298055352,-0.5793014153668105
135,0.8933135386675094,0.7161342006769134,0,0,0.19239959087912584,1.1134403281643541,-0.2512112138190632,0.09442133003043855,-0.587803534385195,-0.4615465976760019
136,0.8948938601929679,0.7462279654608013,0,0,0.28990074579957376,0.9701608292626914,-0.24093427158957229,-0.04739293226333694,-0.1579962904750177,-0.37953739994236313
137,0.9015970026994564,0.794365962943223,0,0,0.38181797235121195,0.8308703837195758,-0.22672817318219105,-0.17118298667720575,0.2614434643278632,-0.30517906049103966
138,0.9117638397329384,0.8568193243243274,0,0,0.3984684006949776,0.745349122569119,-0.15956025547454716,-0.0520214256799651,0.5411379253607478,-0.33394804798124444
139,0.9241761590240237,0.9289369108129999,0,0,0.4151188290354917,0.6598278614353624,-0.09239233778001961,0.06714013529400611,0.8208323863390148,-0.36271703546583134
140,0.9380205434827757,1.0055104675152138,0,0,0.4553369896639086,0.6603904012357449,-0.08026389173424979,0.31524388969392325,0.7959320114570301,-0.42210673519256137
141,0.9528026170602313,1.0814127021260145,0,0,0.5146955159444795,0.7308652858675555,-0.11283535995215827,0.6680671266479664,0.523657113523647,-0.5063648279273383
142,0.9682708429508164,1.1524048503249138,0,0,0.5722495763869135,0.8008468617918346,-0.14446431133111523,1.0165715536082665,0.24581292268137375,-0.5869696261144064
143,0.984376393104712,1.2159544568632594,0,0,0.5794575324184713,0.857064712338934,-0.14979625547616604,1.2445775724376982,-0.18741919057053744,-0.5656444545067731
144,1.0012612845012385,1.271874847033955,0,0,0.586665488450029,0.9132825628860333,-0.15512819962121685,1.47258359126713,-0.6206513038224486,-0.5443192828991399
145,1.0192472328779318,1.3225955691690987,0,0,0.5708210649522265,0.9050072125265018,-0.15976266508535594,1.5417747645160997,-0.7630458239404667,-0.5697792663854991
146,1.038798815887382,1.3729104271579837,0,0,0.5334721051365431,0.836569032581997,-0.16374648380799436,1.4628146542824274,-0.6341309299397736,-0.6388830336111926
147,1.0604517253783645,1.429139228506276,0,0,0.49613241782953227,0.768153778662633,-0.16772943110494715,1.383850867030957,-0.5052066725765297,-0.7079540770885577
148,1.0847174962258064,1.4977752218348641,0,0,0.5262264509313634,0.8664665278293663,-0.16537499071554754,1.2781463385281975,-0.3081882025145862,-0.5390438635433795
149,1.1119859492321096,1.5838419507253312,0,0,0.5563204840331946,0.9647792769960996,-0.16302055032614798,1.1724418100254377,-0.11116973245264254,-0.3701336499982012
150,1.1424388856361714,1.6893066715098675,0,0,0.5945544955501862,1.044338430765193,-0.16485221860662672,0.913861877393526,-0.24667759726443472,-0.1763008660940993
151,1.1759699783279796,1.8119501925023214,0,0,0.6415047773057985,1.1038162775788953,-0.17116636245713793,0.49158331234068786,-0.7382538993772402,0.04421894906881424
152,1.2120919484564505,1.945044116294165,0,0,0.6884550590522425,1.163294124380983,-0.17748050630641612,0.06930474737031077,-1.2298302013940525,0.26473876418866554
153,1.2498159486925278,2.078025246530563,0,0,0.677516108541667,1.0774787912855295,-0.04708802526290449,-0.9545542566708607,-1.5850338350146855,0.5334458960821739
154,1.2875119522474165,2.198107888552221,0,0,0.6645194118969612,0.9864988279541407,0.08816386603559524,-1.9997971999111268,-1.9353899292872865,0.803865907226954
155,1.3227936644669813,2.292508825938946,0,0,0.6576398227409225,0.9277492364369052,0.1948820446781381,-2.452298674274723,-1.7596989480689813,1.109094211373525
156,1.3524995703028793,2.350777275217481,0,0,0.658283922653497,0.9086411415776688,0.26650540402820255,-2.175762361020688,-0.937000432702209,1.4571347064863693
157,1.3728452484832454,2.3667003881647424,0,0,0.6589280225659457,0.8895330467221639,0.3381287633642806,-1.899226047820654,-0.11430191749609028,1.8051752015312497
158,1.3797923348034695,2.3393934833313046,0,0,0.6054704853209862,1.111359067216465,0.19211616898733153,-1.7214615898269636,0.25223314442995365,1.827530632796392
159,1.3696215679190549,2.2734051432301,0,0,0.5480163912009235,1.350983197818721,0.03002652938990632,-1.5509935346360777,0.5850708308020369,1.8258272934003013
160,1.3396278359439255,2.1778788037820678,0,0,0.45792194160639904,1.4889645804137033,-0.13659569417639164,-1.4383075538693597,0.6356907299161949,1.646368629392053
161,1.2887977159221904,2.0649695948750306,0,0,0.32162232660314444,1.483062113631108,-0.30963417107674956,-1.4074169540600507,0.286807640635697,1.2152823693790804
162,1.2183082524540192,1.9478187736596098,0,0,0.18532271159988994,1.477159646848513,-0.4826726479771075,-1.3765263542507418,-0.06207544864480092,0.7841961093661075
163,1.1317129596410038,1.838445054458291,0,0,0.14895090005943273,1.1769125812655095,-0.34257460985839294,-1.2661420384807487,-0.20455424948816286,0.7891457765115665
164,1.0347526832526264,1.7459155880849941,0,0,0.12408497733563428,0.842774084967306,-0.16642140189311225,-1.1466046559388314,-0.3232672443021408,0.8443014996704695
165,0.9348217439714905,1.6751023460304402,0,0,0.17272309700749225,0.6341913400113026,-0.07408048717456593,-0.9084686231083063,-0.0903344456518939,0.8513257612899797
166,0.8401978424719032,1.626221558865547,0,0,0.3415360735044782,0.6308849847663893,-0.1187678231267208,-0.4764306585264646,0.7175188812495943,0.7796578678628893
167,0.759175699335848,1.5952147929804752,0,0,0.510349050001464,0.6275786295214759,-0.16345515907887567,-0.04439269394462285,1.5253722081510825,0.7079899744357988
168,0.6992237620636137,1.5748791627395415,0,0,0.37517585181100344,0.6402840939753748,-0.1833170111053316,0.215862180356584,1.6653962373153928,0.536221140492111
169,0.6662368970759431,1.5565137076676108,0,0,0.19145246664733562,0.6555468353886269,-0.19921393977401328,0.44868126373554956,1.6987600301096686,0.3484650025507143
170,0.663921500886457,1.5317523201986658,0,0,0.028954119704557395,0.6559521536451425,-0.21529024459038876,0.6353594311961608,1.716474394039513,0.1760424532032631
171,0.6933398616770899,1.4942280623899025,0,0,-0.0932565773675492,0.6281563135913,-0.23170702670039783,0.7344566460480874,1.7044842785235252,0.03272488080199634
172,0.7526508147604769,1.440760025273322,0,0,-0.2154672744396558,0.6003604735374575,-0.2481238088104069,0.833553860900014,1.6924941630075376,-0.1105926915992704
173,0.8370973629100852,1.3718529332251435,0,0,-0.19631585366073695,0.6011049832765899,-0.10444221391091958,0.7394672787285977,1.4809172329801688,-0.3157072024190859
174,0.9392952694012399,1.2914323683778324,0,0,-0.14776214796238443,0.6077856766905558,0.0725386705783036,0.6051998819929922,1.2278277076356854,-0.5336750237550659
175,1.0498591883505635,1.205889260265462,0,0,0.01956641999174806,0.6917949985863837,0.26195787872400406,0.4148976641122879,0.8930911161867195,-0.5899452276046945
176,1.1583560736398133,1.1226542146917404,0,0,0.4505397316217284,0.947450795556357,0.47898645301619674,0.10021486785936239,0.3771224069521118,-0.28729498237179774
177,1.2544994333451278,1.0486315728381375,0,0,0.8815130432517089,1.2031065925263307,0.6960150273083894,-0.21446792839356313,-0.138846302282496,0.015355262861099003
178,1.329412660390405,0.9888546855651547,0,0,1.0542321632048424,1.2249734248220276,0.5510482033023351,-0.23517926512251056,-0.5962736991135148,0.2627391809283462
179,1.3767351818619091,0.9456512038600368,0,0,1.1596842818898145,1.1859456692213322,0.3117930940464452,-0.17932038860138394,-1.0384529462951066,0.4957279788669488
180,1.3933577715214278,0.9184483931305676,0,0,1.123805627161513,1.1380570907938508,0.07398415188985351,-0.05619350968584391,-1.1610016269845407,0.5045509118990168
181,1.3796561789663804,0.9041746015883189,0,0,0.7174200640610674,1.066939345838102,-0.16003357843077304,0.24328038126114176,-0.4456200384752641,-0.07429011220457601
182,1.3392111045001678,0.8981001203838133,0,0,0.31103450096062185,0.9958216008823534,-0.3940513087513996,0.5427542722081274,0.2697615500340124,-0.6531311363081689
183,1.2781094223143945,0.8949257355867959,0,0,0.2007903073021195,1.082950973580642,-0.43088039007368667,0.6822744952446668,0.2423252209960426,-0.7794685194554584
184,1.2039812225618938,0.889928757232667,0,0,0.18463314169632705,1.2203570131792847,-0.4050606966497878,0.7709758635083047,-0.02111167207950903,-0.7620410417944499
185,1.1249335500160442,0.8799784127061356,0,0,0.16365574693055757,1.2377000911017422,-0.36107264459100924,0.7026374151828653,-0.3108886159705373,-0.7431750428357302
186,1.0485187274144703,0.8642419167647412,0,0,0.12755231025689345,0.8782815401416927,-0.2600716694972283,0.14150271836002684,-0.6833215289592813,-0.719794915458543
187,0.9808561965952285,0.8444397999355944,0,0,0.09144887357617919,0.5188629891114575,-0.15907069438372431,-0.41963197857238776,-1.0557544420207525,-0.6964147880767902
188,0.9260217234357702,0.8245770338692184,0,0,0.0985470777529115,0.5574271845123306,-0.11189421777541396,-0.4920682444770453,-0.8385462390735222,-0.589459555752385
189,0.8858022171834344,0.8101680273250655,0,0,0.12207908981274272,0.7473831295259612,-0.0851924604162512,-0.37860471656848743,-0.3970398699333998,-0.45071253979483994
190,0.8598583129154022,0.8070821742131533,0,0,0.16095919221991015,0.9207886254433475,-0.07501194887434207,-0.2542657134422773,0.002292167288893927,-0.33076618962020043
191,0.8462427610338983,0.8202419490416677,0,0,0.25856604434108516,1.0308667588202693,-0.1280470586974611,-0.08831363033841322,0.2402515920986164,-0.2827572576456707
192,0.842129563508484,0.8524659208805838,0,0,0.35617289648132044,1.1409448922186873,-0.18108216853093667,0.07763845279785736,0.4782110169548067,-0.23474832566176598
193,0.8445610407997942,0.9037290739253998,0,0,0.38135839177930636,1.0289938377354424,-0.1618004045918787,0.15721172053466972,0.5931622948959459,-0.32333611619782815
194,0.8510378684492296,0.971015854313966,0,0,0.37400147447743065,0.8172743481178228,-0.11002317733740084,0.19797081559000856,0.6528400728070486,-0.47330340994564396
195,0.8598501357047678,1.0488062612513376,0,0,0.36826790037839624,0.640027109747381,-0.06606723610017919,0.29202025374116575,0.6976924624394742,-0.6054821260555979
196,0.8701427517735858,1.1301050002975344,0,0,0.37030894767683104,0.6278766307550893,-0.05956950919118997,0.6412912871012312,0.6715421332766198,-0.6524666231798107
197,0.8817862161454906,1.207822506185374,0,0,0.3723499949748673,0.6157261517651702,-0.0530717822834696,0.9905623203930922,0.645391804118872,-0.6994511202948486
198,0.895156872061032,1.276251625668376,0,0,0.4037197216708836,0.6854941222112478,-0.08994958300163315,1.2552579201801561,0.5137496455704215,-0.7014638085078512
199,0.9109173093463558,1.332357324746336,0,0,0.45050310862303217,0.7983142577814928,-0.14962335203407065,1.4755049793299684,0.3266663539262155,-0.6798416042624018
200,0.9298460043911824,1.3766129934038578,0,0,0.48649350751856607,0.8943608635382567,-0.2000822121745378,1.6569529854609222,0.1579110047369305,-0.6677877813373546
201,0.9527206100116214,1.41317848482708,0,0,0.4552194995747932,0.88587093803024,-0.19311162113765626,1.59659628714479,0.10337964719125804,-0.7153663318194622
202,0.9802315178731749,1.449318534761104,0,0,0.42394549163712725,0.8773810125238812,-0.1861410301021359,1.5362395888404443,0.04884828965623425,-0.7629448822922787
203,1.0128989558704726,1.4940942974733245,0,0,0.40975293458659284,0.8878366451090964,-0.19634595282094403,1.4354062589805494,0.05353358202806337,-0.7314072789067868
204,1.0509811064656893,1.5565063431040687,0,0,0.4059836011347998,0.9098529928523073,-0.21703149697335034,1.309873798817549,0.09435329804024697,-0.6515924321309905
205,1.0943780495992539,1.643399909547874,0,0,0.40821474658089746,0.9374762942041351,-0.23720949446120565,1.174778057821239,0.09829541026817214,-0.5637955966806916
206,1.1425455386307268,1.7575359020644628,0,0,0.4622499815303356,1.0135062529638745,-0.2530056761782132,0.9571193975679829,-0.21613884709322354,-0.4070876523359993
207,1.1944312471844984,1.8962580216848328,0,0,0.5162852164797738,1.089536211723614,-0.26880185789522076,0.7394607373147268,-0.5305731044546192,-0.250379707991307
208,1.2484386150527718,2.051123282313352,0,0,0.6528043708732666,1.0884911658251195,-0.15209345316197512,0.09345187104036062,-1.1245532272409104,0.011149050405066101
209,1.30241683218595,2.2086949791426473,0,0,0.847459284008553,1.0331226359550265,0.05800593883246486,-0.8544638929915891,-1.9155609779472171,0.34655690666560096
210,1.3536754639891702,2.352437998773394,0,0,1.026340942025732,0.9748867800458701,0.25692255892997545,-1.7572833690257017,-2.604293985591824,0.6882975622916297
211,1.3990303307282224,2.4653720478555337,0,0,0.9935277777022347,0.8781681843435606,0.3057538037848425,-2.0548599435897335,-1.920384924155743,1.1150315061253908
212,1.434901062293779,2.532935686433935,0,0,0.9607146133787373,0.7814495886412511,0.3545850486397097,-2.3524365181537656,-1.2364758627196621,1.541765449959152
213,1.457493972631767,2.545476725633446,0,0,0.8827151466497369,0.8448930289469315,0.2959653065333583,-2.208844530360975,-0.4653906792438085,1.838615380885707
214,1.4631057615968452,2.49990950699477,0,0,0.7680591926255094,1.0382647290057243,0.15017809270211432,-1.7073633386561529,0.3764143959991798,2.0300994949400986
215,1.4485627939621026,2.4002885946853625,0,0,0.6508195033536376,1.231489348641141,0.003012567860451674,-1.2276618000917159,1.1728991804135667,2.19834573444084
216,1.4117653755668704,2.2572593722598056,0,0,0.46208682965297554,1.4206441954013989,-0.18229137262466744,-1.3506119394634946,0.7153534639699378,1.7235907267870287
217,1.3522499722421555,2.0865199394777276,0,0,0.2733541559523135,1.609799042161657,-0.36759531310978655,-1.4735620788352732,0.25780774752630903,1.248835719133218
218,1.271639276903643,1.906559628900278,0,0,0.14286223149994515,1.5547119438481551,-0.3982090908847339,-1.4674434329845047,-0.018286064553758415,0.9546885581426007
219,1.173845170930729,1.7360252346155338,0,0,0.06664002512011122,1.2720360583283268,-0.28467995119576806,-1.3410563038138839,-0.12529991427470188,0.8288348522358928
220,1.0649345110985822,1.5911000297557063,0,0,-0.009486262432644684,0.9894021381361656,-0.1711616436693017,-1.214559909275513,-0.23221056991559358,0.7030610831274462
221,0.9526496344807099,1.4832641033262028,0,0,0.1450925374246361,0.8077037160378423,-0.08369698037914187,-0.8252571712321354,-0.09091761440124067,0.7695522383506923
222,0.8456600903376691,1.417750562408359,0,0,0.29967133728191686,0.6260052939395191,0.003767682911017946,-0.4359544331887576,0.050375341113112225,0.8360433935739383
223,0.7526740341658015,1.392931039338622,0,0,0.36717112521193784,0.5439272580524388,0.00785173543026835,-0.09707032570511033,0.3389378996504887,0.7825450121185313
224,0.6815431371281195,1.400752638050751,0,0,0.34153069462360536,0.5684037676914335,-0.07724859911900579,0.18788572064937598,0.7850208834765781,0.6007051231785736
225,0.6384652672748755,1.428200408751761,0,0,0.3158902640352729,0.5928802773304283,-0.1623489336682799,0.47284176700386227,1.2311038673026673,0.4188652342386158
226,0.6273481852726087,1.4595840441176857,0,0,0.1977617046447253,0.6208443175738271,-0.20365770950947104,0.5998908965107146,1.5709065079191458,0.28180115859169313
227,0.6493659619003288,1.4792789925512762,0,0,0.07637311196641268,0.6489312867426383,-0.24342291495731438,0.7213741030605207,1.9069629656189968,0.14631534644954783
228,0.7027278393120253,1.4744396052795672,0,0,-0.03900525454492625,0.6386131742773415,-0.2509610695720573,0.8615547356886021,1.9909522303590954,0.005218127995241308
229,0.782684584203438,1.4371868661883191,0,0,-0.1469996963484766,0.581112106565045,-0.2189063517763608,1.0247062821018833,1.7652617710312055,-0.1427730410228998
230,0.8818084837765564,1.365870480980846,0,0,-0.25499413815202693,0.5236110388527482,-0.18685163398066432,1.1878578285151644,1.5395713117033156,-0.2907642100410409
231,0.9905836697384541,1.2651963173290457,0,0,-0.012367415518304987,0.613156294811798,0.22041565421174622,0.5143997465542699,1.0556354944469488,-0.25714344856330273
232,1.0983173112371094,1.1452491620126555,0,0,0.2560477253055805,0.7135169049820318,0.6552800747713194,-0.22059152607846935,0.5527055605133552,-0.21016500968133628
233,1.194321884481852,1.0196628609487781,0,0,0.5457913229522755,0.8155867239797155,0.8874335375958626,-0.6566247144392989,0.10227045187550096,-0.08109074407101592
234,1.269235610119818,0.9033292263741822,0,0,0.8656925618687398,0.9200733004374415,0.8329612788303564,-0.6699423398043683,-0.27393893494441385,0.16406395375151242
235,1.3162738430405065,0.810059378233355,0,0,1.185593800785204,1.0245598768951676,0.7784890200648503,-0.6832599651694378,-0.6501483217643287,0.4092186515740408
236,1.3321750069965375,0.7505415553106247,0,0,1.0383945098145388,1.124448756280144,0.5570515472407095,-0.3879490727208602,-0.35971705836166523,0.2015797109390812
237,1.317640081545237,0.7308435081458945,0,0,0.8375737821532083,1.2238098367930588,0.3164470770248393,-0.05720875245138385,0.007242119538979041,-0.05803828743265085
238,1.2771573995507326,0.7516309861017081,0,0,0.6326806831623867,1.2393653092554482,0.08271777032588509,0.24493128446100898,0.17392334159789757,-0.27206343391283944
239,1.218226541635838,0.8082051404005453,0,0,0.4211373486442281,1.1180651300704398,-0.13978430462596822,0.5003666854047193,0.013548048049848339,-0.411634858246908
240,1.1501126100249417,0.8913638312781351,0,0,0.20959401412606937,0.9967649508854314,-0.36228637957782156,0.7558020863484296,-0.14682724549820092,-0.5512062825809765
241,1.0823499713369427,0.988960858570772,0,0,0.10234150576257514,0.7572677774218578,-0.395595008516514,0.5705435172373597,-0.38732586719454404,-0.7582111688753402
242,1.023260799816478,1.0879123345355775,0,0,0.011706480214488404,0.4989373413871407,-0.398757948231865,0.31506568983501854,-0.6405911728849253,-0.9759607623515415
243,0.9787541953267084,1.176321058847789,0,0,-0.043721205393895325,0.38607574516482385,-0.38366649707434425,0.09112335581945283,-0.9443446693688082,-1.0788324003673144
244,0.9516234418687151,1.2453682699991429,0,0,-0.03240333937231022,0.5489918127727987,-0.33396864308816476,-0.07303445867182046,-1.3438129273507962,-0.9639201183124145
245,0.9414625688485357,1.2906497575248888,0,0,-0.02108547334851501,0.7119078804125872,-0.2842707890922804,-0.23719227319514985,-1.743281185410791,-0.8490078362350751
246,0.9451911368258239,1.3127073095723394,0,0,0.05794072456353279,1.0300821417193866,-0.25535015836953245,-0.18847431775528872,-1.6585735285167271,-0.4047926774110763
247,0.9580370187566383,1.3166313684145619,0,0,0.15102229111717932,1.3804859837312025,-0.23074260883136855,-0.09556612253686193,-1.4733572520634681,0.10778147355611271
248,0.9747204885147291,1.310780478927906,0,0,0.23472251651001735,1.5307920564836963,-0.21044853073965664,-0.039394039253759665,-1.2638229666466767,0.34782436406594863
249,0.9905466108745278,1.3048465616841267,0,0,0.29762598641627824,1.2375171625743813,-0.19971664737389175,-0.06465934582256101,-1.0003800046701057,-0.01628580723353363
250,1.0021656091191549,1.3076448667379301,0,0,0.36052945633482264,0.9442422686077966,-0.18898476400603123,-0.08992465239629607,-0.7369370426420904,-0.3803959786041179
251,1.0078864944995092,1.325083466406038,0,0,0.3716106288655837,0.7798505680637424,-0.12402436191736696,-0.07704032518643283,-0.31493016793451284,-0.5590306028676465
252,1.0075765613376213,1.3587496093013605,0,0,0.36921663101929697,0.6489719126236276,-0.04496310814721264,-0.05423608239921577,0.1483075253185932,-0.6894366706282513
253,1.0022888573340987,1.4054383680502394,0,0,0.40544370150358605,0.5795065484891567,0.009715127211630023,0.06466850722918259,0.6120545667369451,-0.7413650661425305
254,0.9937971951561849,1.4577591413968676,0,0,0.542777437172338,0.6708159466634079,0.0005606985692421642,0.4351556141828882,1.0771350383302187,-0.5878456044561146
255,0.9841861624473632,1.5057238655974492,0,0,0.6801111728142718,0.7621253448198285,-0.008593730071358052,0.8056427210642464,1.5422155098326733,-0.43432614279967735
256,0.9755702523705809,1.539000348945395,0,0,0.7113006225569262,0.8058257661043314,-0.050898244223150174,1.223506281625202,1.3990734345210616,-0.4875051444834273
257,0.9699394104691507,1.5493605165969122,0,0,0.708818225035863,0.8344233282567447,-0.10371886488651863,1.6563989386531095,1.0629866658125193,-0.6062545066276566
258,0.9690793064457364,1.532803842698166,0,0,0.6876309246233241,0.8385359328074462,-0.1478444466899909,1.9539244237104452,0.7119394334998823,-0.7074886464347494
259,0.974506034931781,1.4908970357293252,0,0,0.6078359628541116,0.765930357549191,-0.16472605424011375,1.8273069224050689,0.3140169091338682,-0.753842724857118
260,0.9873788991823704,1.4310218715017147,0,0,0.5280410011004812,0.6933247823051142,-0.18160766178694004,1.700689421124418,-0.0839056151544411,-0.8001968032704347
261,1.0083918175085793,1.3654313754793255,0,0,0.5033396584094975,0.7207046503329334,-0.2173425324999965,1.4387593412930457,-0.11407416572035006,-0.6920014379893951
262,1.0376725965989833,1.3092440922681183,0,0,0.49956662644688643,0.7860658029579565,-0.26023915726914404,1.1254283236117433,-0.004544697448458408,-0.5250976626317774
263,1.074725932789678,1.2777190471406163,0,0,0.508530041967205,0.8579669548562386,-0.2972802207493833,0.7846099088280957,0.004473915963958922,-0.3576593804177852
264,1.1184399249690962,1.2833124903421953,0,0,0.5661448369931437,0.9548499540262585,-0.31195389054623096,0.33879362976663063,-0.37044433776908364,-0.18817935980303344
265,1.1671485980254996,1.3330873742587286,0,0,0.6237596320190825,1.0517329531962785,-0.3266275603430786,-0.10702264929483445,-0.7453625915021261,-0.0186993391882816
266,1.2187198097794576,1.42700514942175,0,0,0.6669077807745108,1.130374711406923,-0.26149212613707123,-0.22526376830506825,-0.8040403254612889,0.13755901192115758
267,1.2706305651434082,1.5574793078872737,0,0,0.7035638146636276,1.2008304512828454,-0.1605412125949761,-0.1965008390627265,-0.7208005934532872,0.2878839493320897
268,1.3200051382568758,1.7103409652229373,0,0,0.7208570079382532,1.2229559739682712,-0.04436004688400544,-0.3684896782602857,-0.7035534687150893,0.5088799687760877
269,1.3636233307558976,1.8670967555672993,0,0,0.6455966067908905,1.014065014683156,0.14462110759986224,-1.5000638447316181,-1.0017483356140438,1.0676808995897058
270,1.3979465936152136,2.008082057793319,0,0,0.5703362056435279,0.8051740553980412,0.33360226208372995,-2.6316380112029503,-1.2999432025129982,1.626481830403324
271,1.4192395522902757,2.115879755944357,0,0,0.5698465475314911,0.9050929558951948,0.31606580628514197,-2.569939914837314,-0.5754360805960034,1.8797477693836868
272,1.4238599634504447,2.178273777315362,0,0,0.6086042105764683,1.1671068049351148,0.1901278200673498,-1.8818906839616492,0.6858894783758318,1.9726377450029355
273,1.408738462286467,2.190110508091759,0,0,0.6175923104867653,1.4086478183193054,0.040867503861664156,-1.3050422962916512,1.6696660296089985,1.948097785826057
274,1.371985443305948,2.153730337763973,0,0,0.441481750847763,1.5228945744314817,-0.2534044137721274,-1.4196090599076845,0.92772195045484,1.1934119583488254
275,1.3134854356997905,2.0779945185973108,0,0,0.2653711912087608,1.6371413305436577,-0.547676331405919,-1.5341758235237177,0.1857778713006816,0.4387261308715936
276,1.2353093227117888,1.9762444814202322,0,0,0.11784285556403559,1.4449457696066264,-0.506664458051343,-1.475479870813861,-0.30525841098776785,0.2643370841638004
277,1.1418096345382207,1.8637138231900774,0,0,-0.012265002700598687,1.0659777775449844,-0.2613016668717068,-1.3111826452117445,-0.6433697982382961,0.44363104549981563
278,1.0393521902574054,1.754946750521456,0,0,-0.08968677360667641,0.7147493300304854,-0.053448082856145496,-1.1092944898997454,-0.8534745460954171,0.6108218377100603
279,0.9357404517666466,1.6616907176684832,0,0,0.28639150665866064,0.6022914095147788,-0.16845824157813893,-0.5838391572840632,0.03824891959794033,0.6738335557125695
280,0.8394581631499085,1.591580918609517,0,0,0.6624697869239977,0.48983348899907225,-0.2834684003001324,-0.05838382466838095,0.9299723852912978,0.7368452737150789
281,0.758862043709159,1.5477601802136345,0,0,0.6633790225787066,0.49913743515388637,-0.2749167380954184,0.2818441441503059,1.3693617440963721,0.6724400377357925
282,0.701413195698303,1.5293929472926968,0,0,0.40016724497542516,0.594162386444882,-0.17937689333441126,0.49167105841940767,1.4903054730889154,0.5183325849364395
283,0.6729865177780109,1.5328543422672565,0,0,0.14770377287122896,0.682952174675524,-0.09756414856525955,0.6899079575419647,1.6215925597168643,0.370384556228228
284,0.6772750284901079,1.5532445362123544,0,0,0.03887548094139956,0.6884182455381924,-0.19919375950227053,0.7332614739825439,1.8911032982214604,0.3047481057661631
285,0.7153125130629039,1.5858314298986622,0,0,-0.06995281098842986,0.6938843164008607,-0.3008233704392815,0.7766149904231233,2.1606140367260567,0.23911165530409823
286,0.7851570858633806,1.6270709057948636,0,0,-0.15451594848066644,0.6626528691536605,-0.3217677303953183,0.877377431813571,1.948077337419513,0.10182203603010913
287,0.8817969463686015,1.6749836398492624,0,0,-0.21941658587206012,0.6016847493447086,-0.2773313503524477,1.0246593788984368,1.3449287504896672,-0.0935294612052987
288,0.9973508264436909,1.7288560622765514,0,0,-0.27822634505552435,0.5484854010217116,-0.22268993897405753,1.1532717049096504,0.7695220404113053,-0.2942305401209497
289,1.1216296355597246,1.788431604804591,0,0,-0.16988018824129136,0.7084894807726769,0.11201475760567402,0.769521526638063,0.955453626437457,-0.6417436542536907
290,1.2430879033931195,1.8529008965131233,0,0,-0.06153403140590096,0.8684935605548872,0.4467194542507654,0.3857713482915384,1.1413852124999166,-0.9892567684542929
291,1.3501143381442113,1.9200379689984262,0,0,0.39624231485730543,1.1624264065151124,0.5320756705971669,0.20154119346307836,0.3018815981436976,-0.33208698180822877
292,1.4324998310947537,1.9857550700517965,0,0,1.179261238013015,1.5810174484675705,0.38534334764705075,0.20302025474049082,-1.4920764310831205,1.2602213975404863
293,1.4828148072696312,2.0441826202872138,0,0,1.9613167893839634,1.9987888663316546,0.23850157296428745,0.20445710206009904,-3.2838370511035895,2.8504740340009813
294,1.4973845161048742,2.08818261431675,0,0,1.3555822628711895,1.2358466745255405,-0.06601144658726292,0.14508241979619904,-1.9101087686455551,1.4793158962604107
295,1.4766251308254104,2.110088565559997,0,0,0.7498477362401305,0.47290448257044193,-0.37052446619827745,0.0857077375207046,-0.5363804859192647,0.10815775825208558
296,1.424692759435691,2.102520857934736,0,0,0.38181099319584616,0.33221459617501903,-0.5269937381542598,0.3648398803599879,0.6439329206866728,-0.7396038383669933
297,1.3486097546386346,2.059274239651563,0,0,0.26773420249264224,0.8563486030456259,-0.5252908028008306,1.0056378995734667,1.6175989116680296,-1.028160554321623
298,1.2571436403191507,1.976319257933454,0,0,0.1536574117894383,1.3804826099162326,-0.5235878674474016,1.6464359187869455,2.591264902649386,-1.3167172702762526
299,1.159677357773007,1.8528318563738064,0,0,0.25689928925530786,1.2554348237471071,-0.4659350770106767,1.2548562814184079,0.593618734430777,-0.9348549357234027
300,1.065193920867281,1.6920065439239413,0,0,0.36773648830263655,1.1076980319230134,-0.40632683035838957,0.8271948828019331,-1.5078752602650565,-0.5295613500817316
301,0.9814090263045804,1.5013780803522592,0,0,0.3351733705680659,0.9029429366046938,-0.32012026762165247,0.36281220051606183,-2.2154327725484158,-0.3997454650382335
302,0.9140704502717203,1.2924800326083785,0,0,0.12663227096181043,0.6282161271100238,-0.20127278685371133,-0.14663410182935585,-1.2123794958378598,-0.6079902683518605
303,0.8664787313340386,1.0798179256029563,0,0,-0.08190882864444507,0.35348931761535374,-0.08242530608577024,-0.6560804041747735,-0.20932621912730337,-0.8162350716654877
304,0.839314223616789,0.8792765072450012,0,0,-0.06944715554946333,0.5729345245662182,-0.0901781123708501,-0.44442548563958967,-0.11916737593338614,-0.5783291801664118
305,0.8308374932596421,0.7062012333473013,0,0,-0.040801396899450434,0.8285680656561979,-0.10720188775684235,-0.17996415340196034,-0.09586000903871766,-0.3077515673256648
306,0.8374545536782891,0.5734710505290026,0,0,0.05010901990596159,1.0159172588262577,-0.15308942185603744,-0.02167110151226489,-0.08800886938566002,-0.15507448953591413
307,0.854536780978729,0.4898882194767851,0,0,0.22895850059115833,1.1068255204692796,-0.23974248806425189,-0.013324093881294206,-0.10198722651307451,-0.168913425653024
308,0.8773092653841134,0.4591502216453917,0,0,0.40780798131128015,1.1977337821300535,-0.3263955542893876,-0.004977086248693554,-0.11596558364321866,-0.18275236177283627
309,0.9016092503884195,0.4795587219620827,0,0,0.37195484150593366,0.9836847623133987,-0.2402000918943278,0.03199649256764882,0.0891583742151824,-0.2939803837885853
310,0.9243733462039597,0.5444891770575251,0,0,0.3115288067157502,0.7347331258679912,-0.13422197043368422,0.07224640646507643,0.31935877578339955,-0.4163546683650279
311,0.9438125242985308,0.6435193861734421,0,0,0.3059359971992476,0.607757642628824,-0.07927024608705023,0.168338009640907,0.5036034836950374,-0.5319463029508843
312,0.9593329787714228,0.7640168599726176,0,0,0.38978091743572923,0.6797358078590315,-0.10754698572444302,0.3555122345446088,0.612890483256839,-0.6364748491882245
313,0.9713158076632655,0.8929266240043693,0,0,0.47362583765583804,0.7517139730751835,-0.13582372535631407,0.5426864594117599,0.7221774827972995,-0.7410033954051527
314,0.980862699769711,1.018489801622485,0,0,0.5303929677449651,0.8353952600984237,-0.13293886667647573,0.7579107631386502,0.6070531260896438,-0.6674401309553692
315,0.9895673269573045,1.131657257314824,0,0,0.5828556955477737,0.9209369258312935,-0.12510042595137327,0.9775940283609666,0.456255372467481,-0.5655666242996938
316,0.9993191232666895,1.2270290033322813,0,0,0.6029752653429434,0.9480400668079804,-0.13070819666332636,1.160749226186423,0.2282261467801017,-0.527652889474292
317,1.0121155889655296,1.3032282868852807,0,0,0.561854509094187,0.8644924695726516,-0.16177576855964773,1.2747401588650868,-0.14603742407396747,-0.6108441277522527
318,1.029859534066075,1.3626906564017698,0,0,0.5207337528534605,0.7809448723536377,-0.19284334044990237,1.388731091521491,-0.520300994854952,-0.6940353660139681
319,1.0541395680269812,1.410907599890469,0,0,0.49819440532753606,0.8190927111524896,-0.19064574631843378,1.325451752700059,-0.5589296037914473,-0.6466402423463816
320,1.0860168140485322,1.4552206409925381,0,0,0.47950478464964447,0.8824536107322407,-0.18155622032627255,1.2254452671944982,-0.5280208087784836,-0.5721900212304681
321,1.1258512539993664,1.5033247115111865,0,0,0.49266047680980235,0.9497021759694856,-0.19570638667972973,1.1255915514209611,-0.560783927840669,-0.4559501021388848
322,1.1731922049098984,1.5617031012081897,0,0,0.576319969172097,1.0255578226585793,-0.2613079749154672,1.026076059633958,-0.7345132208306274,-0.24719005207575834
323,1.2267368896767668,1.6342576343755792,0,0,0.6599794615343918,1.101413469347673,-0.32690956315120473,0.9265605678469551,-0.9082425138205859,-0.03843000201263183
324,1.2843420396922258,1.7213935390592623,0,0,0.6957611802559287,1.1175361386287315,-0.44712917732679885,0.5426079994966259,-1.113791949977898,0.16540687965185621
325,1.3430672676486481,1.8197590540896302,0,0,0.7191145416853266,1.118153016205258,-0.5815268179508492,0.08481980041740322,-1.32760142160257,0.3679657800900919
326,1.3992410760814527,1.9227294398561425,0,0,0.729083475067777,1.0793603812458814,-0.5377690848509263,-0.5041259011834809,-1.360458424796352,0.6633086896667206
327,1.4485679879883961,2.021576459689513,0,0,0.7040617895406228,0.9375403155231995,-0.028263636186228437,-1.4359538062888577,-0.9202553285637131,1.2012148144839472
328,1.4863254868771567,2.1071008376741975,0,0,0.6790401040134686,0.7957202498005175,0.48124181247846953,-2.367781711394234,-0.4800522323310739,1.739120939301174
329,1.5077106447531057,2.1713686329484907,0,0,0.6726488362837462,1.0239906848478275,0.3500444435751451,-2.0507148633115606,0.39221942813340155,1.8881078148950563
330,1.5083680107843398,2.209139740833229,0,0,0.6721586559955626,1.3694853513302538,0.015907806594458822,-1.3380671309628287,1.4013465477565221,1.9139065514862588
331,1.4850608142633621,2.2186488412332226,0,0,0.6131675440531914,1.6338598091555976,-0.29061203801870084,-0.8830685919349407,1.8926484154396765,1.7695243835277286
332,1.4363640146769845,2.2015841872380912,0,0,0.37115437466653867,1.6444470698108318,-0.5107318543888204,-1.2341338898667746,0.7639172291082041,1.0927257495962446
333,1.3632039694382345,2.1623415587169865,0,0,0.12914120527988593,1.6550343304660664,-0.73085167075894,-1.5851991877986087,-0.3648139572232684,0.41592711566476065
334,1.26907889977721,2.1068247846360033,0,0,-0.03224329865331736,1.3655600628918771,-0.5139225258513249,-1.615194574507474,-0.7336546314719388,0.28012508029104
335,1.1598706671909937,2.041155957227655,0,0,-0.16304221941094427,0.9622608077422177,-0.13120374150256173,-1.523395678385245,-0.8142393318796596,0.3495440588674588
336,1.0432736537053238,1.9706305503148718,0,0,-0.19160031635831923,0.6352797765387543,0.12841768821906627,-1.3333162564721712,-0.5897490041977056,0.44493828245349626
337,0.9279719693816008,1.8991377894857606,0,0,0.16972702671774356,0.5993308711818209,-0.08138067416157506,-0.7684536057837261,0.7981152787961974,0.6393865772088189
338,0.8227443683442791,1.8291132130979995,0,0,0.5310543697938064,0.5633819658248875,-0.29117903654221644,-0.20359095509528102,2.1859795617901003,0.8338348719641415
339,0.7356500673938012,1.7619316173102586,0,0,0.5021853860657595,0.5875172771598631,-0.306760641874854,0.08355927341120178,2.3286271047586675,0.7417304199874311
340,0.6733748520615536,1.6985184355158383,0,0,0.29843784004566165,0.6385811900924324,-0.23529799559428904,0.24624408330763387,1.913192220229513,0.5211984844104716
341,0.6407450857219877,1.6399075579058855,0,0,0.10335126249597544,0.6765742240620625,-0.19025217431366864,0.40246135973988995,1.5693109226176853,0.32090109128227423
342,0.640382117337526,1.5875322188681817,0,0,-0.050416560883803876,0.6522102091058899,-0.27123270930614646,0.5278240699414902,1.5667892637012724,0.21713633050774447
343,0.6724729588621945,1.5431646618896855,0,0,-0.2041843842635832,0.6278461941497172,-0.3522132442986243,0.6531867801430905,1.5642676047848594,0.11337156973321469
344,0.7346576333055028,1.5085474524676528,0,0,-0.2776528560088865,0.5879108123830246,-0.2865966601449566,0.7431197654359899,1.3113675380433263,-0.06463697211276762
345,0.8220629508154957,1.4848450343130302,0,0,-0.30902392516014315,0.5398120509261579,-0.14412568285570362,0.8144785111579153,0.9272051334496751,-0.2815682483566342
346,0.9275355241894092,1.4720919006686748,0,0,-0.29666183667573526,0.5279195444065649,0.00546750572908156,0.8720126497233773,0.5339020683397876,-0.446334111498374
347,1.0421309814892654,1.4688299558719653,0,0,-0.013011772318513762,0.7406237088544905,0.1992415948150401,0.8437892099324293,0.0838971453341403,-0.2875045588015775
348,1.1558873954021107,1.4720995233566692,0,0,0.2706382920940978,0.9533278733439522,0.3930156839388381,0.81556577013597,-0.3661077777593822,-0.12867500607376536
349,1.2588446223807774,1.4778590572586843,0,0,0.6580008582169574,1.1440602666005235,0.2781074296869763,0.7812608826931172,-1.0259567786730108,0.47116169571196653
350,1.342184213086379,1.481761539100233,0,0,1.108500103253194,1.321416985379572,-0.02471624137344909,0.7432538146916037,-1.8135517884399273,1.3394687004651376
351,1.399292128829759,1.4800541735390076,0,0,1.4659478669648607,1.4505664664392826,-0.3018409212595315,0.6896343717622131,-2.3942725537032916,1.9948061858148596
352,1.4265275673536963,1.4702789143588313,0,0,1.0248292849516425,1.166002193402554,-0.35841726404469404,0.5020297733385846,-1.1996018141118394,0.8224426132138732
353,1.4235381309329618,1.4515199556046188,0,0,0.5837107028522845,0.8814379203102567,-0.4149936068409046,0.3144251748783213,-0.004931074287096185,-0.3499209596160478
354,1.3930794790853567,1.4241638448824696,0,0,0.3652762381270701,0.9363327385748424,-0.48887942629822534,0.4567640166687345,0.41203463512652505,-0.7770307346099443
355,1.3404204094544008,1.389373430541354,0,0,0.3034328473012431,1.229934584081225,-0.5749372388628231,0.8311184968369568,0.282119555125792,-0.6800793690243381
356,1.2724814782108185,1.3485730480656775,0,0,0.2379189982314677,1.474759586537766,-0.6434115282966066,1.1395951742796153,0.11700487431608632,-0.5936164884037783
357,1.196855850683158,1.3031674503587283,0,0,0.1235646701198846,1.0705418206071182,-0.4779129359809362,0.5714773699353829,-0.5164887529352822,-0.6467172796392039
358,1.1208389057325228,1.2545621487877996,0,0,0.009210342030632219,0.6663240547554045,-0.3124143436975836,0.00335956570209038,-1.1499823800629443,-0.6998180708642601
359,1.0505894458498597,1.2044134661503654,0,0,-0.03428197345731023,0.5804669423444905,-0.23123304171684733,-0.3261157224539808,-1.3988150997956341,-0.6644120071690434
360,0.9905495503319107,1.1549483781858003,0,0,-0.020418051778409156,0.7522932977469682,-0.21829877820327778,-0.4624319928549687,-1.3363004357404775,-0.5573678404148581
361,0.9432192403280105,1.109163810898348,0,0,-0.0036559953312320747,0.9229881409991864,-0.2066638063245933,-0.5861865682245542,-1.271202806424457,-0.4496736904558865
362,0.9092992099917708,1.070749977235673,0,0,0.09199449447077203,1.0628827531052492,-0.23039609295240196,-0.3680065820807044,-1.135795788774122,-0.32428672739773123
363,0.8881121003163279,1.0436777227595426,0,0,0.18764498425409787,1.202777365183994,-0.2541283795755763,-0.14982659597946,-1.0003887711502286,-0.19889976436406104
364,0.8781418828812636,1.0315148749538467,0,0,0.24398103622236822,1.1422393670773843,-0.23120525973732228,-0.08918153324613762,-0.6455366880245164,-0.2495871495449085
365,0.877524479320258,1.0366461878645485,0,0,0.263764739223775,0.8953504221176368,-0.16490457193812144,-0.17500356538774808,-0.08665694841767906,-0.4639785421523976
366,0.8843795010043487,1.0596252935714718,0,0,0.2836003322834663,0.648681233164976,-0.09865429174057753,-0.2605719707566277,0.47193722037654295,-0.6781075253213537
367,0.8969624560299598,1.0988634740131789,0,0,0.35678260785292704,0.6279369665450799,-0.08422664004509561,-0.08539391964770937,0.7369440828282926,-0.6224608183751967
368,0.9136945583705289,1.1507680552594521,0,0,0.4299648834223878,0.607192699925184,-0.06979898834961369,0.08978413146120894,1.0019509452800421,-0.5668141114290398
369,0.9331591069881665,1.2103220775093184,0,0,0.5112584414180994,0.6544990011568295,-0.07081140267060375,0.34948286881777973,1.0638723917977484,-0.5479502055153187
370,0.9541339506255235,1.2719924367280577,0,0,0.6012085740592823,0.7744306641151357,-0.08830186287617933,0.6993843128661261,0.9090557234213088,-0.5683418754864052
371,0.9756799859514178,1.3307902503351714,0,0,0.6911587067180303,0.8943623270968617,-0.1057923230851704,1.0492857569828,0.7542390550146372,-0.5887335454614737
372,0.9972558827217695,1.3832827388312423,0,0,0.6510959389159267,0.8953955455230198,-0.11142095426168092,1.3116639019764689,0.28560614072858614,-0.6768402496208756
373,1.0188026038057845,1.4283581462402917,0,0,0.606527910447366,0.8923086459945194,-0.11663854444476175,1.5710091535012192,-0.19390126358400256,-0.7672934430826178
374,1.0407466533012022,1.4675678900523272,0,0,0.5627838387443921,0.8798790486075038,-0.12779077530222885,1.6956226373399048,-0.40257257078094255,-0.7973717124092948
375,1.0639006832200602,1.5049184033614722,0,0,0.5200497742523502,0.8559971606603782,-0.14621769601996065,1.6550817542033927,-0.27925265614152794,-0.7534423252743295
376,1.0892758795251178,1.5460691581918657,0,0,0.47731570976865334,0.8321152727179163,-0.16464461673409408,1.6145408710747973,-0.1559327415261948,-0.7095129381479425
377,1.1178450168946301,1.5970139725253998,0,0,0.5115852615564173,0.935882579844266,-0.16599994970120843,1.4899308619761502,-0.15380682585761693,-0.5415646616674075
378,1.1502997377751305,1.6624608580572209,0,0,0.5514691474690427,1.0489567905497865,-0.16611059310315004,1.3591913723980797,-0.1605171653801783,-0.36457416721916286
379,1.1868330659176032,1.7442459916308757,0,0,0.6169890294631389,1.0966730738195922,-0.09725209699722175,0.9207795164500064,-0.3260096843829501,-0.1842016858069331
380,1.2269602001901945,1.8401797164586313,0,0,0.7186742736384822,1.0521872398577756,0.06890294655576193,0.0483263021779197,-0.7155003273274323,0.0009418520493595773
381,1.2693812978293797,1.943689584639562,0,0,0.8203595177939688,1.0077014059046459,0.2350579900762995,-0.8241269119237977,-1.1049909701958562,0.18608538986949813
382,1.3118959285184657,2.0444744827355468,0,0,0.862477930718293,0.888208183972944,0.30526129534248797,-1.5923543060019014,-0.8361928918266498,0.5585100607478385
383,1.351395670895886,2.13013227011519,0,0,0.89779943820013,0.7601562035335107,0.3645159757032121,-2.3486889566064257,-0.49228042345834483,0.9523045464417188
384,1.3839774831710803,2.188445564642092,0,0,0.8868178197574329,0.738857587796912,0.32795712647001196,-2.6228493064031624,-0.032667244994702124,1.3355348794605968
385,1.405223427714523,2.209809834138521,0,0,0.8004008789567449,0.891477564368565,0.1353024554854781,-2.111469304503305,0.6154412062727961,1.7015544895372134
386,1.41067252993074,2.1892384787782655,0,0,0.7139839381560571,1.0440975409402178,-0.05735221549905586,-1.6000893026034468,1.2635496575402945,2.06757409961383
387,1.3964657023295195,2.1274879694591853,0,0,0.5835547339041716,1.2712185159950584,-0.210742903157973,-1.3762907972525351,1.1271057844578805,1.861936221131962
388,1.3600833219051096,2.0310631293499637,0,0,0.4461455859102242,1.5101546702150581,-0.3579066810146723,-1.1981000954947143,0.8662390651671966,1.5656386765256518
389,1.3010371208027176,1.9111194062135106,0,0,0.2967356010224041,1.5925497286010253,-0.45659824950825295,-1.0659983077082538,0.6143272137852903,1.267106080894324
390,1.2213500019464552,1.781513223221256,0,0,0.12463048646951574,1.3789053929808952,-0.4636226208609914,-1.0210565982342472,0.3793501722489519,0.9643467157938929
391,1.1256801872208355,1.6564155055490917,0,0,-0.0474746280833726,1.1652610573607651,-0.47064699221372974,-0.9761148887602409,0.1443731307126135,0.6615873506934618
392,1.0210199789180707,1.5479691362153671,0,0,0.019870943905841286,0.9429357460827161,-0.3217700543071312,-0.7424410429541836,0.2221430302613548,0.702034892367675
393,0.9159991125046711,1.4644353871528222,0,0,0.13672929185150917,0.7188154129597831,-0.14065638860886162,-0.4697418256806986,0.3645816490698032,0.8134495585242414
394,0.8199110018294743,1.4091558571947613,0,0,0.2326927861313284,0.5689866872375309,-0.027534453492572195,-0.21205405572755992,0.5687102956263607,0.8437453913957107
395,0.7416283537935522,1.3804849005576147,0,0,0.28245616411803537,0.5834223760036185,-0.06474742437221201,0.012442258505616555,0.9092403023486478,0.6946812921827443
396,0.6885740201808156,1.3726557122097696,0,0,0.3322195421047423,0.597858064769706,-0.10196039525185181,0.23693857273879304,1.249770309070935,0.545617192969778
397,0.6658756016867425,1.3773627656001088,0,0,0.22189169561145722,0.6115804573983056,-0.16136047134495005,0.4228108028247496,1.5641882616969036,0.38728100638599633
398,0.6757828318339723,1.3857037055126258,0,0,0.07007714977655013,0.6251180035242118,-0.22651020526286192,0.5986738285965383,1.8718394289847637,0.22654201292575646
399,0.7173874519228138,1.3900531330024044,0,0,-0.07268461088120291,0.6257974451236732,-0.26455088528557624,0.7614233694852346,2.0037856717588336,0.06443475625487119
400,0.7866636971536309,1.3854624111087523,0,0,-0.1918127210551129,0.5929088805994935,-0.23181932315638107,0.8899381956107563,1.67702791427357,-0.10124455629246419
401,0.8768362971559104,1.3703016500961438,0,0,-0.3109408312290229,0.5600203160753139,-0.1990877610271859,1.018453021736278,1.3502701567883066,-0.26692386883979957
402,0.9790682307109867,1.3460612851674438,0,0,-0.13067964844158295,0.6472278348961931,0.18059572066175866,0.4871075844030066,0.8192276252831905,-0.2646354879213849
403,1.0834293867453144,1.3164561862603592,0,0,0.14426722042128806,0.7724172732869903,0.6700071762559061,-0.2529270853713896,0.22357742608191908,-0.20922517954656047
404,1.1800537543160332,1.286148301693168,0,0,0.4373291525278756,0.8860943934903307,1.0503613136461938,-0.8507862362754907,-0.3181054105448089,-0.11066773035793166
405,1.2603266987478425,1.2594568677209554,0,0,0.7869788750704994,0.9638093621814072,1.090042466073169,-1.0045178476438081,-0.6912051314149236,0.12267265220701852
406,1.3178954710758122,1.2393436167124332,0,0,1.1366285976814015,1.0415243308876598,1.1297236185078925,-1.158249459042146,-1.0643048523578957,0.3560130348175345
407,1.3493029136383086,1.2268052919903205,0,0,1.0713984121732807,0.8926718390959852,0.807646081327976,-0.8775555647897961,-1.058861073379819,0.19516330062396495
408,1.3541250353245473,1.220675045749126,0,0,0.8490076048363808,0.657993347334986,0.34853076645064046,-0.4322969825958087,-0.9100212641989304,-0.11500955736125108
409,1.3346273324971765,1.2177852102583904,0,0,0.6351485730457869,0.5350742861399318,-0.06192042610317744,0.021893485758743607,-0.7284009617938144,-0.4103299966539618
410,1.2950850258252216,1.213454621661889,0,0,0.45376973793043784,0.8376198032608076,-0.2871088611550845,0.5100873591022663,-0.4219863699403055,-0.6491077529356873
411,1.2409749027773285,1.2022689761808074,0,0,0.27239090277966993,1.1401653204407634,-0.5122972962509655,0.9982812325411218,-0.11557177802696098,-0.8878855092640404
412,1.1782164973632052,1.1790812471631378,0,0,0.2078782159182293,1.1944571159921231,-0.5213496868391596,0.9931398656428858,-0.29210336991742997,-0.9082043651931292
413,1.112553159672819,1.1400870133308143,0,0,0.1956745764053475,1.1376310568861872,-0.43366002891713,0.7671826609157878,-0.6848006793378656,-0.8307414670985244
414,1.0490836678716025,1.08377610350309,0,0,0.17796745985463006,1.0564803472990834,-0.3425677779978649,0.506567523877114,-1.0042587562544996,-0.7544074960198741
415,0.9919236562920171,1.011562025690954,0,0,0.13405587337241648,0.8595092994514815,-0.23527428823298935,0.08093075795490803,-0.9749926989263735,-0.6834488419917211
416,0.9439889210567375,0.9279429458762275,0,0,0.09014428689877779,0.6625382516423433,-0.12798079848906563,-0.3447060078841812,-0.9457266416039625,-0.6124901879774245
417,0.9069171353341116,0.8401312047967003,0,0,0.09398127382602302,0.717642929823055,-0.12308009682042158,-0.4062074599745557,-0.7644845731365786,-0.5358501826104609
418,0.8811484231573601,0.7571832079195117,0,0,0.12281988935793448,0.9047369687860761,-0.17179327881195505,-0.2770440350275683,-0.5036663515647987,-0.45623536508943685
419,0.866156239379822,0.6887550204314666,0,0,0.1534567683667891,1.0554451807010172,-0.21485053620416095,-0.16355002622674844,-0.2649175281289408,-0.38261157296516984
420,0.8607732273355676,0.6436869509798064,0,0,0.1952228438619168,0.9809666925271665,-0.2229040819959369,-0.1470318016857081,-0.16275306572904802,-0.3460653835325877
421,0.8635245650976522,0.6286642104160888,0,0,0.23698891934888863,0.9064882043678596,-0.23095762778614018,-0.13051357714789336,-0.060588603349105534,-0.3095191941071422
422,0.8728874564377693,0.647195440805129,0,0,0.27827680609741656,0.8200842553810468,-0.22239379246173324,-0.0009103780881371696,-0.05911081802173483,-0.34970371855898763
423,0.8874362808890419,0.6990956519705506,0,0,0.31927393161343853,0.726429065598202,-0.2037258082407445,0.19745380157711617,-0.11885526559764463,-0.4365441241397505
424,0.9058840952415357,0.7805683477241501,0,0,0.35866257239677407,0.6503585513503072,-0.18597286481064007,0.39114316696147394,-0.17572631938965866,-0.5293108242087471
425,0.9270676082537453,0.884873572150587,0,0,0.3842881770432007,0.7247517119269176,-0.17604948867564002,0.544832377658868,-0.20801111405269895,-0.6727859971826928
426,0.9499316829971269,1.003465410126978,0,0,0.4099137816896272,0.7991448725035281,-0.16612611254063997,0.6985215883562621,-0.24029590871573925,-0.8162611701566386
427,0.9735522157510028,1.1274029094514104,0,0,0.4478137088250604,0.8645547997638864,-0.1463044848862608,0.8861550799433874,-0.1965985863127841,-0.8708430792801478
428,0.997204894140206,1.2487946360702016,0,0,0.4943350200298135,0.9236549771644799,-0.11953040604447572,1.097630757750514,-0.09953204420644575,-0.8629870844365415
429,1.020457808398307,1.3620317455495567,0,0,0.5373239604529338,0.9754169991277625,-0.0953219288908252,1.3085844802972912,-0.0021877195125645146,-0.8598823191446032
430,1.0432502657624871,1.4645923050726384,0,0,0.5335101314449249,0.929950837006,-0.10510684360229075,1.5126224640315953,0.09883713426798638,-0.9197298072909275
431,1.065922330599333,1.5572536125513268,0,0,0.5296963024369159,0.8844846748842378,-0.1148917583137563,1.7166604477658993,0.19986198804853725,-0.9795772954372517
432,1.0891751935834395,1.6436271712837731,0,0,0.5355243430140197,0.8934491077855647,-0.14504799282313333,1.823382045663805,0.22620523471349505,-0.891968746791379
433,1.1139613061708886,1.729036011072469,0,0,0.5491478096403413,0.9464205327465524,-0.19167438549440605,1.851423603123867,0.1921685996311792,-0.6851423825367727
434,1.141315202565491,1.8188867847821522,0,0,0.5629088282822932,1.000774053273341,-0.23231764758730317,1.8345697735476385,0.1437075429532747,-0.47953396557904593
435,1.172138073644748,1.916835154939322,0,0,0.5803838422427985,1.092445066944759,-0.11141243368774488,0.60551085000773,-0.29422242133662785,-0.30681092874922605
436,1.206947253517678,2.0231630498496616,0,0,0.5978588562033038,1.1841160806161768,0.009492780211813412,-0.6235480735321783,-0.7321523856265304,-0.1340878919194062
437,1.2456051541742212,2.133817318336965,0,0,0.6438071565469727,1.143354092137359,0.03139558790669542,-1.3607969694244602,-0.9919648905233718,0.12662686162585643
438,1.2870569488296943,2.2404467370849206,0,0,0.7161988420229388,0.9796004394018244,-0.03864598763731412,-1.6412976772259578,-1.086358184195641,0.469060276758227
439,1.3291307932444274,2.3315287180084843,0,0,0.7885464726978537,0.8159876649063719,-0.10835670488629164,-1.9217861794858122,-1.1800356024863108,0.8117349509544667
440,1.368477203957002,2.394387701919403,0,0,0.8256902157999224,0.7649497306702713,0.08631923264236349,-2.1925213582689653,-0.7016617735468046,1.3471981938675566
441,1.4007277720972195,2.4176800225552055,0,0,0.8628339589019911,0.7139117964341707,0.2809951701710186,-2.4632565370521182,-0.22328794460729848,1.8826614367806467
442,1.4209238143629817,2.39381240859932,0,0,0.8721616953797144,0.8597169117756359,0.24617516714071364,-2.27165968635587,0.38255303697648324,2.0937429001094188
443,1.4242023431417978,2.3207808790979767,0,0,0.8518364947462519,1.2153643185124403,-0.033296369925996126,-1.5871990405111607,1.124278924861511,1.9590208611210136
444,1.4066452566720105,2.203048226618986,0,0,0.8315112941127893,1.5710117252492448,-0.3127679069927059,-0.9027383946664511,1.866004812746539,1.8242988221326086
445,1.3661259035204192,2.0512891623476097,0,0,0.5039328679900973,1.5405789205507177,-0.33650780717054474,-1.1259307575163973,1.120987961845676,1.1891278535543814
446,1.3029573362698015,1.881071247477481,0,0,0.16579882305915167,1.4968824128110512,-0.35146210169066755,-1.3803053452386453,0.32489438232276296,0.5367640690981845
447,1.2201783313439845,1.7107479642373256,0,0,-0.014416137868189622,1.3296448519883879,-0.37103699879530944,-1.30536497642012,0.1516613407275113,0.25236777019829154
448,1.1233982944692187,1.558967123345837,0,0,-0.0012710952913840695,1.0111405928650539,-0.3962694751334339,-0.8272032900417822,0.7410740333024469,0.41851989447478144
449,1.0202278001819112,1.4422180771111366,0,0,0.011873947285421483,0.6926363337417197,-0.42150195147155844,-0.3490416036634443,1.3304867258773827,0.5846720187512714
450,0.9194105537384044,1.3727703019470827,0,0,0.15933992768444766,0.6579413644537891,-0.27292827725905794,-0.2252058560877595,0.9505272645143042,0.7131626049756137
451,0.8298192682006308,1.3572427680485633,0,0,0.31655626810259263,0.6438481180874586,-0.1117380105199274,-0.12709063659950626,0.5002010559508329,0.8389193393047778
452,0.7594744833557188,1.3959345477279261,0,0,0.3690662133357867,0.6447680186973748,-0.07346065662703397,0.04008340103991211,0.5260777122608077,0.8195685193388116
453,0.7147039655197438,1.4829530981709917,0,0,0.27403322713783085,0.6668431096011875,-0.20838123816793386,0.3045689778552339,1.2229770556078057,0.5957450508937809
454,0.6995071946721038,1.607079886956567,0,0,0.17900024093987496,0.6889182005050003,-0.3433018197088338,0.5690545546705557,1.9198763989548036,0.3719215824487504
455,0.7151493885737052,1.7532089461512195,0,0,0.027194102742793748,0.6493373448729668,-0.3530917966924434,0.6866393618295332,1.9930992879506493,0.2628495436334019
456,0.7599936569382288,1.9041157484005808,0,0,-0.13107057509815187,0.6027424806898674,-0.3486468591448235,0.7875126705870134,1.9953724596200084,0.16683167966559248
457,0.8295840083492007,2.0423048674978705,0,0,-0.26511861560292815,0.5613951942814239,-0.27454775563260314,0.943072700588821,1.7736566642712996,-0.019217841853720004
458,0.9170014479656986,2.151750063201033,0,0,-0.3597603355479023,0.5285869849126762,-0.08710449298874946,1.187621240486934,1.1874566952988355,-0.351770625325612
459,1.0135118631619895,2.2194328814939066,0,0,-0.45440205549287654,0.4957787755439287,0.1003387696551042,1.4321697803850468,0.6012567263263711,-0.684323408797504
460,1.109492302079777,2.236638848125227,0,0,0.16629912068808184,0.8986084914400265,0.2262255944971125,1.2982713338254352,-1.0849725181706342,0.15555574668123298
461,1.1955566605242336,2.199940688783866,0,0,0.9001802009519618,1.3703638356737566,0.3423731016037537,1.1044958773854032,-2.9452458587901336,1.1809343809994624
462,1.2637186866451102,2.111701412969484,0,0,1.2890705609564188,1.5316967767332055,0.3489943383525459,0.8270528154593939,-3.670281125118484,1.5951552625116252
463,1.308372692883232,1.9798583692439702,0,0,1.026340302725421,1.106701951879261,0.14874167440645233,0.3915778598869248,-2.2510716556529036,0.8550175791806159
464,1.326890634825891,1.8168262934633594,0,0,0.7636100444944236,0.6817071270253161,-0.05151098953964123,-0.043897095685544334,-0.8318621861873232,0.11487989584960684
465,1.319737165287331,1.6376161039731592,0,0,0.5833115276824637,0.9148257714024626,-0.1765237336890982,0.22475326702676393,-0.4986802598860704,-0.19612780823318837
466,1.290134952631388,1.4575693716297045,0,0,0.42002458410414656,1.2837603678954301,-0.28600909259942514,0.6387151223308465,-0.38962361259255085,-0.41857525711726074
467,1.2433954396428688,1.2902508181300978,0,0,0.28922693824433787,1.4382213245981779,-0.38064925816796596,0.9068799729767939,-0.33882417117372504,-0.5689933399687189
468,1.186044446954182,1.1459431994350158,0,0,0.23017252839601404,1.119079155403063,-0.4425080992898061,0.8530942229793388,-0.4166689530511389,-0.5603553591339625
469,1.1248596723570543,1.030948061825925,0,0,0.17111811853615827,0.7999369861456274,-0.5043669404237259,0.7993084729713806,-0.49451373494375395,-0.5517173782975194
470,1.0659419083402155,0.947662581796266,0,0,0.11681736850679134,0.6551888416575429,-0.42241773241212344,0.36891797493887124,-0.4442519433087171,-0.6710366991599832
471,1.0139606486196933,0.8952562418768238,0,0,0.06374640621911168,0.5555570163795429,-0.3032648996743674,-0.15890143476034638,-0.36084855136250343,-0.8234590032142796
472,0.9717114749185568,0.8707066640883655,0,0,0.04109168132898629,0.5778237119722014,-0.22161672288189238,-0.47230819549299513,-0.43908735337100574,-0.867757409272053
473,0.940069874193848,0.8699365916422033,0,0,0.09773292994079802,0.9178832283712329,-0.23774422311235505,-0.22673524059847966,-0.938731832916033,-0.6301738179481302
474,0.9183283482336991,0.8888037076936361,0,0,0.15437417856367044,1.2579427448366698,-0.253871723345967,0.018837714343990383,-1.438376312558629,-0.3925902265778129
475,0.9047950343238054,0.9237367818725429,0,0,0.21578978183075745,1.2229495122223477,-0.2532398936859494,0.05181851179710992,-1.2999586664190153,-0.34830028933515755
476,0.8974611116828942,0.971900308330358,0,0,0.27871303654187624,1.0695216723227698,-0.24731578271573024,0.017666702584279114,-0.960052996320497,-0.36504885420205957
477,0.8945466609053945,1.030905486360947,0,0,0.3286635568825102,0.9148810075700816,-0.22046074410276156,-0.008266079570912946,-0.6131144315872021,-0.3936322307239646
478,0.894807308190567,1.098236613341542,0,0,0.3381511526456764,0.7564574517507009,-0.12832058343070601,-0.008563104263551391,-0.24423974467729231,-0.4591292661474417
479,0.897587250716372,1.170671300217347,0,0,0.3476387484069899,0.5980338959622565,-0.03618042277664323,-0.008860128956131834,0.12463494216058511,-0.5246263015581287
480,0.9026907355078513,1.243987516521986,0,0,0.40369330621532695,0.5879658914548485,-0.02065325155703519,0.25352004087710234,0.5483839640415886,-0.5617603847121391
481,0.9101843300309018,1.3131548710537027,0,0,0.4773632843588951,0.6340180476794502,-0.03410735703449256,0.6152661343318716,0.9928909317904123,-0.5881652876923402
482,0.9202316341190396,1.373034545591825,0,0,0.538524878779602,0.6954060497215724,-0.05468942724498567,0.9631551766543526,1.272129779309017,-0.6109335716731956
483,0.9330156447995483,1.419428465878059,0,0,0.5521477296599506,0.8150787075471602,-0.10236168706480205,1.2583797966275025,0.9232587965814647,-0.6198807016302584
484,0.9487475049419886,1.4501924947761093,0,0,0.5657705805402992,0.9347513653727478,-0.15003394688461844,1.5536044166006524,0.5743878138539124,-0.6288278315873213
485,0.9677182351389918,1.4660977520500618,0,0,0.5422230388793253,0.9284321471798174,-0.16549357318026378,1.6334617395549602,0.14177616202968643,-0.6806339293199049
486,0.9903364996219624,1.4711806259915687,0,0,0.5020597594386396,0.8657926205056037,-0.16655365631164049,1.617046564724581,-0.32826885823855345,-0.7515986455490643
487,1.017111166325258,1.4724319129510592,0,0,0.46394431585689816,0.8199721670618684,-0.16610330390378825,1.5730279629572348,-0.672852852244345,-0.7845230264725779
488,1.0485700491851275,1.4788092699123745,0,0,0.4355606434867322,0.854079687991739,-0.158475026093515,1.397831741094199,-0.4212181631735783,-0.6366712788620031
489,1.0851363047632256,1.4996991388357535,0,0,0.40717697111656603,0.8881872089216096,-0.1508467482832417,1.222635519231163,-0.16958347410281158,-0.4888195312514285
490,1.1269959058184944,1.5430893889760993,0,0,0.4523169529852467,0.9819396647172522,-0.17560076231246505,1.0901550083017428,-0.16417711102335836,-0.3448126731501904
491,1.173980139665647,1.6138142314695705,0,0,0.5359072066487478,1.106884312758175,-0.21728957012374092,0.9800133039785932,-0.2875394571942045,-0.2028165563006496
492,1.2254651575952606,1.712263471715642,0,0,0.6184606648518518,1.2140960682620134,-0.2522727990487788,0.7597222238863306,-0.4881711229890888,-0.053085396733618395
493,1.280271847143494,1.8338850042458648,0,0,0.6946124152082438,1.2118158330436593,-0.24585233820451807,-0.1406877044702157,-1.1659032744475908,0.14440589152586478
494,1.3365487130567504,1.9696521779712106,0,0,0.7707641655646359,1.209535597825305,-0.23943187736025734,-1.041097632826762,-1.843635425906093,0.34189717978534795
495,1.3916446458770835,2.1074450050311193,0,0,0.7717208181149641,1.0743021877130388,-0.07214141680685883,-1.6395500557845026,-1.7511037919853414,0.6259324995485871
496,1.4420202837942904,2.234068058173519,0,0,0.7270093668913182,0.8583225645191075,0.19284993193835112,-2.054615169123773,-1.190769235907879,0.962528450672555
497,1.4832857119601448,2.33747574036035,0,0,0.6830209610808923,0.6934894554793117,0.43711535128296763,-2.4019595248340897,-0.6258930832213099,1.3103082683663076
498,1.5104614740055997,2.408744713050418,0,0,0.6452009940896093,0.9649970536115626,0.5045638980431234,-2.1715651284176385,-0.022271699148799184,1.7534997941967223
499,1.5185188990114369,2.4434134085932557,0,0,0.6073810270983263,1.2365046517438136,0.5720124448032792,-1.941170732001187,0.5813496849237115,2.196691320027137
500,1.50316715478726,2.4419565442495683,0,0,0.5744080915017173,1.4845552320315387,0.20168989467443366,-1.6366427850385667,1.0287348460073638,2.027010890871915
501,1.4617491889414198,2.409341230086239,0,0,0.5448357671761412,1.7161486877590502,-0.475766898994936,-1.280103748046015,1.3665067992145232,1.42734783913123
502,1.394031733369152,2.3537957665932496,0,0,0.4906895060919987,1.8946342215677663,-1.072999293029543,-0.9750466386983997,1.572690282086402,0.8458344030896279
503,1.302664180928217,2.2850816034519115,0,0,0.11232850332940038,1.3724436140179026,-0.6117959443731997,-1.3492132140415758,0.04276927601252772,0.5037768191263553
504,1.193155400620905,2.21264968648537,0,0,-0.26603249943319796,0.850253006468039,-0.15059259571685618,-1.723379789384752,-1.4871517300613464,0.16171923516308276
505,1.0733586736488545,2.1440516440887443,0,0,-0.1866526475780371,0.6049790331350908,-0.014102478858761376,-1.5080862460420021,-1.1228559117913415,0.2862934016704647
506,0.9526004266995464,2.0838734980257643,0,0,0.26239340354709784,0.5833397183656039,-0.1398469977596197,-0.8167515552260882,0.771187419681058,0.7877139516892655
507,0.8406627523261855,2.0333143106087217,0,0,0.6901332229295414,0.5637909347222172,-0.2572004249637989,-0.14096003444398167,2.572404801410387,1.2607475956926475
508,0.746804662805128,1.9903952025331677,0,0,0.5472005171430039,0.600235566107994,-0.1498043260528793,0.11851854093113683,1.8873440002668571,0.9734578031920302
509,0.67892330873836,1.9506873366296889,0,0,0.4042678113285551,0.6366801975008876,-0.04240822712098775,0.3779971163569253,1.202283198989551,0.6861680106353121
510,0.6428803213990345,1.9084078331314345,0,0,0.2516704607962564,0.6509461867128872,-0.06420150117778177,0.5437922599117403,1.188147613102011,0.4507827031471139
511,0.6419869470407311,1.857733570157648,0,0,0.09010746481190829,0.6446376129100216,-0.2058404751718717,0.622679663293235,1.7964123081418355,0.26354786804918623
512,0.6766495946549541,1.7941689729665742,0,0,-0.07134979218869598,0.6382239045758665,-0.34709863264171936,0.701657381214409,2.4032949993175934,0.07646142995631765
513,0.74420213089373,1.7157468827522464,0,0,-0.16371000086831977,0.5631081382918628,-0.23950535570816778,0.8396527659539155,2.107082309828894,-0.013652305485075273
514,0.8389750430452068,1.6237930061890296,0,0,-0.2560702095659793,0.4879923719931908,-0.13191207875360583,0.9776481507203693,1.8108696202823513,-0.10376604094406526
515,0.95266258893789,1.523021928930399,0,0,-0.16830164289996022,0.5298237137866975,0.0807890972943498,0.8896670466571579,1.546077450471485,-0.21619970843424383
516,1.0750334657655432,1.420872761671398,0,0,0.11127744669930001,0.6961864410450428,0.4054146510818549,0.5610543810641774,1.314743490203624,-0.3524008046980702
517,1.1949755159803719,1.326181678168621,0,0,0.3908565362985602,0.862549168303388,0.73004020486936,0.2324417154711968,1.083409529935763,-0.4886019009618966
518,1.3017732773232504,1.247457732295375,0,0,0.9051677872479246,1.203737071870615,0.5420642640570951,0.20307100689518678,0.38756968947803916,0.1753952800399138
519,1.3864176819601046,1.191130108837137,0,0,1.4274733889123459,1.5508790541937334,0.33663048472092055,0.1838916805812562,-0.3240899811612158,0.8666450781730218
520,1.442688263038842,1.1601456688326948,0,0,1.4359915654810218,1.532833051659259,0.08447996199840646,0.15240373628424536,-0.6230073659014536,0.9403425336968771
521,1.4677745537977631,1.1532172773657128,0,0,0.8161223798159589,1.0681441316159477,-0.2248074420777563,0.10586174510064669,-0.41712057745649883,0.2587430149104378
522,1.4623245668567892,1.1648882184463207,0,0,0.19625319415089643,0.6034552115726363,-0.534094846153919,0.05931975391704803,-0.21123378901154408,-0.42285650387600165
523,1.4299753352201707,1.186423107226314,0,0,0.11794860156494057,1.014314315082571,-0.5365548474911918,0.6268881084972954,-0.7061092356090753,-0.6728528701682105
524,1.3765442250796767,1.2073722928070787,0,0,0.07878297617543817,1.4884494262003714,-0.5168403791539589,1.2388383242822558,-1.251628890511095,-0.8916572016329829
525,1.3090802295213433,1.2174949352409798,0,0,0.06415442417847822,1.5760786690143511,-0.4813622362355404,1.3577117194651682,-1.3946088140289357,-0.9833576433627047
526,1.2349172989899966,1.2086206578743914,0,0,0.0840617538536468,1.119701676048763,-0.4236967529059697,0.7825804768840173,-0.9710148715844384,-0.8961596147764385
527,1.160816356116799,1.176052886849436,0,0,0.10396908353270279,0.6633246829940556,-0.3660312695651383,0.207449234190557,-0.5474209290572236,-0.8089615861731445
528,1.0922743795576937,1.1192733942474473,0,0,0.0979559497215225,0.7218688464533175,-0.290638947175123,-0.02930438285712666,-0.5595753403669066,-0.8291844075078865
529,1.0330903270215228,1.0419107509316123,0,0,0.08900302980451272,0.8388131254063722,-0.21323612388501326,-0.22768068297948818,-0.6211504326254178,-0.861590433909177
530,0.9852553692979017,0.9510837583017139,0,0,0.11353657132638104,0.9574622629127001,-0.1794338607067016,-0.28842988234942135,-0.6483637707391633,-0.802954677557553
531,0.9491638936423817,0.8562915102151855,0,0,0.19249645551805017,1.07888234759699,-0.21649662546128692,-0.12549047968909383,-0.6197281321184733,-0.5963465451331678
532,0.9240551631597951,0.7680310263190967,0,0,0.27145633972513833,1.2003024323049902,-0.2535593902231097,0.03744892300305185,-0.5910924934921915,-0.38973841266843673
533,0.9085387649664752,0.696326114442203,0,0,0.3085900425963981,1.0524728208541378,-0.23247166167755096,0.001167192619649215,-0.37381115725209174,-0.37509520302564126
534,0.9010555538042988,0.6493581504503451,0,0,0.33912169966017847,0.8621435412189765,-0.20220517933770912,-0.06656056043785481,-0.12675307597455923,-0.39075266089835947
535,0.9001765673875974,0.6323854541826961,0,0,0.3696364397355121,0.7267311399373407,-0.16033443027919655,-0.06861591447381253,0.02598808589136104,-0.4138043540694639
536,0.9047186853090525,0.6471071499598444,0,0,0.4001192661338441,0.6949187292817409,-0.09657238003832161,0.05321887471610091,0.000801582151933745,-0.4508051778359179
537,0.9137220962509084,0.6915672074582591,0,0,0.4306020925262235,0.6631063186323534,-0.0328103298098979,0.17505366388222293,-0.024384921582575225,-0.4878060015951465
538,0.9263665523104957,0.7606139508906054,0,0,0.4707778472654016,0.6971249763574205,-0.06417239745240333,0.4049671927336413,0.13659322800637397,-0.5118335609959098
539,0.9418981702167943,0.8468437409768479,0,0,0.512950025721701,0.7447026640808466,-0.11512689765946757,0.6571413792010375,0.3359151593594114,-0.5331890555957117
540,0.95960923721524,0.9418786662233039,0,0,0.5426393837820291,0.7968073015653487,-0.15841189963409824,0.8693711299214255,0.32388448839108447,-0.5497202722637289
541,0.9788772904174012,1.0377699534092761,0,0,0.5447997353982327,0.8588954544209736,-0.1847829623301538,0.9935093601425314,-0.15425295716640594,-0.5556122604523485
542,0.9992407188619372,1.128292448413955,0,0,0.5469600870140143,0.9209836072644738,-0.21115402502105965,1.117647590339396,-0.6323904026305275,-0.5615042486398174
543,1.0204745651960496,1.209905770862695,0,0,0.5320204291771627,0.8960719408805895,-0.19377069489163823,1.0876630562012306,-0.9145839637803699,-0.5195532518868728
544,1.0426338269857505,1.2822025060043667,0,0,0.5126644733327074,0.848691449003944,-0.16508722844524146,1.0178743302031383,-1.1461724894010632,-0.46524618716475935
545,1.0660474953083974,1.3477390397866476,0,0,0.5156150660430523,0.8305197054820685,-0.14019528308914914,0.9792554602074339,-1.266520851177168,-0.35477483768220686
546,1.0912644902701292,1.4112462342525627,0,0,0.5766388174501025,0.8883903974233682,-0.1251742330818738,1.0217845988516188,-1.097265123165741,-0.09808465867747383
547,1.1189616394563657,1.47833557557723,0,0,0.6376625688571528,0.9462610893646679,-0.1101531830745985,1.0643137374958036,-0.928009395154314,0.15860552032725916
548,1.1498200490314086,1.5539324760148687,0,0,0.6665083941852084,1.012681590496344,-0.11875274433101557,0.8778583439846182,-0.8648628209147255,0.2024275743883686
549,1.1843662905509837,1.6407554091460033,0,0,0.6852085226376768,1.0817978456109436,-0.1347998819573074,0.6192041503785122,-0.8351724522507,0.1791323299371172
550,1.2227706417625088,1.7381896276452273,0,0,0.682602795401796,1.1360198636124659,-0.13425586717805033,0.22413020143697873,-0.8847830440980271,0.1864215492609682
551,1.264604616744723,1.8418546029121976,0,0,0.6136429350376361,1.1438558454152612,-0.08204100887117198,-0.595804158312971,-1.181365481021956,0.28896183996230707
552,1.308584667713999,1.9440266672433761,0,0,0.5446830746734761,1.1516918272180563,-0.029826150564293646,-1.4157385180629205,-1.477947917945885,0.391502130663646
553,1.352360917470474,2.0348747309509037,0,0,0.5566519406875589,1.04325286103999,0.08758921565226228,-1.781102269159338,-1.2474215233214245,0.7363439823219672
554,1.3924360409193173,2.104258024226378,0,0,0.5991919083040591,0.8908906378299635,0.22963429547907777,-1.9747504270702971,-0.8177779750191209,1.1727160726832064
555,1.4243044041655812,2.143694628291082,0,0,0.6450739513276336,0.8276366740231781,0.3243712404591453,-2.0613252339037182,-0.32335531959924246,1.5483804380779336
556,1.4428722483072451,2.1480794124790292,0,0,0.7036363336579321,1.1024729156878788,0.23961397094229556,-1.7416475619202207,0.4168490604103751,1.6937105188268595
557,1.4431531033534395,2.116799829054592,0,0,0.7621987159882305,1.3773091573525797,0.1548567014254459,-1.4219698899367235,1.1570534404199926,1.8390405995757855
558,1.4211438941920926,2.05403066839901,0,0,0.6509900994754546,1.5112739354851932,-0.088830277233559,-1.2406813044428018,1.4239975581893178,1.4183970099881573
559,1.3747091040177946,1.9681504073273421,0,0,0.46399003424804885,1.5823489835172286,-0.4034687905268165,-1.1211742329518628,1.479662475626641,0.7450838554977017
560,1.3042676111412994,1.8703881445044934,0,0,0.269480708770471,1.5799707652621475,-0.6449562566311379,-1.0108277810765427,1.4616402695942008,0.16425931384424192
561,1.213106569033913,1.7729576350797107,0,0,0.039354686314839335,1.2292010108207863,-0.5394856230427784,-0.94393048393726,1.0941173341660744,0.022111654718359405
562,1.1072316220229483,1.6870357869867465,0,0,-0.19077133614079228,0.8784312563794249,-0.4340149894544188,-0.8770331867979774,0.7265943987379481,-0.1200360044075231
563,0.994775368811733,1.6209728151477372,0,0,-0.11920944066228185,0.6947633434003928,-0.3667317266482569,-0.5595744910142215,0.8426778684145781,0.10807780304027552
564,0.8850867877556929,1.5790686076864142,0,0,0.10993005111199995,0.598376043826654,-0.3193944866883736,-0.11124259629652261,1.2113585762946928,0.5295865342575536
565,0.7876776023826538,1.5611219303159074,0,0,0.3056257348733072,0.527003963687277,-0.26212535029632705,0.2854510613875377,1.5046704522860237,0.8741839538807626
566,0.7111954959648908,1.5627883763882089,0,0,0.2952999585278127,0.609731321947973,-0.14367347407423484,0.364041440076452,1.3336931903225082,0.7449902099142244
567,0.6625460304275526,1.576623364384904,0,0,0.2849741821803019,0.6924586802248236,-0.025221597829011805,0.44263181878071317,1.162715928325605,0.6157964659224577
568,0.6462265803414151,1.593582409993761,0,0,0.17020304656760743,0.690447369284459,-0.0693894743861541,0.5654643523899491,1.3757580042402946,0.4413984606869291
569,0.6638931429781967,1.6047046939155103,0,0,-0.007925692797067748,0.6370327306770794,-0.21220412597590826,0.7151346214451845,1.8217500667612925,0.23957909663300894
570,0.714165588346798,1.602690825672993,0,0,-0.16991347055211622,0.5876980050530817,-0.32470794907253675,0.8499623701044625,2.1850382479426886,0.035168859528603505
571,0.7926829737585149,1.5830937677981818,0,0,-0.19460632079377968,0.573066996026751,-0.17938803765558173,0.8585397248179709,1.8448476855265517,-0.1912793289857485
572,0.8924313415461554,1.5449003499214966,0,0,-0.21929917104026506,0.5584359869975635,-0.03406812621024918,0.8671170795331542,1.5046571230439836,-0.4177275175443204
573,1.0043632226483972,1.4904113654481959,0,0,0.0015804272746877143,0.7225070482197736,0.1269860065506034,0.8350745271348881,0.8546404558801202,-0.3289321932424012
574,1.118296752959231,1.4245030992790841,0,0,0.3945526664115873,1.0118092229898472,0.29906639131270235,0.7745662933220563,-0.012496628802082122,-0.019220031805831202
575,1.2240206406342182,1.353501511388557,0,0,0.7741190594843126,1.2786980900291132,0.4449265533160115,0.7077080387858287,-0.8312093352150477,0.2872690977653292
576,1.312457789034467,1.283956960715782,0,0,0.9775643484946576,1.2511291149220687,0.24631501539862485,0.5574255336714967,-1.0137402650410006,0.5514152131557054
577,1.3766922745408572,1.2215595446643381,0,0,1.1810096374652745,1.2235601398204077,0.04770347752002231,0.40714302858651136,-1.1962711948313096,0.8155613284945002
578,1.4126744143930277,1.1703321008785086,0,0,1.0557717083188456,1.160197477251784,-0.1673042208470884,0.4362314295740431,-0.8788451241435037,0.6012939047953261
579,1.419489948278422,1.1321508982770068,0,0,0.6653915436575456,1.0679607566564693,-0.3955383768066751,0.6100147842463082,-0.15811365341890196,0.0010997642780853688
580,1.3991827154024732,1.1066064263998836,0,0,0.2875802219784914,0.9849150868695247,-0.6131034305791812,0.7829980219932354,0.5255922535540012,-0.5759912337307727
581,1.3562133322584102,1.091204000014131,0,0,0.2332322137213324,1.1384041365454716,-0.5560956259113453,0.9353899871946503,0.2564330837327208,-0.5585152507483108
582,1.2966869940492758,1.081876075133749,0,0,0.1788842054747862,1.291893186191446,-0.4990878212546418,1.0877819523663066,-0.012726086035999251,-0.5410392677692615
583,1.2274862057488316,1.0737312082510442,0,0,0.125222345236443,1.2261581044127021,-0.43262572134259364,0.9019267658793999,-0.26089793014341023,-0.5732095336330728
584,1.155421616395295,1.061927489356367,0,0,0.07219341634191773,0.9582016032883237,-0.35744258787906774,0.40405839611069944,-0.48971019574129765,-0.651175555835129
585,1.0864949555021788,1.0425493345150219,0,0,0.01929807356602746,0.6913683607062178,-0.2825110392156365,-0.09235380004461742,-0.7182560742119165,-0.7290018704896963
586,1.0253587981033085,1.0133735831854827,0,0,0.011705028234756727,0.8054593603317592,-0.2928980052590925,-0.09494216085544538,-0.8564635994901676,-0.7594499609996288
587,0.9750391595211411,0.9744143322860338,0,0,0.004111982903485992,0.9195503599573008,-0.30328497130254845,-0.09753052166627334,-0.9946711247684187,-0.7898980515095614
588,0.9369407579148505,0.928136713481043,0,0,0.03828971430973059,0.9863013624306769,-0.3129408840878606,-0.07488384607967065,-1.0422374449023224,-0.7342302192673567
589,0.9110902833125948,0.8792495775578646,0,0,0.11669637667106976,1.0029264723784064,-0.32182272211075874,-0.02551708603103197,-0.9938284464730124,-0.5873786576568218
590,0.8965205242872,0.8340460652876978,0,0,0.1951030390477199,1.019551582329382,-0.33070456013539135,0.023849674027246866,-0.9454194480342494,-0.44052709601761036
591,0.8916823250825305,0.7993586961510949,0,0,0.269397645026722,0.8988068816614622,-0.2530183499079904,-0.03271939445280189,-0.5526441540431904,-0.3156963287536416
592,0.8947946670910569,0.7813081427678102,0,0,0.34355840558582074,0.7735908609837122,-0.17251439213752484,-0.09273662223171973,-0.14865990590743625,-0.19158232755313961
593,0.90409010396198,0.7841137756069372,0,0,0.41253003463468824,0.7005930561885035,-0.11773016253810642,-0.022938030489636583,0.15378905220144157,-0.1410841459010617
594,0.9179605679442681,0.8092581201316151,0,0,0.47519120145781923,0.6910974152528445,-0.09422349317212692,0.20472856394119224,0.33276173839631445,-0.18010958655482484
595,0.9350377731367643,0.8552319704695881,0,0,0.537852368268714,0.6816017743190397,-0.07071682381073771,0.4323951583275632,0.5117344245562382,-0.21913502720096725
596,0.9542455950167026,0.9179444385149532,0,0,0.5701814268129514,0.7521677129164234,-0.09228686551764494,0.7338115608502326,0.20155560222158825,-0.3103333868949293
597,0.9748451435863305,0.9917102620557073,0,0,0.600367554049434,0.8283899172707858,-0.11704152909618923,1.0404383091690723,-0.14318125586096483,-0.4052177080348162
598,0.9964703366721763,1.0705792959419618,0,0,0.6067830839825112,0.87126414347779,-0.14029038613700315,1.2534107974366635,-0.45447340983102225,-0.5136436203722607
599,1.0191355492048944,1.1496846805074206,0,0,0.5799354521662362,0.8674731901432899,-0.16143210696737978,1.3353290778538252,-0.718965031742479,-0.641018831001158
600,1.043194632101641,1.2262709163715437,0,0,0.5530878203552038,0.8636822368095298,-0.18257382779362794,1.4172473582549903,-0.983456653602287,-0.7683940416051819
601,1.0692415060585954,1.3001259352451855,0,0,0.5504943802168071,0.878886519340623,-0.18784579140265256,1.2831463641724472,-0.8826741874858193,-0.6832779664184359
602,1.0979590258493714,1.373277962536334,0,0,0.5506093500257078,0.8962119562874978,-0.19134561562692848,1.1249229932357734,-0.7411024018687107,-0.5744334767820324
603,1.129935791876764,1.449004751287489,0,0,0.5614343415792413,0.9343160449625001,-0.17855046713513964,1.0140625111647665,-0.6352897539293164,-0.4392760061242112
604,1.1654751703828166,1.5303928655285473,0,0,0.5895627275822212,1.0059906730312318,-0.13942872966042635,0.9797227653459466,-0.5872505148530894,-0.26160658731010566
605,1.2044178231356473,1.6188229770163831,0,0,0.617691113585201,1.077665301099964,-0.10030699218571305,0.9453830195271266,-0.5392112757768626,-0.08393716849600012
606,1.2459931571697156,1.7128038892763713,0,0,0.7066590583841383,1.0627199836149281,-0.023430572214779278,0.14440844110088832,-0.6798535188316636,0.10519021367855416
607,1.2887118354992506,1.8075190426443413,0,0,0.8051152190294912,1.034265877501506,0.05933386837672523,-0.7761264515537148,-0.8499215280180842,0.2961045192246087
608,1.3303143505875779,1.8952892416060467,0,0,0.8799747520116097,0.9720501841305585,0.13363136333193265,-1.5247346728154763,-0.8578699499654211,0.5589642056328359
609,1.3677987488603278,1.9669189481787814,0,0,0.91059605178328,0.846539303424964,0.19205528848671174,-1.9510200479734936,-0.5618815465361816,0.9567048833383441
610,1.3975582799945085,2.013639379395316,0,0,0.9412173515549502,0.7210284227193692,0.25047921364149084,-2.377305423131511,-0.265893143106942,1.3544455610438524
611,1.4156582747808868,2.029174576811693,0,0,0.8985334047542497,0.8793134658838594,0.2067956152930024,-2.08946010249655,0.21721135699377792,1.6474126884540707
612,1.418262494791067,2.011404459046895,0,0,0.8409012890296438,1.0954692564802941,0.14229058081448412,-1.6559915588077174,0.7384719667533277,1.919014732234729
613,1.4021806861298054,1.9631951932623866,0,0,0.7301222748087931,1.2850470404351526,0.029842201471464297,-1.3366525540241279,1.0195130723095795,1.923780720477077
614,1.3654612284645853,1.8921736461941283,0,0,0.5029032900157456,1.4163948543784743,-0.18764564063219535,-1.2673608805972976,0.7742553199089452,1.3439334326705477
615,1.3079150781003237,1.8094770345782012,0,0,0.27568430522269827,1.5477426683217965,-0.405133482735855,-1.1980692071704673,0.5289975675083111,0.7640861448640184
616,1.2314485129021604,1.7277475076477968,0,0,0.08924038120077904,1.3742975267779505,-0.36747593825161917,-1.1489651144404431,0.24684427073817874,0.5413607534206657
617,1.1401117349373215,1.6588075495104186,0,0,-0.08676386147761021,1.1228159265914786,-0.2644932540504942,-1.1050296690632315,-0.04475543083231828,0.41006965390845523
618,1.0398329393269956,1.6115071313883957,0,0,-0.14321133498213257,0.8963545207564783,-0.191351745209478,-0.9938975358471454,-0.06292888797307246,0.35416031063250186
619,0.9378819027210651,1.5901725869459107,0,0,0.10941565709199313,0.7345745481714349,-0.19535472084083322,-0.7090506014149575,0.6257507336616291,0.4931255544072617
620,0.8421637862114978,1.593938209872132,0,0,0.36204264916611884,0.5727945755863912,-0.19935769647218843,-0.4242036669827696,1.3144303552963308,0.6320907981820216
621,0.760461345885744,1.6170472195954724,0,0,0.42622053420014316,0.5631289342378251,-0.19114988689155177,-0.13688653500066983,1.5524073486569416,0.6091911197272515
622,0.6997221737831841,1.6500142387801777,0,0,0.43143998366237196,0.6010539826865225,-0.17912179498688358,0.15120342616306864,1.649376924722844,0.5356501687574404
623,0.6654461037181386,1.6813895429993309,0,0,0.39281414974606765,0.6346409972284033,-0.18135671435581927,0.39239660677661325,1.7534491027351007,0.461165264641142
624,0.6611913715499496,1.6997829122267114,0,0,0.2186803520613681,0.6548209107967088,-0.2276728088469576,0.4886508851874766,1.8794725387401192,0.38376298472254944
625,0.6882034341960058,1.695792212027435,0,0,0.044546554376668476,0.6750008243650142,-0.27398890333809595,0.58490516359834,2.0054959747451377,0.3063607048039569
626,0.7451796410647209,1.6635237029812526,0,0,-0.07945454388291524,0.636930172085143,-0.28472729860638823,0.7083761729040955,1.8658145347419022,0.1657480468999705
627,0.8282055915347504,1.6014751273276462,0,0,-0.18465197075758275,0.5770110155694569,-0.282121282513449,0.8420555784705661,1.6264730480945666,0.0014265684978673435
628,0.9309187420392622,1.5126700116468104,0,0,-0.22655818820828696,0.5534182011302049,-0.1873820681782393,0.8216327241507813,1.395920089397511,-0.16557831451439295
629,1.0449553254448742,1.4040659755051157,0,0,-0.030368461949549057,0.6664818793843268,0.25395410617898684,0.22149076935377157,1.19842879716541,-0.3426779288301718
630,1.1607047687938181,1.2853847567497212,0,0,0.16582126434750005,0.7795455576605272,0.6952902806223955,-0.3786511855604316,1.0009375048947435,-0.5197775431805339
631,1.2683277567761881,1.167600233189756,0,0,0.5835186687911619,0.9737610919537475,0.8283594395305084,-0.5489661505645972,0.3845082149153542,-0.19202414562494002
632,1.358904802157815,1.0613550857978975,0,0,1.0994513838841011,1.2039662490586474,0.8247168317237542,-0.5286593357111214,-0.41771375136636024,0.35962393973467754
633,1.4255076952306387,0.9755519381796687,0,0,1.467017987331802,1.3452793754028327,0.753299856005043,-0.4859999589980963,-1.0243318981166818,0.7536155288598184
634,1.4639703292410509,0.9162935582464335,0,0,1.137733626470012,1.069081409300587,0.363557939966788,-0.33835431477501043,-0.7122314186823602,0.40712076154969
635,1.4732031231015472,0.8862633638543388,0,0,0.8084492655439207,0.7928834431444064,-0.026183976147574322,-0.19070867052309293,-0.40013093918709264,0.060625994171899455
636,1.455026389347123,0.884577815744304,0,0,0.5484554792201656,0.9230902588256237,-0.26255422090498953,0.27316142124424536,-0.22326333821726738,-0.22440363543778388
637,1.4136268802780776,0.9071050182782604,0,0,0.3244272645813068,1.264243230023194,-0.4193162379249439,0.9011691769362283,-0.11658894630937472,-0.4775295201178605
638,1.3548018009515097,0.9471935393011983,0,0,0.1284679936772903,1.520354688765036,-0.5420036441642603,1.379487388976856,-0.049273413069880624,-0.6961529075811161
639,1.2851351183094957,0.9966815141820129,0,0,0.10340797650366035,1.2586863851499124,-0.4572259740826851,0.9464128693911068,-0.2215963799032148,-0.7047060094642248
640,1.2112014890769192,1.0470030577366627,0,0,0.07834795933492404,0.997018081585886,-0.37244830401766504,0.5133383498899268,-0.3939193467028984,-0.7132591113456632
641,1.1388664373622328,1.0902238696845898,0,0,0.04832435169577068,0.8766586229568557,-0.3086933959374824,0.1316892180043797,-0.5331877292742935,-0.7047876433127652
642,1.0727533362832435,1.119906912971692,0,0,0.015307831657763385,0.8415046212635465,-0.25761465148876245,-0.21895177952197548,-0.652525080958788,-0.6860508146129359
643,1.0159458805454098,1.1317714822126352,0,0,-0.010567557282056182,0.8261130631461866,-0.21312171785434061,-0.5096202092498876,-0.7934983864626337,-0.6699771242809721
644,0.9699624007397376,1.124123089471592,0,0,0.023400256357965978,0.9763322322659636,-0.2238183620703805,-0.2977141203831168,-1.1157825725430892,-0.676220728876951
645,0.9349790880396113,1.0980083832191219,0,0,0.057368069991355033,1.1265514013564062,-0.23451500628433156,-0.08580803155772615,-1.4380667585606102,-0.6824643334717104
646,0.9102183533870045,1.0570322171077045,0,0,0.11984449489167184,1.1031698510406376,-0.22881084406200242,-0.03716479057619298,-1.3089790984264529,-0.6082661876504938
647,0.8943846390073223,1.0068028231334882,0,0,0.20218305013955667,0.9588395780742576,-0.21168013593771515,-0.10226781153733495,-0.8654178092703374,-0.4780237639376295
648,0.8860391008945329,0.9540564742289168,0,0,0.28361766741642086,0.819398102825906,-0.19294419109079078,-0.15579655936115722,-0.42845052148736745,-0.3563555567082372
649,0.8838504541710328,0.9056248751389199,0,0,0.3534268282028729,0.7428309687901271,-0.15356345658524473,-0.06046973228983114,-0.07628803019983184,-0.3449594945500283
650,0.8867168058092916,0.8674871913168498,0,0,0.42323598898932496,0.6662638347543482,-0.11418272207969866,0.03485709478149493,0.27587446108770375,-0.33356343239181935
651,0.8937957846408687,0.844142284388661,0,0,0.4666961287793725,0.6501991725265309,-0.10180512500985786,0.1996249318614365,0.44166228970052707,-0.42759030240516893
652,0.9044948997005627,0.8384379835304477,0,0,0.48902218326031704,0.6826624765258585,-0.11108626852180108,0.4200901791453366,0.4579622864243099,-0.6061750481639591
653,0.9184634403716544,0.8518444716239123,0,0,0.5123826376362258,0.7170310926940356,-0.12052610089792855,0.6391712197546284,0.46454679407002253,-0.7760132488413273
654,0.9356020093663182,0.885020052220397,0,0,0.5621596105871225,0.8000575968801071,-0.13401853167336336,0.8229023727449851,0.22301701073447175,-0.7224820641967044
655,0.9560781412109767,0.9384377920538277,0,0,0.6119365835380193,0.8830841010661786,-0.14751096244879822,1.0066335257353418,-0.018512772601079006,-0.6689508795520813
656,0.9803175052667832,1.0128369673543898,0,0,0.6137791582382535,0.8881394482330538,-0.16109250319025428,1.105070716423251,-0.239122882485734,-0.6434314376244155
657,1.0089383099342712,1.109321389992446,0,0,0.5714542997378388,0.8213510674116301,-0.174756151118669,1.1249168426771918,-0.4404573091161076,-0.6437224120200432
658,1.0426137715825075,1.2290229944827877,0,0,0.5293712846624068,0.7550508016361894,-0.18831033840339814,1.1447276790542484,-0.6411656488538772,-0.6433819543672488
659,1.0818756642008187,1.3723620351161396,0,0,0.5621949402762246,0.8399354327961045,-0.16796105086377572,1.1536081087573467,-0.647954789224422,-0.44746671882099515
660,1.1268950916349594,1.5380491196872768,0,0,0.5950185958900425,0.9248200639560193,-0.14761176332415332,1.1624885384604449,-0.6547439295949667,-0.2515514832747415
661,1.1772823510364137,1.7220722505658848,0,0,0.6210604234310142,1.0006776595146933,-0.14013312479621792,1.20463135626818,-0.583127404359901,-0.13146128854337816
662,1.231937005953722,1.9169716474989644,0,0,0.6399293101114871,1.0669876239730105,-0.14626739463032343,1.2819548273935535,-0.42858350387135397,-0.09156901791180501
663,1.2889634865651967,2.1117027980790137,0,0,0.6587981967919602,1.1332975884313279,-0.15240166446442893,1.3592782985189267,-0.2740396033828069,-0.051676747280231874
664,1.345657385410949,2.2923070640113115,0,0,0.8357861737714685,1.0318241923212281,0.1385235617377189,-0.4583588495385766,-0.8971686965738468,0.399419726808084
665,1.3985662493343658,2.4434432114101354,0,0,1.0178739886998813,0.9249392551517708,0.4390298909433247,-2.3371144372424997,-1.5453801896035448,0.8637788297008773
666,1.443633395130971,2.5505975242992234,0,0,1.0870091189228492,0.8236948928511038,0.4964453943708515,-3.175397968552403,-1.437240547216508,1.2749906653862557
667,1.4764401185778475,2.6025477419735497,0,0,1.0189375195974095,0.7293022918637249,0.2585717927120555,-2.749791505335342,-0.41034039972520164,1.6216430551808199
668,1.492565937100419,2.5935179105412924,0,0,0.9508659202719699,0.634909690876346,0.02069819105325949,-2.3241850421182817,0.6165597477661047,1.968295444975384
669,1.4880787997101774,2.524510481202055,0,0,0.909204337939262,1.012638393844289,-0.08964362112531268,-1.886821298967192,0.8021695956624969,2.013070324437643
670,1.4601346914164666,2.4035130389020063,0,0,0.8694001786250081,1.423571504954011,-0.19101609103126063,-1.4486306633252295,0.9286112887641936,2.0366140839493143
671,1.4076081042212276,2.2445436116748567,0,0,0.6799724994702878,1.6131906980338104,-0.2899462121379428,-1.2522985349605134,0.6309815259833801,1.6986038265952919
672,1.33161776456634,2.0657296553844424,0,0,0.2814099430027029,1.4934704294769585,-0.3854625630508226,-1.3940218759491971,-0.2593901531931185,0.8552348192605667
673,1.235796211821564,1.886774520288775,0,0,-0.117152613464882,1.3737501609201066,-0.4809789139637024,-1.5357452169378811,-1.149761832369617,0.011865811925841324
674,1.1261974103074084,1.7262430827124973,0,0,-0.16191661318897455,1.1071387277026035,-0.2568010278640739,-1.1926767503872884,-0.49806587456268747,0.18264925736043258
675,1.0108259833179885,1.599098613292622,0,0,-0.16729429653074507,0.8241747633779978,0.0029665409599852165,-0.7956392577474147,0.3252994208772605,0.46633234193714723
676,0.8988653235801155,1.5148603822619935,0,0,-0.022612673185971183,0.6139431798939836,0.131878889283726,-0.4462959687066075,0.8984701430436004,0.6293269265702892
677,0.7997431698788339,1.476640502781433,0,0,0.36422343268311386,0.5210816710881608,0.04962687270747434,-0.173918017093171,1.0678955812902489,0.597563439327828
678,0.7221831029207533,1.4811689064341358,0,0,0.751059538552199,0.42822016228233817,-0.0326251438687773,0.0984599345202655,1.2373210195368973,0.5657999520853667
679,0.6733543086266368,1.5197476191014028,0,0,0.5550392381802413,0.49232323519574667,-0.1203021443941529,0.3039301780069874,1.4535372946714435,0.4079478439882561
680,0.6581789410232269,1.57992422311994,0,0,0.26833626176629793,0.5808473630383106,-0.20882318136732572,0.4989907048194421,1.6770334387950516,0.2304784623741586
681,0.6788204534255773,1.6475687548045026,0,0,0.049180709679512456,0.6381867174394489,-0.2840810393374544,0.6699939972763,1.879224145126962,0.12643430772397948
682,0.7343709717541522,1.7089914578894245,0,0,-0.04349412762904261,0.637133431790167,-0.3345039553797946,0.7959507727535327,2.0415209986969156,0.15987689341448788
683,0.8207695934840399,1.7527556508821696,0,0,-0.13616896493759767,0.6360801461408853,-0.3849268714221349,0.9219075482307654,2.2038178522668694,0.19331947910499628
684,0.930997428575606,1.7709228138767916,0,0,-0.2261843812364657,0.5955068744352032,-0.31441442205709996,1.0388284795204987,1.6791999745091628,0.019149433723103966
685,1.0555965759856463,1.759609258764031,0,0,-0.31565856860272024,0.5468907396661387,-0.21928995530415962,1.1539104916737093,1.0147854603335837,-0.19727264990401555
686,1.1835391575589411,1.7189061856349324,0,0,-0.1751678995904863,0.59872069919265,0.09112991903102034,0.7918690560484376,0.3420315188288574,-0.28640908104626284
687,1.303416237583901,1.6523584443381953,0,0,0.4685040388485497,0.8703346467274262,0.8726331501669997,-0.6141561686969135,-0.3489697483579563,-0.09703445095164197
688,1.404819273330521,1.5662424126054428,0,0,1.1121759774132796,1.141948594315242,1.654136381455588,-2.0201813937168276,-1.039971015679706,0.09234017917995929
689,1.4796744693250918,1.4688021450571547,0,0,1.3119202655297855,1.0941723425248073,1.4213009191675172,-1.7010160954231472,-1.2971135251654071,0.2909165745844008
690,1.5232291733995393,1.369455689814508,0,0,1.398199960386865,0.9647623402095897,0.9292080594340741,-0.9409049789326878,-1.443364975175918,0.4918448725058154
691,1.534444822075236,1.2778918991695585,0,0,1.3284048150788985,0.8170919701219718,0.46708794163542033,-0.31535506088164117,-1.3274839216198413,0.4961814005800113
692,1.515722700011476,1.2030200991126652,0,0,0.8556870640476845,0.6222806581853028,0.08234541569119312,-0.03718815887031756,-0.5348819355283341,-0.007003130389147145
693,1.4720971919381027,1.1518710563265064,0,0,0.3829693129241601,0.4274693462105917,-0.30239711032816513,0.24097874319532542,0.25772005071794946,-0.5101876614565656
694,1.410172524166982,1.128663909122056,0,0,0.3070243946355797,0.8628449236386688,-0.4556354758487445,0.6529822747316767,0.3027704521739972,-0.5323714362483946
695,1.3370900649609958,1.1342639503349954,0,0,0.35502426042279284,1.4950796897107792,-0.5365560544431984,1.1067939916552354,0.11429901922748596,-0.40429912003571783
696,1.2597043232112484,1.1661603755982934,0,0,0.35144466013179954,1.8318217461600284,-0.536780315656743,1.2817221824377916,-0.14581486926372594,-0.34020075492996016
697,1.1839977863693163,1.2189595252738696,0,0,0.18869363114432683,1.2566893623978985,-0.28798012771197595,0.596030970403877,-0.627013481463663,-0.47352252559910835
698,1.11467896651317,1.285288561179257,0,0,0.025942602188635536,0.6815569787480782,-0.039179939815793666,-0.08966024149613835,-1.1082120935696336,-0.6068442962422219
699,1.0549250059526625,1.3569574517910659,0,0,-0.054129902044875444,0.6495209099286287,-0.07339099871792511,-0.24359291566135258,-1.2448730103808665,-0.638423667439288
700,1.006295616085523,1.4262096366157384,0,0,-0.10323497265238554,0.8209028282896309,-0.21360457798538873,-0.19835419341261934,-1.2524865325204237,-0.6318951864173813
701,0.9688700433145414,1.486879078116164,0,0,-0.11821485915558536,0.979208309515192,-0.3280565331065041,-0.1767997078774517,-1.3825669713621374,-0.592182517337635
702,0.9416090253120674,1.535261796953423,0,0,-0.005033731893439797,1.0884037424673834,-0.34575777602462093,-0.24419406956656134,-1.972585857730266,-0.4278428522588512
703,0.9228602136047381,1.5705161306097326,0,0,0.1081473953466042,1.1975991753982513,-0.36345901893928106,-0.31158843124251046,-2.5626047439831776,-0.263503187212159
704,0.9108712115399897,1.5944496281589153,0,0,0.1940328635817744,1.0619013881631223,-0.29480347592660994,-0.3635648946845344,-2.111731075879978,-0.2804770878076211
705,0.904181621231604,1.610662009983769,0,0,0.26782892990931323,0.8177390072535132,-0.18790002351778248,-0.40871268371032243,-1.1998402024392874,-0.3777557931327406
706,0.9018255089991819,1.6232005723945797,0,0,0.34626868469405825,0.614983911638302,-0.11027930106449878,-0.36656153569843986,-0.3537139494769681,-0.47332185630637735
707,0.9033533572039928,1.6350870371196262,0,0,0.44647722650121346,0.6063388188171859,-0.16993081826788545,0.08483153122277287,0.18411943670713812,-0.5608593570071189
708,0.9087379479930686,1.6471804470038178,0,0,0.5466857683083686,0.5976937259960696,-0.22958233547127208,0.5362245981439856,0.7219528228912443,-0.6483968577078603
709,0.9182396772866522,1.6577683740293836,0,0,0.5714689859850255,0.6757425156215856,-0.22112101449176375,0.7724726617645123,0.9953062069407411,-0.8039126997850362
710,0.9322805595206047,1.6630490307928725,0,0,0.55715074620486,0.7987345281676782,-0.17734912275668382,0.8971867904555098,1.131549758571698,-0.9946693877446523
711,0.9513381386024405,1.658384795368342,0,0,0.5448213608699141,0.9014081028969103,-0.14078990391087723,1.052497451347298,1.1961546199255149,-1.1579895328349445
712,0.9758441609535765,1.6399843528446436,0,0,0.5445734836771924,0.880655163208382,-0.1480448346756724,1.3936700051736501,0.8255826281319119,-1.1546434762590478
713,1.0060685822708475,1.6065632049066467,0,0,0.5443256064844708,0.8599022235198535,-0.15529976544046756,1.734842559000002,0.4550106363383089,-1.151297419683151
714,1.0419851156181699,1.5605408036540411,0,0,0.5205885490607993,0.8275804274207669,-0.17510847293792137,1.8113962395844139,0.12569491409791433,-1.11346330793422
715,1.0831394908583094,1.508431224970718,0,0,0.4827049214953002,0.7882911834517162,-0.20247780542866767,1.7285808228744726,-0.17877384866648083,-1.0548584546448334
716,1.1285613872024693,1.4602466153886005,0,0,0.45786850486592257,0.7705653797515258,-0.23146782339993066,1.6245920067411352,-0.4450917445807562,-0.9646946803579599
717,1.1767625598741118,1.4279361931394676,0,0,0.5420503055440135,0.9330166138207978,-0.27399975798846116,1.3436852060783302,-0.3926335044323828,-0.6108349079504058
718,1.2258409473161413,1.4231026896006864,0,0,0.6262321062221043,1.09546784789007,-0.31653169257699165,1.0627784054155252,-0.3401752642840095,-0.25697513554285184
719,1.273669576352531,1.4544364616185952,0,0,0.6560538200725875,1.234996906782396,-0.2810866593313387,0.629108180595077,-0.25996232346026366,-0.04474831158819233
720,1.3181087511717255,1.5254369102090217,0,0,0.6480460094255471,1.3585742805938081,-0.1913769663342948,0.08912893312135163,-0.1604347127857642,0.06891525751518711
721,1.357163025957432,1.6329991023958574,0,0,0.6489838013655846,1.4538392515163323,-0.09856856523961374,-0.4692747561035027,-0.08798709432929785,0.19896493624909628
722,1.3890236391258808,1.7672937354941538,0,0,0.7644940488452638,1.1864878992304493,0.03392711173840181,-1.2636528836376764,-0.36237147209988374,0.5388827375279022
723,1.4119883493231786,1.913069583173792,0,0,0.8800042963249431,0.9191365469445664,0.16642278871641736,-2.05803101117185,-0.6367558498704696,0.878800538806708
724,1.424314786572221,2.052137610127875,0,0,0.8555618171466199,0.8116041129123475,0.17829662649512243,-2.4219948960184614,-0.46778933481977214,1.2378675806643027
725,1.4241127634725335,2.1664843455003338,0,0,0.7189920569178216,0.8321153490450509,0.09353069748029885,-2.4411196345903,0.056380907560397944,1.6122766048758208
726,1.4093900803061292,2.24132108401049,0,0,0.5865954326410473,0.8651671085799597,0.004520279863666991,-2.4400813867306184,0.554766519465518,1.9670256472008536
727,1.3783239243207173,2.267438166435223,0,0,0.5599610505632923,1.2160407384335785,-0.19206071217858509,-1.928040698753521,0.39967705539286064,1.82352018983763
728,1.329744651932909,2.242452679298015,0,0,0.5333266684855374,1.5669143682871975,-0.3886417042208371,-1.4160000107764235,0.24458759132020325,1.6800147324744064
729,1.2637200320724808,2.1708261073165587,0,0,0.3715852728336729,1.598399174699168,-0.45648977832552345,-1.2889310528940967,-0.08804638744910856,1.3902079362573778
730,1.182060932920015,2.062793762402943,0,0,0.0854930044103021,1.3359223434525904,-0.40585362065179137,-1.5161854524233436,-0.5840902053392282,0.9657471447588842
731,1.0885724082601955,1.9325206979497713,0,0,-0.1989355734616918,1.0737406332804111,-0.3547744453408839,-1.7410492868990937,-1.0753086830062124,0.5431633948139473
732,0.9889488099223911,1.7958606350399138,0,0,-0.0091860847501868,0.8956730874583616,-0.17742825091134842,-1.2845643488095009,-0.19122903463625582,0.6555661145738352
733,0.8903178371012351,1.6680795109227458,0,0,0.18056340399837176,0.7176055416015396,-8.20564471814933e-05,-0.8280794106307673,0.6928506139063404,0.7679688343556726
734,0.8005252151781715,1.5618594704412483,0,0,0.3233517966155398,0.6020056075185658,0.0396697129268368,-0.4390121233379556,1.0729073005107943,0.7668798888983309
735,0.7272905246038539,1.4858383482730824,0,0,0.41652607871847047,0.5524023227931165,-0.06594618537738271,-0.12117117136156155,0.9204668137845267,0.6458876939678265
