id,ASVM,GSVM,walking_nonwalking,normal_abnormal,ax,ay,az,gx,gy,gz
1,1.0394845936735846,0.008370762775069323,0,0,0.47961424135663044,0.9307251201990487,0.006530761269138798,-0.020240024,-0.004261058,-0.023435818
2,1.1786874189958287,0.7440310867335083,0,0,0.5128002394947297,1.2623715048379185,-0.028790357852908215,-0.6166133454819537,0.02555095360989766,-0.1964519581638843
3,1.3084357788254382,1.449286830489825,0,0,0.5459862376846746,1.59401788999491,-0.0641114770301364,-1.2129866678956043,0.055362965266369774,-0.3694680985980668
4,1.4177578714187753,2.090678258757486,0,0,0.5992064807724584,1.4565215417373603,-0.009225661562442668,-1.8143732346638755,0.5889100228459202,-1.0059054145242332
5,1.4977524501089294,2.639650210205513,0,0,0.6524474331781228,1.318540242536494,0.04575340044826562,-2.4157649836034993,1.122977789302738,-1.6428217670432748
6,1.5423907825076475,3.074737618466458,0,0,0.8641159662911275,1.3325457296064387,-0.029594781813522077,-2.7475548851010574,1.3281234777444926,-1.6588063472303431
7,1.548925823036873,3.3830423691531872,0,0,1.0769767521921805,1.3411573659113585,-0.10332978289023466,-3.0589194627405103,1.5462763322409396,-1.6654802317439374
8,1.5179071471911418,3.560823353037848,0,0,1.3626357334616594,0.8040805255559554,0.007274498003238921,-1.5143523837825443,3.0709848441739935,-0.9501733641146958
9,1.4528479450147218,3.6131397571325556,0,0,1.6349823950335858,0.2760268309552308,0.11345132323174535,0.013671926878859365,4.550972680045374,-0.25698525500196245
10,1.3596293457094002,3.5526388095479438,0,0,0.8401158208570438,0.4713346709046827,-0.1353091853541921,0.2155066853254048,2.445823023217847,-1.3369991108484909
11,1.2457651743039275,3.397728960139451,0,0,0.045249245438704996,0.6666425111592584,-0.384069694328761,0.41734144408727086,0.34067336310150553,-2.417012968382294
12,1.119671938999227,3.170488234364909,0,0,0.007851003820802373,0.9128583627659265,-0.08019765766631803,-1.2599071190322746,-0.2693391452334417,-1.8399345512045124
13,0.9900661207280471,2.8946683416909327,0,0,-0.004720484499602586,1.1400140774836098,0.21241755122216935,-2.8810503604242097,-0.8462135917172837,-1.2698605644881824
14,0.865535551763456,2.5940313866249785,0,0,0.5141640577674733,0.8489630665322367,0.10793143317913755,-2.675505508264676,-0.7980619589877386,-1.175691414835718
15,0.7542377684635863,2.2910498247351088,0,0,1.0021925047689277,0.5631574484669294,0.0082465446590806,-2.460285177745719,-0.7423086217845023,-1.0877146433723555
16,0.6636197113700888,2.0058373732825796,0,0,0.7391224560030755,0.4050350785409969,0.025433094784480987,-2.0095445193581467,-0.5015147292935893,-1.150472626734897
17,0.6000604986950091,1.7551512685542812,0,0,0.4821592855617587,0.25522985930839337,0.043346185290964206,-1.5552427925985515,-0.269249541165658,-1.1999494789054401
18,0.5684014340457272,1.5514057408682767,0,0,0.3863612726992313,0.32492055575573187,0.0804332262369085,-1.0069617924771763,-0.2620633338970681,-0.8989272127826718
19,0.571407748200405,1.4017873488868853,0,0,0.2952005402999921,0.39306512478318534,0.11548814543430895,-0.4673417896259592,-0.26386473413418976,-0.6012204126815982
20,0.6092669435874127,1.3076855573471506,0,0,0.33075457834921684,0.4189613997097098,0.095014864014014,-0.1643855739721539,-0.5112545982042211,-0.39410950534821537
21,0.6792513373940402,1.264690427203687,0,0,0.3626183260894824,0.44244938646067067,0.07868658287319392,0.14151295001830136,-0.7551349375576443,-0.1861709838285883
22,0.7756630925821636,1.2633385479565218,0,0,0.28260095632069465,0.39292361283179417,0.18802518011571384,0.5366154983835992,-0.8926145568822985,0.04685889731620717
23,0.8901510198022226,1.2906258652787912,0,0,0.20466532783610877,0.3573575299020326,0.29840815125935355,0.9186727658110875,-1.0327182516891575,0.2840799206713354
24,1.0124420291261278,1.3321089400270625,0,0,0.16608029016747325,0.585667708027886,0.42853264338031016,1.0541386231074463,-1.2224241405853986,0.6005249800060415
25,1.1314589967890682,1.374254450188781,0,0,0.1404917735085491,0.838662290054415,0.5604197572233739,1.1291084822614197,-1.4031177740641028,0.8726508180324372
26,1.236699497420326,1.4066230184951505,0,0,0.29698148765205123,1.4374796115182946,0.7170007874802132,0.3565435056920571,-1.4575518054232073,0.5238746887809346
27,1.3196470228630988,1.423505076360306,0,0,0.4427295585922175,1.9679700371297346,0.873517219369192,-0.4106667247195501,-1.4672562784551695,0.14891894911519535
28,1.3749233022154705,1.424739734696913,0,0,0.4223041635867054,1.4414418211018103,1.0290343132735849,-1.0950389107282699,-0.7849934605651808,-0.6310359633534112
29,1.400916218219024,1.4155903239151455,0,0,0.4054671917043003,0.9286423007281984,1.142027072885745,-1.7170588036465086,-0.16583325000452762,-1.3242522200130895
30,1.3997455384618065,1.4056789185212515,0,0,0.47322163570511155,0.7394751125881569,0.2525757128110342,-0.8692217338823273,-1.0342174772338155,0.02725852935100192
31,1.3766079754008695,1.4070937952321736,0,0,0.5754394648775892,0.5934462578282805,-0.5574581570085896,-0.054835236645937944,-1.78200959948266,1.2378285941316778
32,1.3386850441496418,1.4319026089500617,0,0,1.1314706361255555,1.0154623398701736,-0.32172367615752157,0.31907460008614824,-0.9418466569644357,0.5924937897609727
33,1.2938429152831612,1.4894391554468083,0,0,1.5748341731022601,1.3427566571274652,-0.0802347544426777,0.6044036437059385,-0.16907059342863814,-0.04843815365604953
34,1.2493245193293576,1.5838522586214776,0,0,0.6259416034130518,0.4995555059952564,0.23236291881253068,-0.20487758644883944,-0.22900745204377876,-0.634963065671605
35,1.2106061611340446,1.7124500069132018,0,0,-0.22476327495290394,-0.2425408188276457,0.4706436296676808,-0.8511487378479194,-0.2755447212456078,-1.0940382278185152
36,1.1806039412436635,1.8652875337569244,0,0,-0.008599452019898042,0.11392799528412428,-0.09857444220570974,0.27378329105486743,-0.17648734031023186,-0.16829470862422463
37,1.1594195360786694,2.026229228271055,0,0,0.2765511751509129,0.4757221185360178,-0.588031609076034,1.323564907587092,-0.03988730949137794,0.7464936091675185
38,1.1447273542372223,2.1754113806904765,0,0,1.1814710761409164,0.885358192782679,-0.3609262691605996,1.6982041443628793,0.4339914385345469,1.5628617093070756
39,1.1327155955672394,2.2926953880650185,0,0,1.9141390168837982,1.2361107251805536,-0.11109103461477601,2.0987813516781424,0.5977983131650921,2.2055756718905877
40,1.1192962488576297,2.361405148466337,0,0,1.01604544531586,1.0293949193354965,0.35393499551256224,2.7449211787942747,-2.173939192681975,1.2042532861883257
41,1.1012172955252948,2.3714852943504625,0,0,0.22225841820769615,0.8487785390426483,0.7125914840240731,3.1773317879619665,-4.317443414592924,0.32555086552751805
42,1.0767925828004192,2.321296633058976,0,0,0.2783625648146481,0.8808206408582293,0.20454746862095893,1.868273757412134,-1.3420941048631678,0.4459576240520205
43,1.0461455088221896,2.2176131384167004,0,0,0.33890668104300076,0.9005894698323086,-0.233340389911986,0.6818752187062387,1.1842395117793387,0.5551715796036201
44,1.0110279893370322,2.073910677707459,0,0,0.4371281111061244,0.8162080501003348,-0.07588736247608127,0.5363576713079437,-0.09974677434009058,0.5694040895526652
45,0.9743602323009766,1.9075256044363087,0,0,0.5208335070888991,0.7351056365498153,0.0572286357207206,0.40012243583942786,-1.2381112520531725,0.582167
46,0.939647872178504,1.736492490301114,0,0,0.4784726900340642,0.6824801387522913,-0.02101317202307433,0.3445005339063842,-1.1118059335228259,0.582167
47,0.910408652242572,1.5767920690500616,0,0,0.4426485954800696,0.6344063454115865,-0.09041644955372515,0.3193928540717453,-0.9856142633629223,0.5689013312126767
48,0.8897056715101599,1.440480501855308,0,0,0.4749758121309397,0.6337882348856385,-0.06766996464328488,0.6124238484047867,-0.8606074836603939,0.41732893275794003
49,0.8798445473309371,1.3348881459669097,0,0,0.510441813965375,0.6443862154212538,-0.04453044834379026,0.8979518134982145,-0.7137867671245542,0.28602087394313014
50,0.8822484999630918,1.2628458586681504,0,0,0.5706378480457347,0.7433541470158104,-0.018294294826955052,1.1243645023397182,-0.39509721304154594,0.31437260121213273
51,0.897482981613553,1.2237251431652754,0,0,0.6249715295899662,0.8271117764592627,0.012725760971405866,1.3482161441426683,-0.11749396817444974,0.34644478384909094
52,0.9253698460179508,1.214958535992292,0,0,0.6368180050399918,0.8006332435320281,0.07841699116931831,1.553506684512287,-0.13766239148978676,0.40548084445587596
53,0.9651204852553256,1.2336437028416964,0,0,0.6415402118333777,0.7866254025776651,0.1178174967195892,1.730971650290837,-0.11710756367167927,0.43933893160697035
54,1.01543134322179,1.2778398441913534,0,0,0.5974459136520497,0.8580685217953707,-0.02292979314978074,1.717771808239484,0.1824887887153001,0.30067395327709484
55,1.0745164836044079,1.3472443795539895,0,0,0.5482136648466975,0.92231401192306,-0.1259427119349677,1.6029089100718896,0.5677592383367278,0.19485999381109914
56,1.1400866467245496,1.4430829999584294,0,0,0.46458409896169006,0.9383731420843219,0.023666718278313507,0.8074368185735166,1.5265967248260994,0.3089755394954582
57,1.2093103156040412,1.5672312729294309,0,0,0.39619435630387007,0.983717797548477,0.15101406546926474,0.09474115459954913,2.1848468517481816,0.37249096007687227
58,1.278802716542641,1.7207795997217954,0,0,0.4257793491407596,1.2173350830038054,0.13524153111660628,-0.08579619868559604,0.910662026894447,0.11070510892107913
59,1.3446814080673706,1.90242643004609,0,0,0.4566195176191039,1.3979764955252285,0.09582889967326089,-0.23875469133377392,-0.03836418011747534,-0.17683746580221507
60,1.4027078073567913,2.107191063460214,0,0,0.49506191899736735,1.2577585054147091,-0.08676490219281677,-0.22467607388556093,0.982000472962385,-0.6203810022481545
61,1.4485158849704862,2.325902909680478,0,0,0.5434833131087672,1.1461361286656353,-0.18837006359416603,-0.4331873946264345,1.7974991272075884,-1.0707620935428612
62,1.4779212523817353,2.545706237884937,0,0,0.6461025673228677,1.1898221201120254,0.14988991698700066,-1.8506281875339892,1.500330478950202,-1.5582792775494114
63,1.4872988857997311,2.751487161114361,0,0,0.7376437068928695,1.2461707374943762,0.34650780751020577,-3.0120582368528255,1.2823122102125135,-1.8751168026200187
64,1.4740014766126182,2.9278407360686285,0,0,0.7735176886298193,1.3661486295312966,-0.16862109762858887,-2.8870428083381627,1.4620219681623152,-1.3342947134831113
65,1.4367623049288818,3.0610812739439415,0,0,0.83879894283408,1.4043429230120557,-0.5303065085819876,-2.524517268476901,1.7440056938055126,-0.877323944743132
66,1.3760048548279846,3.14087800837435,0,0,1.1178665416951818,0.8479830450970763,0.22351865816834823,-0.43532977704379267,2.769505423844531,-1.029939362122281
67,1.2939868192996706,3.161289579873587,0,0,1.2281177400355274,0.4238942879646805,0.7593911245814334,1.0793621550295862,3.365002162786342,-1.2366382148044763
68,1.194743410065119,3.1211641054715202,0,0,0.46039564343551886,0.687715662389273,0.1617442735021083,-0.39375846835517303,1.7241572768751445,-1.7246119397884239
69,1.0838476901445382,3.0240015436805927,0,0,-0.13076117175663168,0.9021877263797813,-0.3139179442998818,-1.7000867947093001,0.19842885826713091,-2.038974763195473
70,0.9680455413922354,2.877431784140255,0,0,0.17950052183153417,0.8647168174989271,-0.16681216683434177,-2.154890609981191,-0.7395955939354486,-1.4670020719977925
71,0.8548272921157154,2.6924511035671626,0,0,0.4658187783138151,0.8040009629858228,-0.03626213085926271,-2.4910807055878776,-1.4558690401242211,-1.0226584291234764
72,0.751968123785708,2.482494249287516,0,0,0.6475921722669805,0.6417900872047885,0.022000133186675513,-2.3093645790382156,-1.2039052023640555,-1.1355848763013792
73,0.6670311870879331,2.2623450141287944,0,0,0.7527864718188948,0.4920857459633514,0.06578150411965299,-2.08240822853693,-0.9673704964979692,-1.2191346635141198
74,0.6068114666202694,2.0468667620420185,0,0,0.5020641572961517,0.40050801732102836,0.042260036431253596,-1.6451889124640724,-0.8025457567140211,-1.1661505650057769
75,0.5767179528266675,1.8495905948467477,0,0,0.3104521160961549,0.33344770276399915,0.026222521108978727,-1.180310955018937,-0.6783727407457628,-1.0749932051056104
76,0.580136097511141,1.6813014467459937,0,0,0.38521265223160894,0.37687185065444767,0.04391044070991094,-0.5907930172149576,-0.7373913060940627,-0.8118131266257959
77,0.617856693360632,1.548853511488277,0,0,0.4385427141205587,0.4144256645551281,0.06849444331413014,-0.051395232559741634,-0.7976542385263478,-0.5620646293330729
78,0.6876796109003777,1.4544756547845208,0,0,0.39877608117675334,0.4264780040153764,0.12303590411135752,0.27027425849323866,-0.863322859300686,-0.37066462182505117
79,0.7842975412676078,1.3957697015196169,0,0,0.3402192803020641,0.43117656560641937,0.18808015083367838,0.620203656539964,-0.9137016320857847,-0.14837155840737348
80,0.8995446195026057,1.3664677668579395,0,0,0.20250441395417246,0.40489558364248424,0.2973698893425749,1.0891846573385318,-0.8996682730762591,0.2040658746956963
81,1.02306001497369,1.3578394468010317,0,0,0.09791474277419297,0.4732252512729154,0.41794492099832486,1.3936011481971682,-0.9283471405111465,0.5400915848375353
82,1.1433577594964293,1.3604838651421385,0,0,0.12648026144557784,0.9218666128026881,0.5838840743256705,1.0365085219763246,-1.1287187217963532,0.8101461809529891
83,1.2492047344004926,1.3661573231982749,0,0,0.18338172209146109,1.3551119501329663,0.711795621622574,0.63222107846731,-1.3014509805443615,0.8891302766405943
84,1.3311052485670143,1.3692972918782593,0,0,0.37512816097210655,1.715090738982827,0.6587415329725116,0.0033431118396809035,-1.3426533290641904,0.05884876144303152
85,1.3826157617625774,1.367990141188738,0,0,0.4686167052183223,1.8560038123914706,0.6674456980525063,-0.5771782719431169,-1.2914422618987784,-0.6447991041539001
86,1.4012141206825575,1.3642477761090848,0,0,0.1895728964594739,1.166356992877034,0.9102984541998752,-0.9743618020558187,-0.8898574426404406,-0.8683315394198697
87,1.388540791926089,1.3635658683140632,0,0,0.10490796007335432,0.6630049870345056,0.8919109479703202,-1.1900986803801117,-0.6985949910053011,-0.756089646826051
88,1.349980396975617,1.3738221616599129,0,0,0.7430688853067101,0.8524171025551495,-0.09793613916196432,-0.7311000246333034,-1.2894465861634603,0.6047774959001875
89,1.2936907209754829,1.4036516202464508,0,0,1.1906356191080616,0.9961581744731633,-0.7632169144682462,-0.25319614902359094,-1.3999995423272904,1.3622803466411997
90,1.2292607189383908,1.460521725182535,0,0,1.001939414134767,0.9874350382832289,-0.34499397062694787,0.28781925156536653,0.09283436196769815,0.10556474804705696
91,1.1661976167208232,1.5488212101653476,0,0,0.754909282984473,0.8370627092725559,-0.022309901086425547,0.5869477721564677,0.8262509534444523,-0.8236006170779435
92,1.1124563114418757,1.6683324345451958,0,0,0.31944326693513436,0.22912146767566058,-0.00824473963855215,0.10470991171937874,-0.8934756643481055,-0.6946815529407238
93,1.0732536841444835,1.813431525276977,0,0,0.09034539520000427,-0.11629722381929158,-0.08449025846601513,-0.08202802044530481,-1.6869278095020803,-0.3252782914549704
94,1.0504135589944479,1.9732375476916062,0,0,0.46973136853581876,0.31234120099747237,-0.42702004429810714,0.6025261415088233,0.25077341521555246,0.7532012171079815
95,1.0424032787483468,2.1327516487184566,0,0,0.8401500752986899,0.6925169177163472,-0.5954955148920951,1.223982249735361,1.497838150624612,1.555232569430225
96,1.0450453181632318,2.274838079236954,0,0,1.1813044795990797,0.9145365887178295,-0.19595191238260168,1.6395204670629104,0.49103921446410403,1.4550867779112717
97,1.0526914351267864,2.3827294275583473,0,0,1.3062530732507787,1.064692152059806,0.07995812647749344,2.046022697773181,-0.6443408807557887,1.2657563124742464
98,1.0595319592228762,2.4426138529091173,0,0,0.7468805351872471,0.987387928412123,-0.03544907182799902,2.423924785249115,-2.186698023997193,0.7941440875170634
99,1.0607278936073332,2.445814304827576,0,0,0.3227030966169596,0.9428947202442426,-0.09592474596370422,2.61797023525976,-2.669222127101584,0.5004448339220867
100,1.053169156830248,2.3901245240013793,0,0,0.32810015084725114,1.0026565878756024,0.018141273690365577,2.2278220113571576,0.21581104795793873,0.7720536039012155
101,1.035803608040314,2.280036127417384,0,0,0.336204824357695,1.0195700493997302,0.09528026198108619,1.7332430075559149,1.9817994597926067,0.9379404828906853
102,1.0095853703418864,2.1258506983761984,0,0,0.3535620380378188,0.8900609324167426,0.046231332779801744,0.8818006900396606,-0.0762381372580874,0.7425520365807059
103,0.9771405649785642,1.9419381490618506,0,0,0.37845700412865274,0.7832368553948844,-0.004394770045522689,0.1550738037355658,-1.554947766825408,0.5874698063813166
104,0.9422614331699761,1.7445753635945755,0,0,0.4239670916933768,0.7384544636063994,-0.05933431036200772,-0.23056681784408312,-1.4492439106017188,0.5426217028385536
105,0.9093342618366813,1.5498267813447097,0,0,0.45885267830502957,0.7025861816171708,-0.09473085971185538,-0.4120654919029543,-1.2203303052655121,0.48302526057324074
106,0.882788120129017,1.3718399673180304,0,0,0.4626489400368365,0.6928022924119261,-0.07294087426874825,0.0037942722609855305,-0.6308813774552997,0.3802723548684703
107,0.8666226779059414,1.2217915248512645,0,0,0.4757526291956157,0.70467341105285,-0.04932981015425927,0.45014019376608716,-0.21786934079005194,0.329093975039855
108,0.8640413100189525,1.1075723248080118,0,0,0.5131317587690867,0.7730246748792473,-0.02096904614358541,0.9759994832432822,-0.26503636669945374,0.41243121059970145
109,0.8771888769799129,1.0341434964679128,0,0,0.5410745956203945,0.8061805420801854,0.01741805737787727,1.3737743199770849,-0.31731764648853367,0.48915506941697506
110,0.90697856772847,1.0043306661417255,0,0,0.5431234661370681,0.74275733473757,0.08331826463086778,1.4200748432032382,-0.38363286146952646,0.5477312766658834
111,0.9529922211336658,1.0197034951310895,0,0,0.5464849580795986,0.7145264420649793,0.10389699429075609,1.4923320257771644,-0.37888788274150687,0.5188324608650028
112,1.0134508701281773,1.08117281090666,0,0,0.5533742386706777,0.780878074603729,0.002670158330456802,1.6343500749298039,-0.18316221366943974,0.25483661804388696
113,1.0852669984057528,1.189046560317431,0,0,0.5481150381482384,0.8646857884235656,-0.03635932128328517,1.5230022597524013,0.18744588515845012,0.0945009268913685
114,1.1641957923740698,1.3424824029390394,0,0,0.5112752913791624,0.9938714040961821,0.08629614299966101,0.7530180009687479,1.012669060111306,0.20363465987664936
115,1.2450948343621673,1.5384987536801773,0,0,0.4638947174235694,1.1283082739610453,0.1555942954263313,0.1754963100804541,1.2707927502331922,0.16247194724393454
116,1.322284080803024,1.7708962551254108,0,0,0.39148146289370944,1.2752159843626467,0.09817786434026424,0.055040636801787765,0.1821511580486721,-0.23561938330194915
117,1.3899783385959634,2.0295388888323638,0,0,0.3686073926933075,1.384037426103151,0.08709388641456302,-0.3293828724396355,-0.13964585105371408,-0.6389545423042687
118,1.442749735528839,2.3003937133956223,0,0,0.4601907517473406,1.40486274026235,0.18305837029563052,-1.323688849663524,1.3103073374112517,-1.0544052660913876
119,1.4759721329608853,2.5665094613166666,0,0,0.557822099724279,1.386632969421297,0.23499540226756052,-2.2145752136905346,2.0736882156057654,-1.478961128552717
120,1.4862038833003868,2.809790095427404,0,0,0.6719651456965057,1.2617783686570692,0.16673247594392276,-2.8231142500517303,0.9626484886792933,-1.928375054103662
121,1.471476593288909,3.013139276620666,0,0,0.8313258325418281,1.1733242194557738,0.058099477726992275,-3.0832211409260792,0.6680099873560544,-1.907590822850106
122,1.4314693719783713,3.162454909853683,0,0,1.0979444473615732,1.1712132965103492,-0.14629283427697687,-2.516834010045392,2.3099055895183813,-0.7714790568808709
123,1.367556325360188,3.2480630770102317,0,0,1.1843249290805025,1.0615193075643499,-0.18319967839511012,-1.5524423243760281,3.2413316179259755,-0.264066897781608
124,1.2827245641840197,3.2654095447198372,0,0,0.8531226887336083,0.7025726833351335,0.1679303285753293,0.33406180929496954,2.52671408682782,-1.2132504576203058
125,1.1813802360803216,3.2150613325148707,0,0,0.49219811103349237,0.5724905812099942,0.3582718911271192,0.8647673341333572,1.7160199746792693,-1.7970525591996052
126,1.069087130502817,3.102229671309795,0,0,0.06981500746172656,0.9156443622557159,0.2161422567143395,-1.4079872225248782,0.7066629840806473,-1.625335124956862
127,0.9522918719833475,2.9360641972470782,0,0,-0.050531564973212886,1.0588272940284407,0.0917866136357225,-2.909148841820831,-0.1823529588056878,-1.4110621198589166
128,0.8380623054708067,2.728882700837185,0,0,0.44244032946542383,0.7959473753085042,0.003523019561798937,-2.8435059513464314,-0.8270031363661867,-1.1103753387685782
129,0.7338155325761956,2.495348579446245,0,0,0.7523352479088147,0.5801312826761268,-0.035783705949461536,-2.679213653868092,-1.1735986707761188,-0.9450284456634449
130,0.6469760515459327,2.2514915570312626,0,0,0.6689998020437162,0.46540340902165916,0.030063846777183614,-2.3030326569023125,-0.8800037316545999,-1.0703776009653265
131,0.584507266189811,2.0134652330108724,0,0,0.5691095747722515,0.37366396381268485,0.08468092703330828,-1.861562641171211,-0.6072399057630066,-1.07583913369513
132,0.5522992059171056,1.7960487460508994,0,0,0.4348054128389474,0.32971266165991975,0.11595219983021855,-1.2843703846368404,-0.37777961439768315,-0.8320793285227517
133,0.5544536724567242,1.6110649993651138,0,0,0.3574928676386887,0.31386017779149034,0.13285289904095804,-0.7348175678830833,-0.2963206067433123,-0.590396350587066
134,0.5925642359589661,1.4660230634179634,0,0,0.3948403997039258,0.35453903755332794,0.12084178329543145,-0.24087188459566777,-0.5126218586931371,-0.3528916930629143
135,0.6651260905885361,1.3633328586747198,0,0,0.3970787592909871,0.3728483940619142,0.12301745034157349,0.2368998540920887,-0.6866530809734182,-0.1387801405506999
136,0.7672226017351079,1.3003556124054934,0,0,0.3296126532489469,0.3467461578250569,0.15335903654382896,0.6825604360732755,-0.7767629341962107,0.02888759806604561
137,0.8906217901634623,1.2703609777221365,0,0,0.25069768689010774,0.32737728682634476,0.22930736783469205,1.1242113092936377,-0.8372337157004102,0.1961776653990967
138,1.0243759040495186,1.264224235657365,0,0,0.14738033037338835,0.3223600804092907,0.4024630671603647,1.5573157895104306,-0.8345310317340364,0.3626627551811728
139,1.1559427544519054,1.2724984641974735,0,0,0.12821759348500586,0.5866539802037438,0.6296393112835897,1.647284661445978,-0.8719831596670128,0.5310008151647087
140,1.2727329077091822,1.287404990720196,0,0,0.26631619423577196,1.3542146628336114,0.9577647734302245,1.096029498471568,-0.9844733478069647,0.7028015550358722
141,1.3638486202020808,1.3043244427652814,0,0,0.4203866193493895,1.8373670826988382,1.1465886582135663,0.24364704099180598,-1.033153225354886,0.4729616313337584
142,1.421669846486262,1.3225087222382956,0,0,0.6040603492647175,1.7933771718438432,1.0772211761573793,-1.166865973584684,-0.9635625736053435,-0.5013074179270809
143,1.4429278109352215,1.3449033697625095,0,0,0.6300925927809777,1.4716532821331507,0.9048201126217215,-1.7843780189425054,-0.9861896429906931,-0.8185066068755797
144,1.4290227369484443,1.3771171054615483,0,0,0.3717454492414113,0.6489076083335508,0.5465502942091071,-0.9713457666503544,-1.1751740566284365,0.04962382993228695
145,1.385549416439033,1.4257024541217904,0,0,0.5156278702625284,0.3881234914621573,0.11820144350678095,-0.21307532544601085,-0.9673136300907903,0.7014322358359066
146,1.3211898127095334,1.4960451653745601,0,0,1.3884754202016532,1.14578857465052,-0.4371524206698458,0.44594967655957873,-0.04024687054797864,0.9611978129441848
147,1.2462250683868992,1.590287735848869,0,0,1.5506735388561128,1.3010490621002502,-0.6032294437563672,0.7264099440926044,0.48992596596332805,0.7827210756226395
148,1.170911708699944,1.7057759983707725,0,0,0.45227067578110025,0.38772102838785577,-0.0787792579580892,0.3353449060200106,0.31605986520948565,-0.17314134108975818
149,1.1039446725744064,1.8344696166678083,0,0,-0.1882066231568308,-0.11886786639878406,0.14585373473695784,0.44676374812221503,0.12477951041738122,-0.6140986926181299
150,1.0512493257806943,1.9635864998244434,0,0,-0.046481566380454184,0.06931185972140369,-0.14164391832091147,1.4164969236998664,-0.09624688118241219,-0.17552455104262013
151,1.015350667496094,2.0774721042769695,0,0,0.3129782677936662,0.4162417328570713,-0.34549059967678464,2.2647063912344296,0.2069972882588432,0.5884164645432649
152,0.9954675919609017,2.160346575176497,0,0,1.0295786569609289,1.0235623270532777,-0.41212835874053183,2.9135859946468208,1.3701788589253674,1.8860421195465022
153,0.9882723942015996,2.199291934411856,0,0,1.2586918403149725,1.305315959734328,-0.3086497932118306,2.907293526556077,1.329287482690252,2.2202022990752335
154,0.989048999441596,2.186732925083601,0,0,0.6992670881981737,1.0604467467884469,0.07000148251387381,1.841223433806465,-0.659259514310857,0.9959029579958155
155,0.9928969822989336,2.12181348464127,0,0,0.3378204272547399,0.9113041420633459,0.19950317613913116,1.4136846025090188,-1.4731571750033179,0.3263294696449138
156,0.9956943265820056,2.0104133048853963,0,0,0.32482372463794823,0.9306444862631224,-0.1095091128066503,2.1099882605213325,-0.21962147110790683,0.6330973472875545
157,0.9946814523433859,1.8639166039480648,0,0,0.3503848216615384,0.9209972873745678,-0.22574873825232755,2.0668536643883355,0.4257864160236816,0.7298273297577582
158,0.9886654872297261,1.6971010830945756,0,0,0.43627728960156675,0.8659932934989281,-0.040357068397272794,0.8667203813543175,0.11965699664894383,0.4979111170578766
159,0.9779198637181775,1.5256413225636436,0,0,0.47511504139552835,0.8045809963706805,0.03912788582344392,0.10619974210362404,-0.23430361858525203,0.36961433476956906
160,0.9638804253911681,1.3637536482804586,0,0,0.4372879041915028,0.7327278358018693,-0.053937910745484055,0.061927276266835245,-0.6661942197733766,0.41014169543763446
161,0.948740646683922,1.2224461375313551,0,0,0.4291501053597219,0.7044117434145148,-0.0881494928297929,0.17133156690773213,-0.9287120138835203,0.41019628384074286
162,0.9350369225464442,1.1086614558080095,0,0,0.46759818193334257,0.7444101553903195,-0.0300122636727963,0.5218717872941085,-0.9254650268988956,0.34674458924450746
163,0.9252912713164653,1.0253554094183401,0,0,0.5004071376010597,0.7728092402497893,0.002408686949146729,0.7459516948487449,-0.8764273812978767,0.31797235920860834
164,0.9217461143939502,0.9723332658102655,0,0,0.5254535547801767,0.7852412579251191,-0.0005701353348502016,0.7959525125409688,-0.7643565521112087,0.3369381860939238
165,0.9261928704985504,0.9475355598140401,0,0,0.5520715304381845,0.7904706692447374,0.006767211611860171,0.885277784082743,-0.5928569167714516,0.36757035412383793
166,0.9398728950546716,0.9484309106129988,0,0,0.5809251296414003,0.7854539992001385,0.028779844732982268,1.0305441323922047,-0.3368167199229724,0.41479849798901075
167,0.9634205583943612,0.9732056065743175,0,0,0.6108113505141156,0.794839157406317,0.03282307313567992,1.1819286568732414,-0.12885921914177348,0.4282832948196826
168,0.9968222650729734,1.021508067835857,0,0,0.6422125626450979,0.82535368330167,0.010502832101039243,1.3422893471945383,0.008554671543353936,0.39226218358302933
169,1.039377277641245,1.0945952488580044,0,0,0.6262872542537831,0.852591666701861,0.00017939311145400086,1.375521076918229,0.26612247091547087,0.35956946237522247
170,1.0896619563174594,1.1948354504182654,0,0,0.5420122377935663,0.875097615596456,0.007181925080346386,1.225151154507109,0.6972184412204953,0.331683654720557
171,1.145514463845282,1.3246480933115163,0,0,0.493818540457983,0.9342945892434568,0.032477262410313394,0.9046713643480214,0.9939249976229739,0.23038358713648782
172,1.2040668422958547,1.485096014585925,0,0,0.4968800836665545,1.0456129196263189,0.0837584052640127,0.34254236532515114,1.0997249603456865,0.02479504965772048
173,1.2618501030809326,1.6744645165884562,0,0,0.45372281962840094,1.1595136273853501,0.0820507895619422,0.04283867404782274,0.9720732792846405,-0.17085125755993918
174,1.3149844403894027,1.887225649783232,0,0,0.34661720534601853,1.2769873132000635,0.007027917837145261,0.1062266858656222,0.5214178609558484,-0.35274149359474344
175,1.359446792096054,2.1137532452836756,0,0,0.34225811742801054,1.3337697231279624,-0.00427153579897813,-0.2657214128174499,0.8509725626164747,-0.6553406591950612
176,1.3913906473220226,2.340993127553794,0,0,0.4775446857195419,1.3080649350178506,0.07103727707314948,-1.2293469027065898,2.240932495530661,-1.1219986806949946
177,1.4074835867456381,2.5540180908405326,0,0,0.5746752564957699,1.2781223447799728,0.14711098255801472,-2.1120760381125643,2.448453039337592,-1.5429289510348303
178,1.4052260934690717,2.7381003516297926,0,0,0.6210886975144614,1.242546848348008,0.2242013865852918,-2.887277359586846,1.0842696455234513,-1.9030776802694096
179,1.383217137814114,2.8807579805634296,0,0,0.6859548043189173,1.2406238093312179,0.07713139362741298,-3.089427779315488,0.8273800084956326,-1.5778269685867337
180,1.341335363166816,2.97327130739607,0,0,0.7747158562996918,1.2822784100361977,-0.36021104236782986,-2.549516321615228,2.004360349933694,-0.3650306743492007
181,1.28081113847155,3.011391871206844,0,0,0.7922843193996781,1.1082588190645435,-0.3664768533386982,-1.3130315088277866,2.3990373175343342,-0.17409003994622058
182,1.2041803678939333,2.995258686015718,0,0,0.7203314615390124,0.6630391092135938,0.16931584947847672,0.7993614296606031,1.8100047095923262,-1.2680846768430467
183,1.1151383322299158,2.9287677615886847,0,0,0.5143845985232353,0.5641217030134995,0.3955268866380929,0.8349930461644306,1.1314985752519173,-1.7594738557969325
184,1.0183386921554183,2.8187336503268594,0,0,0.15310518244071306,0.8666552511453548,0.26285536953044075,-1.5368609508828204,0.3492702555291814,-1.552292641197513
185,0.9191856241963848,2.674120582139906,0,0,0.1445127987943856,0.9542897991206654,0.1326623779011652,-2.760251333064145,-0.3159669190458507,-1.3477274012941305
186,0.8236353220317134,2.505450775330046,0,0,0.562277683086352,0.7821366539927714,0.005465632752727095,-2.5952838697080236,-0.8397755179552865,-1.1463245677429605
187,0.7379755811449591,2.32431109964064,0,0,0.729923476920247,0.6374227699347527,-0.04279744438010151,-2.4136461349907035,-1.0258612284726014,-1.0499536841352939
188,0.6685224542165424,2.142774139233412,0,0,0.6176664689341556,0.5234155621830588,-0.0027275805971456336,-2.2133530636806884,-0.834008643436699,-1.0711217576478385
189,0.6211818544288731,1.9725740700983931,0,0,0.5160053553728932,0.45182815489354206,0.02166446027135379,-1.8313287915174723,-0.6477370061014389,-1.043315334057546
190,0.6008683061737858,1.8240080430161458,0,0,0.42563602619096846,0.4254464873882813,0.029349030206971664,-1.255638039654178,-0.46741284740271144,-0.9633179912320147
191,0.6108330797619289,1.7047029538577265,0,0,0.3910032120936791,0.4030111902656036,0.04641564832651794,-0.7133724389109121,-0.4655955035954458,-0.8087474077694409
192,0.6520071702280302,1.6185249311107477,0,0,0.42006259170307025,0.3850855577710888,0.07420348260241685,-0.20930300622515724,-0.6677645517326544,-0.5689592027298526
193,0.7224962874200447,1.5649593286326657,0,0,0.38064967314189196,0.3556373548627762,0.12457390247756106,0.3084243183286914,-0.8056860107196651,-0.30655240844023723
194,0.8173703416901006,1.5392236769837253,0,0,0.272395167702603,0.3146044373204481,0.1976487017002173,0.8398831960693276,-0.8790133770640572,-0.02140503664415725
195,0.9288673338579194,1.533205999494418,0,0,0.18205763104684117,0.3642871109538198,0.31472233805781924,1.2990049591022792,-0.973993275144161,0.3436787305628655
196,1.0470763927383973,1.537099624356465,0,0,0.1114676458165014,0.5139538186678004,0.4802901879140719,1.6783989005933553,-1.0928379516589395,0.7968660225295676
197,1.1610719678919716,1.5414115153384105,0,0,0.1482189926050147,0.9347345491205515,0.7135935279166598,1.3667206793093147,-1.2331773302932392,0.902529343062748
198,1.2603490483906663,1.5389247284800314,0,0,0.2996100474262235,1.6450629469261688,1.019237844083003,0.3169827614107935,-1.3964728832433388,0.6370397633281069
199,1.3362926101501509,1.5262224780310543,0,0,0.3912833753494436,1.8008093275243102,1.1210513668788546,-0.6757249306334766,-1.2861448251518253,-0.021839494651608716
200,1.3833613148153356,1.5044948061623666,0,0,0.423335823277922,1.4028730834980474,1.0193646584589569,-1.6114948824604247,-0.9026369052979013,-1.0734704493336054
201,1.3997241526668331,1.479481820908046,0,0,0.3380229350691324,0.9829524943679389,0.7380400915464767,-1.6298630617958334,-0.9646980271556465,-1.0569282138177807
202,1.3872511036761972,1.4605263061508733,0,0,0.13125838326122655,0.5402821270840715,0.27082318618893936,-0.698888147171029,-1.4878416380785386,0.06497796553265607
203,1.3509456418667147,1.4588340313855193,0,0,0.5327313750531354,0.7024821017580652,-0.09725876704684892,-0.33664628360546117,-0.7975986992174241,0.6716946308964321
204,1.2980157486275372,1.4851916060403572,0,0,1.513501959245581,1.4407726783411805,-0.3709226112743664,-0.5160771431337812,1.0482978395197793,0.7877345082749062
205,1.2367690460251937,1.5475350403031773,0,0,1.513985914726726,1.324595856197593,-0.35818771878393474,-0.4340162894620626,1.2441253971291641,0.43767371429987534
206,1.1754488171755948,1.6488388105318357,0,0,0.5498426987893994,0.36760121056464673,-0.06362912782877884,-0.09464088715124672,-0.1837572213307781,-0.37104208727298266
207,1.1211079503178973,1.7857771927461106,0,0,0.20295312401194995,0.038346970635262094,-0.0303782341039109,0.5524377617833126,-0.4012189852414669,-0.41507409232714226
208,1.0786751592346215,1.9484943579211111,0,0,0.4583950563555009,0.3216574844112804,-0.2521179126644119,1.4997809190444311,0.5624781284975718,0.2870914351833773
209,1.0504123685967195,2.1216062221265464,0,0,0.7368333728099672,0.5633171217430432,-0.3082638106149647,2.0939351056621422,1.0731353246304585,0.8610766084012912
210,1.0358982878183622,2.286276427198338,0,0,1.0395112917580243,0.761074176155678,-0.18986368776576343,2.3158064139028363,1.106260608073333,1.2999518121541744
211,1.032516508959976,2.4229542210911377,0,0,1.0544782025369561,0.8595501279601501,-0.1604438580897945,2.4072848694712694,0.41307245777513324,1.3322491941306867
212,1.0362784493211137,2.5142353669905457,0,0,0.8007824895902895,0.8653180469231855,-0.21411323378510425,2.377003347169756,-0.958342338637195,0.9848869132674734
213,1.0427514209673732,2.5473362814219978,0,0,0.5487497074955188,0.9349661069738208,-0.1845851413327888,2.558041574948471,-0.9059694789589504,0.8164992528059659
214,1.0478931048273314,2.51580163378266,0,0,0.2981431403898968,1.0594010317721463,-0.0837026597308627,2.9203183907797063,0.36751624449295933,0.8016093495764672
215,1.0486691699027115,2.4202256210256823,0,0,0.16390663488025414,1.1004745055992509,0.0766608323200624,2.6564049544946795,1.0597749137414727,0.837920236553639
216,1.0434044200781758,2.2679271338950544,0,0,0.13076628025999573,1.0691279624548204,0.2886982787073762,1.848490565348636,1.2470942784738264,0.9187116605240727
217,1.0318706945343121,2.0716848338795746,0,0,0.17193647581069352,0.9919860288683645,0.2642814062357089,1.2091953807205107,0.7068344606092569,0.9006707425710823
218,1.0151503625601987,1.8478045433291308,0,0,0.2796301802638928,0.8738476275914476,0.028188386320834563,0.7208497052929663,-0.4847611384285921,0.7941541753481453
219,0.9953395116063138,1.613914724486581,0,0,0.36779762609267624,0.8129649655524367,-0.04489370079727212,0.4030868063515725,-1.022324034481603,0.6748184212291328
220,0.9751686680424028,1.3869113330997185,0,0,0.4389910107480458,0.8018543785318106,0.023728650228402974,0.23361050511940537,-0.9913401758455194,0.5443390242522038
221,0.9576157291418258,1.1813876310553437,0,0,0.46554559311286337,0.7973513707882638,0.028123799051271558,0.21643330689071402,-0.8197877102010752,0.46723846043420847
222,0.9455657794307624,1.0087314707251278,0,0,0.45420396603426455,0.7984578820127308,-0.02200687683678303,0.3285507674438071,-0.5288992158818459,0.4354539744291227
223,0.9415440001555503,0.8769129552489707,0,0,0.4880340632857743,0.8215311804092634,-0.02473011817213867,0.517330331127654,-0.36109234716636,0.41270927349931935
224,0.9475216040981178,0.7908519796189449,0,0,0.5580726806846935,0.8622125039261775,0.01054724971729144,0.7675603123817699,-0.2919446187313471,0.3972106372510892
225,0.9647775945898619,0.753152010007369,0,0,0.5944078849630642,0.8576353268986195,0.028824104031907608,1.02100018298638,-0.24813616499275704,0.39966404546044565
226,0.9937944245518272,0.7649179700346621,0,0,0.602563927549603,0.8152178693463423,0.03288696111254509,1.2771238174580677,-0.2255136818128264,0.41712701850586004
227,1.034173996481728,0.8263617077254046,0,0,0.5576818294833711,0.8257591409269416,0.008081701997514552,1.2757045739218484,0.24876873792164905,0.39184496765803967
228,1.0845778237086396,0.9369600351336543,0,0,0.4660654386179016,0.8829647323432768,-0.04216055355418514,1.0473527087892822,1.1210290551933402,0.3288983524147124
229,1.1427118260317524,1.0950718399686694,0,0,0.4478647293693741,0.9853299690830569,-0.008770538477333657,0.6551151207548666,1.0970587994462142,0.20660470799930677
230,1.2053818729118329,1.2971188088539047,0,0,0.4834962023357976,1.1208085981566913,0.08594299139332492,0.14270802733656027,0.41592584386441994,0.040794746175168185
231,1.2686375516557713,1.5366357066216454,0,0,0.442096233207272,1.2090462779895208,0.05366305871177386,-0.02584161402471267,0.326407897365286,-0.21779288397661387
232,1.3280049419846076,1.803620552937638,0,0,0.34202610146078744,1.2613034012029696,-0.07534006768689502,0.06750404409871809,0.6874871071542604,-0.5470436194681606
233,1.3787944151287033,2.0845826482639214,0,0,0.3743115400982883,1.2901795620664016,-0.02419119195005942,-0.6641572065182457,1.0531183858093718,-0.9181047298142464
234,1.4164616165906803,2.363476132370112,0,0,0.5039248976758274,1.3018624879632312,0.15943279916934938,-2.0024888459641437,1.4220970359240086,-1.3199111773864265
235,1.436996019724728,2.623392544105262,0,0,0.5789100921529807,1.2828991655646962,0.21139967880706032,-2.8402531462210114,1.1579641617179093,-1.725058827659124
236,1.4373066742465872,2.8486048408320666,0,0,0.6144294557002467,1.2417956214152261,0.16825156667799185,-3.316385187979592,0.4364431786326276,-2.1326203112581914
237,1.415567435664561,3.026433156060437,0,0,0.7899981167068029,1.241229830520896,-0.05919181321657509,-3.0085551929759813,1.0479669251458554,-1.41154817971139
238,1.3714764850029857,3.1484887923314244,0,0,1.0668166904451493,1.2699711767750126,-0.41987313229306844,-2.133952717856194,2.6232274754571745,0.12547988278965083
239,1.3063838632614022,3.2110978844976312,0,0,0.993613156205463,1.0075508142824272,-0.18771802791544515,-0.5532667705958136,2.581225704066649,-0.21878229195747784
240,1.223256745542023,3.21499091518652,0,0,0.7022783848552687,0.5636805880549777,0.41388843265249525,1.4674452728999519,1.5313577927286819,-1.7354508874551966
241,1.126489750515306,3.1645466254849834,0,0,0.4048728270972506,0.5929598815548572,0.4899461267498519,0.5788517427248848,0.7243547163510775,-2.0904502149830826
242,1.0216093323601885,3.066929532013415,0,0,0.10376198475409626,0.9110244917675903,0.2452367889162274,-2.085427264522512,0.06558342788983061,-1.7364283684691375
243,0.9149353262360825,2.9313603581031655,0,0,0.19905599872864388,0.9428342526911595,0.06943942185146719,-3.023974095158538,-0.5975624499493455,-1.4915556051740793
244,0.8132356648428918,2.76856967167467,0,0,0.5532351783888342,0.7876959153683383,-0.06135272752545981,-2.835475047035547,-1.2635652975957574,-1.3179662226835522
245,0.7233645672919414,2.590306258231215,0,0,0.6283210624770977,0.6581151339505049,-0.0809676514589016,-2.5537550479460847,-1.3472087536746857,-1.2687515597597994
246,0.6518465403493762,2.4086981444692026,0,0,0.520707451547735,0.5452647883521082,-0.027803962377690943,-2.2110109355647736,-1.0496292692569313,-1.300954826994054
247,0.6043777064996556,2.235331488894635,0,0,0.4494821299500307,0.44841619556556245,0.011184013750534348,-1.7520998472910874,-0.9001865193524899,-1.1396771082682036
248,0.5852560557915539,2.080077723252459,0,0,0.4013911556921104,0.36174093359576265,0.04115958855788048,-1.2193340314698629,-0.8449237031034982,-0.855391234045822
249,0.5968023049787403,1.949876845682665,0,0,0.3999836670047505,0.3341424942465779,0.07444127276258497,-0.6801326135457295,-0.9185846816481624,-0.607901764889728
250,0.6388720772252338,1.8477960943686715,0,0,0.4247981005992365,0.3397272638078607,0.10957998496790236,-0.13731634564454773,-1.0646616265074595,-0.3810806860684421
251,0.7085762573718251,1.7726816637693792,0,0,0.35498122634167284,0.31628125100363325,0.17527424051651738,0.464499471862509,-1.1265826168605495,-0.09635784665489101
252,0.8003175442702418,1.71959968393807,0,0,0.22679127308269673,0.27492767471688506,0.2598166045016915,1.1027090107594573,-1.136592223190744,0.22408154532322244
253,0.9062178149443112,1.6810565366686172,0,0,0.15888271931226605,0.39602686219782385,0.3724046516488825,1.5337359240896908,-1.1972225640279057,0.5910931555738773
254,1.016949579320693,1.648766815843325,0,0,0.1274488388858093,0.6154219014648028,0.5019623967284101,1.839402135064846,-1.2884821665932882,0.9862843782209091
255,1.1228932168478565,1.6155803155055732,0,0,0.33123484133812514,1.1067445202461172,0.6918829364132343,1.2029407087000281,-1.3263766898942386,0.9147141453020544
256,1.2154334517388585,1.5771454055441343,0,0,0.6749778706332502,1.7598654314579627,0.9177196456021851,0.005908545201291858,-1.3325187193626846,0.5654184711433384
257,1.2881240300926755,1.5329759287689202,0,0,0.5632926525259833,1.6427357298804344,0.9930833960995561,-0.9679299989122145,-1.094678461191295,-0.16713654956439017
258,1.3374449190828623,1.4867400896874434,0,0,0.18690115214807998,1.0779171173931912,0.9809885016296506,-1.8120428336101624,-0.7150295980507532,-1.1224514842727282
259,1.3629835566850819,1.44572759869594,0,0,-0.06245088008713901,0.7024297887230884,0.71637053808179,-1.428121360914816,-0.9443404084953014,-0.8070264176800189
260,1.3670559900398582,1.4195562303302336,0,0,-0.24466579304514782,0.42699921539998,0.3183005703069861,-0.3952150662188138,-1.4954708807376127,0.17995234114137573
261,1.3539488203784018,1.4182875697658552,0,0,0.3866198257432129,0.864373435004647,-0.009563631506707145,0.20549929906497835,-0.6497504208852161,0.5268460019646285
262,1.3290175069286123,1.4502521501278023,0,0,1.4712880237714827,1.6990101797319415,-0.2983005436186791,0.5653431505952201,0.9744672292252751,0.5170054988372988
263,1.2978106178359403,1.5199911460848,0,0,1.278037955742162,1.1734781194825832,0.07604211705243531,0.36430778681573167,0.3899247823027494,-0.020099101637153054
264,1.2652882761452946,1.6267401103905725,0,0,0.3642397086245554,-0.11897869699828968,0.8242590626398845,-0.15297667336631987,-1.440016613402073,-0.8544990721716792
265,1.2351693678565456,1.7637888408088644,0,0,0.19545873459369614,-0.19554617024847917,0.4420512117287188,0.22473875270278523,-1.2623374979992217,-0.3694705512913391
266,1.2094887900464628,1.9188839814731828,0,0,0.37563744962249546,0.2973984774999239,-0.46963790154303703,1.0216644360002398,-0.1443061849359403,0.7335669388379844
267,1.1884828614120075,2.07564972671152,0,0,0.8192093286872164,0.6680403455320388,-0.5390947195016003,1.3997585788592546,0.7915830411486592,1.2911132155518719
268,1.170863756655925,2.215820537178553,0,0,1.390216118489144,0.9795096691349595,-0.20106261317516647,1.5752135987578826,1.6393482628264515,1.5847398721416985
269,1.1544106087081147,2.321923110789117,0,0,1.2460631021134991,0.985473672792095,-0.10493413674839315,1.9091692605033115,0.30856075443712694,1.274037094207631
270,1.1366915989849773,2.3799382841068284,0,0,0.764540380314069,0.847318503340972,-0.12292135291714924,2.3178960627558416,-2.04993788225943,0.6782477646629885
271,1.115713639121139,2.381452558269104,0,0,0.4691648037210221,0.9075350290156012,-0.10559464259952725,2.629056280090261,-1.78189006905287,0.6730122437449679
272,1.0903677631896187,2.3248893320473476,0,0,0.2651990647054739,1.065164406489332,-0.07092659594847257,2.8923052294959617,-0.2240444338826551,0.9577754078103521
273,1.0606333101568661,2.2155836369673874,0,0,0.20907179122376385,1.0779445538530457,0.08491726675264533,2.2108357385638575,0.38785495765584377,0.9629934286881822
274,1.0275663925075271,2.06470915761359,0,0,0.22325027427629174,1.0218404992652361,0.2983872515655563,1.0800978880056467,0.5499020999795007,0.835271536197651
275,0.9931212000585061,1.8873301705212682,0,0,0.299432100611723,0.9014263600689012,0.21963584929142863,0.506992487860158,-0.20356918417423736,0.7476260245522722
276,0.9598593033287021,1.700044622024142,0,0,0.40533290064294003,0.7501875973348286,0.000819101451223587,0.20116725665166113,-1.3958598380045684,0.6791896206540281
277,0.9306079521608304,1.5187302056005394,0,0,0.44219149791230566,0.6944546888785995,-0.07547590950641628,0.1524579456299321,-1.3466396295439926,0.5177594512295112
278,0.9081303257496044,1.3568012713079762,0,0,0.4470903641125927,0.6829315723596286,-0.08579741150737914,0.22276794917322273,-0.7227223288908208,0.3132823397155873
279,0.8948594402194218,1.2242061026191824,0,0,0.4648620575714082,0.7316354486864274,-0.05950917524933939,0.5857970742565163,-0.32774480761714564,0.2777926710003704
280,0.8927212497313581,1.1272184222638333,0,0,0.48808303141740317,0.8058344057448615,-0.01772343217478977,1.072739037995925,-0.029681275031675388,0.31383817741204795
281,0.9030402233146201,1.068923385457763,0,0,0.5099540124075732,0.851611282027131,0.041536621941031505,1.2892279554621675,0.011262067852618662,0.4150558480728277
282,0.9264956873101351,1.050159879722129,0,0,0.5311624544595266,0.8834393907719136,0.10937258259577694,1.3729860318445732,-0.07398203515361484,0.5482582066188209
283,0.963089760122696,1.070580242375687,0,0,0.517036880487549,0.8614639542194082,0.135474149692392,1.5245807460657792,-0.29352891709396256,0.5177989676484173
284,1.0121002141556181,1.129469247123191,0,0,0.48772839743848584,0.8163693133361131,0.14364258681769596,1.7053246378573093,-0.5707852562301656,0.417014884992266
285,1.0720173406455578,1.2260466818056075,0,0,0.4373778290532783,0.8833545831514648,0.10801090334307951,1.3504057756199082,0.2716774522518096,0.368235182004343
286,1.1404894595338166,1.3591446256819473,0,0,0.3781972120402306,0.997372789828972,0.05399904547735701,0.7707027185704171,1.5840162955257706,0.3412784686146118
287,1.2143139091958506,1.5263605878553315,0,0,0.40133528394639356,1.1271064916303624,0.07309711359043147,0.22669310587152497,0.9459635955828976,0.13087005450489456
288,1.289504345322494,1.7229876834993532,0,0,0.4582980828853276,1.2632976863272982,0.12223603053018245,-0.30265008105434266,-0.49350446257387726,-0.154918614106556
289,1.3614475452156527,1.941150465224085,0,0,0.4779340048495161,1.2925706235558594,0.043809731646177366,-0.6246028264086044,0.04918362677722377,-0.5083864683128356
290,1.4251461145372364,2.169566708931898,0,0,0.48411746130913136,1.2833106245320154,-0.08059058937935716,-0.8718128399068256,1.3062333073856924,-0.8862456456502978
291,1.4755357517420302,2.3941811771084516,0,0,0.5660251427915771,1.2656252229935918,0.013326956583608728,-1.6362636514725262,1.2644872984189832,-1.4071528773036843
292,1.5078645697361774,2.599624819816354,0,0,0.6757522800005183,1.2448445093436882,0.18744980350760299,-2.5907376352038054,0.7455916138562934,-1.9806128944543033
293,1.518117554062537,2.771164183109121,0,0,0.7041261452199854,1.3461139122879588,0.016527379435395093,-2.9580096671759804,0.7126465720359053,-1.8977961483592514
294,1.5034549348982837,2.896647186017862,0,0,0.7039118942859331,1.4902725911359378,-0.27564639791682477,-3.1189347733111084,0.8504680291800055,-1.5843590975447104
295,1.4626136370962286,2.9679792669321405,0,0,1.0180589361188292,1.0727527269256796,0.12486523207091503,-2.042825779188975,1.8934833992535938,-0.9975810395876016
296,1.3962095189364527,2.9818450594933865,0,0,1.439348836373043,0.4637975750156789,0.7614628435222552,-0.545101998480985,3.245013416580222,-0.3176409489331333
297,1.3068869753080679,2.93963473516124,0,0,1.0448885256817324,0.47468097708832885,0.4520543061383148,-0.650626679800136,2.467747885182779,-0.6112472289812176
298,1.199292936456925,2.8467471490351284,0,0,0.3585914954731964,0.7073132033301287,-0.1957903448345127,-1.3297175890475232,0.9289003143183042,-1.2531422072493705
299,1.079889966888343,2.711564766119333,0,0,0.3396674949585036,0.7550532907321319,0.18133736855486907,-1.2838999812715672,1.0360448648022875,-1.4587341735357169
300,0.9566412227191305,2.544404147642549,0,0,0.5653806594216523,0.7350179561130241,0.9341864876092213,-0.972354577363863,1.7465563899872305,-1.504391699188781
301,0.8385801166999551,2.3566454739396567,0,0,0.6066923456518687,0.7400673140012726,0.5341152333157929,-1.6880372440864175,0.6608246879114232,-1.1474072919180769
302,0.7352374579983892,2.1600792028856532,0,0,0.5860676981225159,0.7535420592852926,-0.2531961988537524,-2.748742854832567,-1.0282249567958874,-0.6551844607964985
303,0.6558851189435434,1.9663551108149884,0,0,0.49940121235566165,0.5731387605960121,-0.27599341830816854,-2.6079967467638667,-1.018872357335098,-0.5693989117205609
304,0.6085969625177367,1.7863548012963233,0,0,0.39084070900781775,0.3284615195987924,-0.04534088491332613,-2.068948506178344,-0.446469886612877,-0.6183543876521038
305,0.5992084448881005,1.629374220515153,0,0,0.38088030608148454,0.23796072683526812,0.008701341127435456,-1.2646816458485526,-0.2790534426960687,-0.4146382386714529
306,0.6303341483515319,1.5021777396326825,0,0,0.4002264950711583,0.193285305923299,0.010250251330849343,-0.38158470666409594,-0.2320096981356695,-0.1358213126876114
307,0.7006434569858511,1.4081776673068092,0,0,0.36189410834143626,0.24453784974239723,0.04865013028054827,0.20411904538514283,-0.3782036805088336,0.054045718607565234
308,0.8045863152017146,1.347078774070643,0,0,0.30546791888171776,0.3258830518833274,0.09861017951777036,0.6965303801566368,-0.5850164501078655,0.21600911572400847
309,0.9327079329235762,1.3152355978549288,0,0,0.18798571839299047,0.34363417651717165,0.278131287902632,1.202433847624176,-0.757355932360192,0.26235522599981514
310,1.072601786088516,1.3067382778027465,0,0,0.051233002992554906,0.34131372122174125,0.49854449312689203,1.7125957064557717,-0.918814946597851,0.27221017697905203
311,1.2104289200360319,1.3149910750091942,0,0,0.04911216090634789,0.9904264817481242,0.9121653499311135,1.129429532307345,-1.0208182856220474,0.4056890569575326
312,1.3327881882441799,1.3343960122469196,0,0,0.08334800550579176,1.8154556339779304,1.377960999408942,0.25101540687311985,-1.1067659069586944,0.5725519815201401
313,1.4285924280403002,1.3617431088618495,0,0,0.3614626842351584,1.8024291991163566,1.28925317657283,-0.891325264318635,-1.1409277779762417,-0.06425564006566657
314,1.490555227199648,1.396991976945514,0,0,0.7098167795646253,1.5480348071363688,1.0408430950155068,-2.1096792814513643,-1.160174861700606,-0.9325279996177326
315,1.5159763259763788,1.4432408211070964,0,0,0.5798311932488375,0.8386574377470598,0.8149925497255415,-1.769265166309161,-1.1155437230229412,-0.6670911546898003
316,1.5067142580263526,1.5058072719803652,0,0,0.32856976515007347,0.01392596720901502,0.59486163565724,-1.0336488035220237,-1.0547172204416557,-0.11421936895651626
317,1.4684547973428255,1.5905240473085998,0,0,0.9304121781130138,0.7023267579998185,0.361162778731617,-0.8394795225135504,-0.16692303074528256,0.41687131575062303
318,1.4095108255800672,1.701571594872862,0,0,1.7616208290696145,1.7975495990756796,0.12381603248732943,-0.7908841719791613,0.9432104085488949,0.9421059158439715
319,1.3393893598221105,1.839345648544186,0,0,1.153890398402329,1.16779306587108,-0.11429310554251791,-0.6600190016883426,0.7174853237280455,0.9206330532118151
320,1.2673102191252974,1.99890878661214,0,0,0.2199783274444544,0.1470146965753215,-0.35257506417853707,-0.5105047411432931,0.1889451093550896,0.7752314300633035
321,1.2008584268068938,2.1694914160815624,0,0,0.07202292480969005,0.08718062968862167,-0.3978332310385824,0.5635276768360918,0.26857036664041267,0.4263255590656755
322,1.1449990029330444,2.3353166000960455,0,0,0.11108854282523918,0.2560064766163326,-0.3971607403748253,1.8575522832969118,0.49291063370028365,0.028995171698678095
323,1.1016759724524414,2.4777388153544213,0,0,0.5681571392869553,0.689209749851365,-0.3580337227639918,2.4763186168312687,0.9863154181671007,0.8674284428696459
324,1.0700850198752616,2.5783399949268966,0,0,1.1225953847916417,1.1839971232864313,-0.30994910440839546,2.937790233456268,1.5423961143159324,1.9937206040520985
325,1.0474992345715552,2.622316602447393,0,0,0.9936493294486468,1.2409512247630812,0.01357795853071641,2.9861233151686895,-0.6574049962311076,1.4725635638141237
326,1.0303584712346805,2.6013527243200105,0,0,0.7268969331782654,1.20961503183296,0.39264875496725943,2.9511458647331015,-3.412937322288478,0.6191938197209969
327,1.0152922585376023,2.515281125573111,0,0,0.4672496672212448,1.0328979219446286,0.29499877406400554,2.31597713551539,-1.476847867801257,0.26972843908288924
328,0.9998366480592302,2.3721575233830574,0,0,0.20913986363134482,0.8247221892381815,0.09419234339563567,1.5509344759424717,1.4744502132933257,0.02930169916720412
329,0.982760481553686,2.1868019932536593,0,0,0.24730440250185967,0.7621015064096981,0.05549203815592502,1.1442898677646425,0.9571180530041087,0.25763503507482943
330,0.964054505109171,1.9782457398145832,0,0,0.34785189573225467,0.7301286141401865,0.05092448606829008,0.813108861623997,-0.2905622038338265,0.5846695890856193
331,0.9447080174054664,1.7667300777491792,0,0,0.38179057063111244,0.7746571754274829,0.056523929254616405,0.7239570519035279,-0.813137419093337,0.7073145598786659
332,0.9263991014480316,1.5708904374586752,0,0,0.4025682656293373,0.8343013644688384,0.0641322299037462,0.6826268591025432,-1.1924419218853208,0.7895749800716328
333,0.9111841229639716,1.4055788733579753,0,0,0.41074131340184505,0.8393245454800747,0.05016709843867439,0.5707135832220797,-1.0713725039922082,0.6392791531648612
334,0.9012242933193209,1.280546943247917,0,0,0.41646850822705167,0.8337488615489743,0.03201577741336791,0.44510410154619817,-0.8532086566837502,0.4438572411446403
335,0.898553616070052,1.2000219356345359,0,0,0.4499468747162632,0.8042727511421307,0.029776980415433696,0.64863430599615,-0.7124734727384491,0.3874225992801999
336,0.9048789999786353,1.1630929191673487,0,0,0.4893809606309991,0.7696673353520963,0.030953193447891617,0.9228016588986361,-0.5883553676104829,0.3608162186002158
337,0.921404531240312,1.164753257221569,0,0,0.4934838411082196,0.7789366027423343,0.03691821692640188,0.9871960869893117,-0.47445863478100814,0.4007627776853074
338,0.948679566751908,1.1973918768569136,0,0,0.4914221481533718,0.7958611058857005,0.04371878998895056,1.0149894260189485,-0.3623453223898981,0.45232146496848497
339,0.9864780285509335,1.2524807920187158,0,0,0.5484774045812785,0.8148162531598914,0.11335660258499762,1.30516018067519,-0.5432526462367393,0.3943940979110857
340,1.0337210249307018,1.322180579238922,0,0,0.6145254873865521,0.8340803005131995,0.19255316933165983,1.6352435926865097,-0.7687340513370139,0.3198117936988221
341,1.0884566410878587,1.4005889483909129,0,0,0.5893499401445487,0.8865508057552274,0.07513066137902813,1.5966196130084822,0.3723310108170258,0.2130326933681686
342,1.1479109519369532,1.4844022685343488,0,0,0.55077252529603,0.9438997459487776,-0.0711775946670096,1.503828005307735,1.7141584708052122,0.10152348985363645
343,1.2086236237768617,1.5728576537139565,0,0,0.5005867273726097,0.9986854142854833,0.024735625487166117,0.6429188342208789,1.7619140857405688,0.10516678027504897
344,1.2666774320146696,1.6669741448621107,0,0,0.4486007536272973,1.0530735818357633,0.15821146414833678,-0.33710655732361045,1.608990850708737,0.1266674022842176
345,1.3180190646375063,1.7682944759871082,0,0,0.36973595569486517,1.2407634844170865,0.034200357927269165,-0.5545330295776738,0.5649593523467993,0.013308189919431923
346,1.3588464886288736,1.8774935573863754,0,0,0.28734113536428085,1.44596003455687,-0.12362676084782213,-0.6718066400818106,-0.5961022676039479,-0.1177622965986188
347,1.386010891238231,1.9932910273657076,0,0,0.33629189708097385,1.469511088294637,-0.09080248018191743,-1.0677926884108606,-0.1365613036081094,-0.65267428938571
348,1.3973613870295922,2.1120225887143675,0,0,0.40375920500379003,1.4674545260608833,-0.03110096930483836,-1.5030704408171658,0.551445377738086,-1.2445181546069233
349,1.3919614699639113,2.2279978129409805,0,0,0.597540551772387,1.30429114256371,0.07562349888832728,-1.9308367810942526,0.7190394264798946,-1.557030572593652
350,1.3701309121169096,2.334491796673561,0,0,0.8072543005324946,1.1208068297219926,0.1882791261034794,-2.357655681670397,0.8209921296155983,-1.8343100021370005
351,1.3333059290776672,2.425005727390866,0,0,0.9109463003269288,1.0320780563763485,0.049000690514055444,-2.435100263317309,1.3960583801986566,-1.113814000074951
352,1.2837497349419598,2.49436942340637,0,0,1.000790015567865,0.9557260046695829,-0.12318471641242533,-2.4669104814945855,2.032921491020081,-0.26299116872423883
353,1.2241769166139083,2.539357055907707,0,0,0.9021663899791098,0.6537862291771546,0.03051932865252765,-1.3031523987126639,2.1467168047372307,-0.6982449063044401
354,1.1573779423703077,2.5586939975403733,0,0,0.7745836250337085,0.31718354411131056,0.23429824614798772,0.04431193825757938,2.180139609185653,-1.3311120358828203
355,1.085942328966699,2.5525674802288942,0,0,0.45469006894191,0.5391013028627089,0.06139287125697747,-0.29152903012977704,1.1815080387220556,-1.2317812968913184
356,1.0121677963907278,2.52193478745564,0,0,0.11311627138814084,0.8239841089069339,-0.1539781726161081,-0.8171381606330277,0.06652736536999916,-1.0499059099577115
357,0.9381932039038597,2.4679832713127703,0,0,0.22986567537616678,1.0049627860368895,-0.03816787405686067,-1.559434051088303,-0.4350973843099042,-1.1455494027288582
358,0.8663094582715172,2.392002154187849,0,0,0.4034374953034148,1.1730595410253084,0.11870192989592879,-2.328594531003857,-0.8606789273053315,-1.2755993866844846
359,0.7993181448496393,2.2957052775205105,0,0,0.5437112260678387,0.9346084438459408,0.07763754328529412,-2.34486402512122,-1.0626073532171258,-1.3303767165354414
360,0.7407667686223018,2.181801069463968,0,0,0.6805050252772643,0.6536696593414822,0.015887360630952755,-2.282450047334599,-1.241162138250747,-1.3772874178656875
361,0.6949161650835476,2.054469695160753,0,0,0.6159279949405463,0.5290869566232539,0.02917470276585912,-1.9555272464132574,-1.0070465469435201,-1.2956386330114031
362,0.6663770609420956,1.9194425494699496,0,0,0.5320955727896796,0.41945526552298684,0.049637249688436115,-1.6033117005272128,-0.733470772612237,-1.2016967901968174
363,0.6594524253743901,1.7835520958473423,0,0,0.453727646402084,0.41931573359198293,0.08437363056598512,-1.006807125507274,-0.7342241990226915,-1.0172104174685843
364,0.6773063074340667,1.6538392068277268,0,0,0.37589171402087185,0.4298357684789117,0.12049963496928925,-0.38651988753987193,-0.7616848386929469,-0.8239091173584804
365,0.7211315779795343,1.5364799949141341,0,0,0.3439241847214531,0.40004887545484014,0.1374412505728632,0.06164554456650639,-0.7156797986679977,-0.6017983835275716
366,0.7895056697503253,1.4358663143856187,0,0,0.3152574336713591,0.3673614185097621,0.15300232077336504,0.4974247619514234,-0.6643880272924266,-0.37761446721881575
367,0.8781069668419276,1.3541267177796847,0,0,0.2508794551389212,0.3674567299656941,0.2617463043272545,0.8826670667191401,-0.6235735319384644,-0.0019181921729448295
368,0.9799151782934148,1.2912308248880922,0,0,0.18439359887431953,0.36948706491134503,0.37599046803240643,1.2649263991242736,-0.5833774643129574,0.38272119560538675
369,1.085935303628433,1.2456336626781555,0,0,0.21020723648941675,0.7588139588298243,0.57077425160911,0.9823895054521421,-0.9602515408808826,0.6472945344359582
370,1.186370451768232,1.2152538172312426,0,0,0.24295378573784687,1.1772319420861916,0.7716076249066978,0.6499176305912674,-1.3684530964616592,0.9028493264760795
371,1.2720440351605427,1.1984940957020283,0,0,0.2816202038593271,1.5779574790601512,0.8219454630767095,-0.05619396809582389,-1.1938573368830407,0.1370419407834672
372,1.3357777733086114,1.1950246480979125,0,0,0.3208609121785984,1.976966659822364,0.8576836330830827,-0.7985525940560845,-0.9627240374666904,-0.7278484414346923
373,1.3734165632742512,1.206133286923325,0,0,0.2010307684399098,1.3152956555512374,0.8732523942979452,-0.8726509169705922,-0.8829372797626978,-0.7716222163294814
374,1.3842794471700886,1.2345613890978608,0,0,0.07148291692509438,0.5888272360742592,0.887588997575181,-0.9059249272228346,-0.8123963480419033,-0.7652336203545366
375,1.3709808132178913,1.2838529377415577,0,0,0.45749366502113903,0.8010540483618898,0.1873693214337645,-0.5081782725894861,-0.8641635124824062,0.22549841158668638
376,1.3387310727942086,1.3573385200763548,0,0,0.8755410933159352,1.0716111434578757,-0.5572527001118265,-0.08364810350371525,-0.9235308708938812,1.2773972942026792
377,1.2943149434580146,1.4569496909256534,0,0,0.9024157937141695,1.0849725701560775,-0.01245530793890135,-0.29347982977023823,0.5634215966103282,0.23644626213473346
378,1.2449447238946656,1.5820986765163225,0,0,0.9085966305786357,1.0847278027590328,0.6005550936664923,-0.5368706397719017,2.1321776463938913,-0.9152209489513581
379,1.1971497257913464,1.7288556441523986,0,0,0.5294701728755912,0.5795705661533226,0.08360412851969945,-0.14714556135950993,0.17483134758055568,-0.5514257795683609
380,1.155847585716361,1.8896187439342513,0,0,0.13220701297674906,0.050646722445086965,-0.48653496326116885,0.27238075526584515,-1.948491225399366,-0.11629666197938923
381,1.1237463645995118,2.053411412979205,0,0,0.458679515402205,0.37638840327319895,-0.4947777686194238,0.9394915051054273,-0.2941690828443347,0.5941184619270917
382,1.1011979451993765,2.20685142505678,0,0,0.8036345598633128,0.7239562731899202,-0.4886710372915612,1.6129249920443043,1.4566254056638497,1.3115637573606873
383,1.086529608399145,2.3357085502583024,0,0,0.9507580880044102,0.8335234093162929,-0.2786994006120683,1.9813742899361388,0.5303322101418357,1.2833672669068963
384,1.076750491806048,2.426824408115194,0,0,1.0909526369014813,0.9347546534882276,-0.061587467341025645,2.3391416239354683,-0.489725039630544,1.2290549352549678
385,1.068431110082772,2.4700603809651605,0,0,0.7678188841535257,0.9885137362302228,-0.1092963799502972,2.4013356426007073,-1.1665646689056364,0.9044813712739126
386,1.058534032878174,2.4599080029146645,0,0,0.43058588688631894,1.0408282241260294,-0.16506388502796726,2.4545352600355304,-1.8329600628061629,0.5716836623752058
387,1.045026664337152,2.3964460226913595,0,0,0.3474373984559472,1.0538403746575822,-0.06533893866714992,2.4238401336787585,0.06399967310124367,0.7193771304355717
388,1.0271934396855855,2.2854423319088992,0,0,0.2713171132245347,1.0657653876285071,0.03868706724822707,2.3908244041003517,2.0318640930125516,0.8803614117118937
389,1.005646183318891,2.1375583414712525,0,0,0.2893960157310199,0.9212037105604314,0.07844629343212133,1.4082715097873697,0.509578059153192,0.7652627018653216
390,0.9820898044260522,1.9667961562776137,0,0,0.3117596234559258,0.7695241445684058,0.11528230758962603,0.3825283601690211,-1.1714595133617864,0.6376061953885984
391,0.9589343553186024,1.788495030636994,0,0,0.37210653906263425,0.7662492799479677,0.01213325287012389,0.01916862571308595,-1.3047003405925253,0.6152082288276699
392,0.9388549081194283,1.6172755615933114,0,0,0.4319378550465854,0.7630813818029107,-0.08937949321789032,-0.3360261433718296,-1.431740996030556,0.591657138192918
393,0.9243878326005938,1.4653111484042445,0,0,0.44264862231121765,0.7649427888884006,-0.03436106908000809,0.04490604880689909,-1.0342986248942783,0.457578589635378
394,0.9176215137030275,1.3412000858896274,0,0,0.45361746887934373,0.7672433367921452,0.019942874638497178,0.4247249211698513,-0.6406376281636078,0.3249181766451475
395,0.920003697260252,1.2495767295137534,0,0,0.4889457944324657,0.8109933181303871,0.006808758415135411,0.6994603016228537,-0.6038913007745175,0.32611210896577447
396,0.932257938059016,1.1914677074103592,0,0,0.5242158282547048,0.8544997353860884,-0.006106617337914272,0.9738091934701112,-0.5675783762795915,0.32748942977542633
397,0.954383536361533,1.1652662765494095,0,0,0.539779669292196,0.8156665568498146,0.05492568567294578,1.1175011274763416,-0.6777821854725358,0.39086328758553385
398,0.9857080642943116,1.1680716599979368,0,0,0.5554598851252385,0.7775506475984119,0.11476457672317682,1.2620845332813129,-0.7837539525114462,0.4526576636796164
399,1.0249671983687179,1.197054032792039,0,0,0.5879977144765655,0.8433356587406136,0.0017303171485469114,1.5358031781978732,-0.27668807196594575,0.2856542820470896
400,1.0703973449282351,1.250492422132053,0,0,0.615970734865344,0.90925342381939,-0.10435265310807385,1.7787219272172197,0.24973739385686933,0.12446447687324845
401,1.1198357150723854,1.32819989468396,0,0,0.4846866694405926,0.9798027127681762,0.03208100169455637,0.9470937037971274,1.4515802363129575,0.16609875948046207
402,1.1708273739239399,1.4311847801506348,0,0,0.3553804360483351,1.0508853045239392,0.1658586100815712,0.12252197899801215,2.6154467324277317,0.20441177644963934
403,1.2207404126041235,1.5605812137488213,0,0,0.3768422387568672,1.1626209902995177,0.09716862476901489,-0.16414030352670883,0.8844168231061583,-0.010451738620429238
404,1.2668892602967154,1.7160983059498833,0,0,0.39886287333860665,1.2719006341561594,0.02832277184968069,-0.4427453888395663,-0.8145239925884231,-0.22614311973187917
405,1.3066623621225724,1.894438680605544,0,0,0.4611477193532025,1.204220786267566,-0.05175343956687025,-0.14082394074295335,-0.20142374293269405,-0.5014827837184322
406,1.3376468662229832,2.088234358580633,0,0,0.5234325653677983,1.1365409383789724,-0.1318296509834212,0.16109750735365963,0.41167650672303496,-0.7768224477049852
407,1.3577426279542566,2.2859551029506737,0,0,0.5771868364186474,1.252501509211457,0.14919281485922853,-0.9844416872074928,1.0897247986330347,-1.2764800714077695
408,1.3652590417101949,2.4729581108133267,0,0,0.6287613003483942,1.3586297598460633,0.4146943383709167,-2.1116108077076507,1.7282440748361894,-1.7573351601429512
409,1.3589885190627553,2.633472326796944,0,0,0.6147665656334973,1.168473486828589,0.21232340389383764,-2.6826077080697237,1.1771998968364288,-1.6718998723893093
410,1.3382538526529826,2.7530047133177313,0,0,0.6135758378300696,0.9831518642251736,0.013117411666339705,-3.2037327207611574,0.7109359893286847,-1.5424605984517106
411,1.3029375159096694,2.8205447748465855,0,0,0.8945228502097526,0.9043623168552731,-0.11634871303880191,-2.6259250304841992,2.112814945639322,-0.44338851774475935
412,1.2535119472559142,2.830051968236508,0,0,1.1489840860323532,0.8244344254867141,-0.23206470025679451,-2.0094181325501967,3.3861133460617676,0.5652043596576241
413,1.1910894324904844,2.7809700967164557,0,0,0.7946191887823626,0.7183395241731895,-0.0317075295610163,-0.50333607185187,1.7037422210147586,-0.5060399671436313
414,1.1174996348345148,2.677822086777777,0,0,0.4518839409431715,0.6333009026198717,0.15661965352883203,0.8433484019599359,0.1089618549226495,-1.5133816733589638
415,1.0353908738654845,2.5291938211272633,0,0,0.3272801228173497,0.943204246943294,0.11930646149796534,-0.7997068399353907,0.15707691583324018,-1.3221343410857422
416,0.9483344535960171,2.346516808079893,0,0,0.23178897122851075,1.2085388950908416,0.08185337077599947,-2.3062559385587944,0.18423381187584514,-1.1506209227553632
417,0.8608815527273763,2.142962978095743,0,0,0.49729482938353353,0.9212217976472081,0.042665535815778026,-2.1201291404863936,-0.04849049742921524,-1.2238079977526861
418,0.7784928783555011,1.9325444150711142,0,0,0.7414265968282622,0.6436143005392627,0.005849129071258243,-1.9375693320578629,-0.2682101395898842,-1.2888751663756075
419,0.707262594831292,1.7293146886930033,0,0,0.5913434729026836,0.5450866623922717,0.012770364102188955,-1.820797610061342,-0.24807707590514577,-1.2041821400625918
420,0.6534024804624129,1.5465019377234144,0,0,0.44905966495109306,0.45155820883778297,0.02129412646921065,-1.6736414589126933,-0.2293071043686859,-1.1067542657809137
421,0.622521422689919,1.3954717611987133,0,0,0.41493357904270695,0.4273564012832105,0.05204108215494275,-1.105126478068634,-0.22943993690617026,-0.8327247311140534
422,0.6187999636803666,1.2845630433423192,0,0,0.3819631540164793,0.4031024245408628,0.08154178358166378,-0.54784754178061,-0.23680954167691254,-0.5618028400289397
423,0.644200811609515,1.217993166323336,0,0,0.3663780922179219,0.37806363194816756,0.09229426616159728,-0.15959977409512363,-0.35304665388107936,-0.3376312615437728
424,0.6978697667718998,1.1951247202910555,0,0,0.3477865155574175,0.35306079675451607,0.10594295441444022,0.23225357474660532,-0.4644384054261888,-0.11005545094025233
425,0.7758705759000601,1.2103722606617915,0,0,0.2598247230935806,0.32888761832233043,0.18641666175008614,0.7072995611116331,-0.4640316972991752,0.1960672168006057
426,0.8713633498302341,1.2538954352523541,0,0,0.17481939070245414,0.32597788015396,0.2730659209229371,1.164302812502227,-0.4883093841690855,0.4961601899428704
427,0.9752752670843027,1.3130207644987482,0,0,0.12517450869419597,0.5773874189257332,0.43357725607169095,1.4055077052320104,-0.8078223385934624,0.7241355903732997
428,1.077420061440451,1.374140998064275,0,0,0.09773719828616668,0.8580574952683944,0.597181935199096,1.5468072702507891,-1.0977255534977293,0.8985769438907333
429,1.16790707108125,1.42473544704289,0,0,0.3117020165109531,1.4567972909257003,0.794412075060846,0.602109716596445,-1.0657631331897532,0.49108916494797805
430,1.2385718391163207,1.4551692308980004,0,0,0.5000355300950303,1.9508698588591817,0.9742607409642496,-0.32953243236052104,-1.016127977465449,0.05149928444999767
431,1.2841093785502753,1.4600295942034096,0,0,0.43797538522301516,1.4224423806508166,0.9843088097305266,-1.1336356103712906,-0.7938468714836455,-0.7016978442723755
432,1.3026462967440797,1.43886435145175,0,0,0.3500944987902787,0.8991575575918027,0.9559807821196203,-1.785895463453865,-0.6326368689617642,-1.2980546547852188
433,1.295653291285396,1.3962480682908862,0,0,0.014565570412705005,0.425196209855197,0.5595856660153127,-0.9818182662665967,-1.0571629233757516,-0.39014799966147107
434,1.26730952261068,1.3411388170947005,0,0,-0.1927115647962254,0.06468752814893843,0.1680131861695182,-0.2179203178942519,-1.3686031102396379,0.48142840259019853
435,1.223576612699637,1.2855582190153267,0,0,0.7685898924101814,0.7379137632378271,-0.17961737852192952,0.17988052786166206,-0.6496504999890702,1.0219782004445874
436,1.171244403106428,1.2427380271095223,0,0,1.5629984665110077,1.3119904213354783,-0.492376853158461,0.5194893519897973,0.05150486866379944,1.390913205018253
437,1.1170908863045408,1.22498365572044,0,0,0.9278872736235344,1.0368021058047463,-0.5064482634836606,0.36065484222540334,0.6002181031066343,0.28988294961369476
438,1.0671652893276897,1.2415722339716087,0,0,0.35104651015038973,0.7587577072651637,-0.4979958260163981,0.18558139086088016,1.0333032279999814,-0.6382733352201628
439,1.026166653502434,1.297024073392831,0,0,0.24914461976817845,0.45743452728972406,-0.3059605524011571,-0.121849148335693,0.5239500697661041,-0.15740331044173406
440,0.996956624339586,1.3900607701585126,0,0,0.1975072466941844,0.22677323605904648,-0.14992804002565083,-0.26798355759178194,0.02104539991723803,0.323889442767725
441,0.9803192061609735,1.5134770566040756,0,0,0.5225139436022789,0.5255984076481719,-0.26367284432414495,0.7945125759975472,-0.433539195023473,0.8083497949913699
442,0.9750699813576478,1.6549943761740342,0,0,0.8194060146038569,0.8041410846144995,-0.36854115965415246,1.7799138643302794,-0.8341376479238247,1.2074967495411542
443,0.9785162364628643,1.7989529534348658,0,0,0.8460578313962915,0.8877266414591153,-0.3880878831971769,2.024272727197003,-0.7158165603432576,0.7866038297021044
444,0.987146198848835,1.9285111245086364,0,0,0.8419049936859715,0.9519215606778383,-0.38402695054989144,2.185767262842981,-0.5581051870903759,0.41918156
445,0.9973582361815645,2.027944298140614,0,0,0.6260787207417297,0.8828741851261814,-0.21774658176291933,1.7778615884494149,-0.1297244209132366,0.41918156
446,1.0060599414297868,2.0846908294795323,0,0,0.4391579783862139,0.8228062647418768,-0.08279859151492505,1.51442741878711,0.349137572513012,0.4510783866946459
447,1.0110455290676332,2.0909070873592883,0,0,0.456468559820644,0.826182466610945,-0.1692287594092122,2.2717531457923203,1.184673439911926,0.7083414641075201
448,1.011145686149941,2.0443810001262124,0,0,0.4591319904964807,0.836514301590203,-0.21764297552151188,2.7665770842354105,1.7123756848267129,0.9274916838247036
449,1.006198616046081,1.9486983750528082,0,0,0.3682542558555634,0.8912669278640818,-0.02327574642498021,1.584984660595535,0.2741586711338589,0.9032415879235979
450,0.9969070585527152,1.8126249603263405,0,0,0.2952503360460277,0.9335930133617648,0.13560918836006286,0.5445420486510335,-0.9852284894675926,0.8568026218632963
451,0.9846379972339567,1.6488076620947179,0,0,0.33517286510313044,0.8974084319138057,0.07031760967079863,0.3958814680480339,-1.1147717782725777,0.6701747614293859
452,0.9712064548693841,1.4720592530764494,0,0,0.3774487808005042,0.86126815551736,0.013475658404667265,0.28666076315621336,-1.1669046380780468,0.4931392368896373
453,0.9586706589482821,1.2975742609900383,0,0,0.43364966885780226,0.8253900314607121,0.0066300918237883035,0.4108055206028487,-0.7610005419678776,0.3728614937988143
454,0.9491540313813072,1.1393949294646173,0,0,0.4859009915389983,0.7983640838527798,0.0022319169377754975,0.5267631167969898,-0.41384793947151094,0.27408467549048077
455,0.9446986176345734,1.0093455372511393,0,0,0.5153042175915261,0.8225476643429657,0.011991816532430118,0.5953582733507136,-0.40657065421448807,0.2996899479902445
456,0.9471445341954088,0.9165264059826047,0,0,0.5419785894999656,0.8368234302281007,0.026091044760546668,0.687951918227089,-0.40060725681387405,0.32477695227480063
457,0.9580229817712645,0.867325758015861,0,0,0.5554446749733062,0.8031430772840592,0.061193629247881534,0.8967038084448216,-0.4010033811260535,0.34735541832687344
458,0.9784494385726471,0.865786202954938,0,0,0.5665297050126162,0.7875346759266194,0.0807624523367374,1.1100031567921003,-0.34421608053372504,0.3534194955437608
459,1.009009559990517,0.9140820580524767,0,0,0.5645602748531028,0.8710082071979159,0.015165315787694447,1.3482345647174332,0.026087125806416894,0.2689411896981083
460,1.0496401311132628,1.012850282606353,0,0,0.5497574090290289,0.9430223977827198,-0.03209312979474756,1.471252397342882,0.4574779175153786,0.19648290407978924
461,1.0995173255588644,1.1611811519176873,0,0,0.4560052099853148,0.9445404763205323,0.03346524714694984,0.8854939348106277,1.264670186488221,0.1979699452949513
462,1.156972766158137,1.356206079335316,0,0,0.38061140218112427,0.9733015669313054,0.08854168588186843,0.3420284776319666,1.7127278725632922,0.14547947514937665
463,1.2194628767671525,1.5923942204415902,0,0,0.3949654149234117,1.1352443128960927,0.09237555663143811,0.00531888853427022,0.4051008962955032,-0.1708883627698826
464,1.2836148685491062,1.8608406363734813,0,0,0.4184857088070511,1.266829015658638,0.070393740123063,-0.3127310584633624,-0.38923532139781725,-0.48869468201639926
465,1.3453615499378322,2.148923126365019,0,0,0.4838143944429527,1.2599474265347457,-0.06933619571050764,-0.5456723763882029,1.1576026793439307,-0.8130620694244821
466,1.4001626749584608,2.440647293624042,0,0,0.55041839759942,1.2517587709984659,-0.1217432766914048,-0.9091444678032263,2.2824649068073324,-1.177666300285014
467,1.443301376936747,2.7177839701053736,0,0,0.6220619877623554,1.2384050688527994,0.1709175028945502,-1.788426252574723,1.7398338179792432,-1.7012717653481788
468,1.47024191427334,2.961630273511368,0,0,0.6768503957719666,1.2366088154723385,0.3257069378611234,-2.5820600382155017,1.2525636221482546,-2.0453314079958402
469,1.47703319099994,3.155034738159293,0,0,0.6580172500701567,1.2852942075726694,-0.12171026423868271,-3.0015929222020077,1.0071036282873227,-1.6051549471994528
470,1.4607358173029956,3.284290202886405,0,0,0.7170974782690449,1.2316116925379457,-0.37550790691333447,-3.0371099194971625,1.1050444136611206,-1.1255416469163992
471,1.419839432869946,3.340589792707095,0,0,1.115588125236146,0.7319886093216547,0.21415036057708378,-1.39975631255036,2.6989260937799675,-0.47413147031191494
472,1.3546255940071823,3.3208856716838744,0,0,1.2818193269204627,0.4022857589685833,0.7075735051420503,-0.20066457284189324,3.754082263070672,-0.18250433415136688
473,1.2674232539537098,3.2281181249760724,0,0,0.4934647759360614,0.7709546488823465,0.8054705329890189,-0.8028280296771523,2.595077904387716,-1.3695846149407944
474,1.1627017895851277,3.0708636456069858,0,0,-0.07015755809777818,1.0542234262482675,0.7930560270202927,-1.4216664491434774,1.4127688387808315,-2.1818914367245785
475,1.0469536406870608,2.86249210445247,0,0,0.24456985436627532,1.0037119911892511,0.3494968036886963,-2.105677767739127,0.1393749905860738,-1.5294230813948964
476,0.9283360792913686,2.6199382271060214,0,0,0.5119202579015664,0.9092546270495556,0.002803040931916099,-2.5919283460781712,-0.8479548045360024,-1.027334815060489
477,0.8160680270422512,2.362184530114256,0,0,0.6109358163360978,0.6586533606993176,0.0002811160093805383,-2.375516934591164,-0.8188728645058557,-1.0595607539251968
478,0.7196108711910069,2.10853465659761,0,0,0.6533649430144811,0.4442046742145431,0.00245971727120635,-2.0869780903764386,-0.7507343223081184,-1.0778684283185433
479,0.6476991918148305,1.8767624243749885,0,0,0.44925826241508726,0.3872655738466982,0.025117574461201293,-1.4841943939448483,-0.5124339470578778,-1.035536997891786
480,0.6073236496096318,1.6812785366986058,0,0,0.3054313255057729,0.34675568935180845,0.04645770496931565,-0.8872107790158947,-0.34941640736240476,-0.9392735597338325
481,0.6027961035360925,1.5315454484600222,0,0,0.3784353780653168,0.36534298934068166,0.06305786883810909,-0.31109051115329744,-0.4571971612514731,-0.6490124374330752
482,0.6350368454405741,1.4310340216529327,0,0,0.4236593357007681,0.37684842594987894,0.08540218345474991,0.2131396770353975,-0.5698735022807314,-0.3691278212008031
483,0.7012110837405953,1.3769948746556335,0,0,0.3709830686490564,0.3633965678498989,0.12798954058670653,0.5545032998168964,-0.6998024502078903,-0.12581119834601637
484,0.7948107314214171,1.3611899610562732,0,0,0.30428221759939933,0.34808973179166225,0.19086264788809895,0.9377208336019731,-0.7861504014434852,0.15184011644335416
485,0.9062339684678389,1.3715236186780926,0,0,0.18917021032122922,0.32637973768661,0.32375969458567644,1.4654129720313183,-0.722062059288455,0.5480106071349885
486,1.0238555232552908,1.3942944038293572,0,0,0.10670022917953709,0.45416862053602935,0.4969507053600886,1.7437502897025778,-0.7329412133408852,0.8872140322910043
487,1.1354950095402778,1.4166371417272654,0,0,0.1309869168210352,1.070897807943883,0.8019242659926104,1.2065656181920008,-0.9890036832904486,1.0401050613052556
488,1.2300809983852041,1.428692007458821,0,0,0.21818417805320503,1.5966222672647967,1.0227379676312054,0.4884196849386167,-1.1593241061662813,0.8472308733106694
489,1.299207820148851,1.4251253614733168,0,0,0.5087709181072096,1.8281290306983962,0.9714633894420188,-0.8147728431968835,-1.0524410451090473,-0.46350003061089545
490,1.3382497291240072,1.4057833259993915,0,0,0.5887636147518074,1.7476065219111476,0.8709447902094463,-1.6449748954424246,-0.9330339446001065,-1.2837687269642877
491,1.3467813003502174,1.3754187020556206,0,0,0.06265860856143467,0.7690518475668565,0.6287000177317321,-1.1138922831809812,-0.777582180811128,-0.6924684476206286
492,1.3282432453362345,1.342569352079116,0,0,-0.08627377965877935,0.18374569261317936,0.31944963241879143,-0.6482777490874786,-0.5448972140574032,0.0026208540508459613
493,1.2890045132643297,1.3177921227077622,0,0,0.8961858398419277,0.7780538851369648,-0.19079523504934812,-0.37904560494463796,-0.08053840737770093,1.0090425939479317
494,1.2370938550232162,1.311562104336775,0,0,1.4620394071543845,1.1481656768559663,-0.5006743653847051,-0.08428023699697701,0.38303725694245255,1.4223555003733364
495,1.1808626280607788,1.3321942511287175,0,0,0.7906395296756804,0.8524499616971731,-0.21549925416357898,0.28631472963269444,0.8442871156651524,0.07422988651639208
496,1.1277612781028294,1.3841200243354808,0,0,0.28924960002021505,0.5925744099873748,-0.0500557930902707,0.5690228051636845,1.0319117597888354,-0.7658111754887978
497,1.0833622787901958,1.466787191334875,0,0,0.30228886162331114,0.4411467855816202,-0.24690557745084932,0.5857959579790116,0.3915801637387376,-0.0684508810285693
498,1.0507575864289418,1.5743733421143675,0,0,0.3984777896022606,0.4091226532528127,-0.3807203143904195,0.7050686424436134,0.012345264601582459,0.5866059441524422
499,1.0304331118167405,1.696403221135397,0,0,0.7268340570209056,0.7104924161421183,-0.3385309855183653,1.110536625021799,0.3621346470576702,1.1235446254310513
500,1.0206312486037674,1.8192160918736926,0,0,0.9447055710258762,0.9336658259410471,-0.2876362211437204,1.4811687100825552,0.3798790269834515,1.4165278680229991
501,1.0180870418451755,1.9280544790353047,0,0,0.8551397777079885,0.9392483421380703,-0.21251752017108727,1.7548656602227721,-0.5263323285547274,1.0306753356167273
502,1.0189333570045778,2.0093945367343573,0,0,0.7021658616747466,0.9597675781519401,-0.09231946074889708,2.0834148709011537,-1.1368570209926294,0.7670437361338013
503,1.0195578857932701,2.0530695463544313,0,0,0.3816176821493265,1.0197614068685674,0.1470138130651693,2.5569270109063647,-0.9659443781961302,0.8264162218480792
504,1.0172510119743896,2.053773867507356,0,0,0.15240814532040806,1.041480067305361,0.31695063153277153,2.6783915413187973,-0.5513627524276676,0.8417130776786315
505,1.010568062232821,2.0116662764678317,0,0,0.15987258169532315,0.964021250977547,0.30706941979899205,1.8876407850905244,0.4946066859705491,0.7428024733450955
506,0.999405745709067,1.9319979208926312,0,0,0.20170781274863148,0.8930016961381027,0.24483870299080024,1.1585506719034337,0.8214650211375876,0.681110990557034
507,0.9848452923796029,1.8239251831715804,0,0,0.33048530954431177,0.838270504268167,0.050187871251646816,0.5854335590532385,-0.6706962257525669,0.7135667272510198
508,0.968843089220872,1.6988527894958942,0,0,0.42739736793863287,0.7918790281098713,-0.07884804327291924,0.20520521441000086,-1.5784348168305933,0.664975105046392
509,0.9538559885556815,1.568718742283984,0,0,0.44605888985355396,0.7659670199157205,-0.046756330411534375,0.29864521973394503,-1.0510327416602419,0.41735909519839776
510,0.9424765612758567,1.4445755976249584,0,0,0.4655893934406358,0.7495970200389159,-0.022129546865783,0.5235768515873965,-0.5662512611486842,0.25203562365643056
511,0.9371297466788707,1.3356939206248326,0,0,0.4872037232179938,0.7561088446298361,-0.015403733027974754,1.0638266254151183,-0.18367436048471947,0.28405042232282585
512,0.9398540498951393,1.2492618889206102,0,0,0.518247138921047,0.7858500760569598,0.011164909334101972,1.4241105746233558,0.05517180456184796,0.3456642870197763
513,0.9521635974449649,1.190600733017805,0,0,0.5715194173189729,0.8703541234586095,0.08451258373987604,1.3601290453022614,-0.044824082258184454,0.47705729909611855
514,0.9749669686035115,1.1636830561193683,0,0,0.6009150117431449,0.9133942601926389,0.13860924594610272,1.3413172713191952,-0.24744447057888824,0.5470702211937546
515,1.008510448331549,1.171670389152198,0,0,0.568633357954522,0.8493265626382125,0.14297750122822003,1.439186114130732,-0.7151601657269537,0.4585286702620139
516,1.0523214156366472,1.217201847688951,0,0,0.5173242899507103,0.8353386471720042,0.09576033192627727,1.2676499604087414,-0.4214253803100368,0.4034792852813608
517,1.105148878808191,1.302255369771546,0,0,0.42345889917501656,0.9333581404309471,-0.06683173529859833,0.4935681416645466,1.5753538620292584,0.4233377884015367
518,1.1649202538873553,1.4275368052286381,0,0,0.3558867558544997,1.0603247925079575,-0.1385747773708346,-0.13203335700196933,2.322969374401636,0.37808973901485105
519,1.228742718051794,1.5915069582518089,0,0,0.34662643320122105,1.251488973250375,-0.00883749449851056,-0.428342787657615,0.30025340891001884,0.18845170537772968
520,1.2929709354043664,1.7893157180539643,0,0,0.36532082097418517,1.3281704829735963,0.027862806842069838,-0.5752589219203252,-0.7805879919837027,-0.11784164894984021
521,1.3533508182721565,2.0120354188364167,0,0,0.4398910718795314,1.1760240795233508,-0.12139917018591821,-0.4235678002290817,0.021189077576401687,-0.6573056082719207
522,1.405243448279625,2.2465954101704297,0,0,0.5252251860979381,1.0997397160344202,-0.12457988266787047,-0.7098133939409097,0.6258395523123635,-1.2263962560934292
523,1.4439345624539324,2.4766577218646524,0,0,0.6330942531688052,1.1822782034906474,0.17807145167356586,-1.9129122383134334,0.8177907685781628,-1.8575125936211168
524,1.465030089277716,2.6843749872997105,0,0,0.7109862112038285,1.2685444130072523,0.26798468902748873,-2.8071838347597025,0.9367251821778682,-2.163463953144302
525,1.4649162033946832,2.852666005722751,0,0,0.7275025499735144,1.3624428214404234,-0.07766550545944667,-3.069157514952086,0.9061638094482178,-1.8036672608376447
526,1.4412293708644364,2.9674761428476266,0,0,0.8996729721259908,1.2546610189490932,-0.12945525097856886,-2.6995951942247802,1.4069205160894287,-1.3241688676274637
527,1.3932570535139117,3.019527971458758,0,0,1.3841695981152495,0.7421997285676843,0.4083978626214365,-1.0628303838013884,2.973788404762506,-0.6044841794628673
528,1.3221895298205795,3.0052671990437334,0,0,1.434341851548202,0.44637335352495905,0.579900519723771,-0.03701103225459828,3.4327328821913468,-0.42850787948476016
529,1.2311727544657867,2.9269587180863277,0,0,0.6410867262202073,0.5712367443663037,0.039976361597138056,-0.19760478312063676,1.7401680328717724,-1.3083750217768224
530,1.125163403057113,2.792092383744167,0,0,0.140205036827421,0.7320423535299683,-0.24171082685884537,-0.7201266878731638,0.38538036757511485,-1.7246323563035484
531,1.010635277269882,2.612366702579459,0,0,0.20275592455191696,0.9621121789437415,-0.025749790179217222,-1.94012000561164,-0.31847720212812547,-1.2474676592997918
532,0.8951973271772774,2.4025049651206505,0,0,0.35702494107796895,1.0277452390517612,0.10429060015692253,-2.6873395996032707,-0.7474833389742702,-0.947132486000796
533,0.787147483094862,2.17903587614874,0,0,0.7011802003185945,0.752940916860368,0.05644741349747894,-2.4557644023352756,-0.607457955399911,-1.0128917212885065
534,0.6949365977473146,1.959022482910937,0,0,0.8287081950462332,0.5292069700705069,0.028065586992777836,-2.1641493631472803,-0.45603214444277324,-1.0482363782202377
535,0.6265016588314275,1.7586594405244653,0,0,0.5599079482876022,0.39890831779860525,0.03528909705828045,-1.7626890341354702,-0.2837487964829234,-1.0279363479554073
536,0.5884663354595427,1.591726191185117,0,0,0.3752283197018865,0.31465945265740075,0.04591392093576035,-1.244203701701343,-0.16953083115036263,-0.8801610622901178
537,0.5852792579044404,1.4680370352933954,0,0,0.34053303508720906,0.312515869966934,0.0626031774599198,-0.5170665684408292,-0.15884156676745637,-0.505101514748899
538,0.6184278724981288,1.3921784479666754,0,0,0.3177667565762934,0.3177902420408622,0.08272595532730176,0.08660414848359825,-0.24850711065622916,-0.19223029802179267
539,0.6858983717102428,1.3628853134967704,0,0,0.3156483402174954,0.3359043181706362,0.10879179966937892,0.47656741058095686,-0.5118763343438523,0.012999421610999196
540,0.7820411861883338,1.3733293613213982,0,0,0.2508814731967369,0.325802995861083,0.17366467083559933,0.9195769628529601,-0.7478988054044611,0.2119646597552676
541,0.8979531267556823,1.4123816092360173,0,0,0.0831062732178776,0.26930912702869464,0.3023451396609946,1.4498067059246862,-0.9389569806435261,0.400629661559614
542,1.0224077055251037,1.4666432052943286,0,0,0.001683639838258002,0.48742381853844813,0.495774095547859,1.6957338168304443,-1.0844436621542786,0.599086769124593
543,1.143255295512176,1.522827785244593,0,0,0.06409154364357521,1.1629319422232283,0.7970494082606255,1.4681208591440758,-1.1540255655262102,0.8138538013994945
544,1.2490843254270123,1.570003476794165,0,0,0.25887279586218626,1.6595220733384128,1.0014771975760675,0.6268629624733727,-1.2353535287311226,0.5331532578271562
545,1.3308219153063692,1.6012682660681088,0,0,0.6651879938502453,1.870199450996802,1.0511416691889717,-1.195005735144831,-1.3354518142698488,-0.5393094669938406
546,1.3829197571345262,1.6145780996262968,0,0,0.7533758891696162,1.5470131958300317,0.9697985894904894,-2.1345266930469715,-1.2772557363653698,-1.021277547872224
547,1.4038645725051866,1.6126071944911238,0,0,0.3316214439234014,0.36806992591685994,0.6784568806872141,-1.6596878419812766,-0.965321618384666,-0.5567119045340001
548,1.3959516540323178,1.6016798048190442,0,0,0.4092687649283027,0.010342165066633309,0.3922040153051126,-0.969558488008566,-0.6373339917190168,0.05683508891911287
549,1.364468679259612,1.5899893941455505,0,0,1.274320518305037,0.9474210637894694,0.11397470673302032,0.06001839373120214,-0.28403487419864654,0.9052802788983184
550,1.3165457531081108,1.5854906751774505,0,0,1.491395551488521,1.3210765180455677,-0.1417876349734104,0.6187092101584577,0.15754160850615317,1.2037734981201733
551,1.259910782941999,1.5939371285186592,0,0,0.5952379024096476,0.7267629502680356,-0.3589514271402717,0.3684114614323235,0.7507797874443601,0.5574418674254703
552,1.201726480182526,1.617493974873797,0,0,0.11603114819685663,0.3964476733333025,-0.43373275971688036,0.4665433286374496,0.9127330087472045,0.24506726492659117
553,1.1476590060028196,1.6542099937387837,0,0,0.2579714183322935,0.4594203225861074,-0.2964017254199199,1.0837435616361988,0.4321852264456596,0.43020068303040093
554,1.1013239986993941,1.6984358208046242,0,0,0.4938691126322157,0.6472547918885055,-0.24137667443547195,1.4490448338633943,0.029879345072455658,0.8023319463074777
555,1.0642010777668225,1.7420697770546607,0,0,0.8694637812942999,1.020735245797854,-0.3087251031246429,1.4398198422866604,-0.25609557955314743,1.452493747892603
556,1.0359836328787109,1.7763275827689966,0,0,0.9314835213682766,1.1876747552147655,-0.11065010553780778,1.4564923870273174,-0.8146666001986477,1.5548535438288802
557,1.015200023703179,1.7936132456203024,0,0,0.5425650430340624,1.0575968790410897,0.4691185677212583,1.5104070319300777,-1.7652459958050046,0.8694435343699868
558,0.9998840692827745,1.7890533531889112,0,0,0.30967137656757104,0.9353754923520567,0.5938358250059765,1.662857401538203,-1.6082557896759513,0.39264312675081187
559,0.9881123429387979,1.7613544199828253,0,0,0.29710655151037396,0.8242485664735021,0.07595687987175155,1.954453987558873,0.11277750212434834,0.21042863295352207
560,0.9783253895811508,1.7128257059615277,0,0,0.3186564801811652,0.7798643025389097,-0.14134699136037582,1.7981885164750895,0.9331651375813067,0.1775233047088436
561,0.9694475357848858,1.6486267749296122,0,0,0.3876886265277739,0.8283750253755924,0.05970100858137773,1.0185715229286973,0.4999997402010566,0.3524321775237492
562,0.9608740787275112,1.5754923538393306,0,0,0.41680243725902844,0.8432392492509934,0.12067705115341235,0.5927644218480956,-0.05323254590914181,0.4641986932409496
563,0.9524011850963775,1.500305313867063,0,0,0.39515893677541786,0.8153209825397651,0.0035475736114907153,0.6168367701411701,-0.7591333301705155,0.4956778866048414
564,0.9441532975945852,1.4288949747520252,0,0,0.3999540097319913,0.8009672428568818,-0.039177060730741946,0.6683096215392176,-1.0928000404724572,0.49011384079486153
565,0.936537191537319,1.365330754948065,0,0,0.4402659637890553,0.8048357304074613,0.01805180555294694,0.7565915850096508,-0.9264173301916662,0.434786886095551
566,0.9302305651245041,1.311810965440163,0,0,0.47268820257990174,0.8028704090535687,0.032352289478747735,0.908183607632417,-0.7323804500033759,0.37660428600028384
567,0.9261959938028757,1.2690872971426934,0,0,0.4950183346629269,0.7934427876800499,-0.008258944380876073,1.1407585120927173,-0.5029698168903406,0.3147688951279582
568,0.9256974708248074,1.2372597894859367,0,0,0.516709350371751,0.8031216389152532,-0.01036295958096424,1.289466861461746,-0.21545720577637742,0.32931880663017193
569,0.9302883375827793,1.216722197914214,0,0,0.5375135817581576,0.8393110279510179,0.040962410030783346,1.321809017127357,0.15267283259548145,0.44985455283867365
570,0.941738180070069,1.2090183146521534,0,0,0.561301310844262,0.8538113885129441,0.09250411699705455,1.3873875370696938,0.11389264540665657,0.4828159482994048
571,0.9618733856080537,1.2173818585419656,0,0,0.588604476224188,0.842755704642405,0.14430073271759877,1.4921282535471925,-0.4043472738792023,0.4125890428334574
572,0.9923221632140661,1.2467793651044023,0,0,0.5569976495134746,0.8615011251855742,0.09277012128714289,1.4090970389002362,-0.05643570069142471,0.3775071355420574
573,1.0341789279336773,1.3033574443545535,0,0,0.4563950044413466,0.9151498195941992,-0.07977810265581343,1.1061459500208852,1.3059189052756013,0.3835873099170124
574,1.0876305759165596,1.3933076081898468,0,0,0.4048362561278268,0.9433387870055652,-0.10174540082148618,0.6939983702507968,1.818697983930091,0.4101863496548101
575,1.1516108156120413,1.5212967417124101,0,0,0.41426215997174515,0.9398693280390759,0.06353028128133045,0.1460681446447626,1.2750547251451765,0.4622999988366059
576,1.2235604451812339,1.6887603172618564,0,0,0.38680317355782834,1.0192351650619758,0.1427658699099695,-0.12060616945487075,0.5672326904877775,0.29616150844277067
577,1.2993658166724344,1.892488076671922,0,0,0.31566510696917327,1.1966945441097836,0.12011279537966288,-0.0542172838987784,-0.3350098179867078,-0.12843112498179873
578,1.3735241144695711,2.123975281836236,0,0,0.3422025891720419,1.290339628404043,0.0730523203271128,-0.38002899606503243,0.23205938612385887,-0.5479341764391051
579,1.4395482270675228,2.3698815490868306,0,0,0.4744765469161228,1.293253427140202,-0.00042983903071193105,-1.1304086728330252,2.3896990442318615,-0.9619276156994049
580,1.4905856173934506,2.6136208735691153,0,0,0.5703156776351341,1.2841305506464598,0.041065475351869954,-1.9030906819304207,2.9150618080101034,-1.4452180710269122
581,1.520191733982278,2.8377185393440145,0,0,0.6249488357426553,1.2613947945180088,0.21259458054519473,-2.7009955195963293,1.5944007821622332,-2.0068799983773213
582,1.5231690753777052,3.026308538358209,0,0,0.6738514792649892,1.410590629338328,0.05449853338782335,-3.3406277032044676,0.6894944984520132,-1.9445987516237138
583,1.4963554041921996,3.167141428855399,0,0,0.7164795201724931,1.7480422324578477,-0.46451917991863534,-3.8069599150188025,0.2398171089840107,-1.1991335662647153
584,1.4392248295328531,3.252707003431947,0,0,0.8674057664242908,1.5517447079189235,-0.4484877735572951,-2.5333883536860258,0.5831708360272285,-0.8733135013906651
585,1.3541732996844498,3.2804176128025415,0,0,1.1363455453503641,0.7738159355663928,0.15059149424813698,0.6361720704042562,1.7906977370573722,-1.0047845181414308
586,1.2464141582210713,3.252095570902039,0,0,0.9363365071601956,0.48549463821149025,0.40071728355555314,1.0298221707292734,2.0129283532096376,-1.3466843430512137
587,1.1235004847770411,3.1731441240508915,0,0,0.18797659867957825,0.7696807763213218,0.24280506029335902,-1.8224530520750135,1.0830330760533382,-1.9346426205283458
588,0.9945766082465052,3.0517144627468356,0,0,0.004158588645932023,0.8614094163645661,0.07429964448524966,-3.101843715412384,0.05657993370409395,-1.971382204837693
589,0.8694979713105727,2.8979810232478096,0,0,0.39590013243150507,0.75692453887269,-0.10500570193321616,-2.7776532503048545,-1.0683155083439102,-1.4461454573679855
590,0.7579373882120656,2.723445712776686,0,0,0.588288782049303,0.6689437834749543,-0.16809582899204356,-2.514537801826236,-1.4709755995649498,-1.1978100755344046
591,0.6685448794255591,2.540120341659143,0,0,0.5856958726045796,0.5971052542269646,-0.11751906035866286,-2.3111581406687445,-1.1672372453515345,-1.2203042705275131
592,0.6081877152291782,2.3595020636920294,0,0,0.5190594934422003,0.4611310231721916,-0.07882179311232501,-1.909679665624342,-0.9271429436794894,-1.1673989877955635
593,0.5812916867290513,2.1914007087596237,0,0,0.38957183790728267,0.26221500048270646,-0.05178288577415821,-1.3137900605285002,-0.7495079360265404,-1.0404978170959733
594,0.5893311469424318,2.04282328319685,0,0,0.3510892336857695,0.18936150821959133,-0.015459194532612703,-0.647799325814638,-0.7330194616712753,-0.8275237183047028
595,0.6305493948876786,1.9172072270311022,0,0,0.401908828219068,0.2402117112974624,0.029975547325425535,0.08698083449361967,-0.8746622069797416,-0.5300872551593259
596,0.7000036393771125,1.8142755640676553,0,0,0.3563606297623244,0.267938684280311,0.15166837362868146,0.8171483300110438,-1.0413479172445284,-0.1601765278023269
597,0.7900046998923117,1.7306473709297387,0,0,0.21816241355710222,0.2734344988373138,0.3466773221600533,1.5428811139357743,-1.2321104595929446,0.2794124780101399
598,0.8909631524071423,1.6611108706146553,0,0,0.1495828613146151,0.48977120986317224,0.47605132746244616,1.8678489857507359,-1.328875915875519,0.6746733108833295
599,0.9925717066034098,1.6002438507263792,0,0,0.1419983634311596,0.8908321187217174,0.5479205385698147,1.8416943827338583,-1.3432876318148907,1.031096865993486
600,1.0851618786523725,1.5439521358704054,0,0,0.25608838464618183,1.3224273016523966,0.6099710234360269,1.2015402363090093,-1.2394284107704578,0.6165695027357128
601,1.1609944068298599,1.490546147366912,0,0,0.4749730125539102,1.7803207378438568,0.6635649345779795,0.03256673518336581,-1.0337059860339988,-0.4619547171337713
602,1.2152139389379,1.441151229420079,0,0,0.4409595029093525,1.5721977354101624,0.7187144482652327,-0.7721738003179242,-0.8980432303846968,-0.9104255874547554
603,1.2462548067432417,1.3994463031889872,0,0,0.17384990836138867,0.750207719677856,0.7752977601073162,-1.2412009976719627,-0.8269544359320603,-0.7781766063474322
604,1.2556281663103424,1.3708593210677544,0,0,0.2599568380985096,0.4539508089531931,0.34838332811079453,-1.1238201541956603,-0.6198213597751016,-0.11821849774726895
605,1.247196446335951,1.3614049879432024,0,0,0.6872825180249412,0.6655693263314282,-0.5456057852602587,-0.43994990531617795,-0.2812650449155642,1.0515239385669812
606,1.226161374491641,1.3763701057941147,0,0,0.8707562255182789,0.8300113277432695,-0.6476279732129363,0.17359945510239064,0.43063624520281385,0.8754647441377829
607,1.1980070118479684,1.419057680499035,0,0,0.844950408500543,0.9539653280850031,-0.06996543449839379,0.7267977658643106,1.462951011654197,-0.45559320513658996
608,1.1675803581880593,1.4897831662662548,0,0,0.6205159102396757,0.7945720898673101,0.02142627521032508,0.8262383310585691,0.8976630415127039,-0.7455346993421522
609,1.1384287789304237,1.5852732665290499,0,0,0.23602535963321744,0.4068561335349758,-0.27902164556896986,0.5600384820271568,-0.9549817456325923,-0.19653899509065456
610,1.1124753618352454,1.6985692414437623,0,0,0.36208912303023866,0.47202589380299675,-0.4518650696392079,0.7087524840707398,-1.086526172568924,0.4509837394296402
611,1.090071167701359,1.8194896535631562,0,0,0.9094474888054546,0.9109038034960428,-0.5194129666838013,1.1998413542642081,0.20213146647117639,1.1798081206352407
612,1.0703842124877336,1.9356426779716884,0,0,1.0328479974267575,1.0771856540257798,-0.42350257279954134,1.4939291779094854,0.3750818357253029,1.209221482550938
613,1.0519882961653613,2.0338853508790113,0,0,0.8132536703595669,1.022928979207998,-0.19534943704581142,1.6286371463763862,-0.35460900106829496,0.6727900007318689
614,1.0334621563206863,2.102028190249809,0,0,0.5801390526825083,0.9405387363618206,-0.030699480847256714,2.1435482835939634,-0.7311256872533916,0.5803987626051619
615,1.0138402410016967,2.1305091829617737,0,0,0.3362287545501809,0.8356844052235014,0.08324446410136456,2.962044004069527,-0.8256399188704749,0.842564727044648
616,0.9928464043803972,2.1137336029169584,0,0,0.21895912664718495,0.8320753003251621,0.14573888565470125,2.701687245521171,-0.24763977756441816,0.8218010379983075
617,0.9709305468666212,2.0508228482497506,0,0,0.19523364168953755,0.9032517910003833,0.17022970570202708,1.6444274797065586,0.8271184820668632,0.5920490989806599
618,0.9491735852105124,1.9456564209874607,0,0,0.24927013375311946,0.9013786796713794,0.1164782415953551,1.018097089522269,0.38078085888515895,0.606692531263099
619,0.9291268507358994,1.8062874767213097,0,0,0.35928850966666703,0.8469161861396243,0.006399114131883421,0.7019985002414102,-1.160613966348418,0.7972794490395234
620,0.9126311466720445,1.6439640339045916,0,0,0.409245753091529,0.8029353010433671,-0.031671421093558416,0.5642889100019447,-1.4817232737177664,0.719790509278972
621,0.9016398611377249,1.472019703936452,0,0,0.4142693241852867,0.7667960457201826,-0.015870003676791887,0.5600378893317336,-0.88989758928334,0.44174536629615163
622,0.89805745151507,1.3048275499149053,0,0,0.4309132291868231,0.7705057011770091,0.008049126955052999,0.7577963057427847,-0.42496514843588135,0.3776682728348371
623,0.9035967098884299,1.1569078418062184,0,0,0.45641929720911933,0.8046058381265365,0.03815917246609896,1.1096157479118895,-0.056806914602213016,0.4767723533755303
624,0.919651689052386,1.0421859585003896,0,0,0.47657281665464224,0.8178001179493112,0.09117474513217119,1.2329135269950235,-0.14304951313029754,0.5801426630594477
625,0.9471778999224095,0.9733170274484638,0,0,0.4928308152312094,0.8157793647926905,0.160860686803683,1.1898959706304952,-0.5599996075145687,0.6866178834504159
626,0.9865699408290068,0.9609469883971506,0,0,0.4939970359290993,0.8708593802659779,0.12592353425170646,1.2053531996555948,-0.5091876396007909,0.643749743151073
627,1.0375307308635395,1.0128005802692963,0,0,0.48447107362056496,0.9663939976099043,0.016863287827310117,1.2622384904285404,-0.1269768391401457,0.4950752125151992
628,1.0989350168771839,1.1325890751688488,0,0,0.42951024479956235,1.034614477319466,0.06266203241897633,0.7045894170455355,0.35338530797101464,0.4143311090572851
629,1.1687007567916483,1.318884423383939,0,0,0.3424847906170284,1.083558624767962,0.21774899334965714,-0.28675332945207177,0.9030155398444385,0.3815273618442436
630,1.2436936893041974,1.56425039442615,0,0,0.30442163366301866,1.167555488518857,0.20446285591125216,-0.43023397135149166,0.4607979378457366,-0.011197014276946637
631,1.3197007968410017,1.8549895913734156,0,0,0.2993776419686508,1.2751911828016276,0.0776293668679071,-0.00193386357546378,-0.6503014272283189,-0.646644454574222
632,1.3915145326233411,2.1718118091633265,0,0,0.4025411677863168,1.2357009975349287,0.0808825781994552,-0.330889530173777,0.22739696005244925,-1.0130324563192727
633,1.4531690799801598,2.4915418084605943,0,0,0.5776499382334849,1.0983894443303426,0.17062811172018325,-1.163331027913476,2.427411430237473,-1.200527646348629
634,1.498359819456334,2.789697532677528,0,0,0.6671518239698493,1.087697056226372,0.2447053461392459,-2.028652124202975,2.7305700042654792,-1.6389085306299116
635,1.5210524875214777,3.0434773576458674,0,0,0.6983964996642347,1.1631715610560225,0.3081199871487094,-2.9163484474741748,1.7428799233341798,-2.248022183408214
636,1.5162444921306093,3.2345287861195757,0,0,0.6869733126856756,1.3993434973471695,0.007768468706003626,-3.5218320575175186,0.9813722791942238,-1.8982928549353164
637,1.4807822499233783,3.3509221436567778,0,0,0.6489744966671398,1.73560564372941,-0.5191543827919485,-3.9515398057793583,0.36074210357904235,-0.9513492816608782
638,1.4140858148063247,3.388003888323092,0,0,0.8580076753623486,1.430210120698774,-0.27937199405269847,-2.0948143607860543,0.9584228177175557,-0.7540831967321527
639,1.3186156305351568,3.3481413873300223,0,0,1.230376731967319,0.7005549028382824,0.46735069427369186,1.2736851898861354,2.361642421120122,-1.052498776997496
640,1.1999555912949071,3.239650473404393,0,0,0.9337015274309359,0.5664806010846252,0.5409814686359149,0.9001203155175486,2.125434491127026,-1.3178888644531637
641,1.0664712798296605,3.075312249283203,0,0,0.19640793210635304,0.824643286883549,0.17132815276086566,-1.9378889957608834,0.8095342830817381,-1.5615290605676686
642,0.928594563279866,2.870818484992791,0,0,0.1055327545440634,0.8148593177629259,-0.03974384310648542,-2.9596176928036178,-0.15389155011458183,-1.3586760281038914
643,0.7978466484628385,2.6433099404457243,0,0,0.390862156678292,0.6491349301000308,-0.15852419395955664,-2.924301807671191,-0.9121832598697754,-0.8959714933395709
644,0.6857256626980729,2.4100019529057004,0,0,0.5436361485383483,0.5462188859888694,-0.1345231305791928,-2.641719864987293,-0.9871353558462674,-0.7552107100959431
645,0.6025651534797255,2.186815906377767,0,0,0.6198082731342448,0.4795988812438748,-0.028010738862061055,-2.2162464190607265,-0.6671953049814959,-0.800496596069323
646,0.5564460286139598,1.9869836438895159,0,0,0.5213426977560802,0.37010644052527614,0.02750201596977764,-1.7183220352163486,-0.3869342471885469,-0.7849346744295287
647,0.5522411231599756,1.8197272839205318,0,0,0.32471857333487125,0.23651670510559814,0.05434942336401515,-1.1796751784238677,-0.12897554645589324,-0.735172047525224
648,0.5908925499213379,1.6892600707394323,0,0,0.2854683098600778,0.18789378654846434,0.04661309375277936,-0.4347534561615651,-0.15165014506781874,-0.4741002101465116
649,0.6690477868909516,1.5944248331069975,0,0,0.3272762483633251,0.18303453605840858,0.02106379624209743,0.41641379703611586,-0.31886990822434585,-0.1041898118875557
650,0.7791814734443966,1.5292310463732346,0,0,0.302829787786567,0.20723753036444356,0.14415584645829077,1.079418119140179,-0.5470071532431597,0.1103919757409367
651,0.9102855886926717,1.4843579284456534,0,0,0.24469169283142034,0.2462192343241271,0.34283487682566555,1.6467379781717646,-0.8061221080584994,0.2459861821312065
652,1.0491190629742162,1.4494117609938217,0,0,0.11575417706957862,0.6549089041943418,0.6697076692509539,1.8652267851131865,-1.0072678871029583,0.44408812799917163
653,1.181882780880132,1.4154721741035303,0,0,-0.050371550501282614,1.2577919437625913,1.0639157129741292,1.9004880633707921,-1.1779646891550393,0.6750229846894203
654,1.296056964719634,1.3773471803546509,0,0,0.17094650916133414,1.6400402984117333,1.08902228387268,0.7283554431701997,-1.2830868515112264,0.28595862793156623
655,1.3820536983846041,1.3350216231816128,0,0,0.5903247105265764,1.909500841661579,0.9254452512495877,-1.060993440778835,-1.3546874481226439,-0.42004753078077117
656,1.4343505436329609,1.293979276919774,0,0,0.5969654269839588,1.337062255657184,0.7316108841551162,-1.4822588511956445,-1.2046888233841906,-0.5064565412045592
657,1.4519000915358786,1.2643176418897655,0,0,0.39510055558214713,0.3393153836032184,0.5224912004778366,-1.2123996128772874,-0.94274331362276,-0.27985916757574836
658,1.4378075202013123,1.2587995272003796,0,0,0.7921944101440892,0.5145543852297705,0.3557356113433382,-0.5786256410365235,-0.34055785550754547,0.25160791586088127
659,1.3984363156165929,1.290180834352494,0,0,1.5186068445905467,1.334722703078917,0.21227258422662018,0.25523537923499895,0.4486978164758651,0.9506980020851392
660,1.3421658871944568,1.368299993590861,0,0,1.238631899641253,1.1921446647344107,-0.1122298886457925,0.003986316365852439,0.7060175704596823,0.8487750207477458
661,1.2780015376787723,1.497474868015648,0,0,0.5125841263776061,0.6228373184099081,-0.5169765889887802,-0.7282287578957697,0.7275611571349554,0.3918096652758017
662,1.2142127747977325,1.674714245938047,0,0,0.25968761906834853,0.3883429960975762,-0.5176030749087039,-0.23317705307610603,0.2720180909759063,0.2498280495720028
663,1.1571942429917146,1.8891326805000477,0,0,0.20702354914291798,0.29553788133498493,-0.34721030942662295,0.7812405183635843,-0.38542282364418823,0.24114410516383902
664,1.1107552568359227,2.1227693943876216,0,0,0.4495727330838146,0.5061881983016261,-0.34247085500287233,1.7728771143192334,0.10903978403948596,0.6385139243359778
665,1.07597826860437,2.352748338248524,0,0,0.8131422245285964,0.8412376374716004,-0.40563964763715143,2.7551748335265263,1.0757160083201038,1.2023422297631146
666,1.051639779506672,2.5544137048180637,0,0,0.9733731230290886,1.007469829802211,-0.3175541495714726,2.927052147858705,1.1459635639038588,1.1831844472877444
667,1.0350262724094899,2.704839154081931,0,0,1.0454479115138,1.1005124148166703,-0.163893347808532,2.7475770231419614,0.8275703627853899,0.9112768784753894
668,1.0228830538223534,2.786043563899397,0,0,0.7585784278214124,1.0326820443814582,0.0008563359130477988,3.0451146598301992,0.13103807051736183,0.9529925551801383
669,1.0122446957770215,2.787361121762913,0,0,0.33285917945292604,0.9026214791077037,0.1698955119141803,3.527174281640809,-0.7117690838289272,1.1160265455260556
670,1.0009918241786175,2.706631634526167,0,0,0.15510313474459378,0.8622347761960659,0.1612973335924715,2.8713893493551206,-0.09746295496282188,1.0383226996851431
671,0.9881009039787835,2.5501221500544347,0,0,0.07533194902495995,0.857283495217639,0.08250417962899895,1.7659750537477925,1.092634406562349,0.8654891634363233
672,0.9736435123582794,2.3313298544897356,0,0,0.12044667561524242,0.9021082976393199,0.0451381912822369,1.3050352501608422,0.5378727611636911,0.9012503542578167
673,0.9586247535850457,2.0690137852403,0,0,0.21418102205103498,0.966311540853772,0.023900307347707705,1.0949972823954133,-0.6961839305439782,1.0182200347850494
674,0.9447390245017274,1.7848996010504827,0,0,0.28065738296375076,0.9257740570685985,0.06207663489131635,0.8081713935400725,-1.0030695415882733,0.9053184884074877
675,0.9340938385005747,1.5014649490313088,0,0,0.3368104161084016,0.8455684599028306,0.12275471266893517,0.4922638660209181,-0.9588106784316405,0.7053585631692211
676,0.928931178019805,1.2400797645893937,0,0,0.38737927122730414,0.7963097785808607,0.09868050870438526,0.5255959015198989,-0.8458744526051138,0.5861124737369443
677,0.9313669210095412,1.0196195480819477,0,0,0.4357282571328595,0.7593533739049273,0.04091486967418475,0.6977605658295811,-0.7056370280377212,0.4989524229146696
678,0.943165796919584,0.8555432116519465,0,0,0.49635545222349264,0.7740509394089903,0.06567535996784038,0.6242916163976878,-0.609115072902726,0.4875772300833757
679,0.9655635983092133,0.7593482663038537,0,0,0.5613269176786608,0.8070246895522661,0.11963520844610201,0.4639126915601496,-0.5280605058514779,0.5030162018994809
680,0.9991377153389557,0.7382848306712454,0,0,0.5816275891242736,0.8690985454701156,0.06631239155601087,0.5910735179358753,-0.11828426490019844,0.35778122038352983
681,1.0437161481142831,0.7952176404982988,0,0,0.58604461126194,0.9415195619981734,-0.025157055105020542,0.8204752086083563,0.40837594784829584,0.15541520281898624
682,1.0983108581067527,0.9285553770626588,0,0,0.5096366433613688,0.9799821367016578,-0.014263735461959581,0.7419587495606205,1.093304819663921,0.1455493761508247
683,1.1610669708209878,1.1322064905750455,0,0,0.4059824118344495,1.0069972536961966,0.031136274639940238,0.5596424747678175,1.8315863690298635,0.2005757435755759
684,1.229231608476455,1.3955779314267187,0,0,0.37329763302803387,1.191130537730991,0.07981029789544737,0.2645428337056529,0.9738443104223699,0.017402590677994396
685,1.2991573577999325,1.7037241657248148,0,0,0.36562941811592936,1.430647602753027,0.12963840292252338,-0.07031267594920784,-0.4464922842327845,-0.2497353280081477
686,1.366361593403876,2.03785604783153,0,0,0.3874229718636691,1.3144986898601851,0.11765160448144746,-0.2756609915322659,0.41483821003773236,-0.47374657777526
687,1.4256690253605515,2.3764466825618618,0,0,0.4194853969108761,1.07438274062911,0.0841192805873902,-0.4358696989074137,2.0714415854744876,-0.6827260687216983
688,1.471475587984547,2.6970388077463308,0,0,0.4789446611284125,1.0377217864795514,0.2730589236323781,-1.4738568727037378,2.1744676105073655,-1.3330873971615231
689,1.4981761104228708,2.9785844584878403,0,0,0.5476127772462863,1.069447804969167,0.5367776813764857,-2.806890193931078,1.7552923900634363,-2.1318096343220923
690,1.5007736476953764,3.2038707620252587,0,0,0.5515887040714821,1.2993445211756058,0.18317053346953166,-3.550065011584422,0.5827322730597938,-2.2874730949361664
691,1.4756266498483988,3.361460895299768,0,0,0.5350459841569345,1.5920957271255247,-0.366236019781265,-4.106152355913108,-0.828781553188436,-2.239175366272332
692,1.4212125532295719,3.4466761167113726,0,0,0.9988559006266814,1.3469508540733084,-0.017623152033776315,-2.601093770071349,0.7345335823049227,-1.385444452254823
693,1.338731184172296,3.4614246061842437,0,0,1.621006645062349,0.9244968453337251,0.6270079498135722,-0.4166102599022888,3.2784551441748455,-0.2662149280408036
694,1.2323712536351703,3.4130275382165114,0,0,1.1044671607325345,0.7942332091683083,0.3270123881129406,-0.09303556066041675,2.394362337960593,-1.0483823181379155
695,1.109129835151816,3.3124575965707943,0,0,0.21605076729225223,0.7593939908228269,-0.2814822146796563,-0.3772021041066272,0.390738201633912,-2.4515136802450868
696,0.9781890024892866,3.172491373497837,0,0,0.08558118694672583,0.7144894634016449,-0.24666341686056864,-1.3297945045072561,-0.581533610209896,-2.1498629878845645
697,0.8499665218126302,3.0061780657841295,0,0,0.165267266370442,0.666794131073902,-0.03347332720938419,-2.4677211195238744,-1.2678427077831254,-1.3755279442936905
698,0.735016023711357,2.825810876674592,0,0,0.34468549133989335,0.6009478234722456,-0.03304675973950832,-2.671415996485212,-1.581110882501176,-1.1146666060388675
699,0.6429404650037029,2.6423558293208926,0,0,0.5507483712218639,0.5302522622693628,-0.08946255408915377,-2.6255195054414067,-1.7947166384706532,-0.9909860117091733
700,0.5814308158233611,2.4651434997571844,0,0,0.4782943131435934,0.4442244412785485,-0.08076972769270895,-2.1470679415442713,-1.611364129887397,-1.0010462255845087
701,0.5554938964716161,2.301618485383853,0,0,0.3331799995863773,0.35419669885957966,-0.055091187405888996,-1.5557702357512186,-1.32445207090775,-1.0459971049140717
702,0.5669132151278614,2.1570536606905577,0,0,0.38625150977324824,0.287416214398055,-0.0546386942850234,-0.8476403819882535,-1.2410968340835768,-0.8253145286834173
703,0.6139896305286057,2.0342936484026204,0,0,0.4899566158900572,0.22657506616681558,-0.06063108936427538,-0.10966161234552102,-1.2097474049625103,-0.5367664671898998
704,0.6916139381330969,1.9336989021804682,0,0,0.4550385779425869,0.21831269870319187,0.05084457407570972,0.5399654164427395,-1.2417333378385342,-0.2930548684850965
705,0.7917135292618769,1.8534548923888705,0,0,0.38549916075912816,0.22318197617408347,0.19165809616830942,1.1675264395103153,-1.2895373911476098,-0.06054125680110272
706,0.9040833126162999,1.790289087056225,0,0,0.3082578932182678,0.418138267532846,0.33120124587585736,1.8090200616931866,-1.3386151593479543,0.33524118359227284
707,1.0175548475990648,1.7404642928253884,0,0,0.22902574840634626,0.6622307954876497,0.470416012442238,2.454115167418352,-1.3880221743343866,0.7732275365349842
708,1.1213771869148699,1.7007887470825915,0,0,0.20847761125432243,1.2272614803780033,0.8390153898362709,1.3591940338491921,-1.1617295657738018,0.47523428096452247
709,1.2065928070334895,1.6693811918141988,0,0,0.20258140741554398,1.8724224208986975,1.2648863851055976,-0.17016576665795974,-0.8666016358134613,-0.0065147306423299625
710,1.2671339260017942,1.64605200417544,0,0,0.10228538748841483,1.5268833502668395,1.1005112549908913,-0.9815780885211618,-0.7968390144556661,-0.5421768633925026
711,1.3003951280853965,1.632312917197253,0,0,-0.02126507700921691,0.9372953034368195,0.7907349328225963,-1.6161312756817938,-0.782592868478224,-1.0911199510913188
712,1.3071816027039591,1.63109984684587,0,0,-0.11215461371367964,0.5400990158188563,0.481447593246002,-1.1479038115653089,-1.1435285405766809,-0.5060238133961295
713,1.2911341369511335,1.6462736622721377,0,0,-0.19498596251452155,0.19037011638611068,0.1722808973087744,-0.40759548263889056,-1.5970300307022645,0.35886538431851456
714,1.2578782199140468,1.681927922821779,0,0,0.5023715136630257,0.7022341578277869,-0.40573512409083445,0.2848518179188804,-1.2461198666621744,1.0355779732978085
715,1.2141468110457811,1.7415377378890746,0,0,1.3534258177361709,1.3838315998088717,-1.0367143342593554,0.9678705172492889,-0.736740988195178,1.6752198581686635
716,1.1669991223277056,1.8270201927753351,0,0,1.1611489471447702,1.1475886282583778,-0.6135707840349851,1.3081434131513352,0.5519787957143961,0.3459608327292144
717,1.1231156037362044,1.9378152172126195,0,0,0.751796520447419,0.7203797169071268,0.028893620723289118,1.5771045942006898,2.002848303910625,-1.3929478533136888
718,1.0881115685633385,2.070130983691218,0,0,0.5068189157356358,0.414753993538388,-0.15921001456222525,0.42682813562782745,0.8130450843823959,-0.7888547821789174
719,1.0658928411745332,2.216536475867857,0,0,0.29512753636351013,0.1337491052667964,-0.5155053149763265,-1.01084674249707,-0.9114995673681688,0.28970076277972556
720,1.0581792438588586,2.3661086775584343,0,0,0.524605227269338,0.3455935675307066,-0.4255445235930335,0.2756852110486394,-0.05426645669886302,0.8000019492314956
721,1.0643433896289947,2.5052946040862336,0,0,0.8443966721940468,0.6583314922976584,-0.24422859029857874,2.119902103036179,1.3314942817639897,1.1939731649735017
722,1.0816361598728448,2.6194742481690345,0,0,0.8867940673755665,0.8049811758996437,-0.32653184904963267,3.1262305955287877,1.262738568803915,0.992948647549113
723,1.1057542267828837,2.6949469315356853,0,0,0.8728596420996112,0.9179024758628568,-0.4623695980405779,3.962404830758711,0.8986068021902258,0.6710953200934698
724,1.1316175692719288,2.7208584214333578,0,0,0.6563149691100473,0.9136260234803579,-0.3987661092690271,3.1069851862808955,1.251041088224659,0.7220857583994352
725,1.1541995295077558,2.6905869186580316,0,0,0.40316806557553053,0.8881773986440797,-0.2991328826572581,1.9459733542596123,1.7329254687197044,0.8404316907921586
726,1.1692778954023484,2.602328495987545,0,0,0.17352901366623458,1.0016091654880313,0.38460519072239646,1.325915234831147,0.9161885541842689,1.0520913324281014
727,1.174016789346675,2.4589360368860307,0,0,-0.05169729865837204,1.1411106481788251,1.1779875933280237,0.8074013964903345,-0.14431702873250535,1.281267211314463
728,1.1673179070163575,2.267294703266504,0,0,-0.07219821606421845,1.146116686749212,0.5652375307958536,1.4535594778215035,-0.261089065198025,1.198008696695785
729,1.149899939343353,2.0375581405443066,0,0,-0.05529933208029201,1.126552725604968,-0.3043886982699744,2.3124830453725274,-0.20545724710230645,1.0576738031269968
730,1.1240999438746297,1.7824450033219927,0,0,0.08079382605778593,1.024578621284926,-0.15176369726194214,1.9665679610070896,-0.17111042588136707,0.711956633142522
731,1.09344489237044,1.516622042251835,0,0,0.24127286852220328,0.9057442756946492,0.2100030619137292,1.374155668497344,-0.14111828918228841,0.32422042749878427
732,1.0620910307807998,1.2560959407414707,0,0,0.3081866435464435,0.8827351244152971,0.16377265265456015,0.9615660407985308,-0.3412681814729532,0.3557962211258628
733,1.034246907561834,1.0175314003132128,0,0,0.3597298703003726,0.8754677736571999,0.05051801152746808,0.5785170003108878,-0.5792249359802448,0.4562550042361127
734,1.0136792889439112,0.8174509664833091,0,0,0.39622577586155505,0.859255508053591,0.051234955904471295,0.28157314871376915,-0.8221367447110534,0.5827736759280424
735,1.0033634539909995,0.67129267448998,0,0,0.430273124711245,0.8415876923250118,0.07049778492469755,-0.0013593424651239475,-1.0658548580426153,0.7135329103808957
736,1.005296236293679,0.5923049799571404,0,0,0.47392436139193495,0.8944802148206503,0.0030836329828214976,-0.03924533359469574,-0.7059670845977578,0.5358482930261982
737,1.0204518111164207,0.5902881863825682,0,0,0.5190080897624894,0.9578973399081246,-0.07725903944429227,-0.04058080466564116,-0.25604697497056367,0.3121569663692478
738,1.0488321476221136,0.6702737695188183,0,0,0.4939072644719584,1.0349260905975437,-0.07407026617079204,-0.10599664592655664,0.3225555082691986,0.1755575812654232
739,1.089550501178375,0.8313399780097793,0,0,0.4588742470306923,1.1138810954529073,-0.05906051059956991,-0.18048084370292736,0.9193685243521352,0.05128304307977239
