id,ASVM,GSVM,walking_nonwalking,normal_abnormal,ax,ay,az,gx,gy,gz
1,0.9923792747852712,0.04303265937770417,0,0,0.024414063926009394,-0.9892577995543841,-0.08007812759708974,-0.026572637,0.020158553,0.014660766
2,0.9926025008236277,0.03722768012854154,0,0,0.02344056658037103,-0.9921783464830657,-0.07813112985627042,-0.02465701236159651,0.015882496,0.019828435511715647
3,0.9929553965716762,0.03188244024800092,0,0,0.021543123654543923,-0.9909050199570095,-0.07921906132830839,-0.023821331896544916,0.01862463611016782,0.01619275320691017
4,0.9934098352964548,0.027629549369866908,0,0,0.019586999258492287,-0.9902529653284665,-0.07530681049364076,-0.033884171427769984,0.007038658354417952,0.020755711932678823
5,0.9939092367494249,0.02507184503780538,0,0,0.019531249713204815,-0.991164254969612,-0.07519531134485273,-0.02685916841350211,0.006069130779887482,0.021062821713080167
6,0.9943680915844585,0.024821915271678607,0,0,0.019181816719229774,-0.9852485724690053,-0.07136080066524292,-0.026058079513782677,0.014194822451004802,0.01787560389133914
7,0.994676037437999,0.027535974546553852,0,0,0.02207066505910585,-0.9857418529697618,-0.0769506575090949,-0.013173080272419962,0.011027155821037977,0.016181612636309406
8,0.9947078518302569,0.03393600640576574,0,0,0.02284611705464654,-0.9890516225460573,-0.07628859113446103,-0.024132860553380785,0.01797632340164096,0.015385821010083048
9,0.9943399224249301,0.04481735811511828,0,0,0.021853683011106496,-0.9918182307977417,-0.05996439604837611,-0.02954333952604777,-0.0003362390844614155,0.029077712881316095
10,0.993472335891071,0.06104131006709245,0,0,0.0216699879525024,-0.9902586914481326,-0.0635409325367,-0.022922014533783786,-0.01724079762996821,0.036679227141494436
11,0.9920541409343895,0.08351290996805602,0,0,0.022047071131394903,-0.9889601928076756,-0.06177013750629241,-0.021596501964374622,-0.05303716562842368,0.07142531035433829
12,0.9901080760789283,0.11314369831856776,0,0,0.02466015674261853,-0.987647666838319,-0.11656172409538428,-0.028861800574308743,-0.07845870560253454,0.09939421389861751
13,0.9877503239284479,0.1507976983345155,0,0,0.024109799853217154,-0.9887936328891368,-0.09035608011898058,0.007150241808244579,-0.10443445819867793,0.1119387014781491
14,0.9852007106847923,0.19721856838960167,0,0,0.02147341925688309,-0.9883031794603594,-0.09227968174716164,0.022782104080808052,-0.15943825485640736,0.14331607389384032
15,0.9827793468272836,0.2529372617403767,0,0,0.0253684104684549,-0.9848743891717793,-0.10301623629918136,0.0048104878957867326,-0.2440679530972748,0.12154419551223394
16,0.9808871685237704,0.31816310310041507,0,0,0.026266265655273898,-0.9838192159516794,-0.09937339944068695,-0.015721872381177397,-0.3296931378066549,0.12256941112719039
17,0.9799701622366725,0.39266655655569205,0,0,0.028853591293909176,-0.9767425289075606,-0.09135359486291592,-0.058643065,-0.36254853,0.110872045
18,0.9804699371772229,0.4756688533127403,0,0,0.02568272177039748,-0.9771717759064181,-0.08147212920808544,-0.10383048127175636,-0.45839788667523745,0.10110085303817247
19,0.9827662326739843,0.5657611623492717,0,0,0.03918331484658582,-0.9758930481287422,-0.06158886285513792,-0.14058272429538218,-0.5147771090366241,0.08644399983140923
20,0.9871192609341711,0.6608819421507806,0,0,0.04478614747838122,-0.9652510045453655,-0.0446415964487118,-0.1942761262720352,-0.5510026413661859,0.07757260505208335
21,0.9936207895285792,0.7583825924440765,0,0,0.051424251563477304,-0.9630272879576353,-0.04945906390868121,-0.2687939849652434,-0.5589526191360478,0.07207500255769606
22,1.0021618311497902,0.8552051686979946,0,0,0.06724911096143156,-1.0039732798125902,-0.04849371328697446,-0.36114296626677195,-0.6416517717442779,0.03952134378058405
23,1.0124213382585323,0.9481781548605734,0,0,0.08458340613328179,-1.0295963571807933,-0.0546224246869096,-0.430285882168272,-0.8504039927953605,0.019288487180460043
24,1.02387538362772,1.034406584552728,0,0,0.11704627627485123,-1.0396904904011368,-0.06849759964294248,-0.49172148156411283,-1.0573495599841207,-0.04212338842000802
25,1.0358226880244423,1.1116989264326516,0,0,0.13676204674220907,-1.0273220747933125,-0.086935709095731,-0.5125207142845739,-1.130714342805827,-0.11852047215525832
26,1.0474226339668415,1.1789506979232154,0,0,0.16209160944945056,-1.0144087317606405,-0.10277876169807544,-0.5387743792294013,-1.1114940436277416,-0.18720787040110637
27,1.0577458474560495,1.2364067279264501,0,0,0.1894232870716103,-1.01266552513343,-0.11248372594465574,-0.6101926999409334,-0.9564210527584168,-0.2998200899054934
28,1.0658417690859294,1.2857486255833666,0,0,0.1864881047697456,-1.0087360828775511,-0.1256207960321166,-0.6240054764828672,-0.9120187324734147,-0.398269884871997
29,1.0708286280455903,1.3299843856490696,0,0,0.17726754015051976,-1.0040336613544072,-0.14650520828232846,-0.5989613833501515,-1.183995801210899,-0.45877457392532806
30,1.0720070348235085,1.373135558100815,0,0,0.1626250440795912,-1.0246923583194645,-0.17841879774936206,-0.6493519522090927,-1.6444772780893249,-0.4700611670418586
31,1.0689894746260389,1.419724893709958,0,0,0.15647348110234616,-1.0519745623139292,-0.20831391182249626,-0.6383559107621525,-1.6160569529305866,-0.4725040156071214
32,1.061826613658604,1.474087849252832,0,0,0.1569458381460823,-1.0715434814170546,-0.23432225799714168,-0.5108124545443644,-1.0502562342326136,-0.5725506962529977
33,1.0511014751613346,1.5395876951362133,0,0,0.16837110623375617,-1.0668254761713443,-0.24855820829009564,-0.1834295504602463,-0.44394784902516826,-0.8275103103875359
34,1.0379588772752901,1.6178908532830862,0,0,0.18646589410314596,-1.0452509528452125,-0.2656196225101237,0.3018143041176477,-0.10144441907790147,-1.0625733257551673
35,1.0240431965364587,1.7084993816487022,0,0,0.18677911783204373,-1.0275395416612645,-0.29598825215295077,0.6197475337441317,-0.39759959161971853,-1.240545736561033
36,1.0113323903685056,1.8086909413297751,0,0,0.1689240103721028,-0.9947656634484228,-0.29943182845305116,0.694808315479937,-0.9626808789339139,-1.347378861605036
37,1.001877309593498,1.9138906218615377,0,0,0.12062272387107378,-0.9887047096020248,-0.17222711013180364,0.5995842201163263,-1.6147626346570378,-1.4074357052948256
38,0.9974784044437868,2.018355343749696,0,0,0.05058289613469796,-0.9357376338958925,-0.0652313336752523,0.25027491298773175,-2.0097088838543735,-1.3776805889196675
39,0.9993519904164911,2.1159593185630077,0,0,0.06919316238631396,-0.8915354432122969,-0.08019123637037917,-0.12768585240958896,-2.1267145801706624,-1.3302889480292566
40,1.0078494080752336,2.200865341657226,0,0,0.1489653234356893,-0.8854052674476154,-0.11990995900551686,-0.3380462267303102,-1.9419016015712014,-1.2494167944311854
41,1.022289255443113,2.26794575461215,0,0,0.2491467978908645,-0.9314362715595808,-0.14417433880141328,-0.43396329083499,-1.727848220477137,-1.215933273558648
42,1.0409439119710746,2.3129385134131746,0,0,0.27749523038537743,-0.9743999981840524,-0.08766160940417145,-0.4230535843510322,-1.6522969916297936,-1.224673255383481
43,1.0611918492941586,2.3324334462012795,0,0,0.2838684175063729,-1.0246124493387518,-0.0324775512215774,-0.3582566607709207,-1.6357384082883961,-1.2157030544238066
44,1.0798163135548047,2.3238389198019824,0,0,0.2922822914132259,-1.0609145459815585,-0.027659669111915045,-0.3531318057535337,-1.5818391547282502,-1.262934956340832
45,1.0934074444436024,2.285466429245862,0,0,0.3065935808798104,-1.072999118882149,-0.049007229114162734,-0.28129671431313114,-1.5601572661414145,-1.2049310829696969
46,1.0988124181144,2.2168032083717573,0,0,0.32291444980935546,-1.0791374020139408,-0.059306278651363745,-0.18278297341658334,-1.8909569152247756,-1.1479313495704295
47,1.0935758214677245,2.118946503434097,0,0,0.2516475833228702,-1.036769707496665,-0.17601862399245116,-0.05842877892811867,-2.157808316891089,-1.063256905722772
48,1.0763169131839772,1.9950783472675178,0,0,0.17926400120263977,-1.0658532231004878,-0.2830971783117618,0.0920577739207569,-2.1177158322405463,-0.957090467077634
49,1.0469980862290111,1.8508004676749221,0,0,0.1300303297751536,-1.0893415800429187,-0.3102279860019947,0.21652941576444582,-1.9079952592094709,-0.8184016586095508
50,1.0070479957894465,1.6941513016728964,0,0,0.10995191429067196,-1.0236876922936722,-0.3049012305109892,0.3461916905054368,-1.7516042190294003,-0.6950667462505036
51,0.9593151768696594,1.5351914860763924,0,0,0.16781108501499217,-0.9118749923474462,-0.2807752016884137,0.47281759520442407,-1.5545083372308912,-0.5834131866087302
52,0.9078461915551779,1.3851453779759413,0,0,0.3167886196165901,-0.8476936409456489,-0.22474647068931553,0.5712590755564467,-1.2093769247242834,-0.42937365299779445
53,0.857505046104739,1.255192442464684,0,0,0.3712720266949708,-0.7826888447345104,-0.16148303254204338,0.598925185564694,-0.8686669103109315,-0.23895644955265707
54,0.813472284482503,1.1550899336271865,0,0,0.33398427821426163,-0.7204057846256939,-0.09595790352609691,0.5709995799679288,-0.6902473942293044,-0.0721749699593097
55,0.7806783222034236,1.0918596447434963,0,0,0.2932454721382656,-0.6702400993200404,-0.12755611646698894,0.466877041107544,-0.6728798662921348,0.014676454353130032
56,0.7632352419483955,1.06877358738501,0,0,0.2610431299595647,-0.6535286680315745,-0.17334197766847598,0.3728306761782929,-0.7198800795022989,-0.018797445726564232
57,0.7639342944719308,1.0848246655457778,0,0,0.23370309731879813,-0.6207421410156705,-0.21213755381219584,0.4131044921231101,-0.8929788188698309,-0.07384096704863741
58,0.7838717445074246,1.1347831018248058,0,0,0.22378317686632168,-0.6148117634608679,-0.258197112604676,0.6287727536338336,-0.9216662864253365,0.004965592428124427
59,0.8222528954870675,1.209841834141451,0,0,0.21757360144742385,-0.6502453585267657,-0.34295981779824863,0.855268677811245,-0.16131442577309205,0.12718171633534145
60,0.8764039661378076,1.2987652231627467,0,0,0.23626227235694425,-0.7059613831743521,-0.4146330013072281,0.9558616704145082,0.48932047834196574,0.4211156353626922
61,0.9419963919246405,1.389381053845625,0,0,0.28018454103947643,-0.7584586606932869,-0.43909090070858464,0.7596982878375691,1.143310268407467,0.8841308327144564
62,1.0134621595859556,1.4701919991362653,0,0,0.32973674549927995,-0.8209812200012848,-0.4371083500955164,0.4029155062607311,1.8558799466959464,1.0728439435615893
63,1.0845563038069348,1.5318401104517665,0,0,0.3878255759460577,-0.9135403377475366,-0.44349173292941974,0.2978869658090135,1.9242844220964876,0.8835297388108011
64,1.1490059830925943,1.5681720797254608,0,0,0.45159431083197277,-1.0317132917757679,-0.45949309700618357,0.27813125141575257,1.3211090137587216,0.6706819232602187
65,1.201175103734004,1.576749946485892,0,0,0.520134324107645,-1.0701619789470211,-0.49233883339425827,0.30382439967346986,0.9309511199999999,0.5844446930612249
66,1.2366706972856645,1.5588013470505344,0,0,0.5207861448069627,-0.9749701150999862,-0.5643707031765038,0.5477523527689866,1.017228026661392,0.6635528325949361
67,1.252824220566288,1.5187263116558212,0,0,0.4519881975730655,-0.8891187104951933,-0.6242496467819701,0.7347785011558399,0.9260865863531281,0.841232891159825
68,1.2489954219127202,1.4633133452697404,0,0,0.4494038107703277,-1.0044101053787495,-0.5643539060220918,1.0367874363328686,0.926301364085207,1.0392879878757708
69,1.226660280486783,1.4007769567831971,0,0,0.4541477825248891,-1.3229093966170997,-0.39808551453684804,0.8633181472318191,0.9179273968461116,1.1327181418240229
70,1.189252516206632,1.3396760431005292,0,0,0.27239285328027824,-1.462255372415608,-0.21821456830131908,0.8958004537967582,-0.4032014900880203,1.1256867993198636
71,1.1417390969428252,1.2877638960655249,0,0,-0.02866601738966341,-1.3012205228616924,-0.017401942004215715,0.5927063970633815,-0.5195845752155721,0.8633642599880766
72,1.0899426967411439,1.2508643337890124,0,0,-0.22023973746364356,-1.0438664348970692,0.06104911616160618,0.542252116545848,0.715274734600307,0.41768839706700805
73,1.0396852648178039,1.23192927751408,0,0,-0.20012504069163065,-0.7954199885525749,0.04847918352146383,0.40774742214029586,0.8933911887485058,0.25836744795336886
74,0.9958970911296686,1.2304648279405883,0,0,-0.0961364050286456,-0.6447681303183591,0.038417485852713026,0.20696601255586577,0.8698541835195531,0.11114462724301678
75,0.9618788116107931,1.2424901062694196,0,0,0.02980682506206701,-0.5782441601160118,0.05185113558753976,0.4203989635953281,0.7444656579885167,0.21858473176994675
76,0.9388914815787388,1.2611184706235,0,0,0.060520812259856116,-0.7046999594824147,0.033937150946274836,0.7656775362082674,0.16779176650039657,0.3936840863930844
77,0.9261779474004128,1.2777400722359407,0,0,0.18034471442050942,-0.8186559368091836,0.2189092390772531,1.0730403443975072,-0.6390503827197771,0.47038319824582625
78,0.9214077385282486,1.2836560723583392,0,0,0.373729577448996,-0.9635546945413944,0.3176276897865592,1.324150721189169,-0.7895425771634158,0.6150543806854765
79,0.921423889028729,1.2718949228059608,0,0,0.46878754605617834,-1.1955993072068183,0.11644662556666313,1.4346697366906476,-0.48090940603517107,0.7800905258992806
80,0.9230922459279662,1.2388696213094612,0,0,0.5174517261688385,-1.1767481850274129,-0.0058510340296251025,1.337430808007223,-0.049436504423235134,0.8103811554184229
81,0.9240390575042186,1.1855444719478727,0,0,0.43572538187583737,-0.9832577164717583,0.007591835927492229,1.0431036520899677,0.48972777712977755,0.8005993584912419
82,0.923115117821829,1.117868874854647,0,0,0.3338187250587707,-0.8296715434139925,0.0006604858448890168,0.8248541874524714,0.8097644501300781,0.6952686376826094
83,0.9205211904190338,1.046368440715235,0,0,0.2579949535102908,-0.7596974263255025,0.0686537161742256,0.8431177743569137,0.6266046264389045,0.6304318454019294
84,0.9176283285672834,0.9849199892324044,0,0,0.17661516932673316,-0.787182201865805,0.13120866149088448,0.7815206027888436,0.40569240916334626,0.6597235482071714
85,0.9165911162529902,0.9488553392417801,0,0,0.1171796597622918,-0.8548652511561182,0.0965607827780112,0.39204699135211796,0.6413309516115956,0.6364998053922563
86,0.9198694697953839,0.952634841979063,0,0,0.09801567762223898,-0.8928242367580297,0.024820393959737366,-0.17155213616978943,0.6259315717670312,0.6225199418558734
87,0.929758227513345,1.007404442160851,0,0,0.07367071479431585,-0.880792368124788,-0.00803405343088444,-0.6777411812195124,-0.07140915205176734,0.618850464350423
88,0.9479948756033859,1.1187957151234893,0,0,0.030210926657237756,-0.8567190321191225,0.01678909975269573,-0.6239182921871846,0.02373626793472757,0.3313553747579823
89,0.9754884790171425,1.2853400001171233,0,0,0.047620001724275544,-0.9268365205046083,0.017205624812291907,-0.07459697071682914,0.591378725970873,-0.049366657443769994
90,1.0121893551499228,1.4978335574674118,0,0,0.08493007581131073,-1.031161058388801,-0.0009620383186903183,-0.2664340890243888,0.6307705243902444,-0.20600312512195063
91,1.0570964681186628,1.7398921761096997,0,0,0.0995662647433516,-1.078821396980706,0.006814381552513651,-0.9211347177720529,0.2589840904539137,-0.5288611260257691
92,1.108378866212046,1.9897572994882384,0,0,0.14028479982304765,-1.119965091316868,-0.03323914067037149,-1.492444896662008,-0.27064791330402255,-0.9298928535878497
93,1.1635739816925714,2.223174820896672,0,0,0.2115231231113208,-1.1659804913428273,-0.013853446959781279,-1.9814054556354912,-0.8186815401878494,-1.1942144325339727
94,1.219822513783891,2.4169129300165553,0,0,0.23587467091492204,-1.1941745118976381,0.10800685948027852,-2.3491043920821117,-1.0632776120234604,-1.4273388495601174
95,1.2741045406049374,2.5522896961174597,0,0,0.3695635675626039,-1.2242461714964972,0.16288737725580785,-2.8409422385232785,-2.0235549836276254,-1.4030853083868375
96,1.3234494855215224,2.6180116109129092,0,0,0.4508903688582148,-1.3194692954396265,0.003705526362435521,-2.9946161440014305,-2.8598038203111025,-1.3308651810477372
97,1.3651007971889237,2.611724483213213,0,0,0.4021541353076842,-1.3433895600482706,-0.1061718133669946,-2.803818878343956,-0.9448159134076606,-0.829525820382169
98,1.3966254971837506,2.5399542601704206,0,0,0.33507323263625666,-1.314454244359325,-0.13799588571701793,-1.8316756879040261,0.28557365545905194,-0.923662908471148
99,1.4159707692240564,2.41650758536247,0,0,0.3544618790068758,-1.3911317312675853,-0.08498906949814118,-1.1867169992462303,0.2293821959798987,-1.1180490716080413
100,1.4214831539992636,2.25977248584041,0,0,0.3836568091756893,-1.385983712858928,0.03454098245616699,-0.9883941436475491,0.17132170662036122,-1.4629101905735251
101,1.411916629519259,2.0895620981331957,0,0,0.33645368878698223,-1.2606026857868322,0.05397600438769363,-0.9889806281591147,0.25290769363746146,-1.4483499962940594
102,1.3864607955086856,1.9241305413009036,0,0,0.28539033903575245,-1.202085008975359,-0.09024671280976188,-0.7343670763126718,0.3131154767232527,-1.4415713599684175
103,1.3448171400015692,1.777830925567513,0,0,0.13013169023255292,-1.2532742688234173,0.11065598752636395,-0.39634470519434467,0.12060918756183525,-1.4777640445229674
104,1.2873360837866703,1.6596880947538648,0,0,-0.16045143813425886,-1.3194957012403885,0.37840077917649867,-0.3274175329015441,-0.046727518250852244,-1.3612812296370564
105,1.2151998409012381,1.5729850597797734,0,0,-0.2526498602284135,-1.2416321068584677,0.06046349445693248,-0.21837717922706046,-0.16254400110518913,-1.1606226580306391
106,1.1306063135855215,1.515819084634705,0,0,-0.16471722665159658,-1.1686426969695862,-0.012178786837703388,-0.18358517008451283,-0.7973060107527492,-0.9243168387971707
107,1.0368927539497357,1.4824550686137354,0,0,-0.013196030378779212,-1.117128709361122,-0.08075355944371998,-0.03303981765114055,-1.5521258699107998,-0.8096786949950453
108,0.9385420414095859,1.4651828858036142,0,0,0.08462274088745624,-1.0483749761048915,-0.13059632296038357,0.21099567024342453,-1.896697189352863,-0.6667840918404888
109,0.8410346643040154,1.4562912239618284,0,0,0.013933949555197075,-0.7875608362717623,-0.09331958683635787,0.4958733764241329,-1.9211792812186812,-0.552997078849469
110,0.7505374969838903,1.4497451457687367,0,0,-0.08256301067346793,-0.715210051756544,-0.0012035805603141532,0.6917890408597847,-1.9122141473081538,-0.3586542322478879
111,0.673448525220941,1.442230610715774,0,0,0.08483362377534695,-0.6823935644018604,0.058561923566899834,0.8542774360720669,-1.5384497992080695,-0.10288550550187851
112,0.6158372552758635,1.4333978488376453,0,0,0.2347266516403774,-0.6477894564625484,0.05330285283145802,1.010937235524921,-0.715642855800632,0.017113296045599174
113,0.5828304171847548,1.4253454953155549,0,0,0.22471314270524953,-0.5859912182355909,0.0741113245035147,1.0083043531071174,0.2883805101795322,-0.006395586625174475
114,0.5779973717911565,1.4215687982720182,0,0,0.05628347952765863,-0.5705744885333979,0.13066878207452706,0.2351962428520177,1.0452276079952332,-0.21035196097852613
115,0.6027980628962847,1.4256906581523898,0,0,-0.00939673396071831,-0.5636542211234953,0.10092766499887819,-0.8576704811249056,0.9447909847798143,-0.6740914195436406
116,0.6561699565906187,1.4402881749167669,0,0,-0.02455868772315512,-0.5372180074442541,0.014033933524536548,-0.6750203406077879,-0.3328263861939512,-0.9675511279268265
117,0.7343416074813334,1.4660531176457647,0,0,-0.017589981460127174,-0.5162956505020112,-0.0551815141891501,-0.6754244343392116,-1.349322451456311,-0.4468515551178922
118,0.8309581481810128,1.5014347203609881,0,0,0.043480109179423514,-0.5259019971414135,-0.13480480479433754,-0.11242748586350705,-0.7721749441938734,-0.00908436952532392
119,0.9375781415787482,1.5428347420138102,0,0,0.09379645405468379,-0.5923641093952271,-0.2911704680569542,0.4815332233372858,0.1229983004691031,0.3119704051543872
120,1.0445458324312136,1.5853405214189982,0,0,0.1776200349910774,-0.7101774480437308,-0.4746223716526743,0.9462423644901247,1.3480772386940654,0.8432758257637996
121,1.1421598731192615,1.6238568725904041,0,0,0.33214074195291116,-0.9335903389750257,-0.6671571098251582,0.6461240541354122,1.9905647742597739,1.2417403606198198
122,1.2219637942667332,1.6543422966819896,0,0,0.6019887238222356,-1.3771793439918765,-0.9285079433912005,0.600386739654148,2.9663703842178513,1.392496046312863
123,1.2779048057618652,1.6747589423791898,0,0,0.7680390578489787,-1.802156163943169,-1.007312671821437,0.0293764924582096,1.7616938591937112,0.8613572253687329
124,1.307088272679988,1.685414766264115,0,0,0.7100616052849522,-1.5686482892207148,-0.5830351241724682,0.5311353879784454,0.6861789128517315,0.4713717059070058
125,1.309932841840669,1.688612752611723,0,0,0.57533704286319,-0.9515224040327986,-0.30764325575328827,0.6776363232315963,0.6984655996463208,0.44308451727468695
126,1.2897031850251002,1.6877904705647075,0,0,0.29169860441539547,-0.5218124258985075,-0.4266714756655594,0.5470927104365616,0.9884781794971732,0.8770370473981669
127,1.2515974145710265,1.6864722110278725,0,0,0.03711496515522227,-0.2820076051774445,-0.4176595174332939,0.7815917473919206,0.8521842143170325,1.1297957959204386
128,1.2016929441718722,1.6873188182393377,0,0,0.06117515510729545,-0.6177594440547658,-0.2840581025107237,1.148373654647722,1.0509083451943975,1.3753360949871725
129,1.1460409223385044,1.6914315740994172,0,0,0.3572130903289714,-1.4678264509775898,-0.2331887422661998,0.8583622475532747,0.38330431230860057,1.4288213936464087
130,1.0900622043447945,1.6979589940527111,0,0,0.09551185799806935,-1.4852167117842068,0.19149670778695146,0.514651430248397,-0.5540764592748427,1.316711495372595
131,1.0382269355521683,1.7040179001376334,0,0,-0.004948190712887303,-1.3314067966698515,0.19435859548540566,0.7328206339393366,-0.40313313644635806,1.0532055405684992
132,0.9938964919764508,1.704946378605581,0,0,-0.00022558890835155024,-1.088522846997454,0.1733383606065832,1.1999828957557774,0.6974273004840105,0.7742687336485452
133,0.9592144970365407,1.6949020735750908,0,0,-0.02577264350045879,-0.8223482605204394,0.10777495065213857,1.3108062338780389,1.1446305414707052,0.5922256841052213
134,0.935017657485752,1.667777683341292,0,0,-0.046847454659698126,-0.54474166064638,0.04626068418645702,1.1496603765525442,0.8469870932484008,0.6352974282205421
135,0.9208236673274045,1.6183439602759675,0,0,0.03246990248881541,-0.581260075139027,0.10321166270057479,0.964957429048574,0.7827515222802109,0.6940885663187482
136,0.9149850024052023,1.5434793973447876,0,0,0.0757621307710812,-0.7442549365493127,0.27009005225550375,0.8595553414234735,1.0790326410785096,0.7134381002319587
137,0.9150581282389181,1.4433126514154055,0,0,0.2510194130503579,-0.9109975692440523,0.44267407173822365,0.9287092314933774,1.2979161804897628,0.6452014320754713
138,0.9183519034304651,1.3220798135310425,0,0,0.3471022891211037,-1.0978090085813155,0.28969909998579735,1.1096367,1.1362509585482883,0.6194421047750451
139,0.9225351038387559,1.1884897374227206,0,0,0.33005483895620413,-1.157678633229868,-0.04664686913339787,1.0483258802883648,0.8795758052360245,0.6757269684969395
140,0.9261455307687142,1.055420735428791,0,0,0.2744031106654789,-1.1078472020832546,-0.18426890911074234,0.8272138347084277,0.7432304166312033,0.8277541759318393
141,0.9288689088549323,0.9388556299173044,0,0,0.1304439807901598,-0.9525379234317852,-0.09539157479219987,0.7128901479095803,0.6194520129665879,0.8640754686977385
142,0.9315295322123658,0.8560885015483307,0,0,0.0737892904327301,-0.8049294829438868,-0.03962873595287205,0.5251095230340259,0.4038935597448642,0.807955479339403
143,0.9358221268667424,0.8233805180961631,0,0,0.10952474318666669,-0.7689192954724168,-0.028154658731203677,0.0997654388217029,0.07802568128915378,0.6273791787692331
144,0.9438803688470483,0.8533783583772643,0,0,0.17295157279211731,-0.8163031541135434,-0.02923281830049826,-0.2691012745463828,0.018852817083144832,0.46838984978906556
145,0.957801125215201,0.9527099386860985,0,0,0.24122916369564243,-0.8918631591436225,-0.018855910680650456,-0.49144256929645225,0.008846771067147416,0.17127497919542783
146,0.9792264225239199,1.1202096604472878,0,0,0.25190772968347797,-0.922522191126484,0.0301140550099011,-0.2971113697910851,0.11491413347592573,-0.08354572926581809
147,1.0090464788861804,1.346178758234987,0,0,0.24074351533853067,-0.9321736387889972,0.07426047394501839,-0.33993208772181477,0.09577106877698204,-0.23285734067145966
148,1.047248030172137,1.6129495720907507,0,0,0.24971867194550912,-0.977582313254408,0.09263007048234735,-1.0108331377287079,-0.032098245348185894,-0.6037033611671936
149,1.092903141642419,1.8968036811532147,0,0,0.2656770376673942,-1.084484377420591,0.08712218978767558,-1.4542010533573198,-0.06609223138289518,-0.9576196864188682
150,1.1442743656133085,2.171022924761636,0,0,0.25914551177194783,-1.1599176807635114,0.04280821024455391,-1.9652723520804036,-0.4956751469949747,-1.2672593943919612
151,1.198999733921527,2.4095893332843468,0,0,0.2890957857714831,-1.1678019788040181,-0.0036724865390020765,-2.5678115254415634,-0.8392452162036155,-1.4210705957134364
152,1.2543156961368194,2.5908674567693737,0,0,0.37816650550401265,-1.1399281111844868,-0.038067895522043385,-3.358383779133226,-1.4370521593900358,-1.4296221436597114
153,1.3072777002934788,2.7005580407428775,0,0,0.47025015908773665,-1.3618632044513217,-0.026578459968771066,-3.1945218919644587,-2.2994136513424777,-1.2876592091752013
154,1.3549439186161452,2.733337846093579,0,0,0.31732938521259324,-1.4677096835618484,-0.01790249356583134,-2.9037080201696517,-1.3986432185805853,-0.85428982797361
155,1.3944967744755128,2.69289436849528,0,0,0.19412456706948297,-1.383265127736316,-0.10255986598988878,-1.7496551615663276,0.17764199800282113,-1.0448301144554086
156,1.423293843768402,2.5904589615874043,0,0,0.2452788323692401,-1.4115382359815174,-0.1620158245465442,-0.8304970961533896,0.21180225595072785,-1.446719518676731
157,1.4388667702098559,2.4422976206257703,0,0,0.38212417723538644,-1.3717621687381298,-0.047025692211816725,-0.8734287513427507,-0.4004231429878693,-1.7897246190570912
158,1.438916446895364,2.266794342985148,0,0,0.35840610232087594,-1.1515333290686427,-0.14031825033428644,-0.8551198293870188,-0.718886990176283,-1.6915041940304487
159,1.4213711667016302,2.0817189118383514,0,0,0.27679727212518707,-1.0820181143306773,-0.14175368622050216,-0.5749242092418717,-0.619134419023262,-1.6578522191335736
160,1.3845694892709954,1.9020922875622035,0,0,0.02111425325928578,-1.214294602779242,0.2568178418509268,-0.412942817244284,-0.5835241768150835,-1.5342845539510583
161,1.3275938147530992,1.7388643381008688,0,0,-0.21152789176099876,-1.3540652041126302,0.3490103195080342,-0.2986968465426696,-0.7363463840335521,-1.1397250612691465
162,1.2507184143381838,1.5984590256313005,0,0,-0.2257075541828683,-1.4117027797153339,0.09043542672528594,-0.08390998213429016,-1.1351707130295816,-0.8575600695443618
163,1.1558699482424513,1.483117529105231,0,0,-0.09002443965061596,-1.3273639052002864,0.08814952411580658,0.07880317775325307,-1.4816685257587738,-0.6501232079523017
164,1.0469610162772265,1.3918628167707703,0,0,0.1523199429865152,-1.2639031911705227,-0.014909108624744788,0.17136510221258225,-1.599010057089331,-0.42198344959573986
165,0.9299662072981615,1.3218246572268801,0,0,0.20911040414093432,-1.0830326433054176,-0.05428210285820811,0.41913389184009503,-1.4476280847169063,-0.28485423910099356
166,0.8126603487704318,1.2696247075575253,0,0,0.005714167448174416,-0.8192490897040261,-0.019542282567378323,0.7040978455700756,-1.2744583042918425,-0.15342144943086072
167,0.7040108032218382,1.232540990927838,0,0,-0.025252928487524272,-0.6576620316077767,-0.020016554405196167,0.9885702782135087,-1.2703315631808278,0.022962676980393112
168,0.6132875207874807,1.209240395978984,0,0,0.17241076502718622,-0.5670935183062741,0.0024146183532363914,1.1386692118534916,-1.1877541076474145,0.16280591655665114
169,0.5490076785374948,1.1999681924796048,0,0,0.246402085261038,-0.45437810095349557,0.013167683948841557,1.1897736530681595,-0.5846932057965302,0.16323728343394014
170,0.5178576028540792,1.2062025586133598,0,0,0.14334648864349622,-0.43851455153987245,0.09754232295115535,0.40175921617859944,0.051871697860016205,-0.16518050712791657
171,0.5237373984943376,1.2299017624174504,0,0,0.042296601994082896,-0.41403170311658255,0.11386103214637772,-1.0112714801643192,0.3927565761502342,-0.8879114818075107
172,0.5670629480204135,1.2725546231876632,0,0,-0.0464756354315001,-0.4283403188022046,0.03534498391393163,-0.6632107588740248,0.5020943798083506,-1.2635154713316077
173,0.6444408760294346,1.3342628571050896,0,0,-0.09115338153902221,-0.4478705877309725,-0.0362664769805428,-0.8649425515293657,-0.33734459988963983,-0.7468514761765834
174,0.7488028682410796,1.413056125211515,0,0,-0.08710349566513308,-0.4653638007043328,-0.1067406337914706,-0.5617066144475884,-0.696410594334274,-0.1754446536118957
175,0.8700413250298735,1.5046074465870367,0,0,-0.019451133886851164,-0.5291930635912439,-0.18254780678932664,0.09286270790892653,0.2950445133576229,0.2995789759522381
176,0.9961240358579033,1.6024741431614704,0,0,0.07145293637497996,-0.6770638592891982,-0.36517802137385924,0.6501167312983426,1.1068469763812157,0.8476603283149172
177,1.114580076239442,1.6988909042163822,0,0,0.21934124622290657,-0.9088759606209393,-0.6390128078712617,0.22899203915161215,1.5412128308155506,1.0494863921182327
178,1.214150404226392,1.7859744567575613,0,0,0.5022167559624113,-1.4282047104685367,-0.9689361332290204,0.13629711180827514,2.422045005085764,1.285451710111003
179,1.2863104333088022,1.8570325190216042,0,0,0.7768894148632156,-1.84765087432758,-1.1349384168469538,0.3289559869297562,2.63353441831097,0.797239879755327
180,1.3263439249026188,1.9076077152138604,0,0,0.8455716933158243,-1.5778591863204283,-0.7154338577219016,0.7671447077434721,1.5094971408748914,0.8274608897169433
181,1.333723940389659,1.935981060396921,0,0,0.6077875625193262,-0.9771586449967651,-0.2845730997950352,0.8919111790563404,1.0818298957196892,0.7788346693609399
182,1.3117404621461017,1.9430594676358344,0,0,0.25810899905002666,-0.531151771541587,-0.43006334647217986,0.7620864115164662,1.036686600887399,1.0921683942812068
183,1.2665360649893205,1.931761979862968,0,0,-0.02344101524579713,-0.3201101293284184,-0.5070454562345812,1.0079016674090364,1.0570696880890798,1.2113759234440247
184,1.205860070014,1.9061109656428081,0,0,0.058442241730780185,-0.7190274639786426,-0.364823671291906,1.6551066859170915,0.9179148729585427,1.3256384785349233
185,1.137856105017423,1.8702289308994937,0,0,0.4211622004855698,-1.5467908339245349,-0.2575683955732791,1.202599206661354,0.046513457602299885,1.3237535892622814
186,1.0700791888052297,1.827405777608827,0,0,0.11273888899578628,-1.2972091836299102,0.1011310178527729,0.6449432297961597,-0.26380966277578105,1.3058040602517968
187,1.008790685657124,1.7793871325308912,0,0,-0.05526375419447552,-1.0075758986325498,0.179790585136103,0.7129111010460693,-0.28109895802856505,1.093698661416213
188,0.9584950341701619,1.726031787903172,0,0,-0.07235731221771308,-0.8376795449519405,0.18963222412681216,1.2012495831990397,0.3170486665632658,0.8430531031023306
189,0.9216839880392429,1.6654509789403786,0,0,-0.04718952535385789,-0.74902163261148,0.22391706857360547,1.3169770664637854,0.5467498605477806,0.6319735323250154
190,0.8987953666111839,1.5946544421947306,0,0,-0.017303604650911252,-0.6240746585284024,0.19836125755426529,1.2802241495594708,0.5405982521806161,0.7677089509691634
191,0.8884155655243402,1.5106138984356954,0,0,0.10253500444943969,-0.6905087514638802,0.14005258209346325,1.0980918064176388,0.49410642547586386,0.9209146835148049
192,0.8877344447720719,1.4115554665228913,0,0,0.13437065112332752,-0.8173052475271798,0.26673673538628073,0.9497984535036913,0.6769196483729307,0.9455751312477538
193,0.893207065973745,1.2982319392738062,0,0,0.247406981851017,-0.9224315707780721,0.355688595660762,0.8777057489681421,0.924400752544579,0.8745812294129446
194,0.9013132807133327,1.1749058682909739,0,0,0.391677794999349,-1.1558655237628503,0.09312249767270746,1.0178080465116273,0.9701072802325595,0.7227104318604666
195,0.9092620403336854,1.0497927382977748,0,0,0.3647176773756318,-1.1877482432339377,-0.14371229623326026,0.9957722643423137,0.9138967540213946,0.6706728718700475
196,0.9154870333727039,0.9347742565143634,0,0,0.25635097250939565,-1.0367320335808714,-0.19433155909837616,0.7913296285202892,0.8307778306801934,0.6955593971360374
197,0.9198323858814982,0.8442995056112611,0,0,0.10154810189660826,-0.8387471819221703,-0.13519512782098886,0.5826536687988372,0.5409086302035258,0.7204570471052153
198,0.923415994781094,0.7935385936776294,0,0,0.05426776695690147,-0.716107185927245,-0.0944502658920073,0.3762744540095875,0.019706258146970995,0.6913336098242819
199,0.9282476752510934,0.796014099789625,0,0,0.08403407011668952,-0.7130479244062614,-0.05389295975421824,0.05966174339956032,-0.4317718600703785,0.6136457628513988
200,0.9367320539824602,0.8610750721999599,0,0,0.16241745693846626,-0.7903480505297564,-0.020386509287575297,-0.07551466874056423,-0.22524800098927192,0.41629385218514015
201,0.9511848852351982,0.9916655948741817,0,0,0.25773308434648945,-0.9198985325941897,-0.046800238521471554,-0.1648500706057048,-0.021800059034385217,0.15679780935521562
202,0.9734478246126963,1.1828536789841562,0,0,0.33120973497749595,-0.9953005933454014,-0.025900527147001882,-0.04186659891478257,0.396044010764801,-0.008499084599524068
203,1.004630159030396,1.4215107120678758,0,0,0.3251186928769005,-1.0376364804855627,-0.012920036570581675,-0.49929174365249573,0.3005404174310441,-0.2560067496847986
204,1.0449647019251684,1.6873590302552075,0,0,0.2607900630362812,-1.0346523157063148,0.05170993725179847,-1.0445818537527884,0.1668878763645533,-0.7278788401173436
205,1.093751601818129,1.9553510139659784,0,0,0.2103873835530883,-1.0124760364990137,0.1186823153757084,-1.5732793021010096,-0.15606483795555515,-1.1858763940202017
206,1.149372410606887,2.199056273904616,0,0,0.18069076190668767,-1.0499087152657252,0.14402962795174912,-1.9537160353269398,-0.38803558376394415,-1.3323124447368409
207,1.209370924417846,2.394483319145545,0,0,0.22183223317246684,-1.0839063590484563,0.10184359258801771,-3.0429210763585828,-0.9176133447104319,-1.4345779281634274
208,1.2706017810132522,2.5236152630487747,0,0,0.38679480588210385,-1.286436786013827,0.004223351397757957,-3.5391365242662993,-1.1709463428205658,-1.4154319518613352
209,1.3294378794117043,2.5769471871580043,0,0,0.31417253940600554,-1.4358259943040808,-0.06665130431454891,-3.0653474582964924,-2.215854586942533,-1.1693330207914725
210,1.3820117452077094,2.5545053152133117,0,0,0.20709301717746476,-1.378380329538924,-0.10228061820942327,-2.4138217679855583,-0.021739024261941,-0.6349745568387191
211,1.4244587617142204,2.46518514668315,0,0,0.21511443197889327,-1.3772963284459512,-0.15384480922787036,-1.3106114,0.48991394,-1.0461067
212,1.4531395870806207,2.3246631839581724,0,0,0.3176964743003483,-1.4672152728925778,-0.09872053279490137,-0.5658628138238219,0.11589100314575537,-1.337819367766951
213,1.4648388772896757,2.152452926066441,0,0,0.33557351047872297,-1.447341116717373,-0.011328177576090339,-0.726493363972138,-0.1484036586908379,-1.638199202750491
214,1.4569556560182735,1.9687734588911638,0,0,0.29883766663400524,-1.2261619837630122,-0.0798325972472551,-0.7337817148414134,-0.3368251788549772,-1.5801064786953918
215,1.4277102133482467,1.7917898138486332,0,0,0.1927029092048792,-1.1388489442648442,-0.09697287024310493,-0.4659248799077217,-0.4093112254202619,-1.5154730655366095
216,1.376388307188541,1.635579634172245,0,0,-0.12673304965964213,-1.3584782205900527,0.27648214568013546,-0.4305719720027525,-0.550679263210705,-1.3352358516820861
217,1.3036188896349026,1.5089893156257073,0,0,-0.3211214769418417,-1.4107644203617262,0.3137713003430869,-0.28060911044820425,-0.49740157960159476,-1.025033698725095
218,1.211639443872457,1.415404672975203,0,0,-0.2738153185004098,-1.3574593929596492,0.05825573420515777,-0.09284291798833266,-0.7939692906698796,-0.7665907394387464
219,1.1044657089245347,1.3533590413476877,0,0,-0.05623123638779928,-1.1998429678730795,0.020498384885448934,-0.02406153904775055,-1.2962577038599328,-0.5724202334062856
220,0.9878765456932402,1.3178078566252471,0,0,0.13326788898108943,-1.0916980957714142,-0.017373309399846718,0.13487701148434075,-1.4052699980286047,-0.39305717464244583
221,0.8691556357003054,1.3018093364240442,0,0,0.11662566971535916,-0.9091636471324979,-0.019513000813326475,0.40546792258302444,-1.4139309274209595,-0.23561372068800723
222,0.7565827677269436,1.298288182514945,0,0,-0.0033532555932461673,-0.7233423365770496,0.028179935064498778,0.6643076788948762,-1.5551453684819505,-0.13241476900458599
223,0.6587177627184184,1.3015488592224398,0,0,0.060790369880356195,-0.6319299186291585,0.05538569177234155,0.8744465038984106,-1.8276995390037478,0.059243342999220364
224,0.5835571896657817,1.3082582642646956,0,0,0.2024762321457894,-0.5372263264034196,0.06536781728357496,1.0476644020432666,-1.380850958173087,0.14716162849759662
225,0.5376639717707123,1.3177339130752759,0,0,0.2128826037028528,-0.44543664609607697,-0.00042219962094766124,1.06708876915661,-0.5234099686264742,0.0510462558072195
226,0.5253747060427335,1.3315381570839475,0,0,0.0692912610756717,-0.4531278386928622,0.0771661648859421,-0.17475856217130536,0.493457436892427,-0.46013972488047417
227,0.5481840773280645,1.3525461751985064,0,0,-0.02503020785883614,-0.47448854674751745,0.099387881466119,-1.014470914895719,0.7022062691261074,-1.1039596373386464
228,0.6043938744976429,1.3837625863573098,0,0,-0.04507674220636616,-0.5139196536835255,0.035420422469763284,-0.6367685898263937,0.09052175410535164,-1.2163376298283723
229,0.6890962091111368,1.4271816444998877,0,0,-0.05259364317207282,-0.5326402305898817,-0.007710131886795039,-0.8048770130667423,-0.5752862724353566,-0.5704548337221831
230,0.7945351154214267,1.4829506167823965,0,0,-0.021965202681117558,-0.5472584375048702,-0.04828587579315497,-0.10005820375123237,-0.10065934984277342,-0.08086579342088794
231,0.9108547502597356,1.5490377555403703,0,0,0.03986400000456047,-0.6079073927760286,-0.18338455434368875,0.5184695896630273,0.8397846705793552,0.4338831748239486
232,1.0271906806959237,1.6215042930532164,0,0,0.07561241351231485,-0.7382946956215755,-0.44340464653826933,0.9805080229875835,1.559027578654388,0.983874667845417
233,1.132989704279436,1.6953050350845444,0,0,0.22638262984999982,-0.9770267988076784,-0.750694860713538,0.4207284180328016,2.0154572581967103,1.32750531885245
234,1.219361251748984,1.7653441752868049,0,0,0.5398838419933482,-1.5350899948709125,-1.0858230181103696,0.12557031355132348,2.5920785944631253,1.3347781123986637
235,1.280198739109495,1.8274113436398443,0,0,0.7556264824311095,-1.8605027405726522,-1.0129159806959724,0.10682428080201804,1.8567290740614646,0.7703365076109313
236,1.3128101436870048,1.8786975245004691,0,0,0.7933428319822261,-1.3851370864294337,-0.5094160832140886,0.7481057534438024,1.0162751844360147,0.5351013527849869
237,1.317902924469488,1.9178010321173573,0,0,0.45779234784897954,-0.7040306071991659,-0.35217030957933515,0.6163581605889517,1.0420928248487256,0.6758159134731672
238,1.2989642286619423,1.9443489781190146,0,0,0.07572025224458567,-0.27337514131088403,-0.44052530095365994,0.5841629423895627,1.3012175517068243,1.1731345591967923
239,1.2612751373025488,1.9584612567612758,0,0,-0.01811842943773849,-0.3384280595278108,-0.35936675735864976,0.9201254296080617,1.1580274530924466,1.426844228128182
240,1.2108860248891384,1.9602527899955104,0,0,0.19036244304587532,-1.1059005388141858,-0.23413816977609372,1.4304815740264936,0.9787191657968417,1.3677714940987609
241,1.1538099967698714,1.9494796811182191,0,0,0.3712731297147879,-1.5722340318650205,-0.14391357004627747,0.8912077652156606,-0.09062164188497963,1.5656590017971252
242,1.0955177334308583,1.9253698007741067,0,0,0.09989187542592753,-1.505666304193452,0.16086961489897392,0.5080341491752559,-0.8972676241237187,1.433431019243981
243,1.0406565165285273,1.8866619918636367,0,0,-1.1985947375053331e-05,-1.2453704049179284,0.1579871835172503,0.8492531869861536,-0.3947089001753606,1.177149907227748
244,0.9928594779263591,1.8318774449020663,0,0,-0.06159192478756267,-0.959877344245299,0.16721540905803822,1.531559944585097,0.672315191420547,0.8883019936708796
245,0.954564362867498,1.7598223565910596,0,0,-0.06501694797673041,-0.7452255719248355,0.09239682472394431,1.501903155872147,0.8954233324931531,0.753913192858447
246,0.9268603761894724,1.6702676810697836,0,0,-0.058823967433487875,-0.5527997137162892,0.07500895052438263,1.2467203561566407,0.279890346758175,0.8161988624949537
247,0.9094530137413922,1.5646964532844447,0,0,-0.04631242901874834,-0.5824524673284303,0.04335198783469579,1.0662695511585751,0.36252500159983214,0.8942457733427366
248,0.9008405638183242,1.4469748688901543,0,0,0.06783832225565134,-0.706629463178819,0.3218498644896563,1.0459535081775724,0.8885480195093673,0.813272289427567
249,0.8987337773389263,1.3237873489224816,0,0,0.27630542019922755,-0.9045745254220926,0.5344982675556438,1.1063736017363237,1.1671819227740736,0.7289645612759921
250,0.9006540170634387,1.2046703190102792,0,0,0.37427123618330493,-1.1367323809585226,0.34761725907783564,1.2185548114010432,0.9123413680248881,0.6542731165796871
251,0.9045626407146604,1.1014993382344014,0,0,0.35367409119075105,-1.2274313223899092,-0.12640183436368466,0.9842932070587046,0.829555,0.7563147714377005
252,0.9093478890850235,1.0273561027041178,0,0,0.20243096023694376,-1.042398856011908,-0.15916795615965942,0.6957427426062542,0.6467632466573342,0.8726156358810615
253,0.9150399992348602,0.9948298381408898,0,0,0.07791656723858059,-0.8262048950538485,-0.06886417363607088,0.48114889572563485,0.17507067739528137,0.8502396658010742
254,0.9227187969642278,1.0139625175503473,0,0,0.07577196413426165,-0.7421710554436721,-0.04743517898780132,0.10104829329525836,-0.07750263888257629,0.707842168205538
255,0.934174796272177,1.0901840538653782,0,0,0.12869740140269653,-0.767093216749128,-0.03762796648039669,-0.23652166263980975,-0.06616133389777608,0.5643226574263358
256,0.9514426047805206,1.222660452065025,0,0,0.20652798762312383,-0.8366094045870662,-0.0932657726109039,-0.4957258395503008,-0.19993438964497146,0.21291147855620526
257,0.9763292415822517,1.4034668746077514,0,0,0.2439307263378597,-0.9417531504905985,-0.10996639104069152,-0.4496968534858519,0.22337054350993457,-0.1681425901023487
258,1.0100250369809225,1.6178885628342847,0,0,0.23747879216207515,-1.004353828839526,-0.02546986191313332,-0.7994265368312279,0.2435622561669724,-0.5090469655324074
259,1.0528395319033437,1.8459538942539957,0,0,0.18424997611500465,-1.0186828400200363,0.058286602644967274,-1.3557534245290694,0.027946165871334267,-1.016448666933878
260,1.1040707640738316,2.065044927752506,0,0,0.17276657189210198,-1.0578721898578574,0.1364557837249631,-1.857165305581937,-0.6086286212786886,-1.3191114108471858
261,1.1619991477554925,2.253167291477023,0,0,0.17949660225268588,-1.118197162964553,0.1236195843241629,-2.2891073589015556,-0.6947768381169472,-1.3687492377545325
262,1.2239904293702788,2.3922667463583136,0,0,0.24505301654746972,-1.1745186205501787,0.047225323905591185,-3.239677785694057,-0.5387846799555704,-1.5170103533441062
263,1.2866872654836603,2.4709185068182715,0,0,0.40460503047128676,-1.1706673017789546,-0.011895734413871942,-3.399542670094757,-0.7917767413672572,-1.426834703105454
264,1.3462617577165055,2.4858205023916127,0,0,0.4702610969269164,-1.4432068209529214,-0.12933953212030302,-2.6471619556133796,-1.2423230357614747,-0.9117156603162022
265,1.398693710726771,2.441786335231973,0,0,0.27533734510086666,-1.4571643944665562,-0.13688828277738124,-2.1446412711495606,0.34216865164284416,-0.7795440203442934
266,1.4400381679523975,2.3502973054658174,0,0,0.14438999211832537,-1.4074089254106275,-0.12747672539354746,-1.0957749990436405,0.10329111883244041,-1.0824361321976448
267,1.4666577513796737,2.2270189156513807,0,0,0.2018084119807111,-1.4839120282266363,-0.08112707492024386,-0.7084657534799055,0.025711641775569113,-1.401361967290097
268,1.4754191424244651,2.0888908002641204,0,0,0.2288810352034257,-1.3921110309448255,0.026247533970580172,-0.6973216362590807,0.0442502025315041,-1.5443312036702657
269,1.46387717947697,1.9514036708435962,0,0,0.23035627956592306,-1.1804597487232924,-0.07581390691097571,-0.4593552761959978,-0.3634888980880034,-1.5739001643000008
270,1.4304806546325404,1.8265255241098892,0,0,0.18959819107842812,-1.2148407576583051,-0.16151657873770614,-0.2144396733975138,-0.644050075892496,-1.5417430393501783
271,1.3748213415717765,1.7215288341345425,0,0,-0.1485168062474254,-1.435823721783551,0.22442617602597,-0.2965267733280158,-0.41514151948354955,-1.3451823061016952
272,1.297910591594905,1.63877891424862,0,0,-0.3719153146129926,-1.4295065822723625,0.3400708784095067,-0.22561447852625086,-0.68205727502984,-1.0792394408711183
273,1.202420155263822,1.576395216484895,0,0,-0.26667756148080973,-1.3465244937065337,0.12102981769940753,-0.1436493611790409,-1.3658667430329692,-0.8413401599444154
274,1.0927941550298925,1.5295797673972504,0,0,-0.07708657679525026,-1.1876600995296367,0.03078413799695494,-0.14362285728501303,-1.7843488316944192,-0.6028696163565103
275,0.9751490131733913,1.492311990629129,0,0,0.09509282351013469,-1.0752317278792574,-0.035231226634093143,0.04109145167559377,-1.792685136240157,-0.4694353243897626
276,0.8569236353918047,1.4590546606789228,0,0,0.023013440858745463,-0.7936913265102773,0.03594825775273125,0.295754183645196,-1.7901483492963333,-0.37471010170069213
277,0.7462999965986341,1.4261292222532798,0,0,0.023828558739374554,-0.6952063705055797,0.12120380016114363,0.5065101969102825,-1.7493339793226375,-0.20763502196672393
278,0.651461698120506,1.3925062839884397,0,0,0.1259396977829772,-0.5936056287670354,0.07589998943714993,0.7907491049436403,-1.557115068953928,-0.04521194213565465
279,0.579783675875393,1.3598968022495819,0,0,0.18319546163073425,-0.5145044649353498,0.039472789486585155,1.0584892639278594,-0.9339878441482701,0.06546357475350917
280,0.5370501772181591,1.3321881169304053,0,0,0.1361141723726176,-0.5042736476171651,0.04206198266694961,0.8896250916901207,-0.053744601626414625,-0.043436249396499024
281,0.5267882232657403,1.3144109251044271,0,0,0.03971538360488785,-0.5025451469603883,0.12526004784086764,-0.2687572544835949,0.6667755326180966,-0.5094373929783846
282,0.5497895532306901,1.3115098214104883,0,0,-0.0504517868041092,-0.5031641945356393,0.09849328014756019,-0.8994646175075565,0.5852275538563791,-1.1843213079058503
283,0.6038812388624292,1.3271967922296293,0,0,-0.08834903606423664,-0.5119272374685394,0.01589322022974765,-0.6768514209247571,-0.1038687536316421,-0.9521614126332462
284,0.6839938411593135,1.3631105733491373,0,0,-0.09630004671206191,-0.49104314146252886,-0.03956868864699318,-0.5535551615256502,-0.5425439563075569,-0.3805813041387629
285,0.7825610294587076,1.4184285678035629,0,0,-0.0618760218215878,-0.49171709749824744,-0.12591857953925914,0.26525904949698764,0.3621776896602596,0.05176521219743426
286,0.890257008218798,1.4899975562885537,0,0,0.0030004158826808973,-0.5601643329994132,-0.3083526668667783,0.7880614524546357,1.3264135004985025,0.721053003557326
287,0.9970288867468832,1.572939015818324,0,0,0.10251767763047961,-0.6940768858969227,-0.5596068011284812,0.48740395778002815,1.876608249507333,1.2210655554795868
288,1.0933087871718727,1.6615429544078084,0,0,0.2790276848067292,-1.0042311197774227,-0.844509817583064,-0.06580523532132203,2.280783753033035,1.3348659806005918
289,1.1712103064079729,1.750162560158972,0,0,0.6667991075802517,-1.645072622827734,-1.1481898955158458,-0.06793038774467645,1.8762587446808465,0.6888571460567362
290,1.225463225171444,1.8338482148108124,0,0,0.8560262517452367,-1.607028205923485,-0.6542433939551413,0.6486404284326716,0.9021407666225163,0.5328660158940399
291,1.2538679625043603,1.908613193520159,0,0,0.6109705786069627,-0.9535000922230857,-0.3224128089268513,0.7514398632023805,1.043102605595239,0.6257717985476196
292,1.2571808667441917,1.9713987709454774,0,0,0.2491614079893891,-0.47733384962044373,-0.4386317294408036,0.7765326389827167,1.4947557975163976,1.057205620047694
293,1.2385294441167605,2.019888143174223,0,0,0.006514058790861449,-0.252211950653551,-0.4877621929028605,0.9758589893141636,1.4778388309694968,1.370738525024286
294,1.202600944027511,2.0522855248074885,0,0,0.023281612301278395,-0.6305077006164435,-0.3108618501155087,1.393405935344655,1.3500741082517502,1.4898989353046954
295,1.1548621919323485,2.067104152122922,0,0,0.27557473376232494,-1.5187295467484105,-0.20480831420131584,1.1772878189178484,0.3230061849298713,1.6050479103807616
296,1.1009548512915108,2.0629774522777753,0,0,0.08279540493011729,-1.6330239201435897,-0.006099003607304836,0.6706931409467334,-0.7040756367613753,1.5131567211439774
297,1.0462569716765568,2.038536549469242,0,0,-0.06154906293760167,-1.3001888265550667,0.20764602030658533,0.8615471350932357,-0.7069180138959668,1.1810136411579941
298,0.9955148062275538,1.9924362329022836,0,0,-0.12679119885017634,-0.9798011061735804,0.1921685687929172,1.5950580225525213,0.362769466155382,0.8214228567578247
299,0.9524730095418182,1.9236059639058374,0,0,-0.03272841284197261,-0.7723306969730444,0.12632104533054775,1.7272773244312591,1.0582805628091017,0.6839334276557859
300,0.9195253697590677,1.8317417277948855,0,0,-0.002066098428269329,-0.5015589548132751,0.11863101167889606,1.4476676513668614,0.587738258954034,0.779373609271003
301,0.89749198482951,1.7179740657494558,0,0,-0.0480077235835614,-0.4705788344371278,0.15493082454155752,1.0451862216535406,0.45703302398622164,0.9030052374015759
302,0.8856454202677349,1.5855872094026826,0,0,-0.06532741718353827,-0.6222237136619503,0.2904213134555189,0.9620318093979743,0.8894098973773177,0.9246075265249344
303,0.8820483526551497,1.4406300960419167,0,0,0.14646005450103802,-0.822238951345394,0.5097456123343498,0.9904785397884909,1.2656754945503066,0.8724770374028193
304,0.8841573805917262,1.292237614552339,0,0,0.3459766137129473,-1.1109866897771405,0.4294879119924775,1.1349045789473708,1.081389571052621,0.7451645032894707
305,0.8895425434785974,1.1524750706356481,0,0,0.3859951035558688,-1.2731926870869528,-0.15724027288980802,0.9998922730738677,0.9520594531930106,0.8000219509928517
306,0.8965203620246754,1.0355606197019929,0,0,0.2676480807778711,-1.1218539574273176,-0.24862327432387724,0.6900095932520136,0.9201879550167186,0.9238485851072203
307,0.9045262483269183,0.9564276508465983,0,0,0.11321766359064116,-0.8673010482801236,-0.17263354636311662,0.41725404709394437,0.32496133641320163,0.8653235775477685
308,0.9141469861401047,0.9287443576864118,0,0,0.063637409523251,-0.7187595953927661,-0.08676279063321392,0.15207292319655172,-0.2347693664947354,0.7344228942282092
309,0.9268496802376652,0.9626680080221184,0,0,0.06682340889274845,-0.7124168767204262,-0.055624002042936646,-0.07400867185897478,-0.31332493506410286,0.5813674891025639
310,0.9445274008331648,1.0627298583692717,0,0,0.14295987130795507,-0.7935819661406606,-0.07542677066193523,-0.3997554992069872,-0.41434962707891276,0.22863878469384202
311,0.9690046262183316,1.2262892718645155,0,0,0.20727714921585583,-0.9085980165153086,-0.09268407501208432,-0.07510813315736915,0.40042885487052005,-0.0635494571762955
312,1.0016146334809743,1.4429484573898899,0,0,0.2500627067060511,-1.01483651226178,-0.022809326850426474,-0.37735303560467315,0.4547312886989583,-0.25333739534368305
313,1.0429068629145608,1.6951829201379003,0,0,0.23614527626752738,-1.027341763425766,0.059363354139288664,-0.9981848046525723,0.22631615787915277,-0.7206039501510697
314,1.0924954539564418,1.960227891337987,0,0,0.189221002686648,-1.0549196728694612,0.13180389329931927,-1.3396408700080222,-0.18834942572173569,-1.1835723740176434
315,1.1490347460270964,2.21299892874187,0,0,0.1864194014184158,-1.101478593662905,0.15834855295132952,-1.9915163353333356,-0.7903252424000009,-1.2931528633333347
316,1.2103001488812695,2.4295742869102916,0,0,0.2274115154296269,-1.1476221539356302,0.11855640396241034,-2.62765603625474,-0.8480640119704531,-1.436100534338191
317,1.2733519581566743,2.5905971597729818,0,0,0.4018554862776318,-1.1332524229858205,0.05510979854036315,-3.4982227856293373,-1.0775532123885068,-1.478667679781962
318,1.3347564444174242,2.683924191448433,0,0,0.47996654795848975,-1.4137700924904553,-0.07867074152786546,-3.2952760419530884,-1.8808594725434704,-1.2391208711686184
319,1.3908316449091818,2.7059842187039265,0,0,0.2929820571383408,-1.495773318886564,-0.14202115953895875,-2.73096754426097,-0.7861174534856744,-0.7494767994603297
320,1.4378815496057071,2.66160774699039,0,0,0.09176638275072664,-1.3694144831842465,-0.07382161026962265,-1.8652644737181838,0.5485822068704846,-1.018090518875816
321,1.4723910442698154,2.5624644158105134,0,0,0.1387085585265313,-1.4876975918587823,-0.1224453555773194,-1.189363438741977,0.12754357680287942,-1.3601345434695569
322,1.4911760047505729,2.424565472990928,0,0,0.24200319956568495,-1.58028252861791,0.03639215384737162,-1.0750179461049278,-0.06920937648648325,-1.7023804626391081
323,1.491508268290854,2.2654330330553476,0,0,0.2603594703401,-1.3209526731898653,-0.02297346171632742,-0.9774812282147775,-0.3239732434594843,-1.7021850776699026
324,1.4712533126773302,2.101489720497188,0,0,0.21006652127819145,-1.1137913732280995,-0.09926680645812119,-0.6569484964635395,-0.400763238889108,-1.6960599770029976
325,1.4290630886109426,1.946058977365331,0,0,-0.07498683836736438,-1.2654921564105617,0.22478408678463022,-0.6460447289352778,-0.4968389402017576,-1.5935221390331595
326,1.3646490044705322,1.808183175587177,0,0,-0.2953442402313103,-1.377434549775315,0.31177179422185175,-0.5850231476228279,-0.4506450222979348,-1.223087073811417
327,1.2791152674260104,1.692312581776933,0,0,-0.29263877696533674,-1.4359111147108965,0.03666830677862088,-0.2735111050321797,-1.03819473873693,-0.9328970009050677
328,1.1752760907145903,1.5987929397507494,0,0,-0.12247552237164207,-1.3692243301811169,0.05951455091934069,-0.11145201114712927,-1.6628769086511455,-0.7470019407226003
329,1.0578444882481448,1.5249693415021364,0,0,0.07787893780642761,-1.185770607851509,0.0009393421892995691,0.04719385725739548,-1.7219242671760253,-0.5449047662274237
330,0.9333880867477219,1.4666348355380983,0,0,0.08483261302784684,-1.0484431458862402,-0.01779589535292545,0.2608015783541094,-1.6273275116320454,-0.41186655331552685
331,0.8099938684578352,1.4195101522698477,0,0,-0.04691006039243807,-0.80044246198102,0.009648232872176931,0.5523701661944235,-1.5331295686737456,-0.26016344538369973
332,0.69664651501069,1.380463997010282,0,0,-0.022629018737615032,-0.688872138769176,0.05950728301084992,0.8482875562960771,-1.494814126997409,-0.013489789045425606
333,0.6023819451383934,1.3482609778710144,0,0,0.1639400340780247,-0.5746395263709495,0.06266705695767896,1.1952590430164498,-1.2325815926642973,0.23146469915494017
334,0.5353165383209519,1.3237319779577685,0,0,0.21584630258609824,-0.47159263199877216,-0.0016899788356439308,1.3497555208141119,-0.38194701382793694,0.33072853585722606
335,0.5016718761036869,1.3093821176767173,0,0,0.08814780617493326,-0.43882726830824637,0.0945143457216744,0.46547468650382556,0.5256566865905266,0.0021620782488372143
336,0.5049197393102681,1.30856698522505,0,0,-0.0073993499323980125,-0.41232971589800016,0.1440291989048993,-1.1398661097403777,1.0047952373218674,-0.6758680859360146
337,0.545167948684462,1.324449952452683,0,0,-0.06985547147357443,-0.40501497867082203,0.08995573152416958,-0.580081569611669,0.3701974221287859,-1.120831779939644
338,0.6188955203347597,1.3589829092980985,0,0,-0.11608579005890551,-0.4055840525335935,-0.011618227486770808,-0.634793752787805,-0.5519919900120345,-0.6371658841556342
339,0.7191222781234718,1.4121417915096324,0,0,-0.07118333443400952,-0.38950267973915714,-0.0874351914130225,-0.03531293616783356,-0.19949046799758,-0.11536067874099666
340,0.8360576024905103,1.4816105730986244,0,0,0.0023111003018413522,-0.4271289448054994,-0.2123194099490502,0.4146050578187779,0.7023382595028344,0.43284065816360967
341,0.9582084240047317,1.563019091785426,0,0,0.06738195639359502,-0.5587186531114067,-0.43210481176915955,0.9330833202226233,1.595181767382224,1.1261112149671992
342,1.0738344791897645,1.6506776321884262,0,0,0.20943310515332333,-0.8749962059421876,-0.7759902879505555,0.3324598923497634,2.03211241357557,1.3250150823318088
343,1.1725295816428933,1.7385671413854789,0,0,0.6403263233050018,-1.5652068441768403,-1.1904758893144243,0.1474688550371587,2.1009900921639537,1.1367518106891599
344,1.2466169082792469,1.8212528143944107,0,0,0.8652937575348446,-1.8557644843087817,-1.1031599402052141,0.34043121424704575,1.8666749776017633,0.36507128081010554
345,1.2920332148980065,1.8944570837550907,0,0,0.8495444122973212,-1.3873913939495996,-0.5437527519030437,0.7917468443394349,1.3061042449225808,0.3892251436074825
346,1.3084902938294245,1.9552053743180957,0,0,0.39078407258402753,-0.7653072336826987,-0.29022717866274816,0.7545432385785867,1.3516021641940665,0.7157968678709007
347,1.298925171180941,2.0016280312410495,0,0,0.09738705335615837,-0.32781202690473843,-0.4447322524222513,0.7292436827970912,1.3297519066289387,1.254362629264351
348,1.2684825241863766,2.0325823739249453,0,0,-0.12556726198589482,-0.18732834733246717,-0.3990546407980748,1.1764736271570337,0.8564123798598954,1.4040306186223
349,1.2233882451317473,2.0472487653498352,0,0,-0.048041206482870774,-0.8472485508050199,-0.2334790456632501,1.3669844583938646,0.2487606911985438,1.5256632401937047
350,1.1700150108141938,2.0448050825290895,0,0,0.27794854111889694,-1.6644474595910688,-0.28477128717888495,0.9199834244324178,-0.8716348415675914,1.5698817751351346
351,1.1142604361279869,2.024241799871248,0,0,0.11123975384766492,-1.7014504610230734,0.013199029750192772,0.7398667882758587,-1.2891828824378562,1.3749344334402627
352,1.0611762790723676,1.984358438610334,0,0,0.1051507023945632,-1.3371010570857564,0.14769268530479987,1.161128361341879,-0.4457735378274308,1.0577859004792223
353,1.0147103550340115,1.9239696587130957,0,0,0.025545956244837933,-0.854938655113773,0.24562000169896198,1.584221897800525,0.5196015282230058,0.7609211336977318
354,0.9774746517045406,1.8423277514839638,0,0,0.04484179670443617,-0.667768948355429,0.1867676778703322,1.606601342254363,0.7181940148764193,0.7672638219409287
355,0.9505666345717996,1.7397281077072682,0,0,0.003099728412061521,-0.42854092575228747,0.13911232613228275,1.3160268272487823,0.252095704441098,0.8677162747986427
356,0.933550818361044,1.6182126242224402,0,0,-0.024633783413870142,-0.6076461620129866,0.22314834597860317,0.990022464169159,0.573271928286463,0.9661784480750056
357,0.9247003477593709,1.4822391828567238,0,0,0.10340892482622004,-0.7862917752747558,0.4767008855805042,0.9744546559290614,1.0147947406690871,0.9241003565094713
358,0.9215121044129497,1.3391520270178878,0,0,0.26737365967863963,-1.0568298957212778,0.45437927821936874,1.0693021586734721,1.0009345259026636,0.8656122426569833
359,0.9213949688292331,1.1992723013682567,0,0,0.32349859341953724,-1.264324884594008,0.07563052533493908,1.2131307611697812,0.8257736812347695,0.7046151954508532
360,0.9223503804015114,1.075445382643831,0,0,0.22941665003004785,-1.2264869708363848,-0.18885248370382257,1.0287589889879067,0.865748714838709,0.7620952909697565
361,0.9234570697556713,0.9819520884776588,0,0,0.12216602563529552,-1.040326183343865,-0.2183562938441075,0.590351251781804,0.7576987560919773,0.8726602810909815
362,0.9250386911086647,0.9328167870022164,0,0,0.022993494012270223,-0.838765456600544,-0.10281790272866273,0.33130695610304783,0.21534094588025984,0.8115050390411813
363,0.9285001418626506,0.9397023700142391,0,0,0.0147301302905806,-0.720802433759737,-0.08563209181371387,0.13966252940184015,-0.17052458699317813,0.6757458350863057
364,0.9359174830517976,1.009727769322721,0,0,0.05572752161955025,-0.7411115775182647,-0.056550103993699315,-0.10865748637382146,-0.20397599888332688,0.5167534922953777
365,0.9495196623329327,1.1436334555305283,0,0,0.13608202856077717,-0.8244736659661447,-0.07269034229736057,-0.3695781153592162,-0.15448546411886246,0.2125326904302514
366,0.9711965806766731,1.3347221227802475,0,0,0.19740725875953266,-0.9337373561007328,-0.10672474626569639,-0.2917610066560657,0.48688971821868876,-0.12410425884135472
367,1.002123785809705,1.5689044265278955,0,0,0.25107231014525955,-1.0195647717458007,-0.05080996397262612,-0.7967997650289014,0.25677467558453193,-0.43266722396336793
368,1.042538854776194,1.8259925096470413,0,0,0.2355505621662444,-1.0332230933306712,0.04657690377634772,-1.2972650075859298,-0.010513651886701112,-0.9302531569340097
369,1.0916630227778947,2.082136882612019,0,0,0.19999971783700174,-1.0630471899830514,0.1530496281529116,-1.728926387027788,-0.5432741597481681,-1.252611710313815
370,1.14774274783259,2.3130464582151724,0,0,0.17650687901533588,-1.0918235598251314,0.1594567365550226,-2.1508059091703027,-0.8449920255895231,-1.3845154292576418
371,1.2081837553252253,2.4974304399813403,0,0,0.20143452809210427,-1.1595426271108364,0.10618267033682968,-3.0037035615677707,-0.6235582865858036,-1.4828167005212507
372,1.2697528786048997,2.620009392383349,0,0,0.35024005027175364,-1.1684654224115452,0.03780828403390055,-3.629019313649027,-1.0717307955431665,-1.3844673629526474
373,1.3288222292536251,2.6734959709239456,0,0,0.40834262756103484,-1.3987165414722267,-0.11635044907573895,-2.988949787688011,-1.609948519180521,-1.0966694194180333
374,1.3816251620508588,2.6591538547447886,0,0,0.17569093468792882,-1.461302680813233,-0.1229448612407264,-2.3951088334134565,-0.16172168054484243,-0.7621327185817356
375,1.4244907077688047,2.585873437663018,0,0,0.11472147702310909,-1.436508930174162,-0.11051283517619422,-1.5694802798721892,0.29668265664536,-1.2336079676916987
376,1.4540312191416376,2.4680569384339415,0,0,0.24311682356668177,-1.5200489813532612,-0.032191472248095536,-0.8255716989085105,0.012591352251229027,-1.6097546086723629
377,1.467279264020349,2.3228524247267335,0,0,0.3050107160641974,-1.4094580534136159,0.06237499797779546,-0.7854852832570351,-0.3483234898116318,-1.7705934567348594
378,1.4617972252090965,2.167335954241093,0,0,0.2968637155537891,-1.1959307625812174,-0.09052812050998103,-0.5391477743295061,-0.5538492739463593,-1.7773777328735625
379,1.435804372198149,2.0161371557543872,0,0,0.22949663336745801,-1.1361785086226273,-0.15804636392224494,-0.2132448227298135,-0.5818583358541944,-1.7162339748247533
380,1.3883678804954116,1.8798257164648189,0,0,-0.07725707966960173,-1.297545310512799,0.20282398027939716,-0.21685717,-0.39584067,-1.4834863
381,1.3196762688905268,1.7642024063643604,0,0,-0.34968140286462995,-1.3585425822836867,0.32784727917277207,-0.06414084999999181,-0.5784893600000243,-1.1765263999999895
382,1.231360554721311,1.6704932597683642,0,0,-0.2895786852113779,-1.3510315558483508,0.0979644509462331,0.11055771217129547,-1.26526739955331,-0.9122428786346871
383,1.1267748795564299,1.5963163973907144,0,0,-0.07602258684886457,-1.2925284562839183,0.07190270128821163,0.14910679340583252,-1.7443653255328493,-0.7151693195737205
384,1.0111241455282285,1.5371696469463048,0,0,0.13887092841098472,-1.1840210682756127,-0.02139331517448102,0.22265721552500453,-1.8496917236501282,-0.5528545427774487
385,0.8913438110634515,1.4880965510515767,0,0,0.1541155008134686,-0.9877248832061363,-0.046833797594690044,0.4307328776852962,-1.8087376797463333,-0.40953515250693556
386,0.7756871551038274,1.4451670712894724,0,0,-0.031090630903260953,-0.7641783354513222,0.01186230859068391,0.6790459137781296,-1.6865571185945514,-0.26563692860047255
387,0.6730386361241665,1.40647431785242,0,0,0.11284138332822717,-0.5949601723086567,0.022608052083344307,0.8150789973790334,-1.5690307677419337,-0.046271812100805464
388,0.5920292592780498,1.3724806702085892,0,0,0.22687856191739064,-0.5201917570845876,-0.002599439926291635,1.0792978717897288,-1.0309788759028813,0.04037287418298572
389,0.5400670813760939,1.345707462748145,0,0,0.13701441957137545,-0.502562910250405,0.04865164921588979,1.1186757496249773,-0.3675013772491435,-0.028638162653555517
390,0.5224088643211324,1.3299130746613874,0,0,0.015851427299233892,-0.4619895422312165,0.14344147445351244,0.09768351086246665,0.25245357810344904,-0.4961188324699287
391,0.5413939233611741,1.3290072429979778,0,0,-0.030602881591061205,-0.45737729529761073,0.13148988716069052,-1.0614672374429166,0.4889754992257267,-1.1070262014294285
392,0.5959482816903405,1.3459755334090044,0,0,-0.07218782094847777,-0.46191253861351983,0.06844022605969055,-0.62738556901073,0.05726843493443566,-1.2056919282479075
393,0.6814504864284886,1.3820417788021426,0,0,-0.09336763209076657,-0.4698118227493853,-0.008828977640314904,-0.8009289822557889,-0.7979834987109765,-0.4724337859879133
394,0.7900261258492824,1.4362219563067047,0,0,-0.059487970893491025,-0.46590782160035016,-0.09365557568476442,-0.19904770387057322,-0.38500309293987817,-0.026681524011180215
395,0.9112981317633121,1.5053550465753782,0,0,-0.0014977357390557804,-0.5427127162306123,-0.24409204398898313,0.39766004999599464,0.7174467927112521,0.39790739781337553
396,1.03355645237491,1.5846142472518308,0,0,0.06565250905745432,-0.7032002268186885,-0.5289240467977004,0.7803124602134397,1.8566275904347818,0.9072527570750983
397,1.1452220969774174,1.6683704765635003,0,0,0.23361785853186223,-1.007274794272163,-0.821004326359788,0.3364754307573976,2.648599285443788,1.4527586518343212
398,1.2363808409492247,1.7511380439594444,0,0,0.5870988172532134,-1.6006784171964956,-1.10496722508072,0.13418947664428832,2.313014646979835,1.0954576879194446
399,1.300087344711767,1.8282929086442974,0,0,0.7527059258896438,-1.8925079541781353,-1.0022383935674741,0.5063068410774116,0.6830725166400755,0.7622394167797303
400,1.3331429718007728,1.8963840977858835,0,0,0.8194155792027378,-1.3939897370225356,-0.4868685301261236,0.7793476850348466,0.032393634503690504,0.5270689355132776
401,1.3361670650427653,1.9530772376805972,0,0,0.5632644450932246,-0.745594447904394,-0.28796531536505465,0.5880978224318684,1.416200456660914,0.8518500335048426
402,1.3129903037266624,1.9969077840418776,0,0,0.26665623176260084,-0.3316233613238919,-0.4549234591342018,0.7167913145338308,1.9843944805150728,1.3328635089438947
403,1.2696080365332956,2.0269963651195777,0,0,0.023793863494098216,-0.18141296888885064,-0.4166961782532911,1.1231282469945465,1.6450200412568259,1.559481388797821
404,1.2130308485729422,2.0427665055364197,0,0,0.166903011081693,-1.033586295847474,-0.20380324281338152,1.197590387291919,1.079194534210284,1.5048999822574145
405,1.1503108521936685,2.043642369883542,0,0,0.18491542025919064,-1.7270732389565824,0.023365503810234948,0.8374915777303849,-0.02220328415697866,1.5685169331058042
406,1.0878564928176402,2.028743727762784,0,0,-0.1073366362738577,-1.4443416772220972,0.26412165282101274,0.6054539540723081,-0.6253333886372668,1.409358151092571
407,1.0309900368078708,1.996678426356964,0,0,-0.1617916775765186,-1.1178253712043784,0.1671740938178502,0.8891118218598839,0.131211734300255,1.15071539642786
408,0.9836435611715711,1.9455703450565232,0,0,-0.12280313338463807,-0.8842802899883235,0.05224781454127277,1.5558784996954715,1.124342692767423,0.763728298035777
409,0.9481380078775556,1.873414499193523,0,0,-0.11407472569373706,-0.6323427372138429,0.0307988815359947,1.4150911543870364,1.2193743305572478,0.6531706775927045
410,0.9250764438135263,1.778749456783686,0,0,-0.12291645708893807,-0.5537668369648432,0.10495798766876552,1.1284198109424972,0.8911130109025626,0.6418097471845029
411,0.9134304249486344,1.6615388958965653,0,0,-0.10522514035558707,-0.6861410809675199,0.2861158775532127,1.0380715143388106,0.9115917287050082,0.7139352208626759
412,0.9108758497870394,1.524093682464817,0,0,0.028899145308008228,-0.8204184762303095,0.4461462345161576,1.0621045172683516,1.1597420562174077,0.6927684024969922
413,0.9143588199849272,1.3718367426435563,0,0,0.18761251550637015,-0.9608065760376678,0.48439883120631033,1.1131762575903592,1.2585127929718913,0.5726751269076321
414,0.9207854238429309,1.2137015516434642,0,0,0.34395419892593726,-1.1851288031971172,0.06828307566963275,1.2809472662070356,0.8977718396283003,0.5414255875899271
415,0.9276752256298736,1.061973428731458,0,0,0.3834581881728211,-1.1895304687892172,-0.18440044416982115,0.9880817218322215,0.5120321850100303,0.737620445346404
416,0.9336214987689304,0.9314533726678685,0,0,0.2518327252598317,-1.0214646202537878,-0.14618251143057362,0.6696875921594752,0.21784118600914698,0.8971894583813879
417,0.9384609835961271,0.8379448462139596,0,0,0.12120419786597567,-0.8006207493268152,-0.07835304562955957,0.400004930573072,0.07570980221713286,0.919209507174301
418,0.9431475236045573,0.7962048785323568,0,0,0.13895000676772096,-0.7274177728449517,-0.0398417991523492,0.06440687463755736,-0.08957918099483606,0.8075593813021065
419,0.9494082332316298,0.8176288308460891,0,0,0.18623698998660598,-0.7637685762842308,-0.03910117177574422,-0.17987585114200774,-0.1382930386295924,0.6251935730685183
420,0.9593030432456038,0.9080328564425524,0,0,0.2427963066532506,-0.8544057696930948,-0.09757567178499067,-0.23983364357114478,-0.1623398101753707,0.4154961026743697
421,0.9747984061681327,1.0659468120472875,0,0,0.3062845694382943,-0.9892707333284346,-0.09346265766327211,-0.25134750318563936,-0.0658776397315945,0.07495332086158267
422,0.9974224092926658,1.2818165659270304,0,0,0.3032676420907709,-1.0367810529435693,0.0312625180284825,-0.2344317869216394,0.2639570980447745,-0.14017852532742286
423,1.02802296734837,1.538417239097373,0,0,0.21105842020188395,-0.9813922527912085,0.11023063945131364,-0.8092338594483011,0.2068769328497713,-0.45973196417542694
424,1.0666254111376905,1.812587194333131,0,0,0.17149138589953233,-0.9583914955962354,0.1292986255729301,-1.2339580292199004,0.07396757288433192,-0.9091575399292672
425,1.1123822917549124,2.078127671886332,0,0,0.16674435448405922,-1.0338256023973564,0.09076430611421091,-1.8781229496274763,-0.20848094053529276,-1.202870649098043
426,1.163612201085443,2.309434469684201,0,0,0.17536031865780063,-1.1638772986029733,0.04067888030588619,-2.4821078803433654,-0.5621499277442069,-1.3167946582198502
427,1.2179212218526416,2.4852134681073736,0,0,0.21380278469241817,-1.1903384769749408,0.010468540585529481,-3.495352869534062,-0.6439346528673869,-1.3247138474910416
428,1.2723880012321263,2.591548244374038,0,0,0.29063966966026633,-1.2913318754338028,0.0025154288783142994,-3.608860116627481,-1.3928926798081536,-1.3291817790638414
429,1.3237799510810642,2.623678992952843,0,0,0.2596408007682132,-1.4405621764976309,-0.028759063817606567,-2.9039666834933597,-1.5017582675268544,-0.8945340302220548
430,1.368763208087396,2.586125151379348,0,0,0.1404301687567604,-1.3721655253692522,-0.05832862081811505,-2.204107456291273,0.6269621628645602,-0.8145439535266991
431,1.404077270927255,2.4911832596071193,0,0,0.1769305767389309,-1.4302104375044378,-0.15976405426456675,-0.9981159932139586,0.2794723795621879,-1.1710480896517268
432,1.4266654912986556,2.3562264367888712,0,0,0.25552678659113304,-1.4719678898064223,-0.06628764014209673,-0.6726577078196821,0.13236425231515347,-1.503197187293061
433,1.4337786389154181,2.200474105973026,0,0,0.24558092030992434,-1.2607844873632261,-0.08735900353454903,-0.7457641814555468,-0.12581722031077908,-1.6495759079464987
434,1.4230916670252844,2.04191822524578,0,0,0.2343955534144671,-1.0666810851353417,-0.1306454888388509,-0.5163445209479882,-0.2514063942096821,-1.6478018227756575
435,1.3928828729143181,1.8949314384054552,0,0,0.09303351105883366,-1.1901111739830443,-0.03298596963502105,-0.2168643738856696,-0.2287798968838712,-1.542143463581853
436,1.3423073947384263,1.7688532628200992,0,0,-0.2726389875661528,-1.358318013407626,0.42293205225912234,-0.2690892735311843,-0.3903702156106156,-1.3099851885502147
437,1.2717488158189694,1.6676370022124019,0,0,-0.3124658169726502,-1.4395326211441044,0.18075414197586603,-0.20044803106571848,-0.9844301269156539,-1.0218656560482113
438,1.183171679874832,1.5904650328403886,0,0,-0.18423613639171404,-1.361265726350587,0.12318750836107191,-0.08473055323004038,-1.6053651325842746,-0.8280085360674134
439,1.0803592445640446,1.5330964720753901,0,0,0.047821186022286806,-1.181255395283636,-0.0011286346733538003,-0.013665818184870724,-1.8249401001800714,-0.6425532002460953
440,0.9689286348699485,1.4896062872585072,0,0,0.14743657796911094,-1.0730970352407807,-0.007161620094251178,0.17341109830464005,-1.7611550310789372,-0.4914818081515277
441,0.8560633911296289,1.454135088549387,0,0,0.042770098593053814,-0.8723903131825766,0.009091066178149051,0.47129676804813786,-1.6270361311645778,-0.37689927410201646
442,0.7499659893872549,1.4223100296705038,0,0,-0.0075704106545204175,-0.7225205420180631,0.002019149461580768,0.746744098512796,-1.530231390660319,-0.23612540266507626
443,0.6590878902068744,1.3921032620195295,0,0,0.12594862296558998,-0.6279533357641311,0.010745730400056356,0.9180659395857962,-1.4902377890532559,-0.04988799054379119
444,0.5912315733905409,1.364030491674038,0,0,0.20158115034678248,-0.5389531023913466,0.061329966385090806,1.0723328817311542,-0.9317156983446295,0.022295667260470716
445,0.5526366565112918,1.3407301706878159,0,0,0.13557262780898072,-0.4910164780614325,0.07853460221158783,0.8789449843081697,-0.5317161216802648,-0.1390212251264254
446,0.5471648787686202,1.3260837663438652,0,0,0.03778515938204559,-0.4827267484924632,0.11251241138796957,-0.4568364256185172,-0.08656768808230286,-0.6391388211953537
447,0.5756924476321196,1.3241138626629418,0,0,-0.03481121743369033,-0.4572635569366744,0.08447826025228387,-0.9927066177614124,0.3275748992498246,-1.3100111035514748
448,0.6358060582076418,1.337907001419679,0,0,-0.0437271802004869,-0.4751027125306993,0.022261257220469174,-0.8260738017997584,-0.1380871500924316,-1.0825945595200765
449,0.7218789233889183,1.3687634914899018,0,0,-0.0365257696623193,-0.48446485923304605,-0.08837273401298713,-0.7305636583366333,-0.8542778194122174,-0.4101683388704234
450,0.8255702247579144,1.4157208848723133,0,0,0.013814806521888066,-0.51487262307825,-0.17062456040389537,0.01282817,-0.3222314,0.07147124
451,0.9367399334132706,1.4755534083775923,0,0,0.07840864728748596,-0.6218717461844646,-0.3518056047086534,0.6465746768646444,0.536695756823209,0.5395880593922677
452,1.0446983859598835,1.5432814020612144,0,0,0.15422996101200345,-0.8034719723220436,-0.5945468895590329,1.069363826848741,1.3183034526011503,1.0398211776559565
453,1.1396220382041886,1.6130936637920932,0,0,0.355892817256482,-1.2146652298694272,-0.8330896949972582,0.6404922000000193,1.9761491000000755,1.2815952000000448
454,1.2138841671734628,1.6794294194055448,0,0,0.6723295576621856,-1.7511359065973184,-1.0449674812933027,0.45493405887560767,2.3237046718712637,1.1893137970599477
455,1.26301080091016,1.7378923595091798,0,0,0.8371933442657945,-1.733785681457358,-0.7299393214419072,0.4290880853847854,1.642990753399524,0.5180765971381143
456,1.2860232934353093,1.7857496733109537,0,0,0.7316258326422962,-1.0923565830755761,-0.3369034415176403,0.8647155012680452,0.3710959806047578,0.3219153917674578
457,1.2850875770740542,1.8219609555743792,0,0,0.3650388928177971,-0.5873435459333033,-0.3667676823804478,0.5844256275711058,1.099722513347949,0.7289941474836203
458,1.264609688111742,1.8468555170404888,0,0,0.07552446771594533,-0.2363053375946501,-0.4542666781776773,0.5735543706906968,1.6302727244844815,1.131246242542548
459,1.2300945455481012,1.8616298964190596,0,0,-0.1108695371570422,-0.1992050929107187,-0.3552166048866444,0.9317256505633438,1.4273564003162638,1.3410907581537794
460,1.1871251738090427,1.8677823277992935,0,0,0.013501989142194035,-0.9254778211149199,-0.2637391492300538,1.1590836680459322,1.1920471264898163,1.3849645330627596
461,1.1407025876645223,1.8665341978427628,0,0,0.31866067645355833,-1.6769941048348918,-0.28433634927651846,0.8954422157322427,0.32190072125978664,1.518470483385829
462,1.0949807974948738,1.858284690299878,0,0,0.061091728144109556,-1.6959204318786878,0.07910643464013915,0.3838713469548014,-0.49990525541347675,1.4321693734162175
463,1.0532524712238867,1.8421947158242207,0,0,-0.063677983468615,-1.3355888581162634,0.15359327177057844,0.46350475931873597,-0.37942237031629855,1.1547381785888062
464,1.0179819711694884,1.816037234154012,0,0,-0.06419909844735289,-1.0202287281508786,0.17229560433051697,1.2208816154170135,0.7898368588051438,0.8662552154370379
465,0.9907553443578759,1.7764314493446371,0,0,-0.12147352777059701,-0.768570348048357,0.06190529615415722,1.448804765036088,0.9416896714514857,0.6017155264635123
466,0.9721512140941623,1.7194955409592727,0,0,-0.15431386364245683,-0.5489713422099277,0.06057196564104844,1.292230276924604,0.6697777335899353,0.641316090396887
467,0.9616414783606018,1.6418467994966244,0,0,-0.045549461683651905,-0.6220085633363769,0.11908460753305429,1.1594248779765401,0.6403268562711372,0.7170721748399959
468,0.9576542424619969,1.5417919165438838,0,0,0.06052348261453829,-0.7342902693927875,0.3621099458040676,1.0730887885480989,0.9087280344453278,0.80444933853814
469,0.9578742971377662,1.420496076799254,0,0,0.20954436797021236,-0.8828375005315154,0.43182033054656505,1.0308202206164938,1.1408384572457833,0.7861322461168955
470,0.9597552723884891,1.2828903714835882,0,0,0.3152620312796799,-1.1363049022132043,0.2912091144342548,1.0610480776663989,1.1698355306736052,0.7657739750902175
471,0.9611219575499339,1.1380775212894882,0,0,0.40511362143567525,-1.2925739258253635,-0.08709158937944877,0.9509256527601169,0.6979712607823403,0.8020917482327287
472,0.9606931654183373,0.9990441901504478,0,0,0.33837771857001014,-1.211108963758486,-0.2006831987453622,0.8064995834057695,0.4582338937475291,0.8867382095811959
473,0.9583747443517512,0.8815902587158833,0,0,0.1365181869544689,-0.9493778839991943,-0.09886919415546966,0.8139142054589155,0.2599861834673173,0.9185769986502732
474,0.9552502733962918,0.8025229566269924,0,0,0.06726502207365005,-0.7665445056660906,-0.049546284331494085,0.49968272497498706,0.07187039284856697,0.8042614389877943
475,0.9532984778821323,0.7773094965705251,0,0,0.09627525841182015,-0.7224885769294813,-0.035225284621302005,0.13238400899820224,-0.036328848317498635,0.6406123502705993
476,0.9549448308954384,0.817514177956335,0,0,0.17750845023525857,-0.8240221830691057,-0.028491959116516526,-0.08094289638083474,0.012904392480784956,0.45208759807215126
477,0.9625787133459879,0.9284434664340676,0,0,0.22809560842674628,-0.93017186048143,-0.06563839502935828,-0.2978464035718524,-0.15508269789495294,0.2582560224915904
478,0.9781394141299894,1.1074579111228033,0,0,0.23673016341122377,-0.9766200370323106,-0.02257546052197706,-0.12252153666310092,0.22713927216490906,-0.03554987078075474
479,1.0028234062975727,1.3433587439158898,0,0,0.21292736506369056,-0.9858568000965,0.0626664997228008,-0.294723935885616,0.40037334849222783,-0.1588568402359026
480,1.0369224284229461,1.6171105158808077,0,0,0.15198352444843366,-1.0044213039009628,0.09249274883699853,-0.9931404769352444,0.3052562605766177,-0.49422954966826055
481,1.0797798361864719,1.903930544330111,0,0,0.15984588292494595,-1.036175018338071,0.14702384292748996,-1.5623888827265497,0.03160018830609577,-0.9446860836960803
482,1.1298464291651573,2.1764991083783185,0,0,0.1781581314095301,-1.1033695490698754,0.062088372339574344,-2.0654849948963494,-0.21612949980065127,-1.199029611881989
483,1.184815631934534,2.4087846853279085,0,0,0.22601921091487198,-1.1614526676099284,-0.022003603935617462,-2.548637321476524,-0.5248695692953155,-1.3281420104026878
484,1.241815065763346,2.579804015858456,0,0,0.32005617096998845,-1.1878490635984973,-0.001718958492891365,-3.506593107716902,-1.0289639087564921,-1.3277209734906046
485,1.297626988437099,2.6765963674113693,0,0,0.31476217229758147,-1.3704385999502833,-0.01824564878378633,-3.6123210833733723,-1.860114583233271,-1.268752066706694
486,1.3489070402183179,2.695812614905454,0,0,0.18261420552926555,-1.4318850570642583,-0.06954990112653209,-2.8579056332199717,-1.2078597341598702,-0.7580621353759778
487,1.3923737115482329,2.6436053610014114,0,0,0.08383211214238902,-1.3213614804674887,-0.11064978381106881,-2.302429085064132,0.3723774900962332,-0.805741030052138
488,1.4249530626228104,2.533901778803332,0,0,0.1616431780796016,-1.41695797572443,-0.1482463360633695,-1.1194579398672264,0.1413185274431691,-1.1812133744317053
489,1.4438817977580627,2.385517999490925,0,0,0.27190365638060976,-1.5246848221536375,-0.04756504970782687,-0.7923004710098509,-0.33725043780642466,-1.562324972355833
490,1.4467892313832291,2.2187914286082417,0,0,0.2521184393423115,-1.3683902277961104,-0.03204598486295933,-0.7540107180733112,-0.48346698813939737,-1.637215452773883
491,1.4317902889407146,2.0524080606496806,0,0,0.23390200210824286,-1.1333370687216058,-0.10459576295806242,-0.3684650194569973,-0.3123671331497116,-1.6673056575250784
492,1.3976262487893754,1.9009416036357405,0,0,0.025804783228279324,-1.175593079173785,0.11150696767790236,-0.15492837758401212,-0.23805117540664228,-1.5623276839530735
493,1.3438805597542725,1.7734048623711898,0,0,-0.2902480285026854,-1.2935054064544262,0.39965052097409537,-0.23287656070709098,-0.3411670614826758,-1.3283797237308619
494,1.2712640880124824,1.672913299976761,0,0,-0.26481441452492077,-1.3797244450617359,0.13738615592537295,-0.07933380717831115,-0.8091368081261896,-1.080264172189366
495,1.1819138614101645,1.5973908471744118,0,0,-0.10005754579821777,-1.3620921385343028,0.10425054900079375,0.027716263195513152,-1.4169112834604831,-0.8616019980931218
496,1.0796088392421863,1.5410992067832916,0,0,0.09041096085887133,-1.1951054920258803,-0.008121254784151622,0.09923148945455246,-1.651650319480524,-0.694645000467527
497,0.9698010628060016,1.4966484129782451,0,0,0.1446247410669664,-1.1017338604304483,-0.05072937964627112,0.25519774831310404,-1.7568263765665375,-0.606559699462904
498,0.8593936053761129,1.457073637261718,0,0,0.013365671577268562,-0.8954450146353672,-0.05290196489254059,0.464683162183852,-1.7938214947410664,-0.5100464757647553
499,0.7562512465615845,1.4175666135281155,0,0,-0.042841538906311594,-0.7401206739722817,-0.0300650997397381,0.7376626202521581,-1.8445596162097269,-0.39553762119270963
500,0.6684855282504476,1.3765350983147897,0,0,0.08974097149829045,-0.6391245879404267,0.007195022443822187,0.8756229324345938,-1.7209959321150197,-0.20972089025164414
501,0.6035989335827535,1.335816484055478,0,0,0.1719102798437419,-0.5593939116398632,0.022070736920044916,1.002148029009612,-0.8582063432045653,-0.12905861422827872
502,0.5675974381473502,1.3000652157666077,0,0,0.11449004585378254,-0.5218621211180148,0.06111864946501816,0.7588305853004492,-0.11885771748110854,-0.258009844777154
503,0.5641879545812433,1.275523449862071,0,0,0.017358504107037907,-0.4920851632471024,0.09481398488019117,-0.18385424732358002,0.3285650969176836,-0.6184673783610691
504,0.5941727174689061,1.268509524534791,0,0,-0.04878000422071311,-0.4748494076507771,0.08297612036543664,-0.8580824278590002,0.32587598719405975,-1.0105800642299245
505,0.6551404281873909,1.2839762513593431,0,0,-0.05182643883074796,-0.4868077465159542,0.04696097304987467,-0.6653761812079722,-0.5056281528085413,-0.9015476949406059
506,0.7415330379268616,1.3244166337459953,0,0,-0.04872053107036219,-0.502629710834315,-0.047750342424123196,-0.46974312742806223,-1.0426784119556713,-0.31860357614500845
507,0.8451326096861931,1.3892905695703621,0,0,0.027559196669891588,-0.5374758969065887,-0.15548888810186887,0.03163473318585994,-0.4399206496101024,0.07012329214132021
508,0.9559594458936111,1.4750542077533968,0,0,0.08432115831564942,-0.6490283222946887,-0.39614288618719795,0.677985437586178,0.2948625169403929,0.4441649870388117
509,1.0634986951027405,1.5757749238036625,0,0,0.16061310610329646,-0.8367097590314589,-0.6827350876904543,1.255188734067256,1.2188761662129468,1.0682727130504273
510,1.1580852692143966,1.6841749933501795,0,0,0.3450532961170487,-1.214537874045392,-0.9005023369553519,0.7486063025075739,2.4267455141126533,1.444337837734704
511,1.2321988745230859,1.792798075052299,0,0,0.5797876289047752,-1.7305019134367867,-0.9783333410066236,0.13272403468179192,2.655528553001129,1.2746121018006844
512,1.2813905507483803,1.894940993151382,0,0,0.6820993725420101,-1.675104644514229,-0.7230946749936882,-0.11505300530611823,1.7741822722862297,0.5526849618846781
513,1.3046184998870942,1.9851190458156853,0,0,0.7208196959519162,-1.1416546859924641,-0.310120457259184,0.847416615927548,-0.10239138037816804,0.43552046473808687
514,1.3039236696243388,2.059083568440843,0,0,0.5105378464323648,-0.6616608665059731,-0.325897909619371,0.6800307944654058,0.4612631880500416,0.5614326572076026
515,1.2835777846827248,2.113618583826158,0,0,0.22597803357342958,-0.3337901694938885,-0.4661908794062993,0.6262266948954835,1.9002041519895574,1.0873780991358277
516,1.2489972784407357,2.146368965306844,0,0,0.005078162563072766,-0.2450512014973555,-0.4341801750534871,1.027148081632669,1.808485232653067,1.3744249163265356
517,1.2057548164470988,2.1558079470855613,0,0,0.06823801696459493,-0.8097168160365504,-0.3016620605057629,1.5295086285055177,1.9866198910531907,1.4999648921564768
518,1.1589171049571565,2.141280961636446,0,0,0.37950910364995794,-1.6388819223561446,-0.32039762135533656,1.2773171220138089,0.5749429614017493,1.6133797925962572
519,1.1127492806838504,2.103001014269057,0,0,0.11262163369507125,-1.8157899516482143,0.1252297749001394,0.49708808926535475,-1.0789215922119655,1.6778771916900828
520,1.0706552656114416,2.0419361438157138,0,0,-0.13436076582812972,-1.3563349327176697,0.17876654535553513,0.5582320352182295,-0.7291206178121904,1.2449933581589727
521,1.0351632774068218,1.9596389730895702,0,0,-0.1694056612906717,-0.9466434437108758,0.19969141981826727,1.5991211123663838,0.4665682712608615,0.8432176387734387
522,1.0078370153674976,1.8581303216731568,0,0,-0.25085532259827253,-0.7395797493813756,-0.023256067946584105,1.6972686967305906,0.6450436190474493,0.6588146248032317
523,0.9891295767511329,1.7399328701046581,0,0,-0.18182296035036963,-0.4953585871588761,0.04196720257669439,1.3752121730860742,0.1506538835561221,0.6533646821340731
524,0.978301971791451,1.608287784048497,0,0,-0.07329756028808732,-0.6030726541915186,0.1015514264451375,1.1688986650530044,0.09253013322865766,0.7406710850610144
525,0.9735433860796243,1.467519916767031,0,0,0.04326694110472347,-0.7235212176708504,0.4195357561160431,1.0726589236141693,0.5648744812487444,0.7409254559535742
526,0.9723585441694462,1.3234603941696432,0,0,0.24473455692545634,-0.855400258985558,0.6159676625798132,0.9825727849930981,0.9865681297771636,0.6578796144153036
527,0.9721716150521136,1.1837847899636047,0,0,0.3757847303874731,-1.187827835231805,0.38056724646650003,1.0433730048984462,0.8755712996614934,0.6011357978494607
528,0.970992694131855,1.0580897384592982,0,0,0.48005418049560933,-1.3867036521713278,-0.16983386847724471,0.9772072247011929,0.7889426617290838,0.7084498909482091
529,0.9679493922623712,0.9575363291640089,0,0,0.32064277915974293,-1.2048649932075126,-0.19733898724241,0.7801216914952434,0.7993919226107502,0.8564744746439933
530,0.9635228494280855,0.8939525712160542,0,0,0.08122516003953353,-0.8857890129710928,-0.0451504912027496,0.5725808001606818,0.4574031018283184,0.9433000425553582
531,0.9594289872910355,0.8784042871406331,0,0,0.05537844682082537,-0.7151789867252315,-0.033781192285139636,0.3544212541348602,0.12786948374529827,0.8745539489321705
532,0.9582047913587539,0.9193901072899883,0,0,0.08009374167737568,-0.7185055838775608,-0.07549440506987584,0.04206274533543966,0.019994815543222695,0.7300041921292564
533,0.9626403505836263,1.0209569386863195,0,0,0.13139295044063704,-0.8367902019905588,-0.1252057144243633,-0.23796320489025566,-0.07529560841475127,0.5911509298020184
534,0.9752105314485842,1.181128182504691,0,0,0.17941702681403254,-0.9682973026915656,-0.19135784881737966,-0.36056369104250074,0.02962731441393941,0.1355047483571725
535,0.9976180314585971,1.3910540822478332,0,0,0.16781366517346205,-1.009182552447404,-0.10890974670094511,-0.3457898601459799,0.5360855100729911,-0.20445481489050774
536,1.0305002150463254,1.6352120687901932,0,0,0.09747763097624036,-0.9932244999758145,0.008771308290805717,-0.7962883384386277,0.4613386765196619,-0.4572311670798654
537,1.0733077115355905,1.8928060432390361,0,0,0.05691475275429758,-0.9957266462552607,0.11913574329298321,-1.2252805890668885,0.1896076166862138,-0.9542325751662067
538,1.1243413155031698,2.140265943643666,0,0,0.10083825860756193,-1.0708939114278924,0.17269814928554572,-1.7965119086930497,-0.33821397084732513,-1.238689644504397
539,1.1809243900684347,2.354487005592207,0,0,0.13911677330891273,-1.1887420446394248,0.08119440933368685,-2.3161386766132472,-0.46998533992385744,-1.278891971262528
540,1.2396783363085215,2.5162358589779847,0,0,0.24278149372327776,-1.2286677852046417,0.0297327158247234,-3.3031797462117627,-0.8023803101546871,-1.3935770539468488
541,1.2968565564974979,2.6130453939872322,0,0,0.35361864130575543,-1.3048938294265178,0.009945019914973208,-3.694772063034315,-1.3374091703792932,-1.3841206340156524
542,1.348683696411402,2.6409680636532418,0,0,0.3057088967809371,-1.465011080281178,-0.08927005762491175,-3.0427977875705365,-1.6733867376309937,-0.9486529152578801
543,1.3916481820090365,2.6047820656549634,0,0,0.13479647070047307,-1.4062654423648586,-0.10688359436968836,-2.3932560189162326,0.2623928135132848,-0.6490827085102849
544,1.4227099381708608,2.5166139425046405,0,0,0.10748960267532608,-1.4191290409750583,-0.12469832341174848,-1.3087309289083227,0.2925135019190926,-1.1311303514535438
545,1.4394098064791254,2.393338904880456,0,0,0.20545004892775284,-1.5222230104558396,-0.03805074853813248,-0.7892305462033633,0.1066027856145208,-1.4888106437424875
546,1.4398960343718927,2.2533929492072056,0,0,0.21341859718643805,-1.4239472778772564,0.02955020691602372,-0.7804041775751516,0.08676141365130395,-1.6105777838877753
547,1.4229088861140502,2.1136878425490004,0,0,0.19557910605395903,-1.1383862467410564,-0.09687689885215711,-0.5350009107311212,-0.0014194693036572558,-1.6663554299528318
548,1.3877811413479548,1.987188915802666,0,0,0.15799634564252502,-1.0797458538517426,-0.10183863375739644,-0.1520890854166815,-0.13948907520832168,-1.655046645833342
549,1.3345111123441262,1.8814967259026598,0,0,-0.1747340762491457,-1.2576020275711124,0.29086488969662505,-0.21945628015975935,-0.21889728367846578,-1.5280458284327558
550,1.2639347970398687,1.7985538635385783,0,0,-0.3558813397663103,-1.2914092655655491,0.29916875883368915,-0.15054825883626427,-0.5430671720626221,-1.2779522286918037
551,1.1779679708150816,1.7354098220922305,0,0,-0.3092908859624501,-1.3347073313858073,0.09175817980845907,-0.0364564601431125,-1.3020818206187446,-1.0641383078043982
552,1.0798339184806482,1.6858166301328656,0,0,-0.095658106124953,-1.2456770133992285,0.030948720291710453,-0.043760297255595236,-1.9044958067092514,-0.8482132300958577
553,0.974170040742947,1.6422958546231776,0,0,0.03584296149672981,-1.114943898917084,-0.07299113923990311,0.09030502365308091,-2.030902168345324,-0.6545472545643465
554,0.8669282486110248,1.5982372730017287,0,0,0.01015421590196621,-0.8572671879540954,-0.06084391506018999,0.32068780378324707,-2.0687001313737254,-0.48386102835032674
555,0.7650361321737451,1.5495946078361793,0,0,-0.060580604506180497,-0.7277000185077678,0.0190805295122172,0.49305962517857926,-1.9735854242375577,-0.27417579763241573
556,0.6758435142523728,1.4958459473902683,0,0,0.0484638858314767,-0.6518620491814666,0.07489095845243639,0.6947536108927442,-1.7757562048532165,-0.09565573541442274
557,0.6064216767006072,1.4400621109537206,0,0,0.16149958343053544,-0.570652970708007,0.05512212997752651,0.9829425842942525,-1.1531923644134665,0.013056789423755396
558,0.5628026205057193,1.3881306384444387,0,0,0.1445894913749063,-0.5568146905356842,0.06613536484138038,1.0280204907198103,-0.40482522214158534,-0.09539618000297366
559,0.5492484693600626,1.347367625141747,0,0,0.06909656260096522,-0.5276372929847831,0.13725832910313585,-0.09951931046836628,0.20053755204763535,-0.5307636105884689
560,0.5676371635886679,1.32486765888494,0,0,-0.003888043800097816,-0.5171318616331344,0.12693840830951394,-1.0427051280415185,0.5364146573294934,-1.0122606317311391
561,0.6170468941603326,1.3259628733736288,0,0,-0.05022655132157691,-0.5082382944701584,0.04280471507749952,-0.6706445451504388,-0.059447935421682606,-0.9940949351345482
562,0.6936177556901546,1.353096356053638,0,0,-0.05632663002626106,-0.47952675441457887,-0.022451473806844594,-0.6496257387992445,-0.5473971183990263,-0.3982618056865162
563,0.79075782132393,1.4053112270347299,0,0,-0.02703347071882866,-0.4707118622054202,-0.11265874031028154,0.08120825453549817,-0.08692915884394338,-0.01494561982977089
564,0.8997318053015451,1.4784454327991912,0,0,0.013148945159008657,-0.543171061906292,-0.3011859031681568,0.6140423417081744,1.0097084850707132,0.3715723399999815
565,1.010614627897846,1.565981782325979,0,0,0.0699066042124622,-0.6933785779814766,-0.5505121897526516,0.9589240809212737,2.1333300391225767,1.0015458504087567
566,1.1135092669580642,1.6603179046141843,0,0,0.20738758187844455,-0.9588773284970005,-0.8090237462731988,0.5926774819431758,2.899054153109477,1.549084211523945
567,1.1998345566175979,1.754067240257726,0,0,0.4973380741226651,-1.5158368123276529,-1.059298459859317,0.20051061328970457,2.1184550543128933,1.241230846044015
568,1.263419927695399,1.8410111583358453,0,0,0.6543307348373176,-1.8567323758758298,-0.9973347914494202,0.2379686201135977,0.31193170126496067,0.480418466496395
569,1.3011479947939817,1.9165305625428548,0,0,0.7026721957839612,-1.3843473603763308,-0.5057680507618725,0.6324704090726946,0.5664823453437504,0.3124051178624635
570,1.3129953613491507,1.9776124749546755,0,0,0.38611447845555896,-0.6945369862418252,-0.36025991669159546,0.5409836363247021,1.659715194023978,0.7717312464482252
571,1.3015161547179566,2.022652206086683,0,0,0.015584926743738278,-0.20003481893988542,-0.4287020503540809,0.7535274113735162,2.3374049115662414,1.1475176931727016
572,1.2710022824271203,2.0511952038208037,0,0,-0.0982464921360388,-0.33465158735283584,-0.2980525814602713,1.2427636493728598,1.8334004574158889,1.3810516823810388
573,1.226629591760919,2.0636141421193535,0,0,0.06522896848696895,-1.228090235071968,-0.21261600964882618,1.391658804268654,1.2862266795966504,1.4579030832974353
574,1.1738143933073375,2.0606610055439427,0,0,0.10839426096770466,-1.7708832976218345,-0.013212080131327282,0.87120970871565,0.18648715201554877,1.5041971346423535
575,1.1178213318088577,2.042911946051986,0,0,-0.1332696816472439,-1.6281174097319753,0.266815390200635,0.5293410873297169,-0.6938375910789627,1.402776767389992
576,1.0635068825606797,2.010249371914252,0,0,-0.11865349378310593,-1.3432060570113449,0.13787739915993796,0.8137701973954962,-0.15610771088414957,1.1097365089817897
577,1.01504863487222,1.9615930148582608,0,0,-0.028760012381804374,-0.9143380206206033,0.06725490885784607,1.4559645968006418,0.8126637709618139,0.8140250550689843
578,0.9755991285276084,1.8950518539113281,0,0,-0.054874181266979245,-0.5945848026170887,0.015287957938049275,1.3909117957309722,0.9855489018713386,0.725503028187137
579,0.9469338986601593,1.8085476341406705,0,0,-0.07069565624032413,-0.48066656600979357,0.073173310740046,1.1421184778523372,0.8117339818792063,0.7227259993512346
580,0.9292452178273997,1.700820021816693,0,0,-0.0858605573771388,-0.5616124699631686,0.21993997701735335,1.0327142212151186,1.0738659550207967,0.7608094586958248
581,0.9212204175425214,1.5726107118178672,0,0,0.010644245290050796,-0.7230294942340925,0.46055264869319523,1.0480078084112154,1.4293561570093498,0.7796895733644854
582,0.9204495491039092,1.4277533871151173,0,0,0.20933602694155484,-0.9436501218809293,0.5491330360253079,1.0979271475459567,1.4676929071904405,0.770616617335892
583,0.9240829729560633,1.2738728219081672,0,0,0.3147097475149622,-1.162000783160996,0.2692457656887885,1.1864633128994335,0.9355203755381056,0.7377690936835894
584,0.9295641409540465,1.1224349098277842,0,0,0.290151662354406,-1.2690673923025224,-0.16945721846823403,0.9660286955223901,0.452930159522389,0.8364076139104427
585,0.9352355127087497,0.9879980536470356,0,0,0.21736695498567304,-1.1517215359349608,-0.18834020917593788,0.8616647160298441,0.3258023983646609,0.9584858572757228
586,0.9406626674016134,0.8866727152387259,0,0,0.07716363264125521,-0.9033237283272311,-0.08123869710989064,0.5366024552710191,0.25930770505299927,0.860446405333057
587,0.9466192828416429,0.8339597486812312,0,0,0.09293540362711665,-0.7656182802311523,-0.04897187917585666,0.0733899850959816,0.07278856548797785,0.7030163571751878
588,0.9547814820850578,0.8422786094569911,0,0,0.1329259639935909,-0.7514455639968118,-0.026557816021889193,-0.26130348639533324,0.018199365614036674,0.5509192609913243
589,0.9672519580620517,0.9185955386060992,0,0,0.17470720515153262,-0.8338500401669141,-0.0559108416594562,-0.36666092235341907,-0.1795411479804614,0.30897596205213057
590,0.9860507041818635,1.0626024306391946,0,0,0.2061730856586895,-0.94865952060299,-0.05035805414591448,-0.1932383791876189,0.09592003347676648,0.0016494467268497895
591,1.0126786598766906,1.2658622040953484,0,0,0.2430600096335748,-1.0183298613128293,0.047539401787149556,-0.2508760957836066,0.2537089029087607,-0.12425552062488095
592,1.0478114022481355,1.512214008100265,0,0,0.19987866267749596,-1.0140484981525717,0.07360550962857934,-0.8478506030233185,0.06763741638398414,-0.4631446746365455
593,1.0911388929210237,1.7795209591500185,0,0,0.18005230279127715,-1.0117608749300788,0.10105738642296731,-1.2979174613540385,-0.11674763831856744,-0.9191270106064992
594,1.1413445856882527,2.0425704365418507,0,0,0.20894793253619798,-1.0916433228174491,0.06744268301750822,-1.981721504823133,-0.4540565199356945,-1.1933773836012767
595,1.1962072212294348,2.276664162340238,0,0,0.26390234662754114,-1.1762311537994192,0.021034471882081386,-2.3991935889022877,-0.46908465752853085,-1.2794397657668557
596,1.252801016279746,2.4612399566842775,0,0,0.3429583845784259,-1.1644918314307944,-0.005143677703677654,-3.395294081275154,-0.7726128845736262,-1.3294557470635548
597,1.3077603384319778,2.582809710097588,0,0,0.33254374563234657,-1.3702841399426486,-0.08771228740053004,-3.4870109996963197,-1.6536730059404188,-1.1965659106661513
598,1.3575663928400103,2.6366090347113293,0,0,0.16108922680654225,-1.4652154344823276,-0.040505553901925624,-2.8973703227359056,-1.2603006415874936,-0.7535161862824538
599,1.3988118459666954,2.626630060770008,0,0,0.01654612097149382,-1.3778161257678165,-0.026309023060719645,-2.1432843693348547,0.6816514836139395,-0.9169681269139032
600,1.428409113782974,2.564092675365939,0,0,0.0701381844810213,-1.4699046690125037,-0.09844162740371518,-1.414266947688304,0.4035032670227025,-1.1229080713232404
601,1.4437284049786472,2.464779781801826,0,0,0.1882923518670232,-1.5379673988324107,-0.019952472882886887,-1.089180599117877,0.1133289713672714,-1.4938613863472405
602,1.4426760620618508,2.3458861271037184,0,0,0.2137780627028247,-1.3438008290589354,-0.06839372722312023,-1.0955800419361197,-0.2567008853243382,-1.6161781517754392
603,1.4237455401563308,2.2230499529312695,0,0,0.19898421945060127,-1.1595295796655969,-0.12364050277517716,-0.7188618545327324,0.021896579902393756,-1.6120670101813126
604,1.386086922472816,2.108096461412052,0,0,0.06188632887602402,-1.1884727564989166,0.03310323579359765,-0.4803014912700885,-0.18347484092512562,-1.5266840896511176
605,1.3296367700886433,2.007811133278268,0,0,-0.21671860929607276,-1.262451354016916,0.307049207606987,-0.5834341528120642,-0.5243637253772558,-1.418402705898479
606,1.2553195927127903,1.9238425887047579,0,0,-0.30532957150383605,-1.309276013524505,0.14058524096533065,-0.36953359831945654,-1.15706635594532,-1.1514283672017394
607,1.1652824920608051,1.8536301693603583,0,0,-0.2788461526695554,-1.334810689292862,0.01603064929645489,-0.2313786067448623,-1.8454585314565128,-0.9605223312805427
608,1.0630810639198904,1.7920710838033374,0,0,0.0031366330843053437,-1.2096935620259386,0.031298008837972485,-0.10729054354903243,-2.147963171380066,-0.8198708715797894
609,0.9537226129241497,1.733512045605846,0,0,0.09766301659723575,-1.054497623167237,0.006496860352943245,0.12180141310761142,-2.1250897340507295,-0.6966225414066096
610,0.8434984012139158,1.6736066567751504,0,0,-0.031116087699669275,-0.8376798608553967,-0.017290958830869722,0.3844407884563332,-2.0441669244694864,-0.6135911168920226
611,0.7395861757755469,1.6106403911184404,0,0,-0.0036540111423155057,-0.704350347938686,0.010547028800682564,0.6523045455279355,-1.8451366585504225,-0.44899773573749385
612,0.6494555835206833,1.5460725537651403,0,0,0.1601627836049324,-0.6339352832626988,0.08314463548785851,0.9141840533514825,-1.5429072892301623,-0.17486766239502094
613,0.5801454406569782,1.4842359852944342,0,0,0.19690476767038037,-0.5418311204551266,0.0991751203784038,1.2168893349553118,-0.7986156391261208,-0.017349907659384736
614,0.5374987919907569,1.431324289211192,0,0,0.12337429146666627,-0.49931786179358123,0.13010685611941614,1.0901404809180135,0.15350452998798608,-0.15400513582682304
615,0.5254455192654688,1.3939443925364703,0,0,0.0360209058093132,-0.48442135046191925,0.14164789228844749,0.18200552846886148,0.6626127288256558,-0.46475717021644125
616,0.545421219334332,1.3775883991714568,0,0,-0.007683972021254547,-0.46632046034898655,0.10400599058528576,-0.9567160021177789,0.30292631899109207,-0.8255316281968659
617,0.5960081854321403,1.3853674190987757,0,0,-0.02934477196833059,-0.4634794495342262,0.026352740363240524,-0.5808803648642072,-0.8652457708309805,-0.8907525618564911
618,0.6728764897346284,1.417266759640907,0,0,-0.04572628536439769,-0.4607653425681962,-0.054539701919649936,-0.4166162160246592,-0.7661981861325184,-0.41590886890601453
619,0.7690839497346962,1.4700674301967698,0,0,-0.010368513973138253,-0.45947925210928686,-0.1605136003748018,0.35713787299168687,-0.06180780261772996,0.020642931975067606
620,0.875755909383197,1.5379585616506857,0,0,0.04629206899838235,-0.5336118214237845,-0.3283419721061727,0.8543310728932954,0.7092767718720543,0.4416856084811705
621,0.9831042310046425,1.6137219598837667,0,0,0.07320387249684533,-0.6676714481914561,-0.5775349966561631,1.3930375165095228,1.942337392798408,1.063265162928794
622,1.0816622383936982,1.6901926200540038,0,0,0.21925360970583888,-0.983410824178249,-0.832559715931402,0.6949242057017574,3.0444774087719186,1.5900138449561374
623,1.1635256471483575,1.7615589478959284,0,0,0.5859375015932998,-1.7050780847689933,-0.9814452947744683,0.2453032176152119,2.544340321413301,1.249544717187905
624,1.2233347162240082,1.8240939694149239,0,0,0.7110413458662279,-1.763238394354842,-0.7013052698312046,0.2525392665841511,0.4748436299775445,0.5310762009092599
625,1.2587568949710917,1.876152143650091,0,0,0.6872519064612856,-1.1346335029790537,-0.3878153202323752,0.7029935208529474,-0.556694118992162,0.22401544111848679
626,1.270358614783402,1.9175937244432704,0,0,0.3627888163482183,-0.5717450401143227,-0.51071864127113,0.545522988824122,0.9286860509949609,0.5893015193165765
627,1.2609551750906491,1.9489915195252439,0,0,0.09882751237716829,-0.21179450825593202,-0.5104092367924703,0.6213421531933567,1.930498338732252,1.0740816006798612
628,1.2347030079161307,1.9709311704706343,0,0,-0.04269168113187076,-0.20398398456601968,-0.38909933903914207,1.0838816904961541,1.8094588158133962,1.3649263919154038
629,1.196251958507622,1.9835319132104858,0,0,0.05572547220992598,-0.9662385562971079,-0.2210247434526755,1.3436039561214301,1.1186277459755942,1.2818938621929383
630,1.1501782945239376,1.9861654465174325,0,0,0.17987663637737827,-1.7021703617008412,-0.11578831189650067,1.0818991373322746,0.23693612666134367,1.4697528105347486
631,1.1007318374494919,1.9773252130123815,0,0,-0.07732227603883307,-1.686037861909917,0.3428093991110541,0.643983636378204,-0.7869153652243636,1.428576404166665
632,1.0517640402188677,1.954656925492976,0,0,-0.1024735834020721,-1.3684903630100604,0.22919525870234442,0.8657152388100691,-0.4066274854659658,1.2950861338754216
633,1.0066517356815425,1.9152123414636082,0,0,-0.0648165404088606,-1.0192325339278177,0.09831595208611256,1.5075163521424368,0.5377509028761472,0.9212623835257298
634,0.9681085748805949,1.8559788365483765,0,0,-0.10227428964080507,-0.6208764085464243,-0.026014152216234973,1.5282703988986763,0.6393384829295127,0.8084841767180617
635,0.9379143825249604,1.7746749548315832,0,0,-0.12705957953489344,-0.4635133076370246,-0.00016233982369785255,1.2982063252403837,0.2956870372235579,0.7275909770432696
636,0.9166971619218971,1.670723000253177,0,0,-0.13891853367644175,-0.54077901385891,0.14621604400065655,1.1929304113312196,0.5813213892393224,0.7536233718403336
637,0.9039156791522623,1.5462394297756976,0,0,-0.024159123429906892,-0.7147763312223632,0.36685704998044577,1.1865407076923076,1.2251662388611428,0.7557724279360636
638,0.8981146489347596,1.4068283537830362,0,0,0.17560574641461243,-0.9180390666076467,0.5384919618688367,1.1758212778662447,1.449263177388531,0.7014196936305751
639,0.8974068905336064,1.2619326578248218,0,0,0.2931619807798486,-1.1503977971567478,0.3916259577255019,1.2069769492174245,1.082280566094689,0.7537151864850069
640,0.9000391053116338,1.1245201937196945,0,0,0.2576804034403435,-1.2263874782310498,-0.09715050419206474,1.053913875007453,0.6548853663187137,0.7846171696311768
641,0.904865436286974,1.009983306146833,0,0,0.11944490017014164,-1.0279523270355893,-0.15548528455225985,0.8557783834333542,0.4107580934573617,0.8799497100240088
642,0.9115955961577848,0.9342951677644848,0,0,0.06153976096810394,-0.8090177396122793,-0.06882215758773255,0.4796798921252976,0.03521848942208574,0.8401265965781126
643,0.9207752352433539,0.9116495175540004,0,0,0.11421734067574785,-0.7431539576256135,-0.07419345506508225,0.049103050289622766,-0.10404666090207652,0.6617369115331401
644,0.9335481261409121,0.9519627686225087,0,0,0.14413263548777952,-0.7965461262698894,-0.09031210191714414,-0.18319927319106147,0.0008613517045639782,0.5269516691224618
645,0.9513024284384701,1.0587054939885556,0,0,0.1818854144030511,-0.8842297146192356,-0.10454114753077956,-0.3081749167285385,0.058943385807468635,0.18727467867016867
646,0.9753053677306369,1.2275333750547923,0,0,0.20439046721309115,-0.9439529005815345,-0.09779749366844191,-0.22325350651041734,0.19147779924879915,-0.05371545236278199
647,1.0063995458044086,1.4460942843749665,0,0,0.20143516991832744,-0.977275821027004,-0.027457055067407532,-0.643273152687513,0.25961417195511194,-0.29354065514076083
648,1.0447965487560869,1.6951986100459868,0,0,0.1668618432971803,-1.012402548749466,0.030995326990984676,-1.170601283738416,0.2355764026794001,-0.760262673524291
649,1.0899762491511735,1.9512762134604182,0,0,0.14397156815001866,-1.0607708898718324,0.09713907345675374,-1.576357777467077,-0.09135510195449255,-1.1554279817019744
650,1.1406851918045189,2.189757638906165,0,0,0.15387802279087798,-1.1083278444684967,0.12377104395343923,-2.158437825174354,-0.4093582138359343,-1.287663829691133
651,1.195019197914967,2.3887805750148976,0,0,0.19965198446626944,-1.1694649808834694,0.07080506114549455,-3.079145228306824,-0.5714677553573588,-1.3445767820817396
652,1.2505688728539295,2.5324991985213616,0,0,0.2988541784377981,-1.1733898777609308,-0.009088560164093897,-3.7794243785454573,-0.6195239795636199,-1.3160858436363665
653,1.3046003846243888,2.6133072927134076,0,0,0.2913834175747565,-1.3876694910402003,-0.12149786251307107,-3.2206061918131628,-1.6244738535475995,-0.9709762466039528
654,1.354238831772449,2.6324957196021974,0,0,0.16851958545527324,-1.458717740247693,-0.11417061668807825,-2.6468829328415397,-0.36923570791418237,-0.41525959703517296
655,1.3966217978214872,2.5992244724044964,0,0,0.05044079545391199,-1.3736341367812193,-0.09381524303908172,-1.8726146865197262,0.6358339670835726,-0.94353457321819
656,1.429001576784018,2.5280994638610332,0,0,0.12792675711593587,-1.5210477343023507,-0.09999055756702672,-1.0176943704446664,0.42560644708275186,-1.255168590269192
657,1.4487968598008234,2.435960204082529,0,0,0.17411374384139996,-1.4819653689213812,-0.014072160376958315,-0.9761252353367237,0.28990836371377743,-1.6917896306186428
658,1.4536221459958791,2.3386035585114935,0,0,0.18891103456582561,-1.2274124095392522,-0.13191656444775895,-0.57279208172439,0.446964080594491,-1.7367300028543318
659,1.4413463500206085,2.2480898908625213,0,0,0.15158745536762147,-1.117322461425002,-0.19660159975873634,-0.08028720927041454,0.29172483334867444,-1.7457942936949555
660,1.4102398157324911,2.171079353602319,0,0,-0.16983316223314737,-1.2476706409583704,0.2123205142329371,-0.11509722035350958,-0.12049710226843036,-1.684787563570996
661,1.3592486116060707,2.1084123003342463,0,0,-0.3884628911618166,-1.2725361648712408,0.3970361850713179,-0.1941394769172924,-0.4720123971818126,-1.407634294039841
662,1.2883839129660337,2.0559197119503563,0,0,-0.3332383866083307,-1.350433926085415,0.11768621082974803,-0.05070717343515969,-1.5030275456051,-1.1234081682893091
663,1.1991514116416406,2.006232528089021,0,0,-0.104240176391173,-1.3678805395877707,0.029895414714473472,-0.07542365139869257,-2.458467516835013,-0.916975222517331
664,1.0949018039318086,1.951164449425731,0,0,0.09294808635082577,-1.2635878929395417,-0.04700589105687293,-0.0209004915091003,-2.7486162062362585,-0.7853085981571024
665,0.9809783162656125,1.8841172228788996,0,0,0.1356286664789673,-1.1395075971477657,-0.06705904662855838,0.12620502675693174,-2.6299229433206963,-0.6069616439776825
666,0.8645701683191117,1.80196208202174,0,0,0.03037574293740956,-0.9120431007438695,-0.08493882160083152,0.2880286835331688,-2.188468869010134,-0.40018255392948904
667,0.7542377463922098,1.7060072592146187,0,0,0.04827399746198027,-0.7767535607267937,0.040880887083202234,0.5634243651738083,-1.558617620158177,-0.18738199275703568
668,0.6591384504184485,1.6019167659239442,0,0,0.13490175911857558,-0.6776881643402617,0.07872567119431179,0.9855313919016071,-1.1665815367726573,-0.007835711592084191
669,0.5880367085138959,1.4987022871408944,0,0,0.13175052291507366,-0.549193153569571,0.06192726541097917,1.183929670461771,-0.8472888739091576,0.02959458901327563
670,0.5482196020583777,1.4070882315151803,0,0,0.06667726997101288,-0.4836660476315346,0.17997489197424038,0.3309951741423487,-0.5518387660619144,-0.3228262740090772
671,0.5444608346876864,1.337623651372157,0,0,-0.03723564128580883,-0.41917602443161694,0.2558375378918941,-1.0368248511075897,0.5323651908227984,-0.7732486192721642
672,0.5781835830613229,1.298899593801057,0,0,-0.0702642120620156,-0.3860833914431689,0.13788846523855933,-0.6707310653670191,0.629504143188773,-0.9862241341754477
673,0.6469680857274139,1.2961591583477419,0,0,-0.07779506872607747,-0.3531757610392284,0.01131929109087777,-0.6519069681243769,-0.43740123461082475,-0.43297769621112414
674,0.744528956995368,1.3304972102937453,0,0,-0.06790852035878268,-0.33831797659802304,-0.1364941939476514,-0.011725892842907983,-0.6334577282911746,-0.10127829342957462
675,0.861241902440113,1.3987578526382587,0,0,-0.030585265761883484,-0.39551488293650006,-0.332106342108093,0.43982229406593715,0.3357395901538574,0.3942537863736323
676,0.9852213785443797,1.4941332303118482,0,0,0.05042098338312861,-0.5515581676062797,-0.5373011414420137,0.7959167215094444,1.617672440425511,0.9946952382175791
677,1.103840472108838,1.6073234119783502,0,0,0.2000783931012437,-0.911956895794699,-0.7749990927163969,0.04834689561994868,2.4404855358235653,1.3759659826942179
678,1.2054603460767987,1.7279702365604035,0,0,0.5393058426588754,-1.5495144705144002,-1.1198158020612443,-0.18742908376197395,2.1300010597811134,0.8209335359780453
679,1.2810385205817607,1.8460243873377742,0,0,0.7150100268379113,-1.8638020974748002,-1.1651914868705104,0.314863266342998,1.251529442387992,0.3540865500060818
680,1.3252670624495217,1.9528005865181597,0,0,0.793427208140521,-1.5039532698187013,-0.6226462773416679,0.6846111797202853,0.6898420209790505,0.4530633674125927
681,1.3369951397964273,2.041650448176521,0,0,0.4240203977031021,-0.8727629003998136,-0.31389274992351734,0.8405013954772858,1.86678051420854,0.7780341619171592
682,1.3189003778023534,2.108295503932481,0,0,0.07611092030421325,-0.41405006748047013,-0.44389323556586213,0.9074283246888126,2.3460876981327656,1.206747822614132
683,1.2765992965128445,2.150852351752492,0,0,-0.13547706387904096,-0.2548978165950339,-0.4630106798301918,1.4042336242033173,1.6756702695038181,1.4439088521379664
684,1.2175111384958672,2.169524592659143,0,0,-0.02109288691609111,-1.091853284267523,-0.3203185535660409,1.5118164707910604,1.298908256592251,1.5840542070993868
685,1.1497545743894666,2.1659477691710394,0,0,0.29367208094772207,-1.7595005348991852,-0.21685939142508015,1.0503206217360568,0.1666030760430283,1.5377327721182845
686,1.0812127059151757,2.1422818936082844,0,0,-0.10287213270952847,-1.5307560175898376,0.15481329457125506,0.6046819726313665,-0.47899010004180226,1.4318507191679912
687,1.0187658849549546,2.100278790249422,0,0,-0.16655205034140871,-0.8651821441839501,0.11933319761889447,0.8085672987147609,-0.32324584377771953,1.1752965986786434
688,0.9676558392518799,2.0406140044011347,0,0,-0.13069860712928114,-0.6443968827743413,0.04635287063500012,1.4501901166232882,0.7396622987342539,0.81052283937512
689,0.931003812491136,1.962721207574919,0,0,-0.1341449483095067,-0.5529587380451498,0.1200480097208591,1.510622441722655,0.7916248408429971,0.7040282652168602
690,0.9095768494631089,1.8652253332242907,0,0,-0.11869848010646666,-0.576107185766862,0.18376389636679472,1.2807873811547719,0.701928848576588,0.7606047547113088
691,0.9019032626326148,1.7469028067984016,0,0,-0.11267412129640765,-0.7009358144895487,0.2841427483461877,1.3427492072368423,0.8560186068959343,0.8842831517763177
692,0.9047687547069034,1.6079578252616202,0,0,0.005227071335705537,-0.8681160767182646,0.4368716597192131,1.3490776449684314,0.9546476476539039,0.9371339553926594
693,0.9140184920101598,1.451315304194245,0,0,0.2512309813105574,-1.0096727745888523,0.4387482177703438,1.279782171230954,0.9666066153167612,0.88759445996392
694,0.925497353560722,1.283599794758047,0,0,0.369721505540601,-1.183165285218062,0.17229285832459246,1.3424518448605576,0.867571643139445,0.6884148370358577
695,0.9359156794565009,1.1155020004296166,0,0,0.37786179777812007,-1.2927595807393495,-0.14190916315716243,1.1622981369805916,0.8002637427997693,0.7287174252018295
696,0.943446120473677,0.9613320487581406,0,0,0.25376497122366753,-1.1031428123170257,-0.19383903492219864,0.8108047983346359,0.5996267622997417,0.8278068415543228
697,0.9479339921176373,0.8377075235683255,0,0,0.10279720491077934,-0.8459796016558516,-0.07706817525376686,0.3204171959389742,0.11056969455565782,0.8080455205328827
698,0.9507149718520654,0.7614965608518554,0,0,0.06982334153378128,-0.7082453721994064,-0.04442919587522236,-0.05859780671080826,-0.12577838226248914,0.7150521086954839
699,0.9541404333454993,0.7472971405275514,0,0,0.07233754957262119,-0.6982842366384996,0.010748261724963756,-0.30024548550535096,-0.17909204447283145,0.5595508724573808
700,0.9609715804868534,0.8048509890502148,0,0,0.11860495733684927,-0.8064880786087644,-0.020527451563657324,-0.3056803257317095,-0.14893750399390673,0.39050958426828636
701,0.973800081476947,0.9368463368680432,0,0,0.19191341350459823,-0.9447343842871528,-0.10325374108583639,-0.10395433189486958,-0.06957910371604699,0.12706208109363973
702,0.9945994111250033,1.1375529951692018,0,0,0.25732955232027643,-1.0666912895118486,-0.09026089731883784,0.04032936679660755,0.2996194032305564,0.005195493406829742
703,1.0244430328323337,1.392648382420848,0,0,0.23820842727961947,-1.0683351431893486,-0.04558110635975609,-0.5795561582660286,0.28375412246305415,-0.239791080463064
704,1.06337607943966,1.6804227706773653,0,0,0.1662759756055392,-1.0148430225820753,0.060548293026239514,-1.0046753231501877,0.26696449375122877,-0.7666458665741154
705,1.1104098616159697,1.9743040290695482,0,0,0.1783824471367443,-1.0219420307852642,0.11335920728012422,-1.5609323042820176,-0.023637967644295526,-1.2413416466839284
706,1.1636143716505847,2.246362167632577,0,0,0.21188859382901593,-1.0749432222412476,0.07472931776549914,-2.0084347288238913,-0.27852757172049664,-1.3795922584399773
707,1.2202928850375452,2.4712116702775018,0,0,0.2791744996385415,-1.1393465937240412,-0.0019449662214595812,-3.0947528357845484,-0.6538134348171403,-1.56288582803775
708,1.2772203867381302,2.629590040574587,0,0,0.30234049299042987,-1.3889727193444985,-0.008886461118317803,-3.721794052782659,-0.7092088472173395,-1.48973968629174
709,1.3309145587185265,2.710902505445277,0,0,0.13964758765081683,-1.4511170832382392,-0.0009126462804125878,-3.3216786276426147,-2.08809294678897,-1.2886940301555747
710,1.3778971764099694,2.7142143276200534,0,0,-0.023043448589764835,-1.3357123471034213,-0.049323749892129565,-2.695384041810164,-0.44575623335520176,-0.7165453892831398
711,1.4149077442331737,2.6475280894191577,0,0,0.04796639283017172,-1.4110805763036283,-0.13137340726984215,-1.7297275177093479,0.04065864167716884,-1.025012417546377
712,1.4390507673697412,2.525607882804041,0,0,0.1948709482127227,-1.5471787111455506,-0.07173061559120944,-0.663160790927098,-0.2743571573652934,-1.3990589561806672
713,1.4478823795682814,2.366947938532048,0,0,0.24270217176879696,-1.4853589541740964,-0.024002151271558015,-0.5309652479150222,-0.3109251484782609,-1.6159319677272743
714,1.4394624849410593,2.190603332051643,0,0,0.24307669006852944,-1.190634818798517,-0.09309265562259966,-0.6765781015751116,-0.561977698397323,-1.720165529730263
715,1.4124142868050193,2.0134958576192745,0,0,0.23427338015753255,-1.0846902221118468,-0.18845054384292195,-0.3856778040651926,-0.2538360336244747,-1.7073302899174831
716,1.3660389963174004,1.8485773975809774,0,0,-0.010066580451918517,-1.2805216342450259,0.05133263784205757,-0.36193767,-0.3213151,-1.5833627
717,1.3005156181781103,1.7039933318189207,0,0,-0.3431705957119335,-1.3020025728031333,0.47804093483889915,-0.23840681167031527,-0.4208892475084752,-1.3026413936416144
718,1.2171698649780198,1.5832005502437128,0,0,-0.33815303504823924,-1.2537157529705272,0.16963638072550627,-0.04804941058986537,-1.0651900651860653,-1.054932343388757
719,1.1187434116891968,1.4858584586929944,0,0,-0.1893373419507357,-1.208880968313399,0.1622832376840001,0.07450782520362131,-1.6340112108265896,-0.8497481059314667
720,1.0095653509260818,1.4092110394425152,0,0,-0.0066178006517095675,-1.147294146801835,0.025227021829911468,0.17045095012363765,-1.66949835425723,-0.6047262699102559
721,0.8955349800488732,1.3496189898379836,0,0,0.07795380779454139,-1.011535076204361,-0.04666777226210518,0.3366421942567096,-1.6318825831437795,-0.4040337666328114
722,0.7838602971744956,1.3039056505694187,0,0,-0.05497544348310299,-0.811055848260369,-0.0538813847743579,0.5710337646562197,-1.492543090470442,-0.1962572274909474
723,0.6825443473823345,1.2702569141233524,0,0,-0.010034693549588023,-0.6893283204651268,0.008803904946408944,0.76814840891282,-1.2627629359451653,0.016846957597444957
724,0.5996594488782392,1.2485416548885113,0,0,0.11721521964866556,-0.592199442429477,0.013473691870654579,1.132815366295733,-0.8629015354729322,0.20370874967409694
725,0.5424882376291935,1.2400595233441414,0,0,0.1258111779835357,-0.5233321489221104,0.03650888852585489,1.1342236910421257,-0.44275016224046354,0.069231429394902
726,0.5166354096643286,1.2468476254788827,0,0,0.035700668218619926,-0.4789040875879105,0.12152589661695118,-0.13465065918232522,-0.05363278518507673,-0.39722360360989895
727,0.5252257961373905,1.2707637317685045,0,0,-0.01661448590669103,-0.4391103909475872,0.12576073190666076,-1.0851897090208074,0.3857298597982214,-1.17494720937684
728,0.5683065185164954,1.3125910651798864,0,0,-0.05370176734188582,-0.43091050925794067,0.07270834711545197,-0.6768456895441898,0.2680239267212999,-1.1484785679528025
729,0.6425643754952354,1.3713786342355296,0,0,-0.07296241168267312,-0.41420503737017067,0.009668008270838788,-0.8102821395278741,-0.5616872706761319,-0.45873760115820883
