id,ASVM,GSVM,walking_nonwalking,normal_abnormal,ax,ay,az,gx,gy,gz
1,1.0109201047485357,0.050794450194134415,0,0,-0.21777344964896272,0.982421927977444,-0.09765625366460515,-0.043982297,0.022907447,0.02443461
2,1.0119961031390134,0.05988135904754277,0,0,-0.21738389036446792,0.9834932180436744,-0.09288414887027187,-0.05438767992586624,0.05010202531829171,0.0244456853182917
3,1.0130398561447251,0.07044388363354982,0,0,-0.21699433107997315,0.9845645081099049,-0.08811204407593858,-0.06903001755012904,0.03082625901389716,0.03632628763748263
4,1.0139928110662633,0.08302806568564675,0,0,-0.21660477179547835,0.9856357981761353,-0.0833399392816053,-0.06985877162536318,0.015711900647068875,0.04072851172449154
5,1.0147913734153373,0.0978993670402882,0,0,-0.21621521251098355,0.9867070882423657,-0.078567834487272,-0.08119638870694745,0.02229982708974611,0.04612844219779571
6,1.0153684747876326,0.11495429071915568,0,0,-0.21582565322648878,0.9877783783085963,-0.07379572969293872,-0.09315670417907444,-0.013746618934004026,0.04611940517162978
7,1.0156576061589837,0.13366182173361324,0,0,-0.21543609394199398,0.9888496683748267,-0.06902362489860543,-0.10754648945202729,-0.051341187866318735,0.040584529513649145
8,1.0155992144880106,0.1530499759287391,0,0,-0.21504653465749918,0.9899209584410571,-0.06425152010427214,-0.11275295563628089,-0.05215573723145761,0.03644464781920219
9,1.0151487423063308,0.17175157838529112,0,0,-0.2146569753730044,0.9909922485072876,-0.05947941530993886,-0.11821395291174121,-0.013391646593730048,0.028416760911741213
10,1.0142850116498152,0.1881194377533319,0,0,-0.2142674160885096,0.992063538573518,-0.05470731051560558,-0.10937750136867093,0.056157195224287935,0.0390785216273734
11,1.0130172516072746,0.2004133972140761,0,0,-0.2138778568040148,0.9931348286397484,-0.04993520572127229,-0.1203338274924714,0.02844165780405539,0.08335440846376231
12,1.0113889958158324,0.20704907419619528,0,0,-0.2116840769144636,0.9897470651838259,-0.06128981864678327,-0.14550099910653608,0.09088167846452129,0.10352395556666
13,1.009477454103041,0.20688088206366217,0,0,-0.20943956404434558,0.9862339173513746,-0.0730978996539657,-0.2043423878695652,0.14300090056521736,0.09803989006956522
14,1.007387783515516,0.1994742719180066,0,0,-0.20719505117422757,0.9827207695189231,-0.08490598066114814,-0.21358569152299425,0.2551425811885327,0.06952626900836152
15,1.00524274612145,0.1853117907954998,0,0,-0.20495053830410953,0.9792076216864716,-0.09671406166833059,-0.21931563241631996,0.2163024281342837,0.003085298967359689
16,1.00316923414562,0.16588272575138815,0,0,-0.20270602543399152,0.9756944738540201,-0.108522142675513,-0.15329805020523138,0.11665682841851105,-0.020463617268008046
17,1.0012838327460512,0.14362962226609793,0,0,-0.2004615125638735,0.9721813260215686,-0.12033022368269544,-0.0625446335056726,0.04665062708367098,-0.037923518138978936
18,0.9996799056669057,0.12175955667707228,0,0,-0.19821699969375547,0.9686681781891171,-0.1321383046898779,-0.020636824335065716,-0.02388574565056563,-0.043707212510547225
19,0.9984186564849813,0.10395860882495568,0,0,-0.19597248682363747,0.9651550303566657,-0.1439463856970603,-0.015905221644841268,0.025432720311507926,-0.038461784355158735
20,0.9975262685355863,0.09406143392358911,0,0,-0.19372797395351946,0.9616418825242142,-0.15575446670424276,-0.025664496955489606,0.046450230860534104,-0.015596096893175057
21,0.9969985521650023,0.09572177116929693,0,0,-0.19148346108340142,0.9581287346917627,-0.16756254771142517,-0.09018768729598414,0.027191660142570302,0.002445791610200809
22,0.9968134909855467,0.1121118777544383,0,0,-0.19084304003574554,0.9626074271862106,-0.1572677525433748,-0.15118915,0.008857546,0.018020526
23,0.9969506684276513,0.1456600336138356,0,0,-0.19025976558988408,0.9673708331305811,-0.14618553096643044,-0.19310097119815667,-0.03389879743317972,0.020150107857142857
24,0.9974148995483858,0.19782363556074758,0,0,-0.1896764911440226,0.9721342390749517,-0.1351033093894861,-0.2312500542195609,-0.04979624677764472,0.021072167563273448
25,0.9982598297849977,0.268894725329738,0,0,-0.18909321669816115,0.9768976450193223,-0.12402108781254176,-0.2708915670454545,-0.07327032500296433,0.04120895831422918
26,0.9996062440145113,0.3578440221889002,0,0,-0.18850994225229967,0.9816610509636928,-0.11293886623559742,-0.3246923566311772,-0.14203169206709523,0.06625679165327443
27,1.0016497037227705,0.46222363205230177,0,0,-0.1879266678064382,0.9864244569080634,-0.10185664465865306,-0.3579656883511692,-0.14202665423701943,0.07849527205509312
28,1.0046530174695483,0.5781608089697102,0,0,-0.18734339336057673,0.991187862852434,-0.0907744230817087,-0.4088310454154598,-0.16802468336789153,0.10190706756121365
29,1.008920880047403,0.7004789643694879,0,0,-0.18676011891471528,0.9959512687968045,-0.07969220150476436,-0.5753353825466085,-0.2576151517056724,0.14553179114637055
30,1.0147566030709163,0.8229729305726565,0,0,-0.18617684446885382,1.000714674741175,-0.06860997992782006,-0.678525517145677,-0.3245403012396368,0.2624728471180418
31,1.0224039245314893,0.9388432931897954,0,0,-0.18559357002299234,1.0054780806855457,-0.05752775835087571,-0.6530144699398316,-0.36897107360208564,0.4572579808423579
32,1.0319800445059872,1.0412655231875783,0,0,-0.17803089099506442,1.0146280429570527,-0.033376854949674885,-0.6120112356101968,-0.461528502256122,0.6932607322862304
33,1.0434088206678196,1.124041820574169,0,0,-0.16986089489904102,1.024159704053482,-0.008088772375658401,-0.5299243819341974,-0.4181443148454636,0.8815012062313061
34,1.0563649919719778,1.1822616338218044,0,0,-0.1616908988030176,1.0336913651499113,0.017199310198358086,-0.6001760145174133,-0.39255448163184026,1.029638657114428
35,1.0702409845175056,1.2128820386724048,0,0,-0.1535209027069942,1.0432230262463407,0.04248739277237457,-0.7141216142686091,-0.04465966247375617,1.0738296858910392
36,1.0841469985687389,1.2151335329404294,0,0,-0.14535090661097078,1.05275468734277,0.06777547534639106,-0.8729962464565363,0.4385913018409971,0.9193326565247936
37,1.0969524577979843,1.1906642157872587,0,0,-0.1371809105149474,1.0622863484391993,0.09306355792040741,-1.0574481875148163,0.7641336951896481,0.7965203255353618
38,1.1073723802805888,1.143360560445142,0,0,-0.129010914418924,1.0718180095356287,0.11835164049442388,-1.0241233537859011,0.6511363506143456,0.6513668663031794
39,1.1140958589283225,1.0788309741908588,0,0,-0.12084091832290059,1.081349670632058,0.1436397230684404,-0.8852869275353659,0.22944762197250446,0.5276101771309026
40,1.1159460126777903,1.003608849417773,0,0,-0.11267092222687718,1.0908813317284876,0.16892780564245685,-0.6621103622402486,0.21079452275112184,0.44579040036071793
41,1.1120523399618676,0.924209268914865,0,0,-0.10450092613085377,1.100412992824917,0.19421588821647334,-0.3919944524270397,0.14827676210689494,0.42499873559479684
42,1.1020087697920493,0.8462267133898322,0,0,-0.11194938342745701,1.1387134529391822,0.15521110824547257,-0.21412489267778198,0.149147943007232,0.4689213586500603
43,1.0859859946116006,0.7736615522541299,0,0,-0.17811612227421664,1.1630308207074544,0.09934568131818065,-0.07962539449887882,0.27481639009832654,0.5166841787476281
44,1.0647679547514513,0.708605498780521,0,0,-0.23005191900830194,1.1282826157946504,0.07228403926751621,-0.009430696394160606,0.44850773695863705,0.5289123193430658
45,1.0396929093704972,0.6513218904564818,0,0,-0.24344348976149588,1.0139526232049678,-0.020925914942558875,-0.02575461561742346,0.5969288753749743,0.47265550897472774
46,1.012500032967626,0.6006609398735256,0,0,-0.18025129684258026,0.9313631070969368,0.045054221148128216,-0.05626938842165814,0.6537014007616027,0.3420933817889723
47,0.9851075898664229,0.554684748871256,0,0,-0.09867941238834568,0.9193438873303257,0.08826927046858402,-0.05012909117490565,0.6368539232479651,0.23964987587452824
48,0.9593680441537057,0.511356588013302,0,0,-0.04039925514984895,0.8993972057571568,0.08888461420512458,-0.041320887650068465,0.5694360088119973,0.18627575849441283
49,0.9368502275063172,0.4691683212334861,0,0,0.0076874782796262685,0.8807729749613792,0.07597327519427502,0.02592769119468999,0.4403577981185077,0.16433979316660266
50,0.9186881104818135,0.42762078863066416,0,0,0.04711833003548744,0.8937983843074038,0.09423795878266834,0.06496702628402358,0.34617708224457605,0.1210096353609468
51,0.9055160134133968,0.38751416780472786,0,0,0.05047430369328216,0.9043526028106379,0.10560853383103488,0.0886085323248408,0.31400417439490447,0.08516900966242034
52,0.8974889838746366,0.3510339489102726,0,0,0.04103896341760823,0.8980609133697831,0.13724867724271764,0.09224450244880006,0.3528020467800004,0.067500606
53,0.8943702476656759,0.3216281988844364,0,0,0.016778274631426674,0.8796756338729629,0.21895874481365302,0.09348785696594519,0.47354616314212195,0.0543397773349478
54,0.8956580219091216,0.30367039651833677,0,0,-0.013550161088588034,0.8876309020540499,0.2751686776723905,0.10569574299462489,0.5662801263587498,0.0198137171860637
55,0.9007217563173734,0.3019062370018204,0,0,-0.03999815631914419,0.8779757416234764,0.28221632367005395,0.09897763022628013,0.47959688836045994,-0.028087433344581286
56,0.9089214067723895,0.3207097769661504,0,0,-0.023765423739394945,0.8719616714180829,0.30002030683865066,0.08354736384921321,0.2252971472782293,-0.021600154732145948
57,0.9196906057644061,0.3632276810204622,0,0,-0.0016861844101587072,0.8801568404758139,0.30343694537358423,0.07027220358799051,0.12590051774673033,-0.002671718293816834
58,0.9325736510172262,0.43055136093576135,0,0,0.0344990568837881,0.9026631251002305,0.32193703267990625,0.06269292699324315,0.26460552004786203,-0.013042970624648324
59,0.9472153780243383,0.5210938656180168,0,0,0.04832509184819093,0.915645756107517,0.3344578953616779,0.003514387652952014,0.32982296969588626,0.012789376351520018
60,0.9633114962615797,0.6303401632815961,0,0,0.05100558020537587,0.8990714764707944,0.33909152956306116,-0.0677930694014005,-0.12257735298170157,0.14394431621278495
61,0.9805351941557752,0.751086828993749,0,0,0.052158734052581084,0.8723940440146237,0.3412469924902284,0.24390175520664367,-0.47891444168354946,0.05859182954072165
62,0.9984632533317154,0.8742024301338583,0,0,0.06056588742227901,0.8466821857101047,0.36036296310632493,0.417846364011988,-0.6271398500899086,-0.022439746807392053
63,1.0165284626830493,0.9898351577722165,0,0,0.0825015578495487,0.8724099636330415,0.37892909497933974,0.5518184639917689,-0.7972599459184434,-0.1139991533617656
64,1.0340205469124548,1.0888853220001637,0,0,0.038052850480353013,0.9628875403023438,0.40135301452392125,0.7331314295055814,-0.9774360073365228,-0.27973463535885107
65,1.0501439169310298,1.1644712483966215,0,0,0.010477194397028993,0.9573870828927682,0.397016216716903,1.2378092812781842,-1.146428326720252,-0.5609198931778099
66,1.0641216568095653,1.2130746174123774,0,0,0.03903115093716288,0.9736157241196443,0.4365006306260314,1.4607395213562744,-1.3451336468623483,-0.7951348100202436
67,1.0753185379742765,1.2350812576769583,0,0,0.11070627316029234,1.0639303893598715,0.4483337581183483,1.124212669519367,-1.0544735035489756,-0.7864670406205637
68,1.0833468896940637,1.2345548634493928,0,0,0.09860568209766223,1.1745430696532964,0.26233943663000303,0.7088060445797801,-0.2719064650182695,-0.6186483892082824
69,1.0881205909007976,1.2182805325511221,0,0,-0.006259118182850268,1.1307066409702375,0.079854695322728,0.3733656911707222,-0.07907154974631458,-0.542665031093589
70,1.0898360266453544,1.1943239107428167,0,0,-0.17509964353534074,1.0545067657600595,-0.022093192749980166,0.41749502179306375,0.043309603896139214,-0.45700267785812215
71,1.0888829915033693,1.170475034798623,0,0,-0.3442431415792876,0.9844683711949431,-0.04944248941409279,0.7642621205072341,-0.26440146064196995,-0.4067117775331886
72,1.0857147029551262,1.152931261326942,0,0,-0.3948196325597182,0.8853658776475919,-0.17078498508163986,0.8374391900591014,-0.6663914992080368,-0.439512482807329
73,1.080722203157413,1.1454493782368478,0,0,-0.3708491708908229,0.864513763038013,-0.2721975176196702,0.8278001786158636,-0.4844077053265957,-0.3893072529937793
74,1.0741567237973648,1.1490406957810326,0,0,-0.28663747632246217,0.9303259197945619,-0.25889836259232346,0.8206063133174226,-0.6578887441527452,-0.42262253775656317
75,1.0661243948988717,1.1621592237113914,0,0,-0.09165831117479167,1.0673868826299242,-0.30847345500749446,0.9175184225232351,-0.9814894134130908,-0.37417217350405374
76,1.056648345413398,1.1812631420398443,0,0,0.1901806308190335,1.1412869283981624,-0.2601261076881233,0.8789328976797153,-1.0052407266192165,-0.43805950491814954
77,1.0457662120909816,1.201607424963817,0,0,0.1988442447243914,1.0905153425295677,-0.1987439033815019,0.9688178158125624,-0.38800923955333905,-0.32835469690927205
78,1.0336195469568747,1.2181403760979188,0,0,0.08257407956267687,1.034790327160943,-0.12920188376593866,1.0672821373074552,-0.2057053035304983,-0.3061659905853363
79,1.020501291197803,1.2264132203312925,0,0,0.01895258228394447,0.9720173341574555,-0.11161750717274259,0.9011649946689682,-0.3999953412225833,-0.41160445837530474
80,1.0068511343901316,1.2234424107774962,0,0,0.004330935378848279,0.9728474175732481,-0.1635957735073244,0.6814645889707349,-0.6156518287636864,-0.4175446420366316
81,0.9932113019098334,1.208464773684999,0,0,0.016889675257662298,0.9735879335670743,-0.20820614927879272,0.5811102497681327,-1.1041518842251323,-0.35751935532897305
82,0.9801665521741592,1.1834943109878437,0,0,0.002187345471839205,0.9632028380568569,-0.09777318596743675,0.516424328862682,-1.4767506761742972,-0.3384046980911452
83,0.9682919818226816,1.1535495790483326,0,0,-0.03081994405949729,0.9255685286706061,-0.07355117734437445,0.478649657905353,-1.4828924313421235,-0.35748103468580317
84,0.9581266155712046,1.126409343919368,0,0,-0.022937703703884125,0.8976023704264035,-0.14784237884909718,0.5169977842257936,-1.3247360120344966,-0.3828067153665233
85,0.9501834916035848,1.1118032867089536,0,0,-0.05130109127293734,0.9087555651829627,-0.12902266015663916,0.4479457154113242,-1.378589736575262,-0.38880036500493204
86,0.9449975111985336,1.120057772443937,0,0,-0.17012820380068527,0.9311596985883243,-0.020870822636420178,0.30593605452404327,-1.0239539328596694,-0.3198415280078514
87,0.9431998988377667,1.1603656379230876,0,0,-0.17166604024623972,0.9462922337010553,0.011362667609451376,0.2164199653115139,-0.6193461760843837,-0.25629777742705023
88,0.9455951549813499,1.2389871527705352,0,0,-0.13191882233469665,0.9798663838077435,0.024517780560033602,-0.024064986748813803,-0.6656497952242463,-0.20682860803765496
89,0.9532075812506525,1.357767527188811,0,0,-0.09381463396152054,1.010677532064276,-0.02273915863568981,-0.21514840715317057,-0.7558673579004879,-0.19967069657756098
90,0.9672636857675477,1.5133377327278021,0,0,-0.06823600516157698,1.0435297760850857,-0.09689267305507278,-0.5989415484867509,-0.5823255049735039,-0.06897993661530978
91,0.9890855872557747,1.6972432572824128,0,0,-0.05263003914674813,1.0601671080416983,-0.10362830091678644,-1.0800629552552579,-0.23744771987987884,0.30630030624624827
92,1.0198885567908729,1.8970454232248015,0,0,-0.04865932550910553,1.0395618208605155,-0.04794700910339153,-1.729332877115621,0.010236543851013268,0.748009612038145
93,1.0605007797713195,2.0982057238107004,0,0,-0.025830000190714214,1.0109428466795072,-0.08807796739106795,-2.4744346471590912,0.1577351221590915,1.4623958375000017
94,1.1110499201407766,2.2863519385295117,0,0,0.005806759107599883,0.9768837883839568,-0.13702009404945034,-2.5204700700622946,0.48374101582631446,1.84798856555515
95,1.170680414296513,2.44940667230493,0,0,0.06909003677362113,1.0700636186045238,0.04149703296820663,-2.6392434000000002,0.9266826000000017,1.8234327999999946
96,1.2373687179117074,2.5790942538351995,0,0,0.08204308653552447,1.1873490676192908,0.10533855680735063,-2.6117093927972848,0.5264966723304011,1.0331211547685506
97,1.3078876784795392,2.671532416436255,0,0,0.1227201386086068,1.2545110448981436,0.02268965270919522,-2.4643100777361453,-0.34000630786432534,0.4759646785348068
98,1.3779414084648545,2.7268885444229185,0,0,0.22628939403735007,1.346175546133395,0.0018375524077168318,-2.4779193118210885,-0.03293207681469946,0.4058301653674115
99,1.442459461960463,2.7483293123674826,0,0,0.30401502650554857,1.4658563624078746,0.08371830730405905,-1.4123969387726674,1.2972636813707936,1.1819482570033861
100,1.4960133253156984,2.740635930260049,0,0,0.34925330983852887,1.548473280940066,0.24573706865177233,-1.2247466533333327,-0.541959629999987,1.7608368483333297
101,1.5333046551042255,2.7088716934336072,0,0,0.2613371944839131,1.451764472534169,0.24179854254304006,-0.8268831627301834,-0.9308478547558036,2.253406857726181
102,1.5496749165824677,2.657399112381054,0,0,-0.08553768602168757,1.3299531267905547,0.20037048857165593,-0.5913858803168232,0.4721953954642019,2.2396278086424712
103,1.541594950718475,2.5893978993740965,0,0,-0.6303191594356968,1.4859037957763523,0.10650225921081213,-0.7179660332998383,1.412809483098886,2.017576762499999
104,1.5070984838653068,2.5068821198085165,0,0,-0.914980717399832,1.4476285597618288,-0.0853758765689207,-0.8068012724137947,2.0602952545674547,1.731049605989106
105,1.446119053361312,2.41109358533904,0,0,-0.7441094735980428,1.2131849917369262,-0.3155634325224705,-0.8807663462439027,2.1630097024390254,1.3245629960975582
106,1.3606851911759728,2.303082761183412,0,0,-0.35899387142937256,1.1490518884442424,-0.5558715593627009,-0.7710972382022421,2.146378020224718,0.9879784362921328
107,1.254938270030247,2.184287528484262,0,0,-0.02109582645643099,1.1677843724902217,0.0009796656299114078,-0.35853848483352946,2.0275983215814506,0.6903523354637323
108,1.1349585768794368,2.0569731827619426,0,0,0.1853700316320635,1.2381840542009546,0.2954038091959199,0.13857304009784285,1.90616841644726,0.3656999509019966
109,1.008402447262525,1.9244704237158947,0,0,0.10876514861746708,1.1005668787866731,-0.11209970216188794,0.5658841578817304,1.7459854723299035,0.1280005567543488
110,0.8839615075665351,1.7912036098690587,0,0,0.04945227635938993,0.9077961366031748,-0.2093237634906481,0.9397295875243644,1.603343314137996,0.00111307692159313
111,0.7706653503228038,1.662521459860945,0,0,0.00925585361435612,0.8058977710201084,-0.24108984568299702,1.4548372897425914,0.8108118533090859,-0.15318534959520655
112,0.6770713143544206,1.5443366225267474,0,0,-0.021320275035407253,0.6329017611834898,-0.14578344739374244,1.8491058277919548,-0.4650976859980552,-0.19476362931501495
113,0.6104155376591653,1.4425749688356546,0,0,-0.04748630255642493,0.496128766535251,-0.05002942671222376,1.7522215376590287,-0.9321733233705156,-0.2917228389724008
114,0.5758255850104761,1.3624568823156393,0,0,-0.12927750792415443,0.4324522027240856,-0.012514966350965114,1.1001870195820769,0.31129941426469276,-0.0942540763944216
115,0.5757054811736431,1.3076953221607928,0,0,-0.28180696679671885,0.3761409344698393,-0.02962175312867189,0.5332643978095039,0.6530985909896341,0.09344745088597695
116,0.6093932372181443,1.2797813483093308,0,0,-0.38800557698150484,0.3760858739890337,-0.02284874736564138,0.12193489300303065,0.681111511663627,0.13408493
117,0.6731606484464723,1.2775818683437221,0,0,-0.37225584917285126,0.4055948224419954,-0.03182483686871032,-0.20059209204339776,0.5367358991862611,0.1781307367269434
118,0.7605831291499674,1.2974381205663135,0,0,-0.35072074216628757,0.4155438019430018,0.0008402389458084063,0.009506971704307322,-0.8001732482059576,0.1119946652292396
119,0.8632605046463164,1.3338134375603037,0,0,-0.2795423577877829,0.5235763456178223,0.23331205514573727,1.2856021694372108,-1.4962854404366075,-0.5031316099719565
120,0.9718175085009454,1.3803425548488315,0,0,-0.08548482104614905,0.7405874944552393,0.6026511826074108,1.2904398781081603,-2.0100348894432227,-1.0036128342446564
121,1.077052236108211,1.4309744124751713,0,0,0.3407673822852748,1.292168723269238,0.753946069485384,0.5626322484084624,-1.5704794994615157,-0.3975064311707256
122,1.171041906847325,1.4808706457907475,0,0,0.6012830970378459,1.53199067306355,0.7202710460241795,0.487347120731118,-1.017863904994965,-0.46757472114400833
123,1.2479897674998113,1.526846820864678,0,0,0.4466172216288003,1.3922198225613944,0.6844445989819881,0.3935549396595306,-1.0049818625846645,-0.8261279733113632
124,1.3046414007007203,1.5673387566186658,0,0,0.18590107218462293,1.0514925634317314,0.6624693873377341,0.1517269858196056,0.20784304125352793,-1.2578966675371648
125,1.3402172881266436,1.602019623457374,0,0,0.010872622253600072,0.8771635644358031,0.409525214891254,0.29501913620019776,1.8123766085770396,-1.0268876886751703
126,1.3559534822923098,1.631234149098689,0,0,-0.20979376955121948,0.8289793398869978,-0.03198324974684855,1.2188388072789238,0.4033384976057912,-0.4075963633206349
127,1.354440130355621,1.6553950375112245,0,0,-0.5116924634428787,1.0249387574176807,0.03179715451620413,1.206153915462687,-0.9943982830049757,-0.07603625430686979
128,1.33895148831374,1.6744626619216394,0,0,-0.5762202546153161,1.6620901183303622,0.039856087144259034,1.2380714487571698,-0.9109933613766736,0.1626875413766736
129,1.3128855562433066,1.6876168768256674,0,0,-0.10393587283760707,1.7145502303153368,-0.35191779055568856,1.1828928892608084,-0.7796855830543961,-0.14445557503487125
130,1.2793432098720787,1.693208362011055,0,0,-0.2533492310343258,0.8042977521327781,-0.4615140895896609,1.0275555170431956,-1.1214925217964933,-0.3982251469998191
131,1.240841424959234,1.689030985098768,0,0,-0.4551575379578223,0.4130872917629324,-0.537936923621689,0.8595055373317503,-1.2577826243072054,-0.7039762221219306
132,1.199177637262108,1.6728925742957435,0,0,-0.30702189847512196,0.4443666257213992,-0.706428681171569,0.9014350089305149,-1.1238319095468257,-0.8017773942477344
133,1.1554833030311211,1.6433961126601004,0,0,0.08201913348087997,1.0915600057979493,-0.2695145365160476,0.9823252000000007,-0.9785560501680666,-0.7631939670588225
134,1.1104695030111962,1.6007915298462625,0,0,0.4629830366679053,1.5909127276960244,0.07084522559348129,1.107043715869565,-0.9787298427806324,-0.709439780974308
135,1.064787899896088,1.5477256480851624,0,0,0.34765317151742264,1.4259967571237468,-0.0948143738441613,1.1243759236618602,-1.0021557702350383,-0.8217422904997055
136,1.0193718028704022,1.489702887980813,0,0,0.0760821095876086,0.9980475254166826,-0.15043571879967296,1.0430251395264114,-1.2596271279295732,-0.8872078061323609
137,0.975636955554224,1.4350749594595025,0,0,-0.15561252938135273,0.7389042683043356,-0.06848687001532348,1.021645704920984,-1.479401461352272,-0.7642718954170815
138,0.9355005793022045,1.3944180101715835,0,0,-0.2283188277306763,0.7130495385311235,-0.061213003932658716,1.0248385159487592,-1.5965824262930348,-0.6403922869847873
139,0.901260320964752,1.379247803071285,0,0,-0.17298622830753474,0.8289725468160815,-0.08295055799892513,0.917609843453438,-1.4309166066000674,-0.40137395318408603
140,0.8754087061030957,1.400172103091439,0,0,-0.1078346113181419,0.9247485828435806,-0.07979621094671638,0.4951530241384091,-1.0703358663329934,-0.3066790520441327
141,0.8604392717800555,1.464762073962906,0,0,-0.06568276162173546,0.9341379910618407,-0.052429744480999144,0.16806696056124323,-0.6233356091703579,-0.31730709661153705
142,0.8586619240354654,1.5755855900692022,0,0,-0.03306930628958032,0.8559368752374429,-0.062312764576573934,-0.20733058703296323,-0.46609535526872997,-0.2521084127052967
143,0.872020204170267,1.7289109137209324,0,0,-0.016426365347075488,0.7968766277029489,-0.10848441472176822,-0.551557394117646,-0.5663709147058823,-0.008659913264706809
144,0.9019000271337335,1.91450369921399,0,0,0.043713834708691814,0.9048104324861774,-0.13789400467145874,-1.035939525975289,-0.3821375237071255,0.4540119657125956
145,0.9489265002633577,2.1167032434359476,0,0,0.15888353538341635,1.0929378019039122,-0.10326566383123394,-1.7020568009737107,0.21829368164011756,1.0652574594547233
146,1.0127514877258377,2.3166368825178982,0,0,0.17773322160020794,1.1383115180150893,0.021176270681859104,-2.5411985835496034,0.5223935213974837,1.6189344917348711
147,1.0918420092835945,2.4951158756541787,0,0,0.042022940982922835,1.0451613408479965,0.030843808514706486,-3.055244329003379,0.5341448908494126,1.9779124957628798
148,1.183297476841092,2.6355609669285225,0,0,-0.023187628441831316,0.9728656784540375,0.01074218820902143,-3.18749586365781,1.1927483175341982,1.8268688177071908
149,1.2827499129312623,2.7263098224851534,0,0,0.06241189054529698,1.1114113786043114,0.024832591065545154,-2.427324782442908,0.9691305700298088,0.8592140534856135
150,1.3844166641202558,2.761866314610308,0,0,0.14356571979256877,1.3053309089698395,0.12655350108304245,-2.533825656190284,-0.60995366377388,0.44266215991640145
151,1.4813612796320208,2.7429730291128998,0,0,0.20101983597769835,1.4152720639912635,0.17179734483631037,-2.5995352095447286,0.22842334287139962,0.287208755355431
152,1.565976608482245,2.675683400702776,0,0,0.2973114488364755,1.4750458413391032,0.1656065691119626,-2.1152172446236617,0.688412883904569,0.7631133492775495
153,1.6306536661325124,2.5697797242016565,0,0,0.3718858366107834,1.6071892961337506,0.26114327009879496,-1.4652966255458466,-1.1774344035132995,1.6606855363437911
154,1.6685586588156769,2.4369204676708085,0,0,0.2880293727961581,1.7413058647884565,0.4215613012347205,-0.8678004124173841,-0.5388400731323848,1.8479394278790304
155,1.674416672539564,2.2888547735593,0,0,-0.0740398883930829,1.68707784826291,0.3649180051111163,-0.4953008075577964,0.5595984131941047,1.8041967625607134
156,1.6451959488938315,2.135960491129743,0,0,-0.6180671796565755,1.5522032000101753,0.01895614636639467,-0.3291385432739059,0.9840628103727724,1.7507031679092382
157,1.5806007675926286,1.9862656804872065,0,0,-1.020923121325331,1.4120350363894902,-0.20252012955442644,-0.4007681129757794,1.4630028245674735,1.4756144677047238
158,1.483308500245965,1.8450136686109186,0,0,-0.8232531435434212,1.1666645751413176,-0.5304075259164723,-0.4491591451304339,1.4008022152173911,1.130399847763972
159,1.3589197082548763,1.7147470691262188,0,0,-0.20230706232918597,1.1111806431297166,-0.35335652934830636,-0.28183858256050187,1.2872200354787768,0.7860744986338083
160,1.2156229164221504,1.5958335568941326,0,0,0.1863158616134992,1.3101429777861924,0.15555945355710754,0.1008104883839348,1.2296642004464287,0.3062609644196381
161,1.0636014780964254,1.4873284138252794,0,0,0.11446850093970959,1.2212744762488668,0.019095907806346638,0.5489306010047155,1.2308777179823664,-0.010726026859339466
162,0.9142249852201356,1.388037127207691,0,0,-0.03493371540008759,0.927324822667303,-0.13122219611703467,1.0470487802113004,0.9633508172693988,-0.23477579896790057
163,0.7790787684486942,1.2975873779853226,0,0,-0.07122288660255609,0.7206699010867388,-0.1573920580779322,1.6492812707225155,0.3304485115124929,-0.4699729659249719
164,0.6689032032164279,1.2172612541636025,0,0,-0.07497879991283209,0.6394739240578393,-0.19487946854652638,2.0064450960966917,-0.5779930298395174,-0.5708113519912836
165,0.592538660584157,1.150323388371115,0,0,-0.03951492043604869,0.5371865557762125,-0.12395716958398281,1.746309858315024,-1.043644364723495,-0.635913227384705
166,0.5559898386633049,1.1016596325565762,0,0,-0.08093131314561157,0.4305569371278821,-0.09579014778262347,0.9199903533773217,-0.6088997390527899,-0.3172150145574499
167,0.5617267784177361,1.0767299435919362,0,0,-0.15543554290999262,0.36543592066394665,-0.07034706392001738,0.18359726837231163,0.08682669781225527,0.12461881964280269
168,0.6083285263341073,1.0800854423284418,0,0,-0.3071095472212992,0.3081999406318075,-0.09258450075454469,-0.028320083050323307,0.3945746241586902,0.2675864981907995
169,0.6905487256510472,1.1138890179720307,0,0,-0.41820289006832784,0.32471266887190114,-0.05629583005985552,-0.1895825217667845,-0.01790096571613534,0.1486685845111901
170,0.7998387842113792,1.1769085113370314,0,0,-0.3958414236484971,0.3947704053563522,0.06663716988131822,0.0011443940286341,-0.5376271076149187,-0.023184395520911505
171,0.9253047941262392,1.2643044373489443,0,0,-0.20413334693397533,0.6106804497330424,0.32307961139529134,0.14029137339014058,-1.2536582492548647,0.07246864756209147
172,1.0550030045079677,1.3682789384200524,0,0,0.05077607389116073,0.9352707226512373,0.6098453550214484,0.3840474314533272,-1.5182158565773953,0.03700961660180945
173,1.1774021873240887,1.4793886704431043,0,0,0.3753115809522664,1.388687614260081,0.7654913935843756,0.7714313242931036,-1.865056381322182,-0.41647606552369154
174,1.2827766594596766,1.5881382622163096,0,0,0.6226209602327202,1.696755613911814,0.7114460162485045,1.422087213580003,-1.6060546220822685,-1.1075366332139314
175,1.3642731985075556,1.68641618125273,0,0,0.45749652413765723,1.5201306075070122,0.6404994414079818,1.274244637837838,-1.4164012761319777,-1.3734890109161113
176,1.4184500009814214,1.7684213677761627,0,0,0.1832601504051048,1.1684266874016327,0.5713230251221448,1.3218413297981815,-0.2634021107914328,-1.1339143254847606
177,1.445213817003838,1.8309219811587323,0,0,-0.10471597691531018,1.191153298418603,0.3212906462522761,1.2973544400039294,0.00539469560344521,-0.3521420807823784
178,1.4472325226047809,1.8729123501927398,0,0,-0.15922805960789552,1.3758174611204552,0.19456237531420925,1.1349348141352464,-1.3124432377194322,-0.28142220160738823
179,1.429009418556989,1.8949015673901635,0,0,-0.16887897370718769,1.4406066023246125,0.03506089312865453,1.4848838054714317,-0.9978193570664241,-0.06010652447486377
180,1.3958427686116577,1.8981247933712766,0,0,-0.336787568985524,1.0388288750700576,-0.3389658308376031,1.3087687294567538,-0.682572175881546,-0.2775088749127291
181,1.3528774720299426,1.883930072802192,0,0,-0.595790031922704,0.5872080418408897,-0.37730546383397406,0.941771914590061,-0.89724469771009,-0.3236300523614786
182,1.3044134570314807,1.8535048043505178,0,0,-0.7022757493517738,0.5751284027897375,-0.41424848141548115,0.9253188743014575,-1.7263450395120064,-0.35478408939000833
183,1.2535718402397917,1.8079954458093626,0,0,-0.47047699399271836,0.9715639862341813,-0.66861167424477,0.8224956495716302,-1.5882869428372188,-0.5586176285813905
184,1.2023285146463596,1.7489572278752017,0,0,0.14804112313074766,1.3938205584001377,-0.47294718912831774,1.0589280612155136,-1.5127867395041943,-0.5886370895241911
185,1.1518219961179008,1.6789769496521438,0,0,0.5904408350057587,1.47555491513754,-0.04675930182855463,0.9403982040672529,-1.3814598173738988,-0.635311598014412
186,1.1027715437849628,1.602271683294088,0,0,0.4107888290915621,1.2451629505130304,-0.19426204206072578,0.7946615285007931,-1.3153735704545446,-0.6947973665869235
187,1.0558403220528694,1.5250804242096168,0,0,0.16520033353964836,0.9491405133820996,-0.28065119357091745,0.56230146,-1.2122532994820716,-0.727823214527888
188,1.0118452765155002,1.4557088751460718,0,0,0.012447206112773323,0.832117817020045,-0.08861908374995073,0.6329962158834787,-1.3371208833913053,-0.6453139721217387
189,0.9718087080503458,1.404134787154055,0,0,-0.05771697262292718,0.83121607099767,-0.019548664156536114,0.651145331528085,-1.640931643205156,-0.5216539340849604
190,0.9369142975964422,1.3811275275091675,0,0,-0.1694670059885645,0.7958490408026716,-0.07725739728702301,0.453905480441321,-1.9548800951253753,-0.48284448785356043
191,0.908445519899849,1.3968983733771785,0,0,-0.17642799021609026,0.8665537363920924,-0.09670492805403721,0.15420381264791716,-1.4840366507939609,-0.4645224238292714
192,0.8877557077615853,1.4594010897303473,0,0,-0.13777342103727627,0.9296219058974879,-0.039324760591210574,0.013768639302157992,-0.8787911953237386,-0.5114172532374103
193,0.8762743645520262,1.572540653776489,0,0,-0.11334331761071587,0.9264811887407741,0.01115990523699703,-0.12135813383972323,-0.8443334668666859,-0.467631043201672
194,0.8755187198586206,1.7346679460022183,0,0,-0.12670602157852234,0.8917466911526534,-0.04061433595348988,-0.2519785920938628,-1.2380010981949459,-0.2810509489169676
195,0.8870645244353115,1.9377687225484213,0,0,-0.001862536707355966,0.8868477357114878,-0.17934188192814388,-0.3994497944708429,-1.0025888159827208,0.08744344547300294
196,0.9124340656993825,2.167662996135496,0,0,0.20289198830449828,1.0719307887550134,-0.105482801160276,-0.7942912485029876,-0.7924568445508968,0.5935232685029859
197,0.9528750773947136,2.405334368588446,0,0,0.21101859045615748,1.1143554872765107,0.05652634004059053,-1.6237847242061165,-1.0031165510285622,1.295452832574399
198,1.009028475738043,2.629249773705507,0,0,0.03626536136477471,1.0080873352027413,0.027016131739866677,-2.518107763230605,-1.375272294489145,1.9940655431911334
199,1.0805178674059541,2.818267319397876,0,0,-0.08709441516432483,0.9346174306974943,-0.07376377254008842,-2.9832931812537278,-0.7634420105492774,2.2125557910447786
200,1.1655359119993816,2.9545528898146567,0,0,-0.04512474271154662,0.9847617671803172,-0.05741457234700544,-3.0822625745517636,1.486575532392532,1.7630134665509902
201,1.260534808623319,3.025921856979706,0,0,0.02610064396651592,1.0936480149230063,-0.025618845238958333,-2.7596026373006404,0.7411158864533683,0.8739011560207418
202,1.360130478097026,3.0272008516059055,0,0,0.06842772412442241,1.223089897401308,-0.03694910236489126,-2.2349210008669833,-1.918981524847307,0.6749847092019813
203,1.4572968641342037,2.960475638428258,0,0,0.11982794823130864,1.368926269729309,0.10606414831275061,-1.6720191248603375,-1.8032397702114862,1.275316883978446
204,1.5438700858126597,2.834330458214341,0,0,0.1608274006880575,1.468731220070568,0.3757314929726141,-1.3218032459534175,-2.6907488049150836,1.6209456710225032
205,1.611320434265503,2.6623246469337145,0,0,0.2981621077096411,1.5209168319407627,0.48690637574225293,-1.4199442104678826,-0.9611509288263237,1.4420317904837423
206,1.6516982591359173,2.4610098217693985,0,0,0.16358126984734736,1.6354945390192759,0.4987327457246524,-1.252459993042292,0.24197096965893428,1.5127056489768071
207,1.6586257875393986,2.247807864296531,0,0,-0.2748263230098202,1.6905470394029252,0.3083881701450355,-1.0992709715157483,0.8499970096751972,1.4234855160629931
208,1.6281935971377308,2.0390535277636563,0,0,-0.8579229718086575,1.6327397380337059,-0.09116778765080451,-1.003206978051181,1.3355643806102224,0.9700864692913503
209,1.5596280912978526,1.8484391867656054,0,0,-1.0999916372261656,1.371664147961442,-0.3560630807458229,-0.9006314313748495,1.6111716357226797,0.6300439728672125
210,1.4556253775618793,1.6859950488292696,0,0,-0.41594659486397006,1.2940248835106816,-0.37651828540951193,-0.647236860015727,1.5839901151139977,0.49049943488011444
211,1.3222960750198525,1.5576414213024696,0,0,0.023330079048406508,1.3509212252230183,0.1332682303912889,-0.26712764522744037,1.2801973646209426,0.19034383974729446
212,1.1687250683568562,1.4652929093932108,0,0,0.13834902245827588,1.1485488710841283,0.06472250040885517,0.21023254892977378,0.9407126905510272,-0.09358226579569977
213,1.006202540150121,1.4074662295991733,0,0,0.19073814228002092,0.9740110251464171,-0.10515923908343076,0.7462867770746302,0.661734612417909,-0.3204276435820906
214,0.8472150265245731,1.3803026883375646,0,0,0.23380568632393628,0.8440520892654895,-0.22539757988310394,1.3260557518431244,0.560248721443135,-0.3650140390274504
215,0.7042991926717028,1.3788355433885404,0,0,0.1483487810742622,0.613161181575565,-0.1920015931868029,1.7453409225207455,0.4952452919833999,-0.43211367791584454
216,0.5888659204055774,1.3982322132034235,0,0,0.0181713639114365,0.4700162290777185,-0.14047064882477256,2.151510198726896,-0.28734874829566803,-0.42271650217659157
217,0.5101038232030476,1.434685849206587,0,0,-0.05110286815377543,0.4787274428490433,-0.07939961033022849,2.109363868705456,-1.4439309698931357,-0.4407574073337264
218,0.47406787625144386,1.4856854165068167,0,0,-0.03669574214624265,0.4490275115618828,-0.021751851118683035,1.4068008239339813,-1.2641893984869406,-0.11393981434663228
219,0.4830472677064525,1.5495790641938143,0,0,-0.09189589864742542,0.37018280779453455,0.02864958954673443,0.3287789195306408,0.38070245303560624,0.17699947795609638
220,0.5352878496082364,1.6246110593539242,0,0,-0.2049716871836419,0.3165305351018244,0.10055937310694768,-0.1600520184668965,1.062924658362362,0.14496023515679596
221,0.625121294973237,1.7078410288555397,0,0,-0.26922060628742983,0.3557353950604833,0.12184825815082771,-0.3735085918317824,1.0207645387787823,0.10822683007440603
222,0.7435230848754784,1.7944277996838935,0,0,-0.2831800097029119,0.4434855165533758,0.09153828718038788,-0.017625394893591925,-0.36647371306647963,0.08117202901696953
223,0.8790787723673122,1.8776409220068768,0,0,-0.2628064175327407,0.5788793672434098,0.20464952749650558,0.9798205816432863,-1.132980433847695,-0.05114215450821639
224,1.0192793605945445,1.9497009632735878,0,0,-0.054154831100728495,0.8038942260009241,0.5195803522618484,1.2816852136561272,-2.6319941929446617,-0.0022445072785176523
225,1.1519959246153686,2.0032365220585717,0,0,0.278234419588274,1.1920906799651516,0.8367870368880256,0.7969606848860423,-2.894692458696523,-0.020448598349860184
226,1.2669153592374693,2.03289730972406,0,0,0.609997966078428,1.5863723673504548,0.8033152327542258,0.833494978313534,-2.4552467304714396,-0.8171905610463851
227,1.3566824411869751,2.0365928754032208,0,0,0.8106003591919085,1.6730926192110807,0.6908260406085145,1.1440487108315225,-1.3693021128563008,-1.8395255562414121
228,1.4175239781893219,2.015969451031258,0,0,0.4976084300844492,1.2977682917977083,0.6520065586372457,0.7804071338061852,-1.0675386153331243,-1.6376760087025846
229,1.4492438421221152,1.976009989741564,0,0,0.0850204783886464,0.9860542777530373,0.42992568768353,0.9649298041052282,0.47473614506177364,-0.9942182942367369
230,1.4546405847924704,1.9239131189745466,0,0,-0.303772875289157,1.0482115610402436,-0.017403339273090925,1.2153601909638616,-0.7959265213253396,-0.4642515281325293
231,1.438539711220373,1.8675792341119148,0,0,-0.4182550879556627,1.3486833803256237,0.09146779650851229,1.3133594397706698,-1.565297100905244,-0.578455074874266
232,1.4066889797125648,1.814077376554253,0,0,-0.31328056892712025,1.484760409663561,0.03564281257907938,1.2043841128200006,-0.9535765376860375,-0.48773139421909284
233,1.3647355032890272,1.768418657216837,0,0,-0.3248560701250635,1.0535607846995025,-0.2676498386064476,0.6401109533307061,-0.02140050873985005,-0.5505566188253954
234,1.3174375050558094,1.7328769154094315,0,0,-0.6270742046645404,0.7004253207881866,-0.3370976883918327,0.7630873409689908,-0.7005880807364236,-0.3831356354379819
235,1.2682042988776363,1.7069926841218335,0,0,-0.7545527036680317,0.5658956291203743,-0.36385044932952715,0.6751107524214712,-1.5324218269582495,-0.5414351273836978
236,1.2190046701611117,1.6882506727541053,0,0,-0.40169169944488453,0.8845891146404651,-0.6843354659380866,0.7189498211945051,-2.208290708401354,-0.6258822347401951
237,1.1706157763157943,1.6732453963530387,0,0,0.2547700884787888,1.3981294768005812,-0.4084423753255473,0.8753447046956176,-1.718652164604404,-0.6771015830656354
238,1.123105595803426,1.659020223632707,0,0,0.48062575246971406,1.369695709391041,-0.15047287101448226,0.8669578639907919,-1.247037759201842,-0.5626759957943185
239,1.0763864821322215,1.6442501638511926,0,0,0.3165700383976693,1.213106104724743,-0.2523336724621099,0.8425856490481531,-1.2829654415453515,-0.49204717162374023
240,1.030679208670046,1.6300220177236076,0,0,0.11848671149557505,0.9626478128544729,-0.22411587925664112,0.8301796958127143,-1.473597610087557,-0.5072820529501328
241,0.9867865444114265,1.6200707735612712,0,0,0.10044747746798158,0.9074800497416281,-0.1501477334524352,0.8291591783915471,-1.7964218333480335,-0.4453139694670576
242,0.9461583377951599,1.620407843073262,0,0,-0.0029023553780360314,0.8282780840046065,-0.04580767115826697,0.7870574188470064,-2.0412367907075173,-0.44860730980850744
243,0.9107940079447361,1.638339909637167,0,0,-0.16412746208626494,0.8488346538256595,-0.01700517891181804,0.7677208199033039,-1.8022424377518134,-0.561470491577357
244,0.8830522266644397,1.6809707958736906,0,0,-0.22195315014918035,0.8225342101871802,-0.10412096365834196,0.498578709863609,-1.3928287939711403,-0.6268893376556632
245,0.8654276514403764,1.7534185095366936,0,0,-0.07273200552356805,0.8131224645652475,-0.16917594737281483,0.225862656723636,-1.0634545181496857,-0.5822193941661782
246,0.8603297499950976,1.8571273303074358,0,0,0.0662149860262902,0.8601120722979417,-0.10637378381087176,-0.15367233354878432,-0.5979019044250581,-0.35735640434574756
247,0.8698746825286453,1.988735144740023,0,0,0.06822589578015345,0.8913947062894535,-0.10619394894564264,-0.6172044813842659,-0.6858462248809717,0.0005585036438585276
248,0.8956848640706085,2.1398990316250313,0,0,0.04312135360094506,0.9578783263307834,-0.10804696923930172,-1.1846762097192383,-0.736278661425487,0.4595059082505525
249,0.938684014607058,2.2982658284132897,0,0,0.006660169453633692,1.0370871274150648,-0.0954741469837281,-2.0222075504158297,-0.43742704072872,1.0219337420990002
250,0.9988793738541505,2.4494498250889425,0,0,0.012164332998020201,1.0696775740251958,-0.1114989206973934,-2.7689688036588116,0.5353248261483631,1.574685788884493
251,1.075138203331526,2.579558762341079,0,0,0.007012362617162517,1.0193781514108562,-0.07074773483519466,-3.427027716914423,0.3082383278826819,2.1514512321816004
252,1.1649899445210108,2.677620601663551,0,0,-0.005207921611037776,0.9952453939209235,-0.032792561371194885,-3.087819274005659,0.55611597542618,2.1512756693181685
253,1.2645086913183148,2.7372941488304177,0,0,0.10691499325263885,1.1291752036382403,-0.011682402052940107,-2.063716845990985,0.8813452440149141,1.1689972910017723
254,1.3683385191457942,2.757490784797182,0,0,0.2582120986196544,1.2833286222595428,0.1052626345118742,-2.4059526817842563,-0.7715827602554446,0.7059762784633445
255,1.4699075370989167,2.741880289650991,0,0,0.3228295368599557,1.4319841956088988,0.28324939273497957,-2.5519565954678587,0.3700636966868835,0.6230012690369243
256,1.561840753717531,2.6975454699742603,0,0,0.30379129684252887,1.4852981122738493,0.4511449976590505,-1.7423177461979842,0.05947093521891622,1.3515174685346802
257,1.6365438498044667,2.6331946590569,0,0,0.2944821590861781,1.4722337224093662,0.4045995042845546,-1.0979004359403,-1.4548208223681591,1.9161917215721385
258,1.6869035828437373,2.5573483188775725,0,0,0.3685523618033172,1.5054398118843677,0.2684365383174999,-0.9209214049462433,-0.8894290245591691,1.6999393937634477
259,1.7070356713220123,2.4768454204623858,0,0,-0.0036153579715380068,1.6752399689948634,0.17532725671700508,-0.6510847356813187,0.3357517626138881,1.7938509974338583
260,1.6929976340396935,2.3959109487666552,0,0,-0.7150285233780418,1.815776606637116,-0.1867129885006132,-0.3580132180180536,1.0605390526178404,1.9863276864995012
261,1.643368438818184,2.315902111111722,0,0,-1.233693801277877,1.6649265826449433,-0.0928463071177917,-0.4841127748691312,1.5308478060939088,1.6529754251948015
262,1.559592993099243,2.235714835278221,0,0,-0.8025245825972549,1.2143991414539475,-0.5453325755919934,-0.44104247499795834,1.8227319115965683,1.2135130760310353
263,1.4460189156790435,2.1527057264115625,0,0,-0.38366435508267344,1.1486627783189554,-0.42444394968002597,-0.46479659338742346,2.1395889196754605,0.9077773981744364
264,1.309616443396324,2.063898004770081,0,0,-0.020008518331005386,1.1566563472152616,0.12530349147891953,-0.28604319002790024,2.2724294123953763,0.46411574648864157
265,1.159438042870523,1.9672094002665546,0,0,0.0674271629836421,1.1325395268044576,0.12557323269784004,0.12440159312690523,2.1949745086544223,0.1041939952212939
266,1.0059052027206168,1.862462790215717,0,0,0.03561571554841218,1.009187564412529,-0.1221099987245737,0.5999176176389472,1.8508882793914787,-0.11306805883894543
267,0.8599993591186545,1.7520031642772247,0,0,0.13587343385764,0.9263752003793342,-0.16011621467881648,1.111268630564403,1.298119404332248,-0.13355963424086034
268,0.7324065033274584,1.6408255897464374,0,0,0.1422411656502083,0.8092596826542229,-0.18130366319967103,1.5736043641466642,0.4562184428112468,-0.1877440066545938
269,0.6326482897313765,1.5361925402063497,0,0,0.08874478246493867,0.6541980728032795,-0.136128464408209,1.9216457549189825,-0.48964490949074574,-0.25445260028935196
270,0.5682374049086154,1.446773055923765,0,0,0.018625203092368512,0.5700682152744079,-0.11783008346765571,1.84137057606752,-0.6101392572305995,-0.30877095375966174
271,0.5439167039894441,1.3813860563716926,0,0,-0.1274643633216643,0.428476187131606,-0.16912685327429797,1.0456069429597865,0.3648659370285569,0.019561628265687764
272,0.5610674599749111,1.3475015866298565,0,0,-0.2924638109323562,0.2734489416323206,-0.11671140077594147,0.18265870939744103,0.7892350940782148,0.2537936783918597
273,0.6173882352779103,1.3497415889439284,0,0,-0.3833572472681611,0.2275930458611037,-0.01645917995356944,-0.45341391286589205,1.2587122368161179,0.23203788550069063
274,0.7069419667536638,1.388679349809431,0,0,-0.38459119119236895,0.27094583225546165,0.05148473231719548,-0.5193248768369348,1.152768776227896,0.10325843110608943
275,0.8206395063768308,1.4602248308386605,0,0,-0.30727662763103064,0.3809911189912329,0.15615864180294073,-0.2344590008599567,0.41546471103352284,-0.1288897359684433
276,0.9471721437351434,1.5558064694661966,0,0,-0.1475295291310742,0.5948769224563069,0.3356647486660126,0.09562730722377627,-0.5121964619055119,0.06948836175099951
277,1.0743259589323202,1.663433260750379,0,0,0.0991027932326731,0.8807082401349897,0.5546709569551512,0.43222008270407175,-1.7435136768077832,0.06790273400688407
278,1.1905153553535652,1.7695367822487964,0,0,0.42624907722668876,1.3574711927048813,0.714345925322999,0.4643545012992545,-2.1092922743343983,-0.45927859651757225
279,1.2862832011712082,1.8612676995855486,0,0,0.7483182489725471,1.7892383550688944,0.7757113919857656,0.6188750993626307,-1.9089380490096035,-1.092454892469121
280,1.3554693798254285,1.9287361835348813,0,0,0.6828754508871511,1.6374434032809617,0.7103367802573591,1.6719422683206964,-2.1839437516442963,-1.6171931902704832
281,1.395789671839335,1.9666366419840589,0,0,0.35556811621673123,1.2108080310919893,0.6784222109026341,2.420674827615143,-2.203614966878152,-1.9162935837256825
282,1.4087025485501867,1.9748283057943505,0,0,0.07249871218225377,0.9866383089478108,0.540783538382142,1.2750945163065235,-0.23185353886354543,-0.8977411418327338
283,1.3986262686121167,1.95773511757654,0,0,-0.03172763370591116,1.3036257378502933,0.28158464873423145,0.6263175903557318,-0.41836609940118424,-0.7323530044071153
284,1.3717233269699323,1.922792433533583,0,0,-0.18423972388730384,1.2685886131840332,0.2046470254244315,0.9308184285759581,0.3296887761364478,-0.8338529964299903
285,1.3345410277409988,1.878449942430631,0,0,-0.38939987304730156,0.9534324848104981,-0.0016756164655606608,1.0676872513794513,0.5916775916173782,-0.6060513915033965
286,1.2927902851698287,1.8323110933390632,0,0,-0.4974730170737816,0.6556560176581205,-0.1855418400337539,0.8615869362351768,-0.6999708327839081,-0.6174388890331689
287,1.2504911426517167,1.7898517390178292,0,0,-0.6615659839046857,0.5302675764675572,-0.3201156396525915,1.1963368411623263,-1.1690210975951907,-0.3274205970581162
288,1.209628617050195,1.7539231368920012,0,0,-0.5836623560919881,0.6708464664627773,-0.41588262542434856,1.2466942184546685,-1.2125328964752977,-0.33944198232261014
289,1.1703468939705859,1.7250135622167102,0,0,-0.2623255416297161,1.1396811347703288,-0.643705114022544,1.083284775383772,-1.540396366885964,-0.41435820012061375
290,1.1315780777143654,1.7020745895122604,0,0,0.40043508938681815,1.5853789264989293,-0.2498851687739811,1.162969472961029,-1.4971473507030961,-0.49197286408999524
291,1.0918928659665592,1.6836320608343955,0,0,0.5400153870292801,1.2997573044601547,-0.26129200259892454,1.1024758324694743,-1.1481819265885898,-0.6266385359955132
292,1.0503192035767879,1.6688926371863995,0,0,0.3986746093434409,1.1609616139616739,-0.1929698987484171,1.015768477760028,-1.1587429792174189,-0.7332951338031551
293,1.0069197208351361,1.6585981264151246,0,0,0.15522017985837877,0.9850802976478472,-0.008584345150104176,0.8427028274146334,-1.583790540468295,-0.7896383027824397
294,0.9630247969731947,1.655439542420407,0,0,0.03698972107890205,0.8826928600549632,-0.15981261468653493,0.7315211993978022,-1.8524779826598676,-0.8463668313985877
295,0.9211326369391803,1.6639079782490163,0,0,-0.1348763973705721,0.7653955578365172,-0.15828789449209038,0.7308948501176462,-1.8851334339803927,-0.819784733431373
296,0.8845661944923701,1.6895445639397508,0,0,-0.26417115789557455,0.7675806802562535,-0.045401718468762696,0.7647513713022487,-1.7303205524919507,-0.7325593669734656
297,0.8570049692807512,1.73767764823888,0,0,-0.25588120305762857,0.7550189052861752,-0.04024361815863356,0.5352545270365929,-1.3790862877883823,-0.6061029862768488
298,0.8419988551137306,1.8118942403940665,0,0,-0.1867212865781518,0.7513291488859188,-0.06908651552662531,0.1538017684307682,-0.9203841106153838,-0.44353234501538424
299,0.8425410569676216,1.9126351899098346,0,0,-0.1535513273682102,0.7981572882431064,-0.07559042377067914,-0.3136655433177286,-0.6503039140374499,-0.28388381227033427
300,0.8607433906913904,2.0363557511732013,0,0,-0.0907213037005642,0.8299743058612359,-0.09395281832283094,-0.8585711,-0.591623,0.00061086525
301,0.8976278600062009,2.1755956203974836,0,0,-0.036823803757749136,0.8722176986571036,-0.11502248210008434,-1.5900610970684557,-0.6874266633763855,0.47553955043049434
302,0.9530255497022266,2.3200531907002127,0,0,0.03525897264638148,1.0099576276989484,-0.10684028304957024,-2.4995396640625094,-0.1412520621153644,1.2289305980769378
303,1.0255584612747648,2.4584338657896057,0,0,0.12191188119208748,1.1598873404837458,-0.07240930046843215,-2.935349718114043,0.6799468493350794,1.835253729719926
304,1.1126741995850498,2.58057198605448,0,0,0.12119253541394019,1.1526229866559894,-0.013406478128038352,-3.00271094857255,0.5039237816038813,2.2522515131245084
305,1.2107107183855794,2.6792310347575823,0,0,0.10798022672381354,1.114869182908149,-0.004480570285484826,-2.412199395084924,0.4604925622697385,1.8949667626373825
306,1.3149877873356581,2.751110704873217,0,0,0.21314560776396177,1.1950860548609799,0.04651421002971884,-2.1848029934924176,-0.3241834983396195,1.104038386038249
307,1.4199430945852276,2.796867654828812,0,0,0.3341438709394763,1.3493587999284855,0.1991276855317579,-2.592838876824378,-0.7622836580593426,1.0761213979951885
308,1.5193395052794505,2.82025489883521,0,0,0.3848916743945102,1.459308614563286,0.42135582594249843,-2.3436037543137798,-0.6230313364445735,1.1904262472520744
309,1.6065613979956275,2.826688912848763,0,0,0.461733892239474,1.4841467871839733,0.46763409962365093,-1.726328826294032,0.4402339564770833,1.5521550326904168
310,1.6750020555141918,2.8216335742964196,0,0,0.4709452963030743,1.4743282062877137,0.27278109710764026,-1.0296083462910977,0.14073714129510326,2.247768133299921
311,1.7185325030817062,2.809175948751659,0,0,0.29889718089046463,1.5055574851774185,0.08814219951058769,-0.5684949700884205,-0.7887397272450253,2.355731784083314
312,1.7320342190215836,2.791092343626715,0,0,-0.11060814891958609,1.6274435261131655,-0.0260482925634141,-0.3819369190272855,0.13289773017000805,2.143872157769873
313,1.7119624468804104,2.7665808807616843,0,0,-0.7855928244238188,1.7627728302438237,-0.09268084910717136,-0.3271688290742591,1.5618760180471856,1.8184138365425795
314,1.656878553771939,2.732684470154374,0,0,-1.0805634105166904,1.593812436447442,-0.06930918174156477,-0.5428959611398952,2.664783067971593,1.554270758472465
315,1.5678636957463625,2.6852675991135646,0,0,-0.7665517252629632,1.3730453148672492,-0.18760654539909086,-0.6394759584456753,2.972092901923078,1.1014868902656527
316,1.4487261382427006,2.6202802285607825,0,0,-0.44966956544753034,1.2834818814294062,-0.2541840364350225,-0.4487357812810243,2.932617586469175,0.6498378445716567
317,1.3059477390923222,2.5349931910123367,0,0,-0.07079918506140874,1.2352390469836454,-0.3373900796088316,0.010522032616684674,2.534771044246018,0.21609552501189322
318,1.1483604202871345,2.4289444436431555,0,0,0.23169852383614792,1.2386842010693317,0.11201521703528751,0.5564138490875292,2.2236071710794945,-0.049031713537579076
319,0.9865751476105072,2.3044553755278985,0,0,0.2725003883593382,0.9890647798823281,-0.12193543904825836,1.0017596385191179,2.0043420975580877,-0.20992458766443747
320,0.832199797551953,2.166688646628822,0,0,0.2586755322597734,0.7909393443923313,-0.2529259735450328,1.4565894876052925,1.696051463176898,-0.3332982843561968
321,0.6968923645547955,2.0232786840724635,0,0,0.1366264269044849,0.7176755795337079,-0.25000553983057805,1.9592667138591988,1.0541676287068587,-0.38962222958442405
322,0.5913130067767078,1.8835822889085387,0,0,0.027163860731345548,0.5827640576267871,-0.21577535331093256,2.2693503599425386,-0.1458009321178072,-0.22173995321362552
323,0.5240612726821039,1.75761062241092,0,0,-0.11778696272468704,0.40805080650334047,-0.1791052456925336,1.7767016362637236,-0.5267605062087878,-0.11523033323076737
324,0.5007071417432134,1.6547472395734328,0,0,-0.2585836626398299,0.27182593235663843,-0.10908038578961012,0.8210940033245464,0.44784023826032043,0.28971582248900146
325,0.5230395207630277,1.5824248768061937,0,0,-0.3777369721260439,0.18251152899659898,-0.06191320174369237,-0.13786896824269118,1.344197463598334,0.39706114200836823
326,0.5886564227192964,1.5449842524183988,0,0,-0.3804275250035805,0.17899495950815025,-0.057196996874162215,-0.8430812496133228,1.5735851985127915,0.27859486945865736
327,0.6910021261830376,1.5429306808416756,0,0,-0.29945522772641114,0.23914357870029157,-0.054381903820638344,-0.7320319235648994,0.9590935387234666,-0.06680672007394378
328,0.8199168264439157,1.5727438476244808,0,0,-0.26433780886950575,0.35314433390254296,0.014726425906136393,-0.7065730778323636,0.06596913030483316,0.11776214485722906
329,0.9627019509837854,1.6273161704343784,0,0,-0.13081076883095888,0.6358103845849502,0.23023054483682043,0.20321502219949267,-1.3591110805626576,0.1013255189641922
330,1.105616050355988,1.697000906501511,0,0,0.07193151164996704,0.9943933261416331,0.6380927843595237,0.11976173558093818,-1.630685353426013,-0.4823739761668214
331,1.2356077031631738,1.7711223072942859,0,0,0.3414825165164686,1.5280933053404444,0.9142985769039648,0.35433378933364656,-1.50755754952972,-1.1495199400240361
332,1.3419923361841082,1.8396523846672173,0,0,0.6291166688171601,1.8652501568061206,0.8228619258088143,1.8616537355639344,-2.1368716553018268,-1.6568886648332
333,1.4177394864294315,1.8946620849916713,0,0,0.4111173510484803,1.5594357674826118,0.8325706407634252,2.2390499071610948,-0.9285167652625294,-1.78599034035016
334,1.460097804669424,1.9311861352808393,0,0,0.00023114803085708528,1.3033060506334306,0.7498353550875042,1.355541464252939,0.17923946226438678,-0.4753445845838432
335,1.4704422976814526,1.947325302226877,0,0,-0.15616370700565388,1.4190923732654033,0.5273578990972354,0.9922415856521745,-1.2906978485177973,-0.10597896619762107
336,1.453423212322834,1.9436780944076772,0,0,-0.2015289041057492,1.3465473825672125,-0.06612540879513004,1.1176437873336058,-0.11127955685354715,-0.6385105801331167
337,1.4156562850991672,1.9224076772110097,0,0,-0.44123100607311333,0.9213914176663239,-0.15819601742191694,1.2627676710104798,1.1680969731263584,-0.4466592366541431
338,1.3642796727608957,1.886307432691001,0,0,-0.504561050287697,0.38410635506772245,-0.34754824599888406,1.1211622717782157,0.9442933171627159,-0.4509242637347029
339,1.3057075615913374,1.8381407602709283,0,0,-0.6297558915633794,0.27774413189009056,-0.36556641829778413,1.1708356084886866,-0.5322831711026903,-0.44603715361364704
340,1.2448366449618762,1.7803771980637522,0,0,-0.4850804818722224,0.5301096196390052,-0.6199437510839256,1.211771500581167,-2.180830591398681,-0.39290719093374604
341,1.184817688177407,1.7152975189565163,0,0,-0.08318271590912257,1.3850899397309562,-0.9631238751255516,0.9449941352869022,-1.5840193568658532,-0.4247716857934304
342,1.1273264862215908,1.6453374828138552,0,0,0.6002841003795504,1.6192904862854967,-0.07276540609553378,1.0371805811529973,-0.7537172004192584,-0.5931053191050215
343,1.0731254626079885,1.5735084058073037,0,0,0.563450875461318,1.1008578153849096,-0.07574497115113538,1.2167018668517033,-0.46278956391158094,-0.7029411376288616
344,1.0226635625920935,1.5037615672988338,0,0,0.2662589074457791,0.9763986186349247,-0.2519454431144191,1.1841520267945385,-0.441517316673922,-0.8363086256871666
345,0.9765267491784848,1.4412027456950665,0,0,0.052422886130243214,0.876728308455395,-0.15874173816962714,1.0913443315018339,-0.7824020100366259,-0.8130873824175822
346,0.9356676033520713,1.3920750693174104,0,0,-0.06352986526351405,0.8251240044535102,-0.0431383856524756,0.7289162305783382,-1.3601399990794625,-0.8008784068841285
347,0.9014379148100421,1.3634255083669493,0,0,-0.19087552809735925,0.8415664354854604,0.09103566645515332,0.6069156177525159,-1.6163572432595579,-0.7118937098672004
348,0.8754890314053072,1.3623923688140989,0,0,-0.23260301039595072,0.8472545444542985,0.05034823939628864,0.575692993336417,-1.5980850751503923,-0.573764879291993
349,0.859601796088994,1.3951254051095,0,0,-0.22810815137798332,0.8349301706601405,-0.06672893577549427,0.35611235961889776,-1.365560801250499,-0.28798968372767114
350,0.8554879587005727,1.465474605834372,0,0,-0.19973200575592867,0.8385601451533239,-0.13069178026751269,0.15826054594823036,-0.9522886500202038,-0.19283135531743245
351,0.8645878191065802,1.5737220304766246,0,0,-0.17025948252403247,0.8226844090909308,-0.09271572049763703,-0.13843739910530284,-0.569865893586698,-0.2543615368012669
352,0.8878809816479291,1.7157187252164026,0,0,-0.10383271216835681,0.8221122151085754,-0.07768534756909382,-0.5209171151475629,-0.8444900427094523,-0.16937064185580972
353,0.9257250250753116,1.8827624193913295,0,0,-0.023905886494756955,0.8451501048685564,-0.004809376651396245,-1.1691106379337466,-0.6600848456969142,0.2093490118859115
354,0.9777336612191271,2.0623915585535495,0,0,0.11266663501934286,1.039018973859478,-0.0037099571926109028,-1.598809274521308,0.2475342189742221,0.8355478550527659
355,1.0426974449083202,2.2400207956240465,0,0,0.2101225136307443,1.1894110267831526,-0.018294744426425442,-2.4064136096161644,0.6994493359030294,1.4065367873939414
356,1.1185401891986926,2.4010892173826774,0,0,0.2114566202370824,1.1783364980367699,-0.01198896080462512,-2.7299185811007685,0.6295743814649964,1.778451292513154
357,1.202303844495461,2.533227819529232,0,0,0.13076015067159827,1.0697287282245573,-0.04443731813300921,-2.669646272668808,1.0978047219654377,1.737556661776524
358,1.2901700399292222,2.627942674421207,0,0,0.0694504130866629,1.0941752485702683,-0.06002820585685803,-2.477284994493725,1.273279287886204,1.3270626185989522
359,1.3775474392138622,2.681463947355612,0,0,0.08132183624490961,1.2851443483087681,0.08029087772109127,-2.197007729137897,0.5193308882541077,0.6537215196883057
360,1.4592592474976713,2.694664826209763,0,0,0.1999209495405943,1.4465626882387794,0.1663370189439964,-2.403106192370567,-0.3414064962242024,0.5577163832619692
361,1.5298437739138895,2.6722000208366574,0,0,0.3668174978070267,1.540939937449844,0.19193023526460365,-2.7775348175355457,0.2800151370142337,0.5776715308056889
362,1.5839446462004556,2.6211642164925233,0,0,0.40265757639943733,1.6571956258121758,0.31016705704645753,-1.6039593650518755,0.1073539544882561,1.306373454005637
363,1.616739466273921,2.549610593992872,0,0,0.3388958311974413,1.6227402120336971,0.2520119778987139,-0.8067680220449622,-1.3080034916451184,1.6132340112591972
364,1.6243518495279736,2.4652329664986414,0,0,0.1001457720652594,1.5279470394249688,0.034955358339841265,-0.8770186344586471,-0.41468603014780975,1.7552862434079135
365,1.6042097259818666,2.3744320668823486,0,0,-0.2557860298535133,1.4142467675586508,-0.0994282351332805,-0.6945831979546863,0.9819793679567319,1.8536154787647807
366,1.5553357006026318,2.2818669761673585,0,0,-0.7345178269987872,1.4412240318536664,-0.1228789351529513,-0.9593686262861736,2.0199326801044992,1.5034847791800678
367,1.4785645126875655,2.1904576618916036,0,0,-0.8008830028118233,1.3576253905111113,-0.0478970258203055,-0.9468835041851116,1.953592544265588,1.2431046219315829
368,1.376674042987852,2.1017005566736082,0,0,-0.6253475264436812,1.2185726795008083,-0.19445999946444228,-0.8288653496240603,1.8737591349547338,1.0521655267454355
369,1.2544036649688783,2.0161290238198175,0,0,-0.13468840191915432,1.1402113847304225,-0.28168798274470097,-0.3709805755270834,1.7429726469950695,0.7100137775172343
370,1.1183315307031236,1.9337955483792444,0,0,0.2088797477804783,1.160505047231071,0.061314174710889784,0.1709686570640759,1.5733638675187174,0.39230559337959375
371,0.9765899305629546,1.8547263810118408,0,0,0.24977583207864776,1.0225364324452875,0.022782877377212494,0.713545592741289,1.4052775406731524,0.16369529309164407
372,0.8384065036924029,1.779343481221705,0,0,0.2549675645541303,0.9398703002409483,-0.21070828837647987,1.2178397504256264,1.265986728860964,-0.004702201123026483
373,0.713468679680415,1.7088343108536745,0,0,0.1422307594802184,0.787913212371789,-0.2765884859988915,1.6713913934817248,1.0829835613672443,-0.1599995837201931
374,0.6111283158771611,1.6453956274541652,0,0,0.07807538138785036,0.6216065837764504,-0.17248233779610847,2.1656344601476696,0.5075055907004768,-0.23493778909997926
375,0.5394982325868655,1.5922344688705612,0,0,-0.0049702312343251065,0.48462191581650815,-0.07311241978636032,2.190992901403226,-0.47254634250051936,-0.19544449994932173
376,0.5045354051493837,1.5532306421619702,0,0,-0.06519191109522514,0.37259664725280917,-0.07052224188610255,1.2131081110846424,-0.6458687755661586,0.12091090908223366
377,0.5092413580978655,1.532267003279178,0,0,-0.1918943321490705,0.26216431744745206,-0.06585800766234001,0.14204299467235812,0.49329257149880057,0.42684030255938454
378,0.5531235866891336,1.53237322978858,0,0,-0.28130368696409463,0.2507408069568783,-0.06151002428220496,-0.46189719618008473,1.369133604210201,0.42715250696988366
379,0.6320451825933665,1.5549212427146126,0,0,-0.2575347068858721,0.3046255475125193,-0.034731005400404684,-0.44112768187016316,1.5423863476815989,0.2605792285355453
380,0.7385447077747089,1.5991005092144355,0,0,-0.182885817441217,0.40056454675503317,0.02512037167223895,-0.06698750831531873,0.9865384366858422,0.07154922908081328
381,0.8626403045641611,1.6618104399627898,0,0,-0.09679577831356145,0.5494901149607455,0.21369680472980795,0.7265704140154997,-0.4759414372635913,-0.21646323870910744
382,0.9930459299475956,1.7379884130750993,0,0,0.0461853118532585,0.7819024793840185,0.5687877418273862,1.346918792481203,-2.043337303007518,-0.4395887484210523
383,1.1186301151265543,1.8212699948033717,0,0,0.25310492288251984,1.2120122175871084,1.011466034707247,1.080368758237797,-3.032728783010645,-0.25994524598181545
384,1.2298582395376272,1.9047772949331676,0,0,0.5551583874475027,1.704053922769708,1.0603877029183157,-0.3866245917092014,-1.5535628153115275,-0.30505592593473285
385,1.3199177124591628,1.9818164617126954,0,0,0.6466921936724084,1.7071666217039785,0.7945708135156011,0.2520504641423965,0.13243024906718698,-1.069121026760247
386,1.3852766032330286,2.046365764225212,0,0,0.3859139814142575,1.1680483361687644,0.6318020183299129,1.0827684133280175,-0.7407350296887617,-1.723710388268158
387,1.425580636446722,2.0933684543814417,0,0,-0.02133949392131543,0.6526250382847437,0.4258360384204195,1.5535239316958958,-0.9357559421053101,-1.7054943566081955
388,1.4429955839945965,2.1188996204162502,0,0,-0.20820707431076552,0.8730173398889215,0.1861716831460202,1.6255957227272724,0.5402131177272715,-1.2967280727272736
389,1.4412512755586078,2.120251813734888,0,0,-0.19982182119146752,1.240470680213672,0.09386110691577512,1.806139518373021,-1.1235073572420387,-0.42445843468254957
390,1.424666334652718,2.095961214530514,0,0,-0.2595983489136757,1.707023380285417,0.22788912224926797,1.553210596342926,-1.0384615352817645,-0.2743101857973613
391,1.3973434512879046,2.045813862314287,0,0,-0.06655043421528761,1.752596657140128,-0.05074845093105021,1.6467914568766495,-0.1451007846749029,-0.28655644360947763
392,1.362609977185632,1.9708956499513106,0,0,-0.3319188721030345,0.9140141198093971,-0.40569881770263666,1.2802023550191095,-0.5585689960571483,-0.3923498595634674
393,1.3227177050779324,1.8737335943134648,0,0,-0.7236043151808346,0.39573587691370854,-0.3638547304672589,1.1747073958268044,-2.1667561354819593,-0.32848483486480856
394,1.2788151280587277,1.7585101991183603,0,0,-0.6319575403495453,0.3158230255185209,-0.46504108058239785,0.9902966530933552,-1.9256612187895616,-0.5757983387064867
395,1.23120600803693,1.6312560554582851,0,0,-0.2800966841918438,0.7718278844520482,-0.9724187561189432,1.0507541729729684,-0.6699280297013015,-0.6412225793741095
396,1.179856048843953,1.4998967366743892,0,0,0.15542216745136778,1.4857358534636749,-0.606413473915181,1.1440939819015332,-0.21646740720352128,-0.6636107366055388
397,1.1250159264241166,1.374067029823875,0,0,0.6114143357819095,1.728686836490095,-0.14571172148353792,0.9931310478101257,-0.6172012864712824,-0.6270639285327176
398,1.0677604856343044,1.2646630672227703,0,0,0.4771125061427154,1.164751954116766,-0.15336883198784662,0.6791436612446055,-1.1199587677757286,-0.5929760713185446
399,1.0102621496166166,1.1831294221420112,0,0,0.1376789131484114,0.8326028939853222,0.06621047092790913,0.48797634923197825,-1.4572795673934387,-0.5599299937143978
400,0.9557233405289183,1.1404784402285784,0,0,-0.10527394056673944,0.7177617026460197,0.1780254729482681,0.5095980502457848,-1.407937867663236,-0.5727196096845184
401,0.9080263305626515,1.1460600356024144,0,0,-0.2305757026837573,0.6138031140628271,0.013030036695554357,0.6106607947244118,-0.9187870466929174,-0.5813488988188971
402,0.871244498933855,1.2061748379004407,0,0,-0.21176032946342038,0.6041474308455443,-0.19547988933329244,0.33673076230862037,-0.8169276438335316,-0.5423815382199243
403,0.8491639864057243,1.322738295088337,0,0,-0.10316858820563012,0.8003637363394555,-0.1657658963099688,0.15860036283775977,-0.7257543120255346,-0.3643645211494706
404,0.844908844014964,1.4923048825006682,0,0,0.04323494842654594,0.9747465079894397,0.05592799007269878,-0.053744207957390655,-0.22688272645154073,-0.3499991872824153
405,0.8606883820513334,1.7057865006888415,0,0,0.16442972430574765,0.9800709883069463,0.1565762843736643,-0.7606843144433794,-0.40194962830346814,-0.1313208563310156
406,0.8976299013589508,1.949104086975092,0,0,0.1878972893922351,0.9728126445559814,0.047782357753300565,-1.4331374623334625,-0.47569829481631143,0.6006651390593369
407,0.9556430445752511,2.2047960456071274,0,0,0.10976551395715754,1.0218547350490508,-0.030367126812506078,-1.962523824762682,-0.1480561163172275,1.5940443885680846
408,1.0332820021518758,2.454328964461853,0,0,0.02788903347430526,1.0996774221844763,-0.12513610575468123,-2.323193200121108,0.330180186642962,2.324358680550954
409,1.1276118418667214,2.680620143534278,0,0,0.017679958099524964,1.0390177025378429,-0.09637419327778311,-3.044729068796993,0.7460099600989339,2.3593716369608213
410,1.2341260176283886,2.8701924120898106,0,0,0.054734699171008594,0.9878505323877819,-0.08669867597223214,-2.8544535880239588,1.529995066586804,1.642667514012043
411,1.3467885022418993,3.014487582588857,0,0,0.015021282221166643,1.077082709376581,-0.028655034953655813,-2.607374532706925,0.25174840236528917,0.33248709055183223
412,1.458272996768994,3.1101261402612246,0,0,0.06056599137936164,1.3230066896578998,0.11523360213822792,-2.7475903682198513,-1.6984661939466117,0.33632716810836805
413,1.560435223496082,3.158205099254231,0,0,0.2232593427287217,1.622799449718958,0.213307702470418,-3.013278638912859,0.7658670844623878,0.7134695948783376
414,1.6449902148892013,3.162956275755917,0,0,0.402786962166903,1.8247425358389517,0.14152098244761677,-1.9773512298936642,0.47958827576606217,1.2892823954312673
415,1.704302334927969,3.130192935219235,0,0,0.4340869919429365,1.8932694132223888,0.2351168191185372,-1.0833927560439307,-0.6827389021517102,2.1395384845309193
416,1.732164314207862,3.065965148197842,0,0,0.16660632918696067,1.6249238470441907,0.40376374752737293,-0.6582485376470576,0.3344405782039377,2.247956855058825
417,1.7244570980061336,2.9757404300219283,0,0,-0.22840509395055467,1.3992789336788292,0.27793890812598093,-0.744844380418477,1.5195787794512483,2.082060277793129
418,1.6796273994450495,2.8642393217112696,0,0,-0.874918127488998,1.5040343766024606,-0.08311226078822452,-1.2355539249345802,2.5689071019855256,1.5768084401108273
419,1.5989582890834788,2.7358299581119665,0,0,-0.994448006071728,1.5844681817702462,-0.206065042132809,-1.3071533770631318,3.038172812487621,1.1480838185830267
420,1.4866188706720638,2.5952032438269694,0,0,-0.6905346363553354,1.3157455345994544,-0.5274005659540806,-1.1443118473642635,2.830803502242292,0.9011881581648142
421,1.3494765762480745,2.4479881915928097,0,0,-0.10238361909847475,1.1018736954585038,-0.27838495232214827,-0.5599294954047754,2.2363971142231613,0.658636343544845
422,1.1966666869567688,2.301044649387183,0,0,0.36473803845277425,1.1725114299690984,0.18268832467842622,0.25346119682600987,1.89509991426305,0.47113682178536953
423,1.0389400296798015,2.1623284026175558,0,0,0.4588054154347924,1.0607388548273597,-0.11049460717615167,0.9303149805633729,1.8444913760965795,0.2718572841488957
424,0.8878313292382948,2.040363059283158,0,0,0.39885772360347327,0.8694056877383198,-0.23761883066202671,1.6001505228915796,1.6261527433734781,-0.021137409349406177
425,0.7547000799581003,1.9434147328449003,0,0,0.19231683733305094,0.7109569117416135,-0.29490895319809546,2.1290374525084323,0.6505997667856308,-0.15028556878841912
426,0.6497066513425344,1.8784691819884418,0,0,0.040732942217045896,0.5853054779343994,-0.2569073956212709,2.2269923420818234,-0.7974026093155034,-0.1308082292709585
427,0.5808085552204373,1.8501204123556227,0,0,-0.07534680101372129,0.4671579234482388,-0.26872938785990325,1.4795507517496849,-0.8703755679864178,-0.12258866294441317
428,0.5528877566534116,1.859534772837462,0,0,-0.1501410672050635,0.32446438643250186,-0.14359597350774275,0.9610790298521007,-0.42119723524027564,-0.039059383126157546
429,0.5671350741737184,1.9037337674748107,0,0,-0.26466107437701475,0.2243605084002221,-0.029980980935378154,-0.006599968684955244,0.9260702379474791,-0.14110987
430,0.6208117002422388,1.975471717063972,0,0,-0.34119950334922333,0.2210622028270325,0.015037698369949245,-0.6385593125347724,2.0261715727850764,-0.10636396545093205
431,0.7074752821669397,2.063906836061736,0,0,-0.3604951058146665,0.24353260958315218,0.07126972087320967,-0.5595299242933495,0.38199065834884505,0.02809535864977747
432,0.8176978832676325,2.1560742017889827,0,0,-0.37195610353482156,0.3402678076088822,0.21457135145232026,1.3028561164700132,-1.9482812225630088,-0.25856238067215465
433,0.9402200161675274,2.2389244630802496,0,0,-0.2057377062472722,0.6248078624140582,0.6264923294609804,2.305630968827326,-3.0456861387547014,-0.46963033542721844
434,1.0633893065213382,2.3014744147432613,0,0,0.026154985702428787,1.0179916980855777,1.0960582590552395,0.6629961362588095,-3.9014026710862812,-0.005619765503191351
435,1.1766445940553565,2.336522756788146,0,0,0.3629669558158121,1.4548099802169596,1.039509278753243,-0.20133403170274747,-1.7103294997834313,-0.9756936611063247
436,1.271761311539476,2.341499136754188,0,0,0.4290269244069345,1.6264360648431515,0.7431066236266395,0.34809288724939635,-0.46349197408615056,-1.8274288106596706
437,1.343609538281745,2.3183042738237707,0,0,0.18817394205542753,1.320278526749221,0.5552567324455138,0.9276841015157571,-1.1787616035133444,-2.322184255390484
438,1.3903010910690503,2.2723005526797064,0,0,-0.0003419251828363315,0.8683077174709684,0.6474225595393037,1.1569881162521067,0.23165468030680433,-1.3636757803906305
439,1.4127735678463533,2.210784428959937,0,0,-0.15534382091998336,0.8027074861471603,0.2388429353674092,1.7724045408934659,1.1907221984192724,-0.7616272140893543
440,1.4139996179823826,2.1413100263585854,0,0,-0.39366307315747845,1.2575882487903416,0.10852304925707923,1.6118850517269114,-0.6817396159698784,-0.37659720586345274
441,1.3980573311229172,2.0702055029196877,0,0,-0.06486577470515235,1.774013863816275,0.3026180604644349,1.3224165107185675,-0.26015927511376674,-0.32159898514969976
442,1.3692537828511269,2.0015648196014073,0,0,0.07788535110996955,1.3847445634897886,-0.5066847548229405,1.4326136493194555,0.116980694,-0.3104906563170545
443,1.3314202557671695,1.9368983192642906,0,0,-0.21916248043678918,0.6504561127817521,-0.5312564093177465,1.3875623520188156,-1.3845301110544617,-0.47044682355154693
444,1.2874560963354695,1.8754789647848151,0,0,-0.6185693718910716,0.2791808110158358,-0.42765044657618967,1.3302402113036562,-1.7897325269397828,-0.5015418726270181
445,1.2391873224531906,1.8152571992575537,0,0,-0.46744082083330085,0.42233242222399053,-0.6623626783228929,1.574883524472741,-0.9775512433346609,-0.4822678905451652
446,1.1875722790749463,1.754097069330486,0,0,-0.14641224067425132,0.9295056442804677,-0.9565125909877193,1.5242897542845733,-0.7770831058788333,-0.5271705448784392
447,1.1331972743224457,1.6910509122490391,0,0,0.30820620020092354,1.6169696034476069,-0.2439215714564223,1.3885558261510536,-0.48390851746767793,-0.6539828232552535
448,1.076895032737743,1.6274223311120923,0,0,0.5657152965302632,1.6235347103464701,-0.02000942614439538,1.4710065117476137,-0.5297698006641641,-0.7142660264632615
449,1.020261133008273,1.5674165204273198,0,0,0.30998161609837716,1.0904837797384783,-0.128581777917214,1.1216187033015006,-1.3968461738862543,-0.8450094866686578
450,0.96588548690776,1.5182151818711702,0,0,0.1215277739881596,0.760725199112236,0.041024789111916114,0.7160878121727218,-1.9671435584345656,-0.8894226850202428
451,0.9172385299674981,1.4893584355395026,0,0,-0.03609849843503004,0.6915163607083816,-0.011747345794030658,0.6148369717896868,-1.7482723112234548,-0.828332271745197
452,0.8782838258010051,1.4914090227965275,0,0,-0.18320286520071746,0.6620645964017196,-0.22616075025613622,0.5325131493061348,-1.457969842448984,-0.8432675352244906
453,0.8529619178798793,1.534034858371032,0,0,-0.23748111415881476,0.7192730761246429,-0.17818165731432725,0.22927911651854946,-1.1581767039494117,-0.6912408125394796
454,0.8446867158259895,1.6238452463922783,0,0,-0.22166537774558948,0.759463973525791,-0.14597462646675338,-0.015230737962090084,-0.4556642169194232,-0.3602494648459651
455,0.8559454499384339,1.7624799577549826,0,0,-0.18522326306375014,0.8403564496723189,-0.05430920019514764,-0.25103420764249457,-0.3010173079055422,-0.019066226856111743
456,0.8880362431225801,1.9454917509253373,0,0,-0.14737411203467685,0.9035925858079568,0.14947730859146768,-0.8226667386372185,-0.19829610639680612,0.2960290229398601
457,0.9409363467710863,2.1624223893685612,0,0,-0.12224618752795216,0.9393682892292827,0.16520877032622328,-1.6301608925134095,0.2065279812121338,0.6857844357576006
458,1.013273660930818,2.3981599913592593,0,0,-0.07080361617798708,1.0715950242227514,0.0018945690555479738,-2.578711117625362,0.38510722230237426,1.4757964906798104
459,1.102370613052819,2.6352804471655773,0,0,0.021591513190564803,1.166567854151236,-0.04983227397611131,-2.935227187292161,0.5462063959619855,2.4651919100949957
460,1.2043375176426043,2.8567707544858534,0,0,0.14565742437365103,1.1565905093328144,-0.07994015495101861,-2.994935063536454,1.3662538671927689,2.5073832356443857
461,1.314207077070807,3.048438534892101,0,0,0.29576313665594395,1.1762397011316497,-0.11289731624165955,-2.9347700348421357,1.5715892083382637,1.5363098568194495
462,1.426116375447892,3.2004673386490925,0,0,0.36295291135962937,1.3416166173875066,0.025262498554646743,-2.5754565763806494,0.21636677297904633,0.5201771699216003
463,1.533549583890345,3.3078999766276627,0,0,0.3318553063125701,1.50632008181394,0.21298514916522995,-2.958437113736262,-0.9931653159340723,0.5919040598901081
464,1.629649158583317,3.3701643742846557,0,0,0.26471517682575807,1.6287104381460331,0.2827716008265389,-3.00166151449702,1.5530419232922898,0.9874522928487721
465,1.7075904370749477,3.3899658331163574,0,0,0.3461566013084901,1.7198770613781056,0.20169496698728198,-2.191590242499036,0.7817676454172546,1.619401924383064
466,1.7610052264806977,3.3719285079853307,0,0,0.42124273326233963,1.6898552908062214,0.12252570363554577,-1.6344212834919918,-1.0534720271824922,2.3816121701438138
467,1.7844407322464135,3.321330230056466,0,0,0.1068655403468703,1.4804286057395528,0.18243952065606756,-1.0886271070685172,0.16144354449049605,2.518946246102496
468,1.7738453205769007,3.2431860697976833,0,0,-0.31541161678099316,1.5153368881615088,0.18643497546929017,-0.8358345258948644,1.5623823579155094,2.432912105651779
469,1.7270662926914904,3.141809634268646,0,0,-0.879508981950762,1.7232645596669949,-0.011729150831884532,-1.2655333735276437,2.7943651819899493,1.8705018503919524
470,1.6443157642063322,3.02083389200944,0,0,-1.097556774586417,1.6402419978055933,-0.25349771519425945,-1.5229495457115168,2.7302388818199432,1.2014850689060583
471,1.5285213778718858,2.883552452678444,0,0,-0.7544565921065056,1.2490939946718866,-0.6432742676442088,-1.1369969245168845,2.5771030582125523,0.9038164496437088
472,1.3854620254790195,2.7333964947941847,0,0,-0.15740601821535294,1.1973435939315833,-0.3082386710244359,-0.564046493045858,2.4716267130878617,0.6271551534120614
473,1.2236142392549978,2.574395470465483,0,0,0.17992738147224158,1.232901907479981,0.42178247127507035,0.1871273301037699,2.276834709283299,0.3479323413835235
474,1.0536842897746972,2.4115318721649737,0,0,0.22581865271371188,1.1701464237773394,-0.030705334751600123,0.8509025688640723,2.1931405279772425,0.21852814761820769
475,0.8878428260337405,2.250934459175147,0,0,0.2627716185166351,0.9794563661001588,-0.25556489530907445,1.5956473501002342,1.9081924410821318,0.13393801310119255
476,0.7387061032511543,2.0998446084065763,0,0,0.21901962886938228,0.7562800283328917,-0.3995039438996712,2.3840483236483703,0.8558811256908733,0.035040594423304025
477,0.6181371270038879,1.9662696275566598,0,0,0.10816630362426186,0.4534290699095199,-0.24332586200473846,2.6600738856000117,-0.6606312339199683,0.06900334006400277
478,0.5359817710438355,1.8582567745919785,0,0,-0.05616895264942617,0.342310859209774,-0.14448188026656733,1.9191316629772541,-0.8340467523296126,0.13819490753987915
479,0.49889763440034257,1.7828146362464012,0,0,-0.15718559613039546,0.23639469400789231,-0.1286173096674395,1.0011334375866487,-0.38441504456306685,0.17896820136119948
480,0.5094545843202762,1.7446557076536204,0,0,-0.25378924996337626,0.12721189560907373,-0.1671313182470239,0.12864000841347317,0.9415536672836284,0.06756998802884737
481,0.5656708319995378,1.7450610700734215,0,0,-0.3049005665639696,0.13357305781659234,-0.16648024513243623,-0.4377703516031992,1.9699984362725391,0.013605217655913273
482,0.6610987760458793,1.781193836796967,0,0,-0.30139451695707065,0.1892047048359654,-0.14684614645869992,-0.6795465754595046,1.0713372442536675,0.046123720008483006
483,0.7855022334324581,1.8460974120298406,0,0,-0.3446081405469001,0.2516741983081985,0.07071547520035944,0.326593926665331,-0.7911904403803034,0.017392175640112254
484,0.9260794537330403,1.9294603675372743,0,0,-0.2334410412973725,0.47625933733112447,0.516477314350646,0.9307140611921174,-1.751467734963715,-0.14935620185047066
485,1.0690868453327051,2.0190586974905362,0,0,0.07294139137819033,0.9504411246787505,1.0495883636414418,0.33543941149702633,-2.3391829131736577,-0.40447997189619267
486,1.201616073997382,2.1026136664565764,0,0,0.3793010700494767,1.5078892018392307,1.124229931493172,0.4255345197613621,-2.2769648781026324,-0.8651564849344038
487,1.313204455393122,2.1696642184326898,0,0,0.49534336548487967,1.709205348994305,0.7893304867146597,1.5687801974990232,-2.278912960992334,-1.6179539762807766
488,1.3969632067722664,2.2130122632388707,0,0,0.2505257312526923,1.4670003038947903,0.5763976327046187,2.3643916633718236,-1.7133889968745206,-1.7374169857890687
489,1.4500152858683748,2.229399682803166,0,0,-0.03939918714322266,1.1503216557866531,0.7058124627004176,1.7352691438423837,0.15574300924923876,-1.1397960591921388
490,1.473212537843445,2.219303042083704,0,0,-0.1024484677666759,1.2138037880913624,0.4634540182730121,1.2678740722366284,-0.6379485115115627,-0.2997418890818404
491,1.470275925330823,2.186010364808488,0,0,-0.27320059082389153,1.2609385957446906,0.23628563553953694,1.0881343784108215,-0.8782843059831149,-0.7608208939901232
492,1.4466087538417165,2.1343536842230892,0,0,-0.2873235616291469,1.4715072597801893,0.09925266272240305,1.421007434149254,0.27417128690746356,-0.884560339880597
493,1.4080575176576777,2.069514949566511,0,0,-0.25261101298877425,0.951428845571208,-0.3057565780685419,1.6448286982904248,0.5681491110061506,-0.8121448951660664
494,1.359865192853798,1.996205177747296,0,0,-0.42460653148924254,0.45139360713304905,-0.5481818229870677,1.5197900976408694,-0.8648567236107776,-0.5953710585767308
495,1.3060035405382766,1.9183278217975417,0,0,-0.41044094136552917,0.45367524588500974,-0.7352613384726651,1.3232049850921932,-1.8437847001569245,-0.543848719921538
496,1.2489847763276378,1.8390715619658897,0,0,-0.15029044288445384,0.9070755302957771,-0.833398407330829,1.295903421933821,-1.4088259624727588,-0.4464052939548254
497,1.1901330646190467,1.7612835314527668,0,0,0.34992298135604244,1.5398511593837791,-0.5078973351274257,1.3482340065933989,-0.8986653543956354,-0.3372298215384608
498,1.13016688441253,1.687955185466044,0,0,0.6029126635449147,1.5269423849239891,0.1579798344498254,1.4710960898923453,-0.4719614769039072,-0.351072996997607
499,1.0698599627081096,1.6226805008591572,0,0,0.3152119637463387,1.2262821956064318,-0.10704177729725887,1.2275076208992064,-0.8561935252276872,-0.43068366541436764
500,1.0105561501379448,1.5699762732113045,0,0,0.07030645064805197,0.9784492251179091,-0.24961660999175425,0.9471050231964772,-1.4097644831407052,-0.5557244838979779
501,0.9544056986935432,1.535362032153046,0,0,0.01715662232230665,0.8303035672153285,-0.07960074545320923,0.7049306457877101,-1.6313008998023228,-0.7255218852737636
502,0.9043117285823453,1.5250964056366436,0,0,-0.004270577708841907,0.7383675739998103,-0.03976650102166352,0.5940940740624382,-1.8420024557367263,-0.8894934991648409
503,0.8636653029855862,1.5454951363819265,0,0,-0.09768383099182838,0.7244049665057962,-0.08123637629073265,0.6113804260507518,-1.5534207335448056,-0.91415983
504,0.8359777916757443,1.6018426543354995,0,0,-0.07073169037606201,0.8170092179506128,-0.09040251241559322,0.5393153372316042,-1.5512677652772213,-0.8023643882815378
505,0.8245000846727771,1.697051992713591,0,0,-0.03082955991003037,0.896825343506504,-0.07895247883770226,0.27749205450511255,-1.0791399793597944,-0.4500555860781681
506,0.8318780174938535,1.8303861646010857,0,0,-0.05683414426800973,0.8703940171942116,0.08246779973188571,-0.15100396816439862,-0.29992757283700905,-0.2408730486258415
507,0.8598592100861863,1.9966550418080564,0,0,-0.10029730328597285,0.842223106397991,0.11845270017879908,-0.7160018792823087,-0.20480365084529845,0.10516308317903356
508,0.9090523543788825,2.1862637974193535,0,0,-0.13932255926384673,0.8519325526807392,0.05362153034122837,-1.6549798808628822,-0.379867672144834,0.6385405351725861
509,0.9787430369301001,2.386272475303775,0,0,-0.1612692340099203,0.9760295817907797,-0.01682770043633181,-2.402057859828068,0.39818082560963786,1.533630465982827
510,1.0667782269730448,2.5822893009225085,0,0,-0.07725066263550184,1.1146161020061016,-0.11193374086741323,-2.7752997851220407,0.805565675222786,2.3900235519759723
511,1.16953581169994,2.760713803022214,0,0,0.07773941608275244,1.1548306426034642,-0.08448380937573428,-2.90123662882376,1.1946586417503144,2.254478671497379
512,1.2819965070908983,2.910723780069295,0,0,0.17147798089269647,1.1555787716495245,-0.06497182834509786,-2.7383458407230807,1.4629932306714295,1.4849445922129219
513,1.397936183417895,3.0255176345935264,0,0,0.27074015486673086,1.1683286674457092,-0.0666401476585907,-2.520874640257901,0.4961374068104157,0.5774590229518456
514,1.5102531568473008,3.1026057664538977,0,0,0.4222199203400884,1.3601189625899777,0.12880608847668762,-2.9381339335741563,-0.42322064298616485,0.7819108425747614
515,1.6114277634186516,3.1432437403970273,0,0,0.48138461626409146,1.6394757261734418,0.3859523543407845,-2.9428434,0.29657507,0.7959574
516,1.694078807898423,3.151295523185859,0,0,0.5195788305601411,1.8248644159919751,0.20201371502542384,-2.6839812345026455,0.701686111060329,1.251553586625503
517,1.7515490240238234,3.13188049773586,0,0,0.4558616967536886,1.8805045617944205,0.06675668255375876,-1.4640286758361865,-0.0018994652186035475,1.9072141457125602
518,1.7784435368657698,3.090135057340123,0,0,-0.0029825283561301084,1.5902931735497126,0.1600234926889624,-0.9316311717021676,0.10672551217405307,2.6127977703385787
519,1.7710705661081785,3.0303452288791535,0,0,-0.4456055259211814,1.4780682512449812,0.09700411298774296,-0.23856620326558436,0.5401739741316857,2.577334463062385
520,1.7277729683894338,2.9555876977544124,0,0,-0.8958196087797546,1.5194679296996543,-0.15025908916705477,-0.6170283234749643,2.440133572851092,2.0540489255232246
521,1.6491604568928921,2.8678665431033568,0,0,-1.0129386388848103,1.4610665372704434,-0.22674135394159056,-1.0105622443607467,2.683102328501626,1.4667526677117375
522,1.538242760356195,2.7685985718978876,0,0,-0.649807825663361,1.3729002344998702,-0.237358558135254,-0.9845983946808554,2.7995019446808542,1.022435528936176
523,1.400442115793351,2.6592356983391623,0,0,-0.14134948156319171,1.288765533115353,-0.2100470006884887,-0.5874189340434338,2.4356651193908174,0.7002698730878145
524,1.2434535679111753,2.5418365479063474,0,0,0.12712221841936808,1.2197351465619106,0.08611639373509675,0.04491379486497367,2.2262498073459644,0.38865288087675454
525,1.076925825391953,2.419476211672779,0,0,0.23349030018067418,1.2330302284721997,-0.02297593408203777,0.5735105158568584,2.198849953489308,0.1893369599340088
526,0.9119415584636692,2.2964504564768387,0,0,0.19583056374593064,1.0541581070257244,-0.17859848433310704,1.0692675358471846,2.2389104180035977,0.13852526195738965
527,0.7602826585045995,2.178249407739471,0,0,0.17281356035020448,0.886972546905183,-0.33643462159531234,1.7484074718893836,1.7545508602885442,-0.02292286856220957
528,0.6334868438910174,2.07125966046861,0,0,0.07015085119370225,0.6660280118988104,-0.25680545749456735,2.4636580638016365,0.36972134213791974,-0.04091874904559195
529,0.5417466700719535,1.9821524701642779,0,0,-0.0943289045030436,0.38475286741930614,-0.2151030773130119,2.4921155537209505,-1.163560068124657,-0.19720625478865528
530,0.4927616411103608,1.9169710762426733,0,0,-0.17703532124185573,0.2396793793590568,-0.12714726656108852,1.1396174047866223,-0.743891932828089,0.19540244581171815
531,0.4907058063714069,1.880043812365893,0,0,-0.24537908789654356,0.12709275422350072,-0.12592203853627287,0.35135399862813593,0.18329670476756904,0.2836757296662695
532,0.535494440309092,1.8729678127746117,0,0,-0.2929974745958447,0.10016673890302592,-0.16709564732371035,-0.6106910245943525,2.016010654276643,0.23196203982612595
533,0.6225144620790064,1.8939447634359476,0,0,-0.2522197213549699,0.18188135232712044,-0.1927337226847029,-0.8984646048459951,2.469748668667834,-0.02738460808025045
534,0.7429292031732937,1.9376692125344495,0,0,-0.21135712011837943,0.2443275611003465,-0.12317002896654787,-0.9511656753004234,0.6923261646044298,0.1479878197858405
535,0.8845887764764382,1.9958383758935956,0,0,-0.292402606311132,0.3681493285608113,0.15383385324206225,0.19632039073405083,-1.0809687356197348,0.035927845128761474
536,1.0334767863900554,2.0582525096050617,0,0,-0.22802486663929017,0.6852684945544153,0.725822911897451,0.4709225277424471,-1.401907954889375,-0.3651453923058564
537,1.175505637154699,2.1143897103232265,0,0,0.07603144841458288,1.2409678893236802,1.261587049498457,0.5476675002607861,-2.127937451505987,-0.91110516430162
538,1.2983580272403994,2.1552023267465215,0,0,0.5625609156560556,1.7898028297579418,1.1939612098417693,1.5839805325695075,-2.9318479626489458,-1.329655538802322
539,1.3930119472624225,2.174719072748843,0,0,0.54830846981912,1.6566016512293427,0.6178601356030845,2.4607812756676593,-2.602210607418389,-1.7659359726013877
540,1.454633922504571,2.170979340457901,0,0,0.09197756869400091,1.304389685802217,0.5587592806444809,1.7975664768033843,-0.7563864067185115,-1.4894130902404465
541,1.4826851325581811,2.1459854714260653,0,0,0.008908767885103395,1.3861598672799151,0.4539805496645807,1.0944451650874292,-0.6012105263368736,-0.6419147077522026
542,1.4802932411162086,2.104700906390714,0,0,-0.19450059590383703,1.2597944973045503,0.27926581736232914,0.8066877291666874,-0.6004041490785046,-0.714739465945513
543,1.4531112127492483,2.0534679053254767,0,0,-0.5630299874812752,1.1797608505296953,0.05379419859648206,1.1842801932580012,-0.3024748933982612,-0.6765240113795765
544,1.407965415954388,1.9983796195490524,0,0,-0.47233981968740035,0.830072709241005,-0.25304425622482735,1.5503294734249242,0.3759080022531875,-0.6471527416741909
545,1.3515946301768629,1.944065848662296,0,0,-0.5177455119029074,0.5397171185936597,-0.46163748934327176,1.65906897662673,0.0152535854717824,-0.5078018521017901
546,1.2897220404026948,1.8931329408846242,0,0,-0.48797213077699,0.45905483344662107,-0.6444109267450581,1.3812974568240166,-1.208657574521057,-0.3557761561228482
547,1.2265970318801327,1.8462659340326264,0,0,-0.23237314107244397,0.9149419601399111,-0.8277593082133754,1.338228201774324,-1.8388516643141963,-0.2934497501814202
548,1.1650061440896275,1.8028349201466847,0,0,0.4099667905490565,1.652212151756677,-0.35692996781961345,1.2493917230602793,-1.5834048768779088,-0.2722629206738793
549,1.1066185599998846,1.7617716847491478,0,0,0.6113318179661723,1.418904793785759,0.09618248340552304,1.2530299124119981,-1.0170427129149036,-0.19889679258499654
550,1.0524553067053861,1.7224881926041433,0,0,0.29130879741921617,1.0972006398996468,-0.08715125599470896,1.335923325260414,-0.9169151031770838,-0.3064165288020882
551,1.0032893318852838,1.6856608309832894,0,0,0.06130438278669256,0.904889588994868,-0.2342644735427173,1.189329028837209,-1.0379211551744192,-0.5371636267790705
552,0.9598782302754761,1.6537554132786116,0,0,-0.03724846644613388,0.7701973598744096,-0.14069110780857938,1.04541050745543,-1.3690091458670983,-0.8226822513857361
553,0.9230398727446435,1.631191400894105,0,0,-0.06498334492996394,0.7210086065699737,0.019195710588470614,0.8082544389216814,-1.4863825127309345,-0.9913933914056215
554,0.8936449432407094,1.6240553450530737,0,0,-0.03765342884036884,0.8019786662626879,0.014605856377168996,0.6663725193088542,-1.8100432363047325,-0.9021279079187104
555,0.8726021686746455,1.639310685502669,0,0,0.045901906201887,0.891986628423266,-0.061950144871699954,0.7081157175694024,-1.8864236596964248,-0.7103540379728394
556,0.8608718490864982,1.6835400261955293,0,0,0.1080935374618112,0.9613449315899012,-0.12140660214769136,0.7032825532892173,-1.7237176416633821,-0.41249453516989903
557,0.8594943528306932,1.7613952984483723,0,0,0.051726368054210964,0.9844817525589126,-0.05856230596844376,0.3984077268427104,-0.9013173415253739,-0.37364468149390234
558,0.8695899256429743,1.8740856687164078,0,0,-0.03124481068498041,0.9451128399046618,0.0266999070777477,-0.1535970228190424,-0.5773104600423661,-0.46253951679830485
559,0.8922862388039018,2.0183331332787247,0,0,-0.1403160797989519,0.8657254519762826,0.0036634701942561687,-0.6777103281530239,-0.697555701414627,-0.20443909064155874
560,0.9285547969697322,2.186192022957473,0,0,-0.1472866341714273,0.8525604223243621,-0.052917986380681736,-1.3246945176318363,-0.8203339872437834,0.24841415238805623
561,0.9789696685794617,2.36592704454582,0,0,-0.018089854291559796,0.9966346811070024,-0.022937063702916698,-2.0948316341199473,-0.09753403054542596,0.985487030750506
562,1.0434255979714346,2.5438272162115427,0,0,0.11545912754069103,1.1242844577575632,-0.02827798701151773,-2.874364193025567,1.017150729344176,1.8944508826035376
563,1.120862160183542,2.7065214493568988,0,0,0.12858913839856348,1.1055443651515684,-0.10171572177815187,-3.0207538001191576,1.0783592472095267,2.3091943491956317
564,1.2090429650805394,2.84318712600938,0,0,0.08074742335545822,1.0084818393955006,-0.11418328840152106,-2.7092277120720074,1.1562366586382204,2.040720141263973
565,1.3044410168818412,2.9470843744704056,0,0,0.08175108275193368,1.1161192948578296,0.02880330454314177,-2.5518282474751497,1.1100419643538977,1.0985865212008274
566,1.4022782932718754,3.016085280991795,0,0,0.1974581568828763,1.3105847665011463,0.16787007688966815,-2.810684510331095,0.418794958679641,0.754987992491043
567,1.4967471584185545,3.0521837506705993,0,0,0.3220009699396525,1.503239348350623,0.3825065447634543,-2.7609030814726774,-0.31556958138162633,0.9164329974742635
568,1.5814019320484565,3.060233238094171,0,0,0.43482850737786255,1.6137898424371728,0.3622640738378989,-2.7539154861684274,0.5185290638698002,0.9460242013877486
569,1.6496683705159454,3.0462976065575487,0,0,0.5204544890640083,1.6734429017726038,0.1930176388348855,-1.8558213976744014,-0.05913992580118534,1.789584000348845
570,1.695399753465887,3.0160261281942025,0,0,0.3810113459970753,1.6486033753384162,0.13805494421664904,-0.7555465031784622,-0.7691956023010919,2.1849989235892338
571,1.7134185986785686,2.9734133302143686,0,0,0.021279821004790884,1.4988395209492358,0.050266907261571375,-0.6191897449184901,0.06006256565326741,2.3207114295626248
572,1.7000093403895626,2.9201951403050517,0,0,-0.47730538977432424,1.5369733299235933,-0.13462862182832103,-0.6709370024813269,1.7504703146862712,2.1467387888238965
573,1.6533458148709232,2.855972394686614,0,0,-0.9030307979269766,1.600246152134219,-0.26897454325582126,-0.7088574715133495,2.2837695103857345,1.7121147560831091
574,1.5738340113683453,2.778971098565925,0,0,-0.6812919868741504,1.4493440164222733,-0.08576222467987664,-0.8448347439819099,2.7434714368844264,1.219035102432146
575,1.4643340455802614,2.687199871456412,0,0,-0.33609675103790343,1.3446851175472392,-0.20311030307419922,-0.6654594849230046,2.810598573125376,0.8438299662027482
576,1.3302164406783399,2.5796951098951713,0,0,-0.04458675912746098,1.3374850675899255,-0.12497208076718304,-0.21467725139291696,2.7586679902912645,0.48261052579354546
577,1.1792143869899214,2.4575634509839612,0,0,0.09194140018355318,1.2721244388777107,0.004230405568719452,0.2932603192275137,2.4807710544927124,0.27849575946768446
578,1.021046238238742,2.3246122734765913,0,0,0.17069023113690038,1.1675375598585638,-0.026740422883846246,0.7963632948507698,2.1356920461790905,0.18113194382686099
579,0.8667946905855137,2.1874590618291405,0,0,0.20516341220886364,0.9936409107655142,-0.18613190036875543,1.411993471729235,1.9029880974587885,0.12071628786181429
580,0.7280485247554941,2.0550946064046767,0,0,0.1754455986631714,0.8037198349029521,-0.21280323431613124,1.8554175207781205,1.380588390887176,-0.0003583954464888765
581,0.6158490342306874,1.9379347394518536,0,0,0.045511435795797674,0.5702745489737407,-0.2004680255420241,2.3144255554455415,-0.21480591041418187,0.038183952572236786
582,0.5395338639948946,1.8464496661713512,0,0,-0.08195386006095182,0.34283686613976444,-0.18729630480743842,1.9919367108994808,-1.2861107135737542,-0.01983752660085333
583,0.505620821447885,1.7895355238982906,0,0,-0.2221774733037806,0.16418483979536966,-0.1571738341832858,0.8532605649782056,-0.11930474096792808,0.1865290496161533
584,0.5169037596755385,1.7728910232511974,0,0,-0.3085494810469953,0.11107440898729289,-0.12684102442498257,0.1481429999217864,0.6118263487489993,0.2738395598510728
585,0.5719282153327401,1.797735347311177,0,0,-0.3324608272787595,0.14354111763234975,-0.08780398297174233,-0.23556223609340113,1.8816489850781177,0.2247154783000217
586,0.6649750109792142,1.8601808702196156,0,0,-0.2713521677619703,0.25153800991263636,-0.06039307310135759,-0.38024564444642717,2.2519038084665324,0.20944425831656047
587,0.7866140110706591,1.9514399477131368,0,0,-0.18842486249653703,0.3846941668563645,0.044526809637340445,-0.422476694698203,0.40442280940425257,0.38504992672978494
588,0.9248054736489055,2.0588685984127677,0,0,-0.10756980096321636,0.5810940092679788,0.3701021937374354,0.46648390032342585,-1.8249521735715397,0.3168102184413983
589,1.066425840588945,2.1677004809021923,0,0,0.05843103398692942,0.9408230349675124,0.9309073120719297,0.5197073975651236,-2.7105683109123224,-0.2591324179960031
590,1.19898731811264,2.2632027815000963,0,0,0.24588143900253956,1.4446080638411678,1.1634796608091216,-0.12015841216600692,-2.702942544200017,-0.6279358351999896
591,1.3122371205968486,2.332885509927729,0,0,0.5702601231719496,1.739414034446224,0.9977473453633804,0.6634165471493041,-1.8457270472056677,-1.2487749429376738
592,1.3993118548424237,2.3683608633270405,0,0,0.5133883923814633,1.5291719613721084,0.6566702627021191,1.6476981121399061,-1.5303333457579895,-1.7710117842042523
593,1.4572182898467128,2.3665119450798566,0,0,0.14609508786944742,1.0660743547018339,0.5415146811362433,2.3404523332682157,-1.1424263592107777,-1.5415711133424375
594,1.486591656867154,2.3297616010654005,0,0,-0.09143280502453859,1.12025115195659,0.5398446622899101,1.8052058413484464,-1.711502122817515,-0.438526917922878
595,1.490869910850349,2.2653914487695253,0,0,-0.010811000917653867,1.3190645025275138,0.27132990669311424,1.3860991696414033,-2.2488946872682543,-0.3615989262711867
596,1.4751378636643793,2.184033663144908,0,0,-0.43552317540077007,1.3614746804594628,0.3073817383521815,1.2931785260818023,-0.758252875103758,-0.7152292668879651
597,1.4449145632351597,2.097626207033329,0,0,-0.41478179029255646,1.289765802963821,0.061813752624069934,1.2571155761317712,0.5419736827707985,-0.8021395567320116
598,1.4051150438535565,2.0172422161683903,0,0,-0.5898208217236455,0.6089587181783594,-0.4180865437937438,1.0079158350168362,1.256348764141413,-0.736246357912459
599,1.359357334702736,1.9512309735356403,0,0,-0.5654844882622295,0.5250782130945482,-0.5916521053133178,1.1693015370312665,0.43719289765619,-0.3025295845937375
600,1.3097179848062661,1.9040308127610228,0,0,-0.3599217240453006,0.634334121719283,-0.7599317383847316,1.4483709174010793,-0.8180435472079619,-0.18757503326270505
601,1.2569489347278144,1.8758631416523524,0,0,0.22517580377792493,1.356485834327978,-0.5157953221569223,1.1109122556229207,-1.0835509794445526,-0.29245434951300764
602,1.2010538221660068,1.8633355664309859,0,0,0.6267632940829612,1.7198703026464968,-0.12491000689046768,1.1945891560975628,-1.2057335970075913,-0.4918546953884037
603,1.1420191484363238,1.860806104158358,0,0,0.5787956553123789,1.4015184057507715,-0.21145264435476754,1.2996532149147169,-1.3553862677905537,-0.7087344530960032
604,1.0804599070071186,1.8622149938569603,0,0,0.2693224411141972,1.0966792405265957,-0.26249296666263494,1.248835810975609,-1.2720002560975614,-0.8721963743902453
605,1.0179967098962175,1.862994637142625,0,0,0.10837667760503755,0.8642178924181885,-0.2574603884810894,1.2019873956083078,-1.630364557922861,-0.9606550570207735
606,0.9573014664197176,1.8616335157404271,0,0,0.14300723700164955,0.7724625286790712,-0.20163253356199803,1.1074746109797708,-2.367792766078918,-1.0198304428972178
607,0.9018648017351887,1.8605049953704647,0,0,0.0560695520859709,0.7472502631436228,-0.04353461092792122,0.9877337200080983,-2.4662472912920137,-0.908778351948146
608,0.8555997544089585,1.8656899890460554,0,0,-0.0933807341376066,0.8019776672267811,-0.010426891695403966,0.8993130875152252,-2.235527581546894,-0.6978114064555417
609,0.8223965474986429,1.8857344116331407,0,0,-0.23045629554349212,0.8370859647266838,-0.03304369860956044,0.5524997125447859,-1.682993580884082,-0.4244491642134556
610,0.8057084294393398,1.9295658247140135,0,0,-0.2224064717354649,0.804998788565249,-0.01568775740446825,0.24157403930206958,-1.1590318658243572,-0.36900155761733855
611,0.808209917125179,2.004070918142506,0,0,-0.12570366741694403,0.7304930662452009,-0.09079602504297404,-0.1038916617188931,-0.44346587832616474,-0.21320311499999675
612,0.8315444045797693,2.111995697271548,0,0,-0.057876129807179814,0.7179991599076272,-0.1103895904192732,-0.4485520986626454,-0.598525502331331,0.02198939973785881
613,0.8761677563943836,2.2507843102421674,0,0,0.02783327936047501,0.8142109018287653,-0.09667948841384653,-1.4087337540094385,-0.7045840881367903,0.45508237122641776
614,0.9412862560988512,2.412705297228536,0,0,0.1417503243422145,1.0191070979503125,-0.08900704527389165,-2.2337208039371683,0.2323620781865217,1.1659935733346605
615,1.0248728145663029,2.5862094100931237,0,0,0.23958215801009833,1.217464321836619,-0.030060768534708557,-3.186004247787266,0.7666698434808497,1.8581408320301767
616,1.1237309568511107,2.7580789989571595,0,0,0.15088233002195858,1.2251701169512563,0.03994812659130431,-3.014517262544438,0.6050882472342943,2.3457672778546064
617,1.2335775413956844,2.915722675108891,0,0,0.050169296361556696,1.0778062090570375,0.05192865212020476,-2.6441509655369506,1.2106422102695122,1.963755482319294
618,1.349139250113432,3.049012505467937,0,0,0.15135238802003126,1.1301724285711419,-0.03280396089943931,-2.527698117134914,0.8936605924977052,0.8752130570855431
619,1.4642895944870413,3.1513008602142523,0,0,0.23623071256633782,1.4269901302007866,0.14663002352508736,-3.232096606521311,-0.13085317010120792,0.7292987164492826
620,1.5722663706987738,3.2195508771003425,0,0,0.3257085574970775,1.6019130776515478,0.3912948418462322,-3.357875694513397,-0.551748577573074,1.0059854018582266
621,1.665993944145057,3.2537443750748567,0,0,0.4360981438815852,1.5754875411938754,0.27994731145203927,-2.463711735099824,0.8557791469369966,1.1948029645837666
622,1.7385069088020453,3.255858132715004,0,0,0.502315098823906,1.6113654912673778,0.2494227935830369,-1.4362720124625101,-0.2263628996640215,2.0854764032806554
623,1.7834539354745884,3.22874694902853,0,0,0.3122755973454084,1.6090248457481444,0.16621772887626993,-1.6722228439655429,-1.065022903428743,2.2560562863832194
624,1.7956561834056897,3.1752504300117725,0,0,-0.14658033460270523,1.60008828052452,-0.10008692548969204,-0.813833226855102,0.41556417843754523,2.4060732750687115
625,1.7716883491008195,3.097741938810237,0,0,-0.7344977619447355,1.6713613749930345,-0.20956306960840104,-0.770177980056253,2.130516082888152,2.1980989411929888
626,1.7104294421306665,2.9981806002740874,0,0,-1.104075467505222,1.6156900776328234,-0.1849826126061064,-1.2874357210110507,2.6841558605055207,1.5367795652448788
627,1.6135005207034938,2.878564865380406,0,0,-0.9241782785766958,1.5218122859960004,-0.07813863506421827,-1.250233018552949,2.7334335607922395,1.1229060382780907
628,1.485490344747595,2.7415782853013244,0,0,-0.5821220593905251,1.3617264704129954,-0.18346649783717073,-0.8147066981563867,2.6789864008296154,0.7357450803195479
629,1.3338862564664056,2.5911973325938455,0,0,0.05523066568417483,1.3938378788212697,-0.40688025530242716,-0.15246491367501172,2.473191169476076,0.3735341349278572
630,1.168672882356068,2.4330846674659337,0,0,0.08323756207870409,1.1578545309766508,0.15824684402916078,0.42241748571285315,2.251479849682293,0.15042660465448945
631,1.0016139381331945,2.274669631506792,0,0,0.17864517679363476,0.956507815046445,-0.17412759299677777,1.1186635747169622,2.1566614984309833,0.10294292238212682
632,0.8452747906067607,2.124873783997319,0,0,0.29760443259270586,0.8488623151638729,-0.3173122692147786,1.7713916672052834,1.7411428739676356,0.009353256870733625
633,0.7118719794650676,1.9934649213546018,0,0,0.23645791628757704,0.699885981255069,-0.24292779370657225,2.2531284120665798,-0.37790621927092544,0.001938320126766452
634,0.6120559961171845,1.8900489585184148,0,0,0.02856872427634189,0.5238713515838147,-0.21816227445265482,2.074409725367007,-1.5822883321785128,-0.026877710951261683
635,0.5537515818171014,1.8227721365764187,0,0,-0.16160209609568674,0.3320943079910801,-0.2059981145320851,1.2599315832678606,-0.40590316736054965,0.03280629384210651
636,0.5411958744666913,1.796912921859764,0,0,-0.2853833104458706,0.16811438776564708,-0.200230690830828,0.6083919646303149,0.46548373145665817,0.035989216412038616
637,0.5743198529416054,1.81365096354478,0,0,-0.3406932292443445,0.09086610606720591,-0.15728263176966856,-0.020963252292346957,1.645400367721843,-0.04671496053106668
638,0.6486011424407092,1.8693359160412684,0,0,-0.2809019835137864,0.13845245910335066,-0.10893374282282854,-0.8624303062843572,2.214179642890841,0.04238267652984636
639,0.7554710462136248,1.9555034385239918,0,0,-0.20146606673439849,0.2701008018924746,-0.010683018231106711,-0.6499192987794562,-0.10939130640632093,0.13006390300639167
640,0.883285522793183,2.059739372834145,0,0,-0.17949387616460025,0.443603537501048,0.4325245650515155,0.8420777300000261,-0.9480628400000881,-0.04398229700000853
641,1.018770152353946,2.1673333066183034,0,0,-0.03132483596039161,0.7963694405500817,1.0340137623430374,0.7423833419758074,-2.0933752664473055,-0.14542949561450896
642,1.1487344731905198,2.2634898434318815,0,0,0.22255148750496787,1.2542960149848859,1.1275475198290774,0.6214093749439397,-3.137270960953146,-0.3385304110712889
643,1.2617564107122405,2.3356752926035655,0,0,0.4834022956060153,1.517612592714647,0.9279904092402006,1.657258465239597,-2.93693473193244,-1.1034664125294649
644,1.3495128886628078,2.3755471376911887,0,0,0.4768667571718973,1.5743084483955414,0.6323132541327904,2.1048341344043053,-2.515742909618893,-1.930101814088984
645,1.4075077522152115,2.3799608310524887,0,0,0.12978805508146327,1.2441130322228267,0.5904328220678011,1.896833145800782,-1.1740166216910264,-1.6946891529041779
646,1.4351026977985746,2.350808389267742,0,0,-0.047795008856546056,1.1259244290704367,0.5451555772859312,1.0080107873837396,0.4766253356449298,-0.4749840331419141
647,1.4349289519151862,2.293818908347387,0,0,-0.2864360451359497,1.165056091914228,0.25495301785463215,1.1772372725267988,-0.7469939394497234,-0.5011878682419537
648,1.411881771707202,2.21676540668113,0,0,-0.4001016158024171,1.4087314697250095,0.24617015638152911,1.6063637148014396,-0.7225536158604167,-0.5994284231227431
649,1.3719468010478466,2.1276305930670447,0,0,-0.1463653792310741,1.249187921216554,-0.019083221397584994,1.7527044990869078,0.5487278564312349,-0.6866256451965074
650,1.32109255249206,2.033174908987299,0,0,-0.23030082795534423,0.69307115309151,-0.4547908569790488,1.2105312761199951,1.3137562360199948,-0.7448344333640046
651,1.2644196696304022,1.9381366381874732,0,0,-0.4640007873192202,0.43767231322998873,-0.5164421692750066,1.491123215457232,0.026775899468415108,-0.8627995783185844
652,1.2056971701021353,1.845098875692996,0,0,-0.43118825644856246,0.730875182593704,-0.5855815990623108,1.3900592952789588,-1.2259305343347706,-0.580583294563658
653,1.1473272735006708,1.7549286653332445,0,0,-0.010519278220556422,1.286951487097944,-0.6881951813971936,1.0979174075652065,-1.2159687980489713,-0.41265011117061534
654,1.0906661030109206,1.667617345613041,0,0,0.5276696849335888,1.4821926397561656,-0.15945068830743564,1.4763647485175229,-0.9526233588274883,-0.47056999879861483
655,1.0365283867783053,1.5833092686437817,0,0,0.45001007029064805,1.1919109924424673,-0.1192229536941408,1.4784187113432734,-0.711382470388068,-0.6162439596417935
656,0.9856734091277451,1.5032928199173587,0,0,0.19235849985190281,0.9704275672196663,-0.284398505053717,1.1172518075766567,-1.0818573518298715,-0.7021012028288823
657,0.9391227896113733,1.4307429784908456,0,0,0.06806868601475964,0.8446899631318426,-0.21289688787951278,0.7997003339614942,-0.9433103136567662,-0.7397228144827566
658,0.8982607881091864,1.3710453921046568,0,0,0.0076989458719199525,0.7440180142591871,-0.13655069299794614,0.6932501494139248,-1.1647040111706222,-0.7038019964804895
659,0.8647568755949782,1.3315889721768155,0,0,0.03342275650226817,0.7665657393497243,-0.04342481406570493,0.7216808898234346,-1.6081694105938968,-0.6951082203852325
660,0.8403929167313255,1.3209798480893638,0,0,0.027539062259700663,0.8046431034970243,-0.0085227272643839,0.5916445242246536,-1.70471328121272,-0.6186094567594445
661,0.8268737370179844,1.3477129857131587,0,0,-0.05466186924628867,0.7866560684858429,-0.02858122255980825,0.4926134349980064,-1.6178742586220045,-0.4983725612544758
662,0.825670756465836,1.4184596094545336,0,0,-0.13418888447462582,0.827407864175421,-0.040615807260380096,0.30453778143225213,-0.6919482592403635,-0.5120194460494566
663,0.8379153613942991,1.5362855832799687,0,0,-0.1768698735550258,0.8302510049594274,0.015564161820405455,-0.15378871465134636,-0.21948275203644926,-0.28742661118463303
664,0.8643342016855857,1.6992493689520798,0,0,-0.13589388859536017,0.842978577687188,-0.04018653347722946,-0.277949943060436,-0.5134429266276926,-0.07803863216373808
665,0.9052054534508788,1.8998438055470637,0,0,-0.04222212822782488,0.9247116943645752,-0.0686950620695378,-0.8126238812251279,-0.640808977768925,0.18626814855579224
666,0.9603108474263056,2.1255827489602392,0,0,0.04006459606077192,1.0702532526444601,-0.0020635088969020404,-1.7249056346858138,-0.6008282794431057,0.7564210441368749
667,1.0288604992134942,2.3607214324151835,0,0,0.12218131752089315,1.2021047370941518,-0.030851946115301808,-2.4276733028640747,0.22907237074629364,1.5463107738604613
668,1.1093778949009558,2.5887512992028086,0,0,0.09213497420197814,1.1576671942002554,-0.14214579165951025,-2.8258089633217844,0.42204504180558944,2.0184925009436863
669,1.1995550916301687,2.795060354547264,0,0,-0.03432805162875314,0.9541868665678856,-0.17401924953324646,-3.1166344,1.2338329108452477,1.960887463306532
670,1.296120747281516,2.969090634833415,0,0,0.023249185719602286,1.051200909282958,-0.05813327366341151,-2.95293521600637,2.3168100168425227,1.5076574890503647
671,1.3947887089865276,3.1054729997874424,0,0,0.1675576730027766,1.2986639189597728,0.11143119705972436,-2.9117812628959294,0.7905774817626913,0.5990734141648468
672,1.4903502145474719,3.20392086602814,0,0,0.21982285351817868,1.4772577905167543,0.2355541462323007,-3.046238852210778,-0.6530562168746028,0.553937998970325
673,1.576933638586937,3.2680127468340436,0,0,0.33633147440012096,1.5965734301568246,0.27514848512985657,-2.87319031328839,0.04206289471235498,0.6420369007000788
674,1.6484036238955782,3.303273496563616,0,0,0.4862148333161429,1.750882879875555,0.12330292554695432,-1.855116635383676,0.7302930084944244,1.6214418627416682
675,1.6988362398156065,3.3151020399645414,0,0,0.4394519112508889,1.7994425646588705,0.13590183770161934,-0.8677861587928632,-0.37515311829157155,2.4609059372970057
676,1.7230045478318983,3.3070772102946906,0,0,0.08496284468784515,1.5406085984292213,0.1421193641416994,-0.9746316933891279,-0.03854567042800523,2.6964410174935294
677,1.7168347213522903,3.2800329262747647,0,0,-0.382206186789872,1.403003725036727,-0.11347800156519566,-0.9565078222563216,1.5098589116461596,2.176669842785899
678,1.6778246451621317,3.2320768724174602,0,0,-0.7711766772829742,1.48162465009199,-0.15657356783752227,-1.3029977891717222,2.4446849598590306,1.6249082411004472
679,1.6054277649178448,3.1594894236536817,0,0,-0.851128122850416,1.4663405897800534,-0.05597934193151704,-1.2732583514296816,3.026998703053878,1.2797474891655343
680,1.5013847069354238,3.058237787315696,0,0,-0.5853313364627358,1.338298183554849,-0.24984905269573487,-1.292956882225777,3.171942077421936,0.9717420931545206
681,1.369951109296068,2.925719523434501,0,0,-0.0009741483565130657,1.3518404989702706,-0.5344552396460556,-0.8477804174212608,2.9993710566844873,0.7428470373143151
682,1.2179480772563596,2.7623336927692326,0,0,0.24517754782266016,1.309659671586718,-0.040031802673895105,-0.15773708127451938,2.773388451608332,0.510814920169935
683,1.0545622353273718,2.572554626272766,0,0,0.3493835660323032,1.2566813185586017,0.04997312883031197,0.5594230111211788,2.610397694072726,0.3480001948563353
684,0.8908426044846778,2.3653051357358055,0,0,0.24732995982540318,0.9850239710457497,-0.23359574647022607,1.1060100890769722,2.419563335026202,0.28375674869004397
685,0.7388797382952975,2.1535434134152793,0,0,0.14336198619704468,0.7124075921212524,-0.3261410383859968,1.7279201221634979,1.931787899064624,0.20235811160634612
686,0.6107081824492365,1.9530762950256717,0,0,0.08962368011624833,0.6084809819629461,-0.27526933613530197,2.1963109604240523,0.0871810470669991,0.3374491038162633
687,0.5170377209483605,1.7807101875981337,0,0,-0.043731961653235334,0.31964256585513673,-0.1976923227597689,1.8684177462019937,-0.5308158315582918,0.28404516458887985
688,0.4659753006582364,1.6519674884466617,0,0,-0.10532153841084782,0.2107673695341926,-0.10463940237933028,1.1471974476274158,0.17529738717047458,0.3006187120210896
689,0.46193163008107874,1.578716587550578,0,0,-0.17778960298319751,0.16409140604932146,-0.07130351595338846,0.7799762943767229,-0.17358145494691582,0.025334212864334973
690,0.5049038440872788,1.5671412786149221,0,0,-0.21488687340477225,0.17797807868254178,-0.07048493717859984,0.2672764056684292,0.9162080566845291,-0.18275323315508107
691,0.5902859466370193,1.6164602937943162,0,0,-0.191372783847407,0.25163931270240414,-0.06967261620046619,-0.8183341142540995,1.7588045489631352,-0.11205404572920964
692,0.7092881701278775,1.7186869593877727,0,0,-0.18537810498630514,0.3246055813325838,0.007691100377092288,-0.5972006017343489,0.17253334919682223,0.03844878546965731
693,0.8499549139892016,1.859533052607146,0,0,-0.16566347284658836,0.4869129805709761,0.38721752957203764,0.5936220987576201,-0.8059752438374522,-0.07930406391834145
694,0.9986664694162054,2.020358897363494,0,0,-0.08906699215270504,0.8070268247640051,0.9005679811954329,0.6575609110074442,-2.1451667563308616,-0.5457882260446927
695,1.1419031275551834,2.1808650388539346,0,0,0.1265434855123674,1.2846161199052821,1.0760886126433011,0.6433615623714504,-2.8090546030983257,-1.0080073093148407
696,1.2679677092948918,2.3220222131639727,0,0,0.33586789221367425,1.4663384271147497,0.993997847425361,1.5969851715772847,-2.8518964296236837,-1.6626347983186684
697,1.3683433390393203,2.4286222969421414,0,0,0.31844638286964855,1.4951699706559582,0.7311066388031682,2.2260865519816795,-1.8178920136028038,-2.315114535929103
698,1.4384326534743916,2.49090400632422,0,0,-0.017396507448496443,1.4011114943739995,0.6817354500749957,1.766193102039897,0.4606320215951737,-2.10750148808532
699,1.4775671048467665,2.5049827033054037,0,0,-0.13455230767796755,1.5248064183137844,0.7634712062892741,1.4715773489100505,0.7157438851906472,-0.7638328782015952
700,1.4883416005979182,2.4721914458518803,0,0,-0.10562187787185334,1.3655697907476911,0.1672437934513973,1.203985454491503,0.1456146163197432,-0.6543777200237421
701,1.4754726535087317,2.397751210526669,0,0,-0.4239288784287981,1.158623341606551,0.09899415692280743,1.6175569279124271,0.4307378597458883,-0.6440103281078973
702,1.4444722243464745,2.2892964504001614,0,0,-0.35017923324543193,0.6777499868629903,-0.20196969139639148,2.0342014072668557,0.7451420035042348,-0.5593119923253947
703,1.400461576904817,2.1556701843564094,0,0,-0.3834751916825977,0.418022396941771,-0.46363309049929896,2.094598252515522,-0.058685552001619797,-0.7835825488675104
704,1.3474048379280203,2.0061734889110316,0,0,-0.30198144914390157,0.5302133651952398,-0.7305116902575778,1.503003515724266,-0.898196415908142,-0.5646273996323468
705,1.2879135041371483,1.850241838938905,0,0,-0.051358987497112804,1.1110642423412405,-1.0172041990094174,1.3083034143029506,-1.707507044216458,-0.24001387594046436
706,1.223586795190029,1.697396764792558,0,0,0.5595504828155057,1.756523135532688,-0.5190769199236328,1.5878039057383242,-1.1760428878730185,-0.06824198848508164
707,1.1556762307723696,1.557283076620881,0,0,0.7677836315340933,1.5196201930115867,0.07145665272731105,1.545631315789467,-0.4548026184700128,-0.1801572033353839
708,1.0857764095410074,1.4396219122453087,0,0,0.3704745914163386,1.169007957235376,-4.6756991722291417e-05,1.2474941250379288,-0.48246577443096805,-0.3406441803945457
709,1.0162864326177488,1.3539642086569237,0,0,0.06513081121830963,0.9742878948497081,-0.23300554976270643,1.0255526878404844,-0.7753185949127943,-0.6344419147952226
710,0.9505230740315818,1.3091921117508984,0,0,-0.1191991361264953,0.6949457375874114,-0.15037488080892453,0.8947218893006591,-0.7445158736521179,-0.980659239390315
711,0.8925156034726259,1.3127662914000287,0,0,-0.16333166455385334,0.6177107372023322,0.06797587024910784,0.7259222628141785,-1.2755953289236472,-1.029590993024651
712,0.846603498350612,1.3697597261465406,0,0,-0.08958094380360133,0.7565890883707632,0.18601377230402774,0.5082244947782659,-1.498505360047943,-0.8569103481422237
713,0.8169719697923865,1.4817804488680733,0,0,0.03817615047371497,0.8678067375302372,0.01450742580987098,0.4888196819710988,-1.1875134569364416,-0.5742790143716494
714,0.8072198817017009,1.645983580543227,0,0,0.0021208081111284815,0.8684798902862098,-0.13925474688529835,-0.04117521244278163,-0.5445082745731479,-0.3299898485680976
715,0.820001173001566,1.8544781966081427,0,0,-0.08310216191337433,0.814036845523679,0.00318594628639046,-0.5520295914443965,-0.25756653577787386,-0.1068227181031297
716,0.8567460608390971,2.0944700185865015,0,0,-0.1594016773670868,0.8060369663377605,0.1105423944898855,-1.1054588659094686,0.09009378720382939,0.18062513585461382
717,0.9174595928482308,2.349367131578593,0,0,-0.2151904400967503,0.852595782047201,0.07465533279230754,-2.0508242346914667,0.276701471521884,0.8567057663870853
718,1.000600090908104,2.6008040649244966,0,0,-0.20666232243101437,0.9771051020672639,0.025526742561920418,-2.935975363760156,0.7079478311167334,1.7844702038856082
719,1.1030437311601908,2.8312065319582063,0,0,-0.019831171006170954,1.1222533513698725,-0.06488036115144233,-3.285992067784991,0.8368153171482379,2.519758449485323
720,1.2201390801879748,3.0262839475618692,0,0,0.1470470101557557,1.3137190842777244,-0.10488991111318167,-2.715856582628725,2.1179866763774964,2.1534740439390734
721,1.345851752246115,3.176825079760055,0,0,0.24121396922806643,1.2952403970462163,-0.10585365900731053,-2.7582510276139014,1.2664194142703742,0.8565908138670943
722,1.4730011126308638,3.2793934035608516,0,0,0.3196459742173963,1.2522632282513277,0.10203798181090934,-2.9675723403431755,-1.334555482841175,0.614984111316834
723,1.593597793049578,3.33585879856424,0,0,0.4074295451885685,1.3822755708562287,0.1661513552106842,-2.8785444907212367,-1.4422073863500748,1.1245506531492169
724,1.6992923622932266,3.3520070811589946,0,0,0.4484025598683581,1.6801540416759926,0.38301670927887693,-2.3391800269611642,1.136731027139482,1.357765739619656
725,1.7819310042889225,3.335648491981204,0,0,0.5690646579512451,1.8696522482893108,0.1974040235098737,-1.7856732650079323,0.8927201742683156,1.8258315068993216
726,1.8341879463587134,3.294697298642524,0,0,0.34398212575652565,1.743041194365369,0.20716706817508457,-1.4476554046627776,-0.8675518253671978,2.457939897578542
727,1.8502255880110479,3.235644936083116,0,0,-0.1812407740116281,1.5262477634521585,0.04803158688339633,-0.5157349059713395,0.16264869642736193,2.3370711334447516
728,1.8263315539901643,3.162718693697219,0,0,-0.6771524973099363,1.6037205228506768,-0.14582830917366282,-0.23223778654287036,1.7746417233983618,2.2758176340451826
729,1.7614823140872238,3.0778291016513872,0,0,-1.0758851263611777,1.7449195218163158,-0.11606516613059101,-1.100412320253948,3.125262408232507,1.63253337066054
730,1.6577669392263432,2.981203572740935,0,0,-0.9965426279859594,1.6109347663896258,-0.09668093797590008,-1.2752718901394415,3.046589434960158,0.986519060468126
731,1.520581599657759,2.872444431411278,0,0,-0.7699599817633532,1.3649467560344974,-0.3246804708054433,-0.8607728427060998,2.795524729230765,0.6215813369230697
732,1.3585070669446062,2.7516941859437454,0,0,-0.18637646745133166,1.2644684253267293,-0.6378987110052041,-0.11143529782291609,2.5447307380116917,0.32106103481547854
733,1.1828222282948722,2.620642321182638,0,0,0.22847212927357743,1.1643025132892657,0.18309711661939188,0.48130566866466823,2.418789240960961,0.16847534552352286
