id,ASVM,GSVM,walking_nonwalking,normal_abnormal,ax,ay,az,gx,gy,gz
1,1.0087668066988507,0.11633848484419078,0,0,0.07324218769916332,1.001953164434338,0.05566406469079655,0.016493361,-0.07269296,0.08827003
2,1.0052590823422818,0.30191152723952314,0,0,0.07318952615756662,1.0038403999700587,0.051823638290599335,-1.1717186128241206,0.7539322060301508,0.03450670396824121
3,1.0019562707912384,0.46850661470663185,0,0,0.06836488714742395,1.0009655648621212,0.05566957325328068,-1.194078659368797,0.718606672695514,0.032655524050218335
4,0.9990478158943135,0.5985146174895748,0,0,0.06072108154776574,0.9981775885002827,0.05175781128112047,-1.2505243058448035,0.7499161845800918,0.07051338103371235
5,0.9966753054986104,0.6798225014731657,0,0,0.05486416440767169,0.9942583854879973,0.047110549989786005,-1.2611554872896455,0.7017028187685606,0.10480571884577312
6,0.9949420204896965,0.7072399386346456,0,0,0.052734373103965164,0.9914809284451149,0.0449218744423427,-0.9727865986920331,0.4281698734482758,0.10537171494054696
7,0.993927717561145,0.6826022480166565,0,0,0.050344273402268665,0.9831502223431717,0.04253177387302554,-0.13087927662932095,-0.05334125236074698,0.010557266652363916
8,0.993707878720328,0.6137182417969818,0,0,0.044784290671934346,0.9785157010803894,0.043597984664500114,-0.0016097371431105204,-0.02649006337957432,0.01714579919137416
9,0.9943763696115742,0.5125709410628321,0,0,0.03708549409647766,0.9876620716576848,0.04719654125441169,-0.00920741024442326,-0.03895037558551001,0.017254992862726408
10,0.9960689525429185,0.3932670951756676,0,0,0.010445630514162786,1.0014009654397753,0.0429687507966533,-0.0047993364470874725,-0.06675948510582505,0.012191675900917773
11,0.9989825570969778,0.2701667719924716,0,0,-0.016884646387323766,1.0045086335848885,0.04156316370700813,-0.011524561971224895,-0.07893783151526103,0.015789946853012063
12,1.0033826423155305,0.1564649026810416,0,0,-0.030122770414463956,1.0116796731326367,0.02973777444145837,0.006336122807966709,-0.07400881630994846,0.02228350722810146
13,1.0095897684473498,0.06331955755979604,0,0,-0.029025515929453363,1.033652748664647,0.06836727506086655,0.005495077518145158,-0.10076838064999998,0.046395278312499975
14,1.0179375574331522,-0.0005212785283291189,0,0,-0.024955792686465812,1.0481414028056757,0.14361630130689318,0.018016183350710896,-0.1246512511374408,0.06387595132701426
15,1.0286980267647985,-0.028732945290270855,0,0,-0.024491295623683466,1.0493412810765985,0.10619128716042339,0.03811401715808745,-0.173410078972647,0.07756324279776007
16,1.0419772600522634,-0.01724248867332281,0,0,-0.026974783310635082,1.0431531874362816,0.1489468386459525,0.05732247120805231,-0.19399605202697345,0.08422834249504162
17,1.057594364714594,0.0359645767250652,0,0,-0.02930783505962727,1.0329068127946908,0.1890910746122915,0.0887695331131711,-0.16158164867130168,0.06015630514484357
18,1.0749677961992785,0.13094665843825617,0,0,-0.029148766153374323,1.0121630637719539,0.2139550952544309,0.048555072810717026,-0.18265682446414805,0.04581713117039322
19,1.0930419090802708,0.2657790981632751,0,0,-0.0361526661769972,0.9901152946489692,0.23248144462271536,-0.03431140131211325,-0.22853302488924362,0.03685933450648576
20,1.1102891066799925,0.436435535271993,0,0,-0.035174689779516446,0.9637124707716381,0.24138414002230157,-0.14305076639423067,-0.24164400603966343,0.01340599541466349
21,1.1248156910141553,0.6366730923474967,0,0,-0.01343435307681232,0.9608450828690401,0.2583227158675076,-0.3012792166859772,-0.31255365600479457,-0.024155717789053212
22,1.13457995744939,0.8580412460004427,0,0,-0.0029296875079665332,1.0606762829419725,0.30338831990329823,-0.49539833704298886,-0.46050343559260726,-0.05622537271394132
23,1.1376997727613893,1.0901201296731304,0,0,-0.002540752119161707,1.2238422540653995,0.32940382685557434,-0.7100000917991951,-0.6259621994826594,-0.11520779364820842
24,1.1327911033435831,1.3210468909256712,0,0,-0.0013167753711141289,1.3188134993531881,0.32353684594321347,-0.9332758164160353,-0.7792555174890308,-0.22907811775628253
25,1.1192541311738806,1.5383227880540673,0,0,-0.023198438784259624,1.259468544976023,0.359383707368226,-1.1758585626889413,-0.8942207158810658,-0.3771572330529035
26,1.0974266274821483,1.7298264151230596,0,0,-0.0023437652842092974,1.048203296753539,0.307714868077913,-1.4375831688069762,-1.0383857348592949,-0.5460474515913596
27,1.0685602880229534,1.8849051585957421,0,0,0.010154623776992071,0.9865729514715412,0.2859804640768168,-1.5734760721925132,-1.150048654644484,-0.7805699200495144
28,1.0346302826145692,1.995389458740155,0,0,0.014902248245509411,0.9144166497576869,0.23848914078144665,-1.5794511573543928,-1.1103709344521222,-0.9088411663770978
29,0.9980355207160537,2.056379856071547,0,0,-0.0008794061726905777,0.8629008454475181,0.21691533986150943,-1.5576858753464933,-1.1172555671146578,-0.8509445361192775
30,0.9612680146461042,2.0666931828466897,0,0,-0.0469958455827276,0.8732637026715585,0.2728714624753951,-1.6736786003986444,-1.127889128901734,-0.8178554540960734
31,0.9266221486306417,2.028908366467647,0,0,-0.05795586251876435,0.8567349938370576,0.31660253814623107,-1.6780852605345915,-1.2955805733883645,-0.6768604051493712
32,0.895989413009934,1.9490085721536066,0,0,-0.03312011566673413,0.8280917924099708,0.31145702705217654,-1.3263721979749858,-1.435358663192376,-0.5234374537343659
33,0.870755164256145,1.8356687801999703,0,0,-0.014886065065079362,0.8140112297431646,0.29430177340222785,-0.9855959632016843,-1.39182682425822,-0.46059533919406576
34,0.8517910911885552,1.6992872701996846,0,0,-0.022557732946787815,0.7960079213156085,0.2925562352900304,-0.787422293629305,-1.2072758379454507,-0.5566749658172409
35,0.8395232415871229,1.550900139440864,0,0,-0.0510927964705275,0.7785139634009338,0.30351733256876834,-0.6250622465780598,-0.8972079075024795,-0.713774584249157
36,0.8340484583118748,1.4011345763803413,0,0,-0.07617187316769744,0.7688404070337487,0.3335534505027275,-0.4471159974615227,-0.798110111956826,-0.8304885160783532
37,0.8352687250177793,1.2593371441583712,0,0,-0.0678884821536647,0.7778146808078361,0.36634859662557595,-0.3112322329684715,-0.8274322230398572,-0.8499884750446163
38,0.8430118338142526,1.132961629685946,0,0,-0.054524754951763815,0.7920386831712924,0.3924385964391156,-0.19039277996822868,-0.8405506,-0.7953893180420969
39,0.8571085206089366,1.0272365794178815,0,0,-0.0520723070331173,0.8221663956081855,0.41108319953240074,-0.05227974204225337,-0.8188885602816901,-0.7183964582676056
40,0.8774024255056353,0.945079571788217,0,0,-0.04824805037791158,0.8489707265652804,0.4292323917703941,0.06284557285636753,-0.7422565686179838,-0.6866263747133372
41,0.903681584505852,0.887198712028251,0,0,-0.04125289216096521,0.844064604231523,0.4487442205217216,0.194119591624,-0.5932576794159999,-0.69487899208
42,0.9355390323450384,0.8523219259338815,0,0,-0.05430561421081245,0.8046536050746348,0.4404587077412499,0.3086558937961301,-0.47369637628565714,-0.6822763142828645
43,0.9721931168017789,0.8375113831262507,0,0,-0.10060493713062685,0.7553578160186348,0.44776342171211103,0.39705375180922353,-0.34494818018131673,-0.6399614275128106
44,1.0123190343084205,0.8385421721287042,0,0,-0.12194103985997885,0.7516806472080476,0.4715364839282232,0.415431839522388,-0.3208446578855719,-0.569079014706468
45,1.0539529510335852,0.850342154166876,0,0,-0.11375307096426868,0.7837998185092286,0.49807981373201266,0.4060333800299341,-0.42153717044901223,-0.4435653330872081
46,1.094521759572045,0.8674970980687853,0,0,-0.08661805410212853,0.8629731438335193,0.583698123280395,0.35343178609653514,-0.5910047309232925,-0.3247490890967355
47,1.1310248998496757,0.884817164495986,0,0,-0.0813934407389012,0.9457306814858942,0.6481781472059923,0.3887533062811572,-0.6924249351944168,-0.24767662618145556
48,1.160358003444921,0.8979371197391373,0,0,-0.0761102260405528,0.9751285396316532,0.6600946004642257,0.5424654260316029,-0.6745217859142211,-0.2704843703115125
49,1.1797339689771882,0.9038895556588318,0,0,-0.049342459298305656,0.9698748001867205,0.6153213884834295,0.7417522835173658,-0.6646011642621964,-0.30542452589038344
50,1.187134648237669,0.9015603553528725,0,0,-0.0008484606616637234,0.9773688410497868,0.5262602021328562,0.8712631380123523,-0.7000655000842222,-0.27909596887516386
51,1.1817155832713364,0.8919236914690627,0,0,0.031250000764787164,1.1424361798200664,0.4052231345496138,0.8659353264212193,-0.7104314633570863,-0.19734865662707843
52,1.1640806024431003,0.8779720988926994,0,0,0.04322624222147724,1.5757923481770018,0.12089920684800033,0.6248372132975536,-0.63970339149672,-0.11498291034585528
53,1.1363418751618866,0.864307424183107,0,0,0.1495059287519918,1.5527625433984213,0.13989637514270867,0.32407060401583937,-0.666244790208615,-0.0702309182769944
54,1.1018995597935803,0.8564258896474396,0,0,0.25715341153580684,1.1960655019867907,0.3157784175338128,0.2749209655346041,-0.8597042969307946,-0.02959461326379104
55,1.0649340664405331,0.8597895758759568,0,0,0.20517896308121308,0.7349386813196317,0.21958389624361632,0.40196511625246667,-1.0556153099802752,0.07579108936883756
56,1.029699378782492,0.8788121137225556,0,0,0.09672365969323989,0.4549127107007409,-0.13695778520947205,0.5691558647348716,-0.5442652754780148,0.28912133750246494
57,0.9997941907182906,0.9159067915614391,0,0,0.02948077838688613,0.49589458284432525,-0.3415472717363728,0.5859890191026915,0.3188546121595233,0.2514025247198396
58,0.977611256726427,0.9707653668794196,0,0,-0.06922595515440859,0.8125775180919348,-0.18851544126728215,0.4304301647196709,0.25415169201796745,0.04270513723070766
59,0.9641004862325416,1.0400471528259057,0,0,-0.2929687507966533,1.1933594040778452,0.12101683163882694,0.2909048504267096,-0.2696991872184897,-0.04958278020031644
60,0.958860948823408,1.1176270137398714,0,0,-0.3261485566566424,1.1955199338042204,0.15282851735101363,0.25989561412943285,-0.016859318674815056,0.0850695609721498
61,0.96046809980122,1.1954471590103881,0,0,-0.18362332248765975,1.0017571623900923,-0.020251541103921,0.7621148759976001,1.3091359121072679,0.2898992656954181
62,0.966897629347352,1.2648449482764832,0,0,-0.025133847549822005,0.9504725510779065,-0.08975781227600262,1.3214495141197682,2.1489858573603033,0.5704430999599446
63,0.9759302850960806,1.3180483255364517,0,0,0.005073274255650037,0.9744917273779429,-0.02929331165430968,1.2621678958501212,1.5980348559226447,0.5253747591055609
64,0.9854758463803632,1.349448072811939,0,0,0.018822470797009282,0.9838553863277921,0.03928250334521048,0.9957047834115914,0.8875913846330689,0.13934497108685157
65,0.9937994088910581,1.356344935446211,0,0,0.001641476604430093,0.9876995210948832,0.04959692257243401,0.8708626503277062,0.3573769744190664,-0.17141041699702103
66,0.9996550120949892,1.3390852892389886,0,0,-0.042925084080324936,1.020381240455888,0.02945509944638736,0.9136472361717032,0.48749101731438865,-0.17196620778867291
67,1.0023378028403551,1.3007043735507826,0,0,-0.11385724990730378,1.0214976104149038,-0.022066992116772093,0.9517559835018659,0.5439342063582092,0.01319246677779898
68,1.0016674590117016,1.2462840374616522,0,0,-0.16227456208412247,0.9867038650065268,-0.04997894465996037,0.8641885465538093,0.8001112507859727,0.11537708210399014
69,0.9979181825409509,1.1822008060781077,0,0,-0.18212162188528158,0.9431698473281485,-0.04680209267844052,0.5508594139459894,1.2485620536477227,0.23745256851068122
70,0.9917146993650002,1.115358438541841,0,0,-0.16578080093547704,0.9593259661408795,-0.035684551978163344,0.2711893105479436,1.3504418273972567,0.26216857689497625
71,0.98391667872449,1.0524350012757657,0,0,-0.11140316269728212,0.9595352822298768,-0.018254178126516675,0.23711992803556686,0.9564966202853571,0.13923294095119815
72,0.975512745469625,0.9991599024633363,0,0,-0.05647449547163777,0.9401296155330263,-0.005801994034122846,0.37514055362831805,0.8231320539823009,0.005140753349155695
73,0.9675392242927858,0.9596641525444266,0,0,-0.03854029540328514,0.9396802838206625,-0.018032481576416542,0.4819068203567272,0.7294338529274917,-0.06061173425164784
74,0.9610296630468214,0.9359840343224265,0,0,-0.0751243742195842,0.9628669994269766,-0.03396530195964634,0.5409607263527294,0.5156712231313738,-0.09529827301139772
75,0.9569910514323188,0.9278119672479894,0,0,-0.12227563381500393,0.9825853396823887,-0.03291812618381565,0.5785692785048229,0.4601310545578774,-0.06456094137379477
76,0.9563935774746113,0.9325679886296747,0,0,-0.15420172221860132,0.9879140637699229,-0.01894364046745853,0.5953235754063317,0.5572507606170596,0.026109592777172477
77,0.9601558245529189,0.9458185872825087,0,0,-0.16590224372456222,0.9773561896763371,-0.012581934428217903,0.591064846708487,0.675218472287824,0.1587875490332112
78,0.9691092988160299,0.9620096959153525,0,0,-0.1614191479958445,0.9609631235507059,-0.023125555119967323,0.5723791044203335,0.7675574777175007,0.2733701779385174
79,0.9839349033413858,0.9754218928723561,0,0,-0.1380687217120086,0.96484581064776,-0.028995295212978722,0.5629358771784067,0.8444652990246838,0.35054447245033105
80,1.0050756773782294,0.9812128161457427,0,0,-0.10451768974000024,0.9906398563483438,-0.008011382586221052,0.5075920174891775,0.857631,0.41275053640692655
81,1.0326398745901746,0.9763938876255166,0,0,-0.054974254522469984,1.0065141627963134,0.006853461832685362,0.5095051166985648,0.7829936553827748,0.4588927676076558
82,1.0663131599837403,0.9605960214862869,0,0,-0.05826651378902817,1.04931453533974,-8.033813225254911e-05,0.5510225979024946,0.7199671906179137,0.5085969032482995
83,1.105298068740582,0.9365047408525606,0,0,-0.15347863071083293,1.0887927703179234,-0.00042778603910296586,0.6431267765754642,0.6429100233009702,0.512868031318623
84,1.1482943678455835,0.9098797185237266,0,0,-0.24771671801782405,1.0739224472383309,0.0291417389959931,0.734003181678294,0.6282633326091289,0.48397420804464747
85,1.1935272661859415,0.8891122733138609,0,0,-0.2746181815361712,1.1188668454313686,0.09296595035806024,0.7242165294303795,0.7091439737025318,0.43490125398734175
86,1.2388222651585048,0.8843188894982681,0,0,-0.29921045385019346,1.2216528210449031,0.11406299076646971,0.5426941651232328,0.8558387705050502,0.39833720495353536
87,1.2817160127465934,0.9060248723923998,0,0,-0.33577914448560064,1.315430260692812,0.12833906295824887,0.19023877925185984,0.9782709854512563,0.34693633291457293
88,1.3195840334830462,0.9635618715675898,0,0,-0.38742808808847407,1.353652317355501,0.19701043122645834,-0.06517467810276142,0.9134089954606919,0.334450187892602
89,1.3497644912948261,1.0633796836600042,0,0,-0.3177164184125487,1.3714064552153216,0.20268753379578042,-0.187922321142459,0.7647154552553157,0.2721859212040538
90,1.3696679150311022,1.2075399819681056,0,0,-0.11369536343226144,1.2316485098524428,0.197722658230579,-0.37249033100239687,0.5944616357787535,0.0687339304632572
91,1.3768842199596187,1.3926927482755573,0,0,0.11813331929163542,1.0640174197914658,0.30316725036664743,-0.5441874280342562,0.480104846205935,-0.20905545902808215
92,1.3693170312516736,1.609808273631562,0,0,0.4595821841543406,1.1744796106966522,0.24868212011396232,-0.9080598995616666,0.20532410624028635,-0.36412438412034276
93,1.3453731893266934,1.8448312861757978,0,0,0.6335149417110428,1.3710962849445896,-0.12488620668780732,-1.4768917287762189,-0.2220997891429006,-0.406284855107892
94,1.30420670277223,2.08024576787399,0,0,0.35147838675632864,1.3004654301238685,-0.22573843682967187,-1.9771325745945991,-0.5065487318738752,-0.4562833302162165
95,1.2459785951156643,2.297327018438506,0,0,-0.09953231934374454,1.2339311445929448,0.04013980010783641,-2.5753938094316813,-0.8128043527509072,-0.608931742509069
96,1.172073107438529,2.478671869755074,0,0,-0.3134815725815601,1.187385514149281,0.3197788858446708,-3.055490962786111,-1.4922797450276284,-0.6917996275414363
97,1.0852160222391902,2.610502757729938,0,0,-0.21872986887060225,1.0824943581485424,0.24822888555412284,-3.162049339504931,-1.7850857106057607,-0.24234195120950108
98,0.9894618172260162,2.684283687282265,0,0,-0.10812667795980109,0.9794864175813041,0.08478040562365495,-2.9827665899484037,-0.25499533170647504,0.14406006328492318
99,0.8900399581875316,2.6973726647790266,0,0,-0.005582447667833226,0.8461654100909006,0.05147004821294072,-2.372256426601084,0.7568420723910861,-0.0530151581806867
100,0.7930709729357013,2.652709924519058,0,0,0.04478388703933508,0.7336192326196458,0.11880945790269146,-1.4682955374742641,-0.03455025948523863,-0.4090544650137253
101,0.7051762131126521,2.5577918613095756,0,0,0.08010875792392169,0.6665435460998994,0.2265138553300741,-1.831236982682511,-1.0920640545557425,-0.7169641355574418
102,0.6330081378833716,2.4232957193767,0,0,0.05335687879698573,0.63697341869182,0.2788158483185374,-2.0923867577586224,-1.4627127311912225,-0.790439283757837
103,0.5827228851563836,2.2616684195272585,0,0,0.017189243836478244,0.6588118544981745,0.25918229832286466,-1.7877357491812949,-1.366290334641939,-0.7015980745906474
104,0.5594130116995256,2.0858490266640684,0,0,0.031730823796036055,0.6315070046667884,0.18154372201001698,-1.6598368915079362,-1.1917100176587299,-0.5783026083531744
105,0.56652582873842,1.9081714450444676,0,0,0.09988846665259148,0.563636440691669,0.143690813527743,-1.4192961427532187,-1.1197345166013801,-0.5850302648293226
106,0.6053153893053589,1.7394475313315487,0,0,0.14603167045330034,0.5026364655655707,0.15474671074265034,-1.0507864521071304,-1.1621872517920435,-0.6653870613391097
107,0.6744070106350155,1.5882385485412875,0,0,0.12369595362790368,0.45773390534081987,0.18143219641651445,-0.7407949411050939,-1.3163714196938603,-0.6617823581108825
108,0.7695773676082306,1.4603413061427881,0,0,0.04558524006831542,0.4618601863295066,0.2413002032535976,-0.5074537091926987,-1.4304589369025216,-0.5462621019081674
109,0.8838548599010776,1.3585269503326807,0,0,-0.028580407206642996,0.5061744492714372,0.3351258516885947,-0.26600834992239114,-1.1472854114668232,-0.3877423877512615
110,1.0080138537278518,1.2825796133653897,0,0,-0.02835221637379752,0.5723278215582909,0.45967597060030657,0.037836693809490785,-0.7379517116479046,-0.32104309133440545
111,1.1314710659334775,1.229687733025755,0,0,0.0058536741598560794,0.7448214658078698,0.7001291729663127,0.38977135921545214,-0.4031538945304705,-0.3439512840257512
112,1.2435015851896398,1.1952202384768855,0,0,0.011260912040137948,1.0945669808015897,0.9318573964871486,0.8670490160741059,-0.11918390518275493,-0.4329103229818323
113,1.334596415016758,1.1738451051490664,0,0,-0.07694123999975103,1.5691070871616164,1.0287821423631096,1.3036684563955754,0.07132347690492923,-0.4956113716074847
114,1.3977154724907792,1.1608232603746937,0,0,-0.3067542713802407,1.675979108651993,0.7914786588340736,1.7372720320256232,0.2923574506805475,-0.4420347440952737
115,1.429185106485701,1.1531903488981428,0,0,-0.0035188239526959464,1.3856703083783073,0.6985997806024354,1.9092785995153783,0.5405522334147274,-0.23548679302888795
116,1.4290629644785933,1.1504979070273924,0,0,0.3539581709329454,1.0561504436465703,0.6079324263695547,1.6513933910041378,0.3807566138271808,-0.08682703623594215
117,1.4009199455003212,1.154869826318039,0,0,0.3951914465871636,1.2320386664337502,0.2302944425620169,1.0786548747016718,-0.26553857430389705,0.14167432713603784
118,1.3511123452253953,1.1703211825778788,0,0,0.3576530830014813,1.5975123285282975,-0.06630964876598995,0.313760921544447,-0.5799469847888903,-0.1966767209444385
119,1.2876933610391417,1.2015062673942838,0,0,0.2666115954613565,1.5623379156346364,0.06046414393143965,-0.271927782489434,-0.4970580043791507,-0.8157697202656473
120,1.2191459060410232,1.2522172491355636,0,0,0.13261687109444628,0.656040349973589,0.023759249797940394,-0.6334689612277228,-0.8121026702257425,-0.2169114643243566
121,1.1531401064645226,1.3239944417934866,0,0,-0.08411465466081408,0.2865740562161665,-0.44292913387765165,-0.2887758553621704,-0.7848294196467516,0.6116232701528123
122,1.0955333117239232,1.4151517590240101,0,0,-0.23061825413391013,0.39555259125491865,-0.5693107732126504,0.6338488220431364,0.33982556527860086,1.0084058226482935
123,1.0497994151924375,1.520419236776102,0,0,-0.3088123111128627,0.8841048061668463,-0.2911521484138895,0.8218553334770391,1.0849391393626997,0.698736929940025
124,1.0169696709591762,1.6312978581317783,0,0,-0.2751295805688008,1.30725207550044,0.17479751958706688,0.5719543170610458,0.2815016222569082,0.23151975161463428
125,0.9960218926579366,1.7371180509619664,0,0,-0.17615283665425852,1.3252667853357096,0.3718959526061179,0.7544754074211899,0.29287550895536024,0.051488931463089097
126,0.9845422055085723,1.8266722858979205,0,0,-0.14332426199771325,1.0861311281795338,0.15623446821082598,1.4766813992312369,2.180391918369415,0.14138700238519206
127,0.9794548984507502,1.8901338918682908,0,0,-0.01760599972310745,0.908552360921307,-0.10871980922296735,1.7773297120588232,2.975684407058824,0.5833355409176467
128,0.9776656417283506,1.920818696532898,0,0,0.09698535661877342,0.9563606081439616,0.004213264075948156,1.9845146780182232,2.2096323853075166,0.6299892179840546
129,0.9765428951293802,1.9163111575755998,0,0,0.0028847477096635953,0.9871482634583397,0.1700225743468981,1.5400740057220699,0.9241791897002706,0.32542372928065344
130,0.97422368324202,1.8786503671674886,0,0,-0.09195511378116891,0.9822107776942577,0.2069257226904668,1.3542972997808327,-0.26079533250049797,-0.10592231671129683
131,0.9697578909744594,1.8135889365930982,0,0,-0.1648258203524415,0.9664243300627366,0.13263559699223737,1.3739746660682226,0.42377652141831196,-0.10891387245960511
132,0.9631133509088202,1.7292203553880439,0,0,-0.19886348384442096,0.925267323660513,0.025479885343952353,1.185428226114647,0.8262404714968158,0.04510578437898301
133,0.9550687134250044,1.6343866656826542,0,0,-0.23039995813721612,0.8972354285360701,-0.06174896162221851,0.8974434833531503,0.8074817870630208,0.10796589655172428
134,0.9470268912869276,1.5372310569724092,0,0,-0.23129014836412887,0.8794155320449466,-0.072902669110912,0.5574407130367827,1.3471216013594605,0.1659090792103164
135,0.9407850339044859,1.4441306775727774,0,0,-0.1842805826514628,0.8986344745142403,-0.06233398394832914,0.24584038631526178,1.687350637847569,0.23590774586517346
136,0.9382942393616471,1.3591090753066912,0,0,-0.09502793197197926,0.9253784168421728,-0.041487857282854694,0.2634338295488271,1.3451981172448362,0.28222365975937436
137,0.9414342344284613,1.2837293569215833,0,0,-0.015503247721525674,0.9347621548124073,-0.024204835766708926,0.5737425078069844,0.7038587666692806,0.24760928142408759
138,0.9518183587646261,1.2174230805508903,0,0,0.036018407808865054,0.949445565713902,-0.011128318301090945,0.8319000116247842,0.4719096773786827,0.19090969232235688
139,0.9706356385675353,1.1581952712192178,0,0,0.002473512808787018,0.9801356835789868,0.005526273877755886,0.977299326730311,0.38212699836515523,0.10438688672732675
140,0.998531137443076,1.1036213984651229,0,0,-0.07373438912769853,1.0173483171747948,0.06021029698432385,1.0848453962071045,0.38484123847080076,0.11054619879289601
141,1.0355233209331969,1.0519980640844324,0,0,-0.15157584310874014,0.9995851468590213,0.06867889584817075,1.0903317144985103,0.33490703781529324,0.28249576406156995
142,1.0809573727553181,1.0034460905487335,0,0,-0.26536180642861407,1.0226311236622965,0.014657648998945364,1.0319450917131485,0.40673891358565567,0.5441168919999962
143,1.1334947727401454,0.9607276463970951,0,0,-0.36027317572009954,1.045570298686093,-0.04036812802044103,0.9639593432148914,0.666758150178599,0.723905570389168
144,1.1911393251946574,0.9295491116017548,0,0,-0.21226012745996833,1.180781869741684,0.0756156440949453,0.8819605540439588,1.0296382373626367,0.7259804673406601
145,1.2512963730056723,0.9181851054307634,0,0,-0.1844833879853516,1.2971945140756695,0.0846516018369645,0.6202841683399191,0.9824883624901178,0.6600754532015809
146,1.310856951955849,0.9363771880006192,0,0,-0.20618090934738909,1.3750547260708061,0.1198350895141231,0.2238596142586551,0.8248776662731959,0.5520474194145774
147,1.366297532988411,0.9936222686421028,0,0,-0.29507351542911964,1.345070357225787,0.16205458321111257,-0.0743853183091624,0.6766335813141138,0.30331761061195506
148,1.4137937542638228,1.0971352758378587,0,0,-0.3915129357345826,1.3425245971802513,0.2526451313626443,-0.028149093497653873,0.5919348849589208,0.15292423370305205
149,1.4493627183762072,1.2498936016706552,0,0,-0.23977887953261795,1.290736958908409,0.2731152062546887,-0.3258114284708412,0.5388958674732235,0.251363911896073
150,1.4690652039180387,1.4492007664972408,0,0,0.16013077057800715,1.055530008346203,0.30917063736513173,-0.6443769448792158,0.6191039110261528,0.030433687382714764
151,1.469303182282568,1.6861294094817139,0,0,0.46698338689431185,1.214638374444187,0.1683690522177068,-0.8906180044510366,0.4875828501483691,-0.27740534083085966
152,1.4472259368980431,1.946037989553085,0,0,0.6355329539957113,1.5367131135899827,-0.12575923380457707,-1.6518865330923682,0.027177123766265632,-0.4587826128112447
153,1.401208498491487,2.210138474142947,0,0,0.4134692118893006,1.6009036352279937,-0.15564096104634748,-2.024831359663863,-0.2610558612765109,-0.691218232713084
154,1.331311645072456,2.4578671774240113,0,0,-0.10037462530147344,1.4642190226516536,0.13359355113407206,-2.6532542684797473,-0.4922376924867906,-0.8911433962238303
155,1.239609578179347,2.6696251387161367,0,0,-0.31316469934201774,1.172352594500494,0.39061914980438245,-3.2698690303293256,-1.459822022244139,-1.0082783011437575
156,1.1302968821692558,2.829357659885083,0,0,-0.264226489714616,1.0268399083245732,0.31827297205250615,-3.368814501990632,-1.7135699185011728,-0.6142049581030469
157,1.0095422602910866,2.926477176850295,0,0,-0.08559619244740176,0.9539727195879057,0.10119334824726718,-3.2072603726722613,-0.487215761089196,-0.2881126231661129
158,0.8851091452855084,2.9568107132693795,0,0,0.061850389254711244,0.8744779301922065,0.010285784094146492,-2.6678770482485827,0.6497414525367207,-0.26681767654802313
159,0.7657924844025509,2.9225228419519076,0,0,0.14821920697482693,0.7641098708179861,0.006399794680000946,-1.860333948478785,-0.628230118110498,-0.5419083895736619
160,0.6607278313957969,2.831218418018722,0,0,0.17918647380040467,0.6342663706624337,0.08924165441892065,-1.9895589467615802,-1.411867921977143,-0.6986514525766999
161,0.5786249710468123,2.694558040161263,0,0,0.16004409868318384,0.5521648948836343,0.17347712856778066,-1.966279599137239,-1.7529112603932586,-0.8696479606942218
162,0.5269741975127071,2.5266918426431024,0,0,0.1113973560000074,0.5545890177930495,0.19234024314715098,-1.7739254907735136,-1.7903459101212964,-0.9146997623185523
163,0.5112742134651631,2.34269884113523,0,0,0.06473916850784857,0.5865636166109868,0.15823151814098577,-1.794448674343636,-1.7093266323695557,-0.7482082921967418
164,0.5343383194908657,2.1571118828073477,0,0,0.1134073678963567,0.5318632312650211,0.07379989983509784,-1.684830142905873,-1.46186005201685,-0.6858228139213342
165,0.5957509366946221,1.9825730154391157,0,0,0.16589066677897724,0.46148494294288955,0.05061092699586772,-1.2235561074660615,-1.190100274660633,-0.7345405602262445
166,0.6915663067146107,1.828694249703106,0,0,0.1920192197166702,0.3910127227273912,0.08350337635593476,-0.6779866353293348,-1.1702294514970069,-0.7279758219560867
167,0.8143537971215428,1.7012489265743687,0,0,0.1735965933296202,0.3722200229848139,0.19631000534524493,-0.24813058291854673,-1.2321495702060845,-0.6614429388832183
168,0.953681655547119,1.6018418841443554,0,0,0.11394462169776982,0.4367725965011357,0.39449425247692,0.0505846201321749,-1.1812614023476036,-0.5650919688814365
169,1.097078450472338,1.5281757502756512,0,0,0.042253260694327055,0.6058683836853141,0.6370130899896529,0.42253120843286474,-0.904256359478959,-0.5286954231422846
170,1.2314175032632118,1.4749467724328629,0,0,-0.05115277355648167,0.8834352020524038,0.9094147952765854,0.8365461573033731,-0.466722185172104,-0.5232029006705904
171,1.3445524598496428,1.435283605985927,0,0,-0.1052253835132625,1.4204012362312501,1.1507006181831105,1.3222358099088396,-0.00644882890953146,-0.569610554171621
172,1.4269284018966522,1.4025062446807064,0,0,-0.36052142842884205,1.8270536662433736,1.0227689257975023,1.7703703292108557,0.4635306007639712,-0.4367041285996787
173,1.4728484730808553,1.3718575915966158,0,0,-0.311419251618995,1.818709064346926,0.768796424799789,2.1342611599359604,0.9455529883129853,-0.18269705996798338
174,1.4811258126349558,1.341794433152294,0,0,0.2618672475679879,1.2604290970345244,0.7012567265927263,2.0848974410303405,0.9817140194461428,0.04545933328201957
175,1.454991489744801,1.3144722740332837,0,0,0.5194350032922432,1.0834189640214749,0.3140720453665031,1.7234654266761142,0.31919133219566004,0.2994033330281591
176,1.4013085770097762,1.2952413676706194,0,0,0.39998043682107987,1.300194626690885,-0.06971490093127929,0.846426317866167,-0.2831352031800237,0.5660373987544416
177,1.3292872824243163,1.2912442367441155,0,0,0.2755954674472729,1.3938733945654158,0.09837227162425358,0.06153922015559606,-0.26663840029922176,-0.5292878637442642
178,1.2489650861566075,1.3094648080168847,0,0,0.1029400767153122,1.0107925818801744,0.11411594428846177,-0.6381691997849669,-0.5637369905144677,-0.4853566829240377
179,1.1697213044086638,1.3547221594938517,0,0,-0.06051923409800889,0.5318229114930345,-0.2928789395793075,-0.6023325574274221,-0.6380628716189536,0.2430836661764056
180,1.0990673241823974,1.4280884033540118,0,0,-0.29744662798488414,0.37530059339808336,-0.5478358259227104,0.4300552019295798,-0.055222179882236586,0.8753699
181,1.0418966500067857,1.526078750645243,0,0,-0.4052678886213763,0.691600359619917,-0.43690635763306235,0.6776387494122188,0.9831715020813251,0.7405059343418777
182,1.000280715758884,1.64078107394903,0,0,-0.3435759577025099,1.070036850931629,-0.12476230135749197,0.581263139774907,0.7949629907379131,0.36046531860833797
183,0.9737688186167968,1.7609089244817218,0,0,-0.22962677022011102,1.2592785397408455,0.2230631116326389,0.7444294153555223,0.7056071069969747,0.16638396319213306
184,0.9600388401234321,1.8735867687707222,0,0,-0.07371352816203364,1.1579721042233366,0.2511291931093864,1.5440009307738634,2.053187902927038,0.22163967947474014
185,0.9556947501280941,1.9665081568626332,0,0,0.056686211018408546,1.0323054247593546,0.018004166072556765,1.9988879669828454,2.6789553000605455,0.3746312696266395
186,0.957028022776088,2.0299792472521103,0,0,0.11588848440935391,0.9735783917858779,0.08249441766220161,2.144986968341123,2.221011112032703,0.4313358101635512
187,0.9606268558679621,2.0583537176349,0,0,0.06200833081969434,0.9441049780052296,0.1138926697131641,1.8175988510563303,1.2898860657042082,0.2762218579225311
188,0.9637897184391403,2.050541498125152,0,0,-0.0638612346802963,0.9215920386103688,0.07713478496825017,1.5237340952137095,0.23709993463461596,-0.11287591779476683
189,0.9647509697008966,2.0095783448075273,0,0,-0.20408648537079488,0.9208546333648371,0.036648008964111425,1.3484738077839464,0.22498569935664642,-0.2649503197617109
190,0.9627503862865351,1.9415218059018287,0,0,-0.29642435750509133,0.9185401789429489,-0.012625626807490803,0.9498954399999884,1.2983941000000163,-0.018631389999995616
191,0.9579831604094121,1.8540613680882345,0,0,-0.3045944915315906,0.919287442823382,-0.058979070777122715,0.5515083979281415,1.5815522304191618,0.11743902920958164
192,0.951462727515195,1.7551821046920404,0,0,-0.26589898546724594,0.9077216994530027,-0.07531273777576307,0.34947745920046963,1.8043032699488062,0.23251158332414545
193,0.9448235215934995,1.6520835229077486,0,0,-0.15233737289535992,0.9076982371574113,-0.029159150427899114,0.24001452245630836,1.9611975488083897,0.3277246369748959
194,0.9400878618255737,1.550426290458768,0,0,-0.007126885443085094,0.922940000314117,0.012284439574152428,0.4050255738050959,1.5350698345918283,0.29840038157738813
195,0.9394196781342388,1.4539152977990157,0,0,0.057012949552845284,0.9248046988523094,0.002972297236098898,0.6400917113965319,0.7937903388134614,0.2027932519938847
196,0.944885050458984,1.3642274896903208,0,0,0.0142988782252157,0.9379141542660124,-0.008872656735934126,0.8553771049241523,0.3873083693302235,0.12804989918553156
197,0.9582345275826476,1.281311018203323,0,0,-0.054184873011674094,0.9501567123399736,-0.007864051865698555,1.029664221888068,0.32275522089225184,0.09648714212387946
198,0.9807161714057063,1.2040624951417647,0,0,-0.14031603122146966,1.006803564331739,0.05081404790951765,1.09539840271173,0.4237778906543516,0.18723625925132475
199,1.0129234286026472,1.1313122399979674,0,0,-0.22359226855183642,1.0203117914146234,0.12007664395016307,1.0346090981847527,0.46373072806978594,0.4132962893142384
200,1.0546803484717473,1.0629451676843602,0,0,-0.23441192639857633,1.0047351118389236,0.11696590746170057,0.9145849641096977,0.6320361681339434,0.6265302231617653
201,1.104969499421351,1.0009069591053332,0,0,-0.27380582237855755,1.017666013877186,0.04239428555501325,0.8624423547353234,0.8697697135129892,0.7470326421751666
202,1.1619134407824305,0.9498227689707993,0,0,-0.27448247976848156,1.0495687949013661,-0.005715493088980552,0.817465704869999,1.0815651216,0.7405189189559992
203,1.2228232921151314,0.9169986822098137,0,0,-0.17476328009666955,1.1584898294524621,0.05037500035628843,0.7054748472968289,1.044938042424241,0.6156776472968288
204,1.284322040632365,0.911684423811255,0,0,-0.19048806737421284,1.2860404268333983,0.06355804575997487,0.47113115691938934,0.8642970304788447,0.479949705227451
205,1.3425353132220679,0.9436377724537287,0,0,-0.28576073508289335,1.4481410808085755,0.1422060349559387,0.17630142179829342,0.6554905637910059,0.42944419794248634
206,1.3933258519164287,1.0212125391160392,0,0,-0.32794025358937073,1.4529920942695476,0.25367560292191066,-0.18675837575593232,0.6200090213044293,0.37009939567744415
207,1.4325419082766202,1.1493407928016803,0,0,-0.3042760964575181,1.41500700195417,0.31140235162791674,-0.24190793558034027,0.5000029670943559,0.2529009330833008
208,1.4562623172284728,1.3278497117870847,0,0,-0.13548124933073022,1.201013185975449,0.29624100108682305,-0.4452635255500218,0.2538276438094309,0.21472806149592327
209,1.4610466409231446,1.5505217992030336,0,0,0.12174870200702359,1.0739941682168679,0.28358383253585806,-0.8584580195429318,0.38261805591018005,-0.1350963412196067
210,1.4442166002320818,1.8051764541060964,0,0,0.5024393930605968,1.4143722211983896,-0.10134522920525539,-1.188319993567708,0.2842880902137485,-0.6286270078505746
211,1.404182972137165,2.0748426704855327,0,0,0.4128664316361827,1.5049222243389646,-0.23889550215430902,-1.8045425549879854,-0.11785624379808035,-0.8008751370192311
212,1.340790428085631,2.3398487027078,0,0,-0.07817885568704545,1.426312885211702,0.04328844382576624,-2.4504928502791103,-0.477225309250401,-0.7815736026315788
213,1.2556100080401762,2.580432889600731,0,0,-0.43131856590717144,1.269602899341082,0.3562809170940182,-3.295730670726038,-1.1431016098935107,-0.7749722465692156
214,1.1520964381701024,2.7793421413228585,0,0,-0.3664977873260431,1.0928991805804649,0.2985372556267938,-3.553930011062564,-1.8764961939225393,-0.5469199201132147
215,1.0355507902865655,2.923883841870955,0,0,-0.19262685756805553,1.018399315877676,0.19239832201089171,-3.2176483708639485,-1.3595749987288868,-0.065365195753723
216,0.9128697853829995,3.007057981216122,0,0,-0.05922389950046873,0.8851490366738756,0.09721901821469109,-2.692607827762221,-0.22095440097881508,-0.11252899315050767
217,0.7921010869428944,3.027680799170944,0,0,-0.0279124954957071,0.7699566363190573,-0.017925397332852467,-1.9615423288915024,-0.05466451476417857,-0.5276705442924645
218,0.681848982598336,2.989703069823579,0,0,0.03462512713847091,0.6540833535842212,-0.034917547220995784,-1.9456434352146277,-1.2233907864069973,-0.918842836717011
219,0.5905854985083808,2.9010879356917267,0,0,0.06500514751204198,0.5700924270234815,0.03885804664252928,-2.0278234533542547,-1.6875961147116527,-1.0419491733621022
220,0.5259217060809892,2.772585171542128,0,0,0.1048338206145477,0.5541178017750379,0.1189613591973449,-1.8232939656627685,-1.9508229468198977,-0.8679367132355839
221,0.4938886480464692,2.6165820297191615,0,0,0.1264877310247283,0.586804693986973,0.14018080273792255,-1.738296757863502,-2.44274365934718,-0.7218783923046478
222,0.4982741660356604,2.446047926634308,0,0,0.14524803850930668,0.5540332771422293,0.08016545857311327,-1.7253805454344318,-2.18931685782381,-0.6823415487429613
223,0.5400681657252783,2.2735121633031015,0,0,0.16406249840669343,0.4615226645065988,0.030177705147534026,-1.3801806259700875,-1.7555970751414702,-0.8242597016572355
224,0.6170868566500414,2.1100398002464473,0,0,0.1470187407076666,0.3991775357516473,0.042002625040199935,-0.7081614058125636,-1.4983052772727254,-0.8085182519167361
225,0.7238675537001159,1.9642622214501142,0,0,0.08553899467961708,0.3731913950858681,0.12494690653196978,-0.21623688307768021,-1.5957796551461747,-0.6857458644072854
226,0.8519304204513357,1.8416107638640196,0,0,0.05079632975268003,0.42959703234089835,0.24399415485170287,0.08800232548187689,-1.49595112532533,-0.6035927455095106
227,0.9904721677204907,1.743939186853586,0,0,0.044459630862825825,0.5557625537379863,0.43126699013547165,0.3176462421463907,-1.0765800350939643,-0.5761078021107815
228,1.127481229600291,1.669686031712809,0,0,-0.009955766208930322,0.7653479540581231,0.7252769038087356,0.6592607161752269,-0.4941073946082625,-0.6346509173546745
229,1.2511555841521693,1.6146324183906746,0,0,-0.04192037931632614,1.2645470347233982,1.0582786886876479,1.1637469738166688,-0.12179771250149343,-0.7326506642300793
230,1.351394650076889,1.5731703739736047,0,0,-0.2655952571913839,1.782100395047313,1.074876226944254,1.8190025356531996,0.08463832653499627,-0.7390081033514765
231,1.4210722584989381,1.5398350299673174,0,0,-0.3672832904576482,1.8922724497464791,0.7929516145457408,2.3255565523385324,0.4134999934521207,-0.4501641446325129
232,1.4568230998830638,1.5107249793754254,0,0,0.38657581733037144,0.9679559544514222,0.6645390178673644,2.4117792677455867,0.7404902790832955,-0.10458668074015465
233,1.4591992697856517,1.4844134062972874,0,0,0.5226340773146392,0.894804422807384,0.18304205563120468,1.9462787412061862,0.43254613620835286,0.29823431219736046
234,1.4322244631650478,1.4620814039368457,0,0,0.4185125259498286,1.2427083430551613,-0.1182538302013345,0.9305838231008169,-0.1953942951713777,0.7669900956424106
235,1.3825035269976313,1.446849608788798,0,0,0.27099445157748653,1.7458236854127198,0.024529877907372145,0.033188035284428534,-0.4941439292687724,-0.668294589586475
236,1.318085318140747,1.442539911319216,0,0,-0.019737365947522373,1.4767652728380671,0.271826697509894,-0.6424214980601738,-0.8203002578582739,-0.6191987865241494
237,1.2472581044620574,1.4522535663273823,0,0,-0.12218814800700217,0.6843200678507491,-0.18921583746868442,-0.6313471064925472,-0.7580283501178408,0.1822879697368237
238,1.1774410256634973,1.4771586498916724,0,0,-0.23536295430879778,0.23519825683549275,-0.6891749678885608,0.26605220618721914,-0.061352091880705326,1.0622451426255735
239,1.1143348244527607,1.515773244769233,0,0,-0.22899503461277212,0.4672584582176584,-0.5645916889629702,1.003454343447035,1.1128025609814565,1.2042583549371615
240,1.0614667737946204,1.5638816549549919,0,0,-0.15240231184864594,1.0669771998416915,-0.044820381816748335,0.7223159409639721,0.7307478602817254,0.4757702204105323
241,1.0201779686692944,1.6150852093494894,0,0,-0.0948580336407014,1.326571421575492,0.24023494707560458,0.5257412839931688,-0.03729769885667087,0.025567212052906158
242,0.9899848547649773,1.6618820657288944,0,0,-0.057904883375980945,1.1789570720429572,0.15108107275768012,1.3304669446316622,1.434960939230922,-0.08529619856988603
243,0.96916209692683,1.6970671993978086,0,0,-0.0013874727643929565,1.0163868133367984,-0.004031383485966408,1.9292730693211717,2.206206238541039,0.25194811010739027
244,0.9553778299159221,1.7151321596485947,0,0,0.13457683141378868,1.0207995914630816,0.07344365579776543,2.087463706577371,1.4489066669132182,0.607685022501002
245,0.9462540664108231,1.7132854991123472,0,0,0.16382482050012198,0.9527965402562729,0.1291742010214574,1.8776623115287716,0.20461210706839333,0.6429669695698501
246,0.939786132029087,1.6917983785980606,0,0,0.027786644976641635,0.8890217927017121,0.11981714006433929,1.4498812577127127,-0.6481621203399537,0.2983861834879121
247,0.9346046860182587,1.6536030813008658,0,0,-0.17218877002191146,0.8971957813421158,0.03919494934530843,1.1412615865150948,-0.19027218277147465,-0.14129652789886105
248,0.9300929798827533,1.6033196171488708,0,0,-0.2754846931807807,0.9013126783287078,-0.03134405653468463,0.9032018658622365,0.8507973175130045,-0.20792622003686764
249,0.9263839006247341,1.5460347927352207,0,0,-0.2703318263351706,0.9023186102765768,-0.05671604733190976,0.5395707063769203,1.0297563148415272,-0.14615434464983815
250,0.9242627098241598,1.4861683104405803,0,0,-0.2208130280569164,0.90464030206935,-0.07220953095271794,0.42366881547246493,1.3542040382053095,0.07507274495083234
251,0.9249995682152793,1.4266687778376943,0,0,-0.13743255877344687,0.8942707892508158,-0.06601440757017486,0.3147006103257451,1.5120445397174265,0.2410456712715863
252,0.9301358746620515,1.368656022638713,0,0,-0.043957761798476123,0.8996546894768114,-0.021740576806110922,0.39600726960984317,1.304188806359714,0.2959477545922736
253,0.9412499217822342,1.3115218160188453,0,0,0.011705371325032226,0.9121093339723555,0.01737042090128218,0.6619167380914026,0.6728671506543198,0.2686638649184619
254,0.9597269375711811,1.2534419621495387,0,0,0.021287553712034998,0.9522088150920123,0.025193803453884327,0.9194628626254575,0.18218754914692395,0.238545942585306
255,0.9865540063774831,1.1922212840347408,0,0,0.01910822388535998,1.0093583605716807,0.03365577806637462,1.1510309171615176,0.10679398513578733,0.2066749302751388
256,1.0221529984448328,1.126354140278531,0,0,-0.02647686385329893,1.0573780517776903,0.09364868931758888,1.2652975825434931,0.07509941631413374,0.23648534863027781
257,1.0662584991845019,1.0561240371290548,0,0,-0.10385565717332297,1.0283529703075156,0.08531190158670389,1.2619714904609187,0.028409518262526464,0.3866680268136314
258,1.1178461549799112,0.9845118938395536,0,0,-0.3094284819117557,1.0311346815407079,-0.027097931742388875,1.116553519453723,0.22886079265474732,0.579467405926509
259,1.1751189403163431,0.9176704704043372,0,0,-0.30338583711084804,1.0448612490199884,0.0064295416929822935,0.9740324098946337,0.6584580481908507,0.6664278495109345
260,1.2355591036031914,0.8647693777453492,0,0,-0.1488032156931771,1.2011554207834874,0.08517872119851728,0.7942048697164192,0.8861891358306192,0.6270043569457747
261,1.2960463757741214,0.8371154858460313,0,0,-0.14268962424075352,1.3492136497639882,0.05100425353898374,0.45246956489061596,0.8278083107499989,0.6412622589218757
262,1.3530288541459161,0.8465933204024603,0,0,-0.18214644711315447,1.4682500229762196,0.10340371565330984,0.0015451367568616128,0.6700582907498539,0.5702224161779191
263,1.4027202389725584,0.9036294350965713,0,0,-0.2637374106177205,1.4435673795023007,0.2072740302119732,-0.1981749552960992,0.501141553729447,0.32203723053871275
264,1.441297116229757,1.0150311501630516,0,0,-0.28244103100110074,1.436428181095105,0.2978436092292411,-0.02570667795017493,0.2790682221064219,0.22369811040055648
265,1.4650875919255644,1.1821396613338664,0,0,-0.11619275775828768,1.2687177982300275,0.2911946117829969,-0.35762216396828406,0.19155468211221752,0.2735998250721697
266,1.4707697569209761,1.3997313304427008,0,0,0.23174312473196146,1.0739497826707791,0.21865937143554853,-0.583649157999605,0.3544884637280105,-0.13437193328926933
267,1.4556159273507414,1.655983462997143,0,0,0.4951550986546004,1.3157845708148102,-0.003297299958237781,-0.9444708466933888,0.29394003121242385,-0.48718432814629326
268,1.4178069368337682,1.9336094864616653,0,0,0.5462307621802751,1.4917840029564204,-0.1688503707258545,-1.734811069264072,-0.1947743044824888,-0.6603165767020865
269,1.3567982241932726,2.212009723567938,0,0,0.18428977266785088,1.4790987924239554,-0.022065944764387887,-2.384144650770152,-0.3223666726345258,-0.7517026932786555
270,1.2736707945777874,2.4700416953053437,0,0,-0.19552132948512638,1.327871070781446,0.2224643071832336,-3.096645143286538,-0.8602502642100092,-0.8624232992465893
271,1.171378166303328,2.6888557608473613,0,0,-0.216780981656686,1.1179976524863202,0.29029003833670025,-3.3453425550393696,-1.6965114129527594,-0.848020090362201
272,1.0548157484865972,2.8542237878555565,0,0,-0.14902729286658123,1.0413989002439403,0.1821973141180849,-3.232303435624875,-1.451505370256306,-0.4854260304311534
273,0.930674576303989,2.957932650236518,0,0,-0.03623805614551926,1.0041636418121704,0.06375606974279664,-2.8938033292903405,-0.27151171541181257,-0.38530454436209977
274,0.8070747983554964,2.9980851768774786,0,0,0.0846008011204951,0.8412185715592375,-0.03570686815873742,-2.300322377392173,0.002035584336545509,-0.5429765148545643
275,0.6929979086431174,2.9784501314257112,0,0,0.10473780446543013,0.7072236986650562,-0.011578225954784993,-1.8909238648888813,-0.9316319417778011,-0.9007330099555632
276,0.597554843578755,2.907207636194814,0,0,0.09022957447941374,0.5924278788148494,0.03720177615353542,-1.9237809650168305,-1.578441604593156,-1.0326741767570793
277,0.5291443103470899,2.7954745416628626,0,0,0.06738281676209511,0.5299943934984517,0.10714300343494668,-1.8194260428119662,-1.7778329069139989,-1.1432447300590216
278,0.49457146327134904,2.655889143268059,0,0,0.08027548229315569,0.5362018833877263,0.11552040137861898,-1.7912740357723593,-1.765703518234615,-0.9789957818234556
279,0.49820949524225655,2.501378883468624,0,0,0.10485023226056035,0.5272000093433546,0.09424918192272204,-1.8832926855591325,-1.9083234421963051,-0.7800914862429555
280,0.5412972904176239,2.3441170810346694,0,0,0.13473811356856094,0.4645149349888674,0.05120390647555123,-1.7706701761087995,-1.872023628030745,-0.7930388980780617
281,0.6214773064069509,2.194633712248164,0,0,0.1615859494496894,0.36513666037723075,0.018316403557947194,-1.1483076890734392,-1.5701397604562732,-0.8552430841104665
282,0.7326854754975848,2.06107319951572,0,0,0.15262405384918418,0.31723576722058994,0.10858934515677271,-0.4773953349621682,-1.5713568067702108,-0.8189990338112308
283,0.8654953411544265,1.948655217422833,0,0,0.11876295207240863,0.3722018233354301,0.2154473652947407,-0.007319343143599662,-1.6023614344459813,-0.705230359184281
284,1.0079736064177085,1.8594466869672932,0,0,0.09095166811881959,0.5366243658121871,0.40308445733887416,0.3547016642033036,-1.3722740987244804,-0.6220753770290415
285,1.1470137999239125,1.792556779712353,0,0,0.028605128062608152,0.8128905358996737,0.7611619593860952,0.6624801998204998,-0.8771778512166045,-0.5870642823733548
286,1.269989495494756,1.7448104548646897,0,0,0.03831279322697281,1.3986123336720344,1.2140117512599375,1.1135503488595435,-0.30812351310924385,-0.6169982833333333
287,1.3664451911565825,1.7118483406294815,0,0,-0.22765712703803911,1.8334724620400442,1.139358425496049,1.7592040077375002,0.046588198329865854,-0.6125822482624895
288,1.42947797346788,1.6894602162915509,0,0,-0.30963310899153607,1.9528100843277085,0.8187372500658463,2.4083213858359276,0.6073083178870124,-0.44147095542569065
289,1.4565067639801776,1.6748271501931367,0,0,0.4294517183187377,1.0263852544545544,0.5758520823338532,2.6464738598359014,1.0368253426255754,-0.14687860874924918
290,1.449281862669745,1.667295280312236,0,0,0.5813747354294948,0.9642357876225982,-0.05723380428745259,2.1996065959224067,0.8168994115201896,0.31295078861836956
291,1.4131915886201436,1.6683974129931145,0,0,0.5399458046622612,1.2432989834476142,-0.21476953486497072,0.8698718948941684,0.15465470711945487,1.2127001126248684
292,1.356080295379062,1.6810718848645283,0,0,0.34943789730640645,1.3801209054368555,-0.0949190982434095,-0.2680551854549063,-0.6484288963530657,-0.5963071430106742
293,1.286851395429764,1.7083040024359346,0,0,-0.025126002707753788,1.0651545656422219,0.03434323960210812,-1.2342514111626228,-1.1376984721676242,-0.5328211351362844
294,1.2141122151518515,1.751604256011049,0,0,-0.19863746587896153,0.5444646060953607,-0.43567864760380204,-0.8410873682490387,-0.46212083633818735,0.42772648095143795
295,1.145071094363871,1.8097721448363828,0,0,-0.38374765046132725,0.6156968891587785,-0.5497977130806382,0.47152532684447207,0.28415439031019335,1.088166088361979
296,1.0848352869134426,1.8782992521103674,0,0,-0.3218559651829531,0.934106438501534,-0.2147957657911292,0.8302864247206663,1.2201585130885921,1.0327942144453248
297,1.0361708839895512,1.9496005377838612,0,0,-0.17555101725172448,1.1700969716652172,0.19390625833787695,0.8049923842319202,0.8772596179318544,0.35639330788403273
298,0.9996826270303634,2.014070776026635,0,0,0.03776516068338392,1.1834547327967406,0.3545677276417559,1.1016057132740127,0.8556885374378982,-0.03439678559621915
299,0.9742889019047916,2.0617644236350765,0,0,0.04750984538191528,1.0363910470149507,0.11303435841552462,2.0897551414779527,2.3788756698450597,-0.12679968143027376
300,0.9578367419771902,2.084313008150702,0,0,0.01734159561958178,0.9928172431463005,-0.07509950921716123,2.210605371251723,2.6995202467282415,0.09420450793358869
301,0.9477228067278723,2.076576373608375,0,0,-0.015020631164281595,0.96490865083901,0.01860478691448759,2.168787325117591,2.306302951834426,0.39420305946566464
302,0.9414324494907848,2.037558604051286,0,0,-0.05770866634354918,0.9394504356113204,0.09474808733130609,1.4879833623794094,1.0590449297426952,0.48376586329983373
303,0.93695193893203,1.9703475894071243,0,0,-0.13661129813483444,0.9443222170971313,0.09279630408827354,1.455413174078341,-0.2476117156221227,0.12239174016704771
304,0.9330364393517826,1.881171994615341,0,0,-0.2136879622889155,0.9492187444234269,0.025457633294758274,1.0457156829835026,0.4297565194963476,0.04497325376493416
305,0.9293313694891856,1.7779388576545216,0,0,-0.22432892535727814,0.9348699293670931,-0.05676672025668925,0.7735968253750227,1.150946204076788,0.11124112680190044
306,0.9263548732192521,1.6686993186787453,0,0,-0.1944498730823294,0.9046404479890088,-0.09283130717749262,0.552843498888002,1.4885723074662505,0.12200225997616905
307,0.9253593784791114,1.5603982579500324,0,0,-0.13667714377155843,0.8885700868387584,-0.06821594655295282,0.48360895947431226,1.5784525331878598,0.12650291365800392
308,0.9281009291955418,1.4580941340157316,0,0,-0.06122480787021685,0.892296171475479,-0.0337670660305756,0.42595327300000674,1.4412528115662506,0.22434859741767665
309,0.9365529091496246,1.3646878538177143,0,0,0.01610383582972278,0.910249527265497,-0.018996344905349037,0.5702454194922084,1.0009142465613703,0.28411963037785004
310,0.9526024661080711,1.2811176766409398,0,0,0.04003906328868676,0.931691416208225,-0.014648437539832667,0.7644210427331898,0.609982726681126,0.2767166668112794
311,0.9777628603570677,1.2069444230563073,0,0,-0.014787947002921647,0.989211341769301,0.009161085929786346,1.0015361248897803,0.4260603821643282,0.2290754393667335
312,1.0129259808228668,1.1412259174880401,0,0,-0.09564484967847767,1.0383155119792726,0.06486900353322342,1.0775992727272723,0.3898604505681801,0.2591856075568158
313,1.0581708295625014,1.083536767381413,0,0,-0.13860938492368063,1.039677607561982,0.08882552413187877,1.0864639444977038,0.40998820135809844,0.40481368792889855
314,1.1126393467626947,1.0349385975486332,0,0,-0.2041431906359241,1.0292968546853412,0.0882731807188115,0.997005330137122,0.47354398148847443,0.5982255279054057
315,1.1744904820156952,0.998674809697177,0,0,-0.35428271839064945,1.0191863791739957,0.010110464217092996,0.9447172018467582,0.7289480421591439,0.7434661717446003
316,1.2409421827743012,0.9803752916985481,0,0,-0.2982789192292628,1.161817169982378,0.07876874663941871,0.8535891135379123,1.0144828493724036,0.8175580798455755
317,1.3084027313604107,0.9876196091645065,0,0,-0.23619141668224194,1.3720994332017327,0.11449219753305533,0.6206857680765325,1.0627555921068348,0.7353112774287401
318,1.3726768998381615,1.0288232852085912,0,0,-0.2670560113685298,1.4812859421590472,0.1394093303274988,0.221563022829441,0.9255185538385433,0.6316640208547682
319,1.4292176520311186,1.1115706362400595,0,0,-0.31468499142196377,1.4599679328880653,0.2501618835559859,-0.17055239972388858,0.6941659001200486,0.48256778336134465
320,1.4733937570189972,1.2406864877906527,0,0,-0.2653567559278131,1.4107216629576356,0.3602055743127094,-0.45855429487861216,0.5479426033256265,0.32977389225433607
321,1.5007627688104712,1.4164648853125545,0,0,-0.07534374355647874,1.2375324377820374,0.4010945384096893,-0.491816827495528,0.14324152753428696,0.19249576375074526
322,1.5073665099722005,1.6335047945385195,0,0,0.24832084710605382,1.070036506104438,0.35076382249825866,-0.8650501291335475,-0.04082039961039119,-0.013087838193440053
323,1.4900798246221632,1.8805150059293296,0,0,0.6346367548431319,1.3067187360685404,-0.004187646651868242,-1.1808754786672035,-0.028087576970583297,-0.4972627644326616
324,1.4470235798047426,2.14125134944181,0,0,0.7158049573894724,1.465445074496259,-0.3412837069706206,-1.7998926123622587,-0.2156711667461501,-0.6891969356822291
325,1.378002240766462,2.3964811652276707,0,0,0.1255556774479887,1.5034670417132538,0.0005978643824765597,-2.5326041394427405,-0.6244094845172837,-0.7118267468622429
326,1.2848744516543493,2.6266023712500712,0,0,-0.3346486822412521,1.3785556713656972,0.3617494724830342,-3.4538591498212905,-1.143270447319306,-0.8042107714853067
327,1.1717468830282176,2.8143591497152585,0,0,-0.3531457371476884,1.1990280776145874,0.3319375611612462,-3.6952051903481005,-1.7777029246044322,-0.6292032647547442
328,1.0449080444169676,2.9470657604407653,0,0,-0.17467158809159755,1.0274940229513088,0.1778103075402052,-3.3223209821499817,-0.8799524009373833,-0.20958860971280494
329,0.9124728965759112,3.0179062570362563,0,0,-0.025089293646944455,0.9017938393146709,0.09346656787866975,-2.7260212103267185,0.5996690140520862,-0.3476544476038832
330,0.7837660039142097,3.026174070086814,0,0,0.05882916821515375,0.783999586654991,0.002825287555927614,-1.8727306274949471,0.3021948500605958,-0.680428646000003
331,0.6685137295077604,2.976622317903018,0,0,0.12968855139223867,0.5678238441094445,0.01815566700656582,-1.917024395826601,-1.3981542825364988,-1.2656562681523496
332,0.5759386975558065,2.8782716752890054,0,0,0.12106850476977458,0.4901838888826701,0.052406033952007436,-2.209233983855426,-1.3961417655421693,-1.0989049854216872
333,0.5138540738201863,2.7430137311793032,0,0,0.11628628761722117,0.49850196352728954,0.07587196505978644,-1.8415724207074673,-1.8114051096383292,-1.0357846987480104
334,0.4878460043333989,2.584219272525417,0,0,0.12497066694888362,0.5438389720862333,0.06645026210635681,-1.7127162527206767,-2.1345238244256346,-0.87847150841596
335,0.5006169990586999,2.415427920973717,0,0,0.1485747140086609,0.5422140782106738,0.034470174794779186,-1.6532163241689513,-1.99580035220963,-0.7890116357762996
336,0.5515510624858755,2.249132818211383,0,0,0.15922271842443655,0.45971957123935436,-0.014261175082549446,-1.398868567074396,-1.6569849899538824,-0.86169892493483
337,0.636559961089163,2.0956896162335994,0,0,0.15217120720308064,0.3747462708685147,0.03083165414210997,-0.7764459246945926,-1.3148443625834445,-0.934006830031709
338,0.7482740392791435,1.962438679930138,0,0,0.12026574024449012,0.35542232819636593,0.14589019831901937,-0.16495743590452694,-1.3485117860145368,-0.8447265445590233
339,0.876631868884188,1.8531823858837921,0,0,0.10329140652650967,0.4344851936667806,0.2845078643969052,0.20921679430141474,-1.322463059419152,-0.7249481768131856
340,1.0098799154831404,1.7681602025045595,0,0,0.07830981468611206,0.6208527399101375,0.5170182178299854,0.600175628681154,-1.0910920340014987,-0.6447681169913826
341,1.135909341752787,1.704595883848647,0,0,0.018737093182593142,0.9730849587701954,0.8664249133599576,1.0120025878048822,-0.5445640248780443,-0.636156585365854
342,1.2437495945248276,1.6577694472958673,0,0,-0.02114467149778813,1.5549329634083628,1.2126154037202834,1.524236627803321,-0.13015531991005272,-0.6655703838017191
343,1.3249499839378023,1.6224231807779987,0,0,-0.4001480828374715,1.8407077446142153,0.8301716978144595,2.1371602322295735,0.17421762202630192,-0.5984986321449615
344,1.3745644050770105,1.5941839676311451,0,0,-0.008562291836027995,1.3074556594841402,0.7323981901842099,2.5230168939393938,0.5417541462121206,-0.36430244742424284
345,1.3915417541175312,1.570624881753816,0,0,0.39773003192007084,0.783126260501896,0.547624129628123,2.3297370709231013,0.8126645092409549,-0.025111887021540456
346,1.378487698167627,1.5516505713745259,0,0,0.46086935581641564,0.9104969231249015,-0.14006481015868386,1.5971864693277316,0.2475992135086038,0.6827776326450578
347,1.3409197997296194,1.5390860421258608,0,0,0.3934698134448796,1.3429517127310424,-0.35420400309209177,0.32039383863155,-0.5452773530740126,0.39639554397364807
348,1.2862131820140288,1.5356126634688714,0,0,0.26423040742760867,1.7465381954266843,0.03415890526411053,-0.49703812046421114,-0.7294627556003965,-0.8127811821896981
349,1.222426117581391,1.5434095402752186,0,0,0.08076344868614527,1.0092069201761518,0.23057060016822364,-0.8444728432853771,-0.7733905577937648,-0.46010020139090124
350,1.1571648416986176,1.5629290918069854,0,0,-0.025744762831210525,0.367488134258276,-0.41488203527481043,-0.1395324870210058,-0.16854502273500813,0.49593279747918656
351,1.0966398114705265,1.5921556603008773,0,0,-0.11645528126780713,0.34127276097842024,-0.6064727194327914,1.3323030952962367,0.8813057306665327,1.0237717683746996
352,1.0450593730754862,1.626525963118273,0,0,-0.18943328312871024,0.7726407827952425,-0.3704954573418039,1.3266908484505255,1.512509837127487,0.7822528014898327
353,1.0044507396233293,1.6595058148625774,0,0,-0.27253268330071717,1.2709912446572693,0.028257528824242845,0.936032470078175,0.3496916979655295,0.014805369883444264
354,0.9748886813316332,1.683679939023675,0,0,-0.24707215868818608,1.2559205197580245,0.194626878188025,0.7653189407437092,0.2907889538384997,0.0741949651139567
355,0.9550057778432943,1.6921368486655937,0,0,-0.1581326654406867,1.0250546386530421,0.09796982721697511,1.2717302784177054,2.166871354682981,0.3560953406980923
356,0.9426137296172286,1.6798778248389132,0,0,0.08583218223709266,0.9148589592246406,-0.027297490965266614,1.8158071926494073,2.080834831235017,0.7864052455378566
357,0.9352924577470627,1.6449252088774586,0,0,0.14782553187727596,0.9311110782748016,0.015230108762130299,1.9210001553195748,1.1448186922841097,0.7112984082789009
358,0.9308647798192283,1.5888145234364603,0,0,0.04814155534905109,0.9541016555092718,0.04172230056014151,1.4442240297939717,0.4695443265372289,0.19055625621433045
359,0.9277264756207593,1.5163000867992815,0,0,-0.05598867531088002,0.9518838792750566,0.02738193988020912,1.352322589012094,0.12301021741532739,-0.19986932457661535
360,0.92502915196097,1.4343458757194532,0,0,-0.11039448752922705,0.9293858908097753,-0.03837343531014893,0.9996247151097946,0.4204230575904998,-0.16757108433828524
361,0.9227251829391547,1.3506865018760947,0,0,-0.09144027096417885,0.9217305473673915,-0.11396885816454684,0.7949236438225917,0.4044330013882248,0.11287308463504447
362,0.92149180412805,1.2723358648965983,0,0,-0.10371897829795194,0.9172908820088104,-0.12112133830933687,0.6076980722997423,0.4322510751937977,0.1056717976485788
363,0.9225591197629628,1.2043876121420587,0,0,-0.09016289168057708,0.9020373476728092,-0.09057138844926008,0.514184436952713,0.9687965192206721,0.18315821109019326
364,0.9274733845230443,1.1493343072260236,0,0,-0.032567042705781236,0.8941527265849029,-0.057478331977014005,0.45542436787420293,1.2250638542396506,0.26606189341162306
365,0.9378308942781436,1.1069839686432372,0,0,0.02201915443278896,0.9021897127007162,-0.05035981698248592,0.630702344032825,0.7515377567826871,0.3191654809945303
366,0.955017849088771,1.0749244820301072,0,0,0.022025792673554537,0.9303896293046022,-0.06755095112424701,0.7980982370299404,0.19594143495009966,0.3121658060159681
367,0.9799867714286223,1.0494085547404959,0,0,-0.005274305383323885,0.9646501917563597,-0.05989202645339704,0.9676947478994928,0.2307906269218726,0.2778664721947386
368,1.0130912103151397,1.0264959606823074,0,0,-0.04729882025516027,1.030529444280177,0.003777330348605128,1.025022543772672,0.3485079562918181,0.2889604446553815
369,1.0539902391798346,1.0032676056987293,0,0,-0.046029564380075,1.0205319646415345,0.05220986599161998,1.001860900779423,0.349299433996042,0.41646405553511967
370,1.1016256076133635,0.9789066090707718,0,0,-0.09570677896087841,1.0328429446204865,0.02849946624289693,0.9382500300733987,0.3360400037512389,0.6070576467764308
371,1.1542678804783735,0.9554382208132705,0,0,-0.2918991258182223,1.1177221402348019,-0.05190896714718124,0.9337281391649942,0.51396429137696,0.7107717405660382
372,1.209621102519237,0.9379479861339854,0,0,-0.24271087221662102,1.19833374889992,0.0029483571604427914,0.9267698164084235,0.7604155318335313,0.7182646763289635
373,1.264966640401391,0.9341613596261064,0,0,-0.15755893091374207,1.3309085303206736,0.0383372153318301,0.7232786765155085,0.8395533194510751,0.6153625551073981
374,1.3173187447066403,0.9533680607582816,0,0,-0.15439465221249293,1.4235514188013443,0.03457039470628196,0.438850490718743,0.8837881924541976,0.5848070799476545
375,1.36356379267622,1.0048048781099397,0,0,-0.22483804529242699,1.405886406352275,0.12773279723588615,0.014476116921640435,0.7180771196731629,0.5005534425131953
376,1.4005675215846918,1.0957500267249871,0,0,-0.21871581060219816,1.4016744770441656,0.2580815756177451,-0.31497281616135997,0.4975330857784719,0.33708817694471505
377,1.425259113941963,1.2296926139999065,0,0,0.020955973242690665,1.2313481787840708,0.2608226943153802,-0.37328241220035535,0.26055524641573946,0.21435722602972232
378,1.434728720270031,1.4049802001519427,0,0,0.2656112947086686,1.0403125594423168,0.3063331902068353,-0.7369851469024002,0.10749672758415822,0.016527490602550363
379,1.426389516658124,1.6142871774616474,0,0,0.5132120340771003,1.1840002049949838,0.22482286461294151,-1.0475397780546305,0.1914657042834355,-0.3113277932808589
380,1.3982403914552068,1.8450866579933036,0,0,0.7269898097011742,1.4001779707385964,-0.04983695949905454,-1.572533909330663,-0.0347196035832126,-0.6043390287512471
381,1.3492198067494885,2.0810839335460374,0,0,0.4918149877441463,1.408403813196068,-0.19922046414330638,-2.1723575062376055,-0.20167957668254802,-0.778432623293606
382,1.2795886982884948,2.3043422463524603,0,0,-0.04891756853037359,1.2593949352105136,-0.022568066031744945,-2.8260228220890675,-0.0439869326802424,-0.815611912965846
383,1.1912524012416639,2.497669317835657,0,0,-0.3326378449752032,1.1467798089604702,0.29012672530751626,-3.1630920984886695,-0.4188575062991821,-0.9452754731989871
384,1.0879394787424386,2.6467875288425824,0,0,-0.30992028646974235,1.1245513294974692,0.29519364341886906,-3.067167733954326,-0.4110787120192292,-0.7608708731610567
385,0.9751833230819219,2.741899791709449,0,0,-0.0033973428255382214,1.0022756335258025,0.09519601968936023,-2.912756371207313,0.03244342057187805,-0.5217547146544976
386,0.8600818856934092,2.778458713598059,0,0,0.12158605667507186,0.8941572790838311,-0.039425516300070046,-2.291773974945327,0.055603861058067285,-0.5032380821833342
387,0.7508371328379545,2.757175566599924,0,0,0.17520757934935613,0.7583244622444618,-0.01602827269798259,-1.4649487516264956,-0.695407085858754,-0.8454435058823522
388,0.656100863986964,2.6834746739326683,0,0,0.16661462152396567,0.6418906013251944,0.08941954985902269,-1.9124053914509418,-1.4175419187236742,-1.0371515892835685
389,0.5841764222690328,2.5666399260306765,0,0,0.11574605405282885,0.5884744112199612,0.15607346216146983,-2.039137036764707,-1.6548220264705857,-1.039998
390,0.5421443388150513,2.4188167757060195,0,0,0.09113372582903083,0.5745230858550379,0.15001365680743922,-1.957749041505922,-1.8698661720812186,-0.9332294429441622
391,0.5349947150820319,2.253907318147383,0,0,0.09684422404452304,0.543028758293562,0.10675599238971852,-1.7913987832552678,-1.6341542409836047,-0.7504797975409832
392,0.564862840045095,2.086328468512998,0,0,0.12270420810283794,0.4678099054586944,0.07436011607916128,-1.5608677316946389,-1.4266022817745772,-0.7332534252717838
393,0.630477860067088,1.9296348369053842,0,0,0.15655722945168013,0.3950701443247559,0.05521784083910435,-1.1342311682989688,-1.2998764296391752,-0.7950694790721651
394,0.7269417105808286,1.7951043595438574,0,0,0.1624867734339304,0.4057947880530422,0.09754860061475905,-0.6854146428339931,-1.2164507839199996,-0.751148448603997
395,0.84594471756643,1.6904829378527473,0,0,0.11249856438859347,0.4680691853878935,0.18672270446509653,-0.2709516755986515,-1.1238694881654447,-0.5905285290421521
396,0.976482307996846,1.6191363557532477,0,0,0.09557890370350068,0.5608973920645094,0.3120830353497594,0.15898698249849677,-0.8462617298975672,-0.5054738234585258
397,1.1060587431269413,1.5798399103083107,0,0,0.06792458817496558,0.7275829594494196,0.5453065617541336,0.6526643898006763,-0.4210302928588754,-0.5028000871350907
398,1.2222556341416184,1.5673409146112731,0,0,0.04934922190705438,1.0876515674606706,0.8981084496470513,1.087629764862731,-0.11728819356783847,-0.5073002241305207
399,1.314426523553955,1.5736637214166163,0,0,0.002600765030871285,1.639249104903399,1.2957315757044952,1.6390311060654552,0.17200024092578428,-0.4473144807342349
400,1.3751922037762627,1.5899229250117162,0,0,-0.7727683607872758,1.900298016137974,0.9339590727072979,2.257124428351958,0.5664122277932985,-0.23250083247206532
401,1.4014045285473185,1.6082303581288195,0,0,-0.1339781958345127,1.5497619691444038,0.7736082542854708,2.563815032858861,0.8626468777746573,0.09532890200400393
402,1.39435278973436,1.6232035262671494,0,0,0.43234342081637134,0.9365228690572868,0.2160591784959684,2.4025078978356014,0.8178327262271868,0.5066402991361906
403,1.3591834916092125,1.6326644616811608,0,0,0.5487532364610298,1.0730189622896062,-0.16586583517759806,1.8518536446417142,0.2623700529462272,1.0887472857690126
404,1.303708555273945,1.637356025021328,0,0,0.4638068914750113,1.1888768271584156,-0.15678850183872542,0.1952294626640094,-0.5461153825459499,0.34266174711478786
405,1.2369035578773138,1.6398180067617976,0,0,0.15679034997311228,0.858230611882722,-0.07859521157096944,-0.7657359149820264,-0.5892311844266872,-0.7718465213423882
406,1.1674222599047226,1.642828487013847,0,0,0.007514162941862631,0.44699252981602017,-0.4412188426396504,-1.3404858505346315,-0.34482265395848355,-0.27491404521851887
407,1.1024051603720368,1.6479212917226702,0,0,-0.09426712920023082,0.4336322207077043,-0.5437234557841285,0.15967912717218088,0.4020011744790654,0.6035896850645494
408,1.0467656767299014,1.6544239965634069,0,0,-0.25848304206022515,1.0287241841780739,-0.23862497390699444,0.7766694936632843,0.42629741441706365,0.8802556281093394
409,1.0030089261302455,1.6592844844490118,0,0,-0.27554369449340216,1.3578210682456526,0.1913800969714128,0.8881748498797506,0.25240070353242483,0.58518066505027
410,0.9715016590632022,1.6577307449486487,0,0,-0.12909199308075547,1.1944984015501485,0.3523300603112723,1.1775921630824393,0.7512492790322626,0.3724581152329747
411,0.9510188875857666,1.644573937835137,0,0,0.005783869554426172,0.9479618766147131,0.12048509142570155,1.9705428023454457,2.0715188315245365,0.40325199190219857
412,0.9393794664024406,1.6157607671034073,0,0,0.10944895199776082,0.9121040233685882,-0.08748430670871488,2.0142771104088517,1.768785370827576,0.613463323488051
413,0.9340351041281741,1.5696808276982759,0,0,0.02839352868383832,0.9380603057128134,-0.03890013601198892,1.7272510988999648,1.3663130834999662,0.5547877757599867
414,0.9325457753513325,1.5078070329756765,0,0,-0.04962487283902768,0.9744723277469157,0.024508441131452556,1.0734068716928022,0.5795369939887501,0.20747607121029557
415,0.9329211823508156,1.4344855298548935,0,0,-0.07271875380112476,0.9490625496484988,0.05474374794804768,1.1099492690343187,-0.5172400675658192,-0.07478443563367267
416,0.9338286446867131,1.3559856149308893,0,0,-0.08851084231718577,0.9174173032372149,-0.0043076897253942125,0.917643678481812,0.03748086179677087,-0.03554838345735996
417,0.9346767532984398,1.2791311314064142,0,0,-0.10077799627255803,0.908955684278046,-0.12146218010993798,0.5999717238640884,0.6355526678246944,0.1895744307800612
418,0.9355910235028498,1.2098957958241403,0,0,-0.08303221893688205,0.9469445138653924,-0.17175104297684676,0.4779929209215768,0.9345736978284139,0.26021492115843997
419,0.9373032427728543,1.152281758089634,0,0,-0.022059781729581937,0.9330678108154589,-0.09725509595052904,0.4437314473899247,1.0094150064656884,0.2523449086711622
420,0.9409792054559553,1.1076805157440675,0,0,0.04929925602519224,0.9251720739250051,-0.052373232313721374,0.4698943077158994,0.731032862650869,0.2978549072035715
421,0.9480112517480648,1.0747957149297618,0,0,0.10968335117397889,0.8978053550354252,-0.04946543232887798,0.6984957047912569,0.35208402565208224,0.32496890404572554
422,0.9598031275900614,1.0501142985961947,0,0,0.0959189165514976,0.9051692944703209,-0.0708045633225986,0.9096782400319628,0.14749832443467803,0.30903803688373876
423,0.9775730534352793,1.0288410723414607,0,0,0.004746973936371869,0.970898302980323,-0.054858456241784814,1.015429311693226,0.13030181858565623,0.23615618417131626
424,1.0021942201452947,1.0061482198387177,0,0,-0.061810745028054344,1.0195180496992182,0.015659287580885067,1.0157809879472293,0.24392278520088484,0.20353533584649547
425,1.0340813155558197,0.978535695169184,0,0,-0.07582212378587352,1.004129833010874,0.09297985933372702,1.0047893007137203,0.3186888241443208,0.31211759893533425
426,1.0731213633192331,0.94506371647611,0,0,-0.14216958942755653,1.0693548287754078,0.03188951298521946,0.959123215536992,0.4024770864518741,0.49501820513126954
427,1.1186406093416403,0.9082149465744741,0,0,-0.29230971061935807,1.118794217224519,-0.04409444218747852,0.9584520061711079,0.5969842528250837,0.6402315959927866
428,1.169396731942945,0.8741742459218947,0,0,-0.3001840889357824,1.1206765355534727,-0.015042144633450789,0.9321109501010264,0.7759545412876471,0.6669579362935759
429,1.2235861782255937,0.8523813618561529,0,0,-0.178186621577165,1.2356224339364619,0.058907770100864926,0.8144739775287689,0.8057135418574598,0.5796796285382593
430,1.2788596011852822,0.8543218790058814,0,0,-0.08808981329982252,1.3664559971418846,0.06582924722484657,0.46268456939740377,0.7523212277668382,0.5331847111697522
431,1.3323445961512528,0.8916702507700408,0,0,-0.12817130256324782,1.3585994261440235,0.1299477932307087,0.04424239468961718,0.5901552359928395,0.5002165602069243
432,1.3806851987509687,0.9740603472041164,0,0,-0.22706183030597735,1.314876756291727,0.22704395630528598,-0.26315030824686736,0.37693320093345983,0.38342499682931
433,1.4201222306943697,1.1068894499964288,0,0,-0.15896745656382658,1.278102338816513,0.28104812400960577,-0.22188286231838214,0.19757913818578354,0.2833676378642309
434,1.4466530475802686,1.2896156491633224,0,0,0.16150703787008353,1.0960314795502173,0.31419266261166967,-0.5212345768990383,0.02143987626442293,0.11634829183413486
435,1.456312016309481,1.5149578309568725,0,0,0.5004303676413974,1.0851057484600342,0.28252863933475786,-0.7344306903668626,0.26582437343624327,-0.23581614918803898
436,1.4455908721605657,1.769249687891795,0,0,0.8111361179172687,1.3364487079223428,0.01642466064632004,-1.3360874672328047,0.2101074397602227,-0.44208915352648004
437,1.41196813773451,2.033961308231798,0,0,0.7875326886983912,1.484240533010127,-0.30049121892371544,-2.105168819951941,-0.21513047278246886,-0.5823164937199585
438,1.3544576733463756,2.28813852662081,0,0,0.24128154267599258,1.4717729688875376,-0.14001188861766134,-2.640594642181812,-0.2836387953696979,-0.778759526496968
439,1.2740522608073945,2.5112927573425097,0,0,-0.2070495274384128,1.2703214196557977,0.33425806922928564,-3.2059798435151423,-0.5656406980969345,-0.945872075878783
440,1.1739512064773574,2.6861687157744036,0,0,-0.34350515637923523,1.1855644355362072,0.4192020406110271,-3.331632508039545,-1.2268045662749492,-0.8185945300783457
441,1.059511787148628,2.8008615284946807,0,0,-0.15360342070279168,1.0086474058295043,0.15901849033413912,-3.2396754012091145,-0.23644843290978232,-0.4502911013597593
442,0.9379243123637078,2.849941186875707,0,0,0.0826426214314147,0.8488517226868642,0.030202951922551954,-2.6706560955844125,0.7532301600519481,-0.45503114870130035
443,0.8176573939989455,2.8345143332353153,0,0,0.20406156365255176,0.7510125025562501,0.017437591190051695,-1.7010801475318431,0.285443921688678,-0.7195045448726187
444,0.7077454021363007,2.761413238461616,0,0,0.23109105429631124,0.6364424502017789,0.10115608205529658,-1.976766332811873,-0.8078033822101222,-1.0186884532089826
445,0.6169942563620443,2.641848147186908,0,0,0.1773743537735081,0.5842300693391251,0.1708948144581682,-2.12486685745231,-1.2969002231915687,-1.0662705807034967
446,0.5531714728657482,2.4898485345314776,0,0,0.11945792555167928,0.5929736894948252,0.18668208642152903,-2.043050984476888,-1.247932627525512,-0.9988937978555671
447,0.5222337695332471,2.320701218030843,0,0,0.09662791800672234,0.621453298356406,0.14545318641577,-1.831490183316844,-1.4969427297051254,-0.79533997865229
448,0.5276419107503714,2.1494708260013438,0,0,0.12109375780720227,0.5380859620767541,0.05664062651364126,-1.6934450351085215,-1.4558355611133447,-0.6524021673251608
449,0.5698231720908964,1.9896317901683482,0,0,0.16807323144185152,0.4017594986807779,0.027552719688721545,-1.427081946592475,-1.339599855771901,-0.7090785963838686
450,0.645862560125894,1.8518542098237865,0,0,0.1851433844744761,0.33607199008534744,0.10104402344119082,-0.8952349379026189,-1.2504580083894565,-0.7455525958052718
451,0.7495193828462177,1.7430332699206323,0,0,0.15189317393705515,0.3571735340813038,0.2061424991193406,-0.4024841192756386,-1.3937644365945656,-0.6278963040365092
452,0.8716550349115385,1.6656954461226,0,0,0.13140053454643694,0.43198816294031134,0.314259497169327,-0.03521575273668585,-1.3193574369928491,-0.45772856785203114
453,1.0011067423777473,1.6179267712278735,0,0,0.11661775848551768,0.602892604468117,0.4858068071466351,0.4505538558468911,-0.8254362407300678,-0.3689751298337953
454,1.1259522703148164,1.5939325786738836,0,0,0.059103922988922,0.8834372120114827,0.7338513725468127,0.8799718329339098,-0.2771352196564604,-0.35808511839025586
455,1.2350011316805096,1.585246485696019,0,0,-0.06962246465613671,1.427260396864664,1.0595950292115566,1.33574772494532,0.07005033912473416,-0.41024679413566834
456,1.3192527223193005,1.5824608499248307,0,0,-0.4465699247724268,1.8872458219669637,0.9294311190393124,1.9619433187011484,0.24090031681700022,-0.38565426281819865
457,1.3730258276309169,1.5771793829585863,0,0,-0.1282060237826331,1.5587772891485525,0.6842744757454196,2.4464884232224726,0.6259667208145894,-0.1468029931822246
458,1.3945234355932568,1.5637610775789046,0,0,0.3667031172691999,0.8970837981518358,0.6601604972803363,2.432884354591311,0.8088894628758787,0.2817968911200977
459,1.385744447487254,1.5404129892797143,0,0,0.5242046811933676,0.8717317864468653,0.12383716749701429,1.9489604781417134,0.510583129761729,0.7864115350685132
460,1.3518236889499462,1.509336826667321,0,0,0.4824459163774112,1.2215531654577851,-0.15562817687765926,0.6703320782406966,-0.46732178572366634,0.7420836626429218
461,1.2999915010745617,1.475899222961477,0,0,0.3220675267451726,1.5470487793498433,0.07787549161671938,-0.2397464832967562,-0.9737689041757551,-0.8745200567252787
462,1.2383653837032915,1.4470699139767533,0,0,0.1086922528031363,1.2429176987363824,0.24807343074813482,-0.6535082892716598,-0.670758609301182,-0.6949412723424919
463,1.1747595459019475,1.4295484439333221,0,0,0.04377118557082044,0.5928221095526208,-0.14504914081101355,-0.48280674904282905,-0.47131450608171943,0.11959225094721251
464,1.1156752694169818,1.4280362885340767,0,0,-0.14986204770579753,0.3801428782950608,-0.6426194332476515,0.5881843879769068,0.10637431669533667,0.9440845587241469
465,1.0656168924835154,1.4440318368585887,0,0,-0.21177192515592094,0.7054687578710264,-0.4966477825899525,1.0149609939334339,0.7027903250147429,0.9695888461690048
466,1.0268281762129516,1.4753798196044876,0,0,-0.19281268271310958,1.0859991312085957,-0.1340405176691442,0.712122987014925,0.3291583492537297,0.27169028772387854
467,0.999449125605153,1.516641354423679,0,0,-0.13253790152396683,1.3079730860751653,0.18788185396590087,0.7248033614724781,-0.11269007027632182,-0.1014096021468537
468,0.981991770503589,1.5601931714162378,0,0,-0.0789076552054579,1.1226110213910778,0.16058667762205145,1.2992166879463158,1.1835287390806153,-0.21069018023673927
469,0.9719767117083397,1.5978126662480137,0,0,0.0012211948720771877,0.9255939064121246,-0.056627120765519186,1.8095070554693633,2.349155139081158,0.18941925040571758
470,0.9665792861531678,1.622367426146408,0,0,0.12502335327465477,1.0140223111681452,-0.010686151925324981,1.8943231181444506,1.6838533470933539,0.4491626124955966
471,0.9631820167125584,1.629171397384423,0,0,0.10115127620649168,1.0015100991117412,0.08199940715321134,1.6632706236841852,0.5211338096172036,0.2806216991387433
472,0.9597813088430046,1.6166719861186585,0,0,-0.02412075195812162,0.9688886983362611,0.0777331541251532,1.3407320463927848,-0.1330503678296773,0.015346918236661344
473,0.9552309987898566,1.5863704110763819,0,0,-0.14402565706582784,0.9617088781677552,0.01917802554400971,1.2242892527788996,0.20689574506593175,-0.11993170291484001
474,0.9493255934526481,1.542122714537711,0,0,-0.18431177886376263,0.9539006396569041,-0.04025430578037263,1.0322149560503073,0.9157166384984279,0.026297212190304488
475,0.9427401651072491,1.4891022647376917,0,0,-0.16559658168890729,0.9266939955881147,-0.0820822601297378,0.7476379487199876,1.0009457047200008,0.1120615163279994
476,0.936855189305228,1.4327065715778238,0,0,-0.1272205773449811,0.9080255892526119,-0.08797961574280957,0.498696827873796,1.2335145076969432,0.1133630090373792
477,0.933503075300114,1.37761717057313,0,0,-0.08560514884456806,0.8997240880754162,-0.08315076784746571,0.36954549513225465,1.5119824183774169,0.16403655273588605
478,0.9346779991311431,1.327133409808203,0,0,0.013614500627029995,0.8610349115880445,-0.07114241946663212,0.39508589965300034,1.3078322831137363,0.18574554781221098
479,0.9422503892733495,1.2828358882546183,0,0,0.03014047749346518,0.8845847157976671,-0.052435751319308846,0.5409276602608493,0.7768408406092854,0.20230366422582305
480,0.9577203151211527,1.2446030233123508,0,0,-0.020941715897134852,0.961745135540551,-0.037266125040447955,0.7135729046961734,0.48133701248107386,0.2399550062104443
481,0.9820302740734654,1.2109876812572815,0,0,-0.053710941045107145,1.038584236777349,0.00457937185433905,0.9180544861303082,0.44226643,0.22976162266535
482,1.0154416581611716,1.1799267355562923,0,0,-0.0449218744423427,1.0673828473535816,0.08512251723060386,1.0689643509954736,0.4524378853656586,0.28101709819239534
483,1.0574680559629384,1.149688138618857,0,0,-0.05859375015933067,1.0488280911422352,0.10937500573590371,1.1792655238785847,0.43193868978414496,0.41745613711637075
484,1.106858162852,1.1198783336209093,0,0,-0.1327341723207825,1.0340206383040549,0.045522998288374666,1.153667959001603,0.4776480535605473,0.5722434453889352
485,1.1616293044857826,1.092277653350747,0,0,-0.31567959017072056,1.0115209666785159,-0.059424568479682305,1.0836688408031814,0.701846437592351,0.6468117335783296
486,1.2191596937481481,1.0712703734912037,0,0,-0.2871351000811056,1.0821807008799147,-0.011155735951387812,0.9027517975986229,0.9806128482549541,0.6273986782814706
487,1.276343352061735,1.0636935430059733,0,0,-0.1510855076263521,1.365764068525297,0.0527496689621349,0.6209861603206253,1.1208190178356747,0.4985070377154291
488,1.3297942071156887,1.0780337045600714,0,0,-0.11721176703107469,1.4688349469920154,0.06233016305040704,0.16145448976927215,1.184033225642582,0.5253541687310267
489,1.3760654503847987,1.1230352082148747,0,0,-0.21058064382370653,1.440202770989134,0.21312146576980057,-0.30421053827212813,1.0485123564519343,0.4942367499899651
490,1.411843492853935,1.205925014846536,0,0,-0.245511375817363,1.4665663350406128,0.33472442707185646,-0.48399372424815235,0.8122053939851598,0.30336842516363505
491,1.4340927779836805,1.3305795734606358,0,0,-0.08778392023424673,1.3245579277739548,0.3735945145718946,-0.4556796341195366,0.4768223892883905,0.15222729796921108
492,1.4401623814021614,1.4960293256906845,0,0,0.14883018111864732,1.0925921537961647,0.3526447338426485,-0.7062375595896699,0.05051969487189808,0.008850331680146583
493,1.4278983631534208,1.6956842546684852,0,0,0.41324679166969713,1.0249022241371892,0.2795148147917158,-0.9693326342629511,0.06372200809163275,-0.3092156025498021
494,1.3958141381596474,1.9175483224920844,0,0,0.7629002529450496,1.2764741243275533,-0.12182608524297318,-1.4448579611409298,-0.12396740062611973,-0.44024192521963806
495,1.3433420038975772,2.1454807484442084,0,0,0.5963931194041621,1.3416686630946066,-0.25438628205983327,-2.0871528579497642,-0.28307861648355787,-0.4999605222514558
496,1.2711345826402622,2.361307364012085,0,0,-0.04322181529320918,1.3207543513802817,0.0647994780637552,-2.891500429597477,-0.30610182886345916,-0.5793517802052106
497,1.1813385193164023,2.5473616473757685,0,0,-0.3116347931543286,1.2374056865979113,0.3481091740273612,-3.352903905379734,-0.805669894897131,-0.835904584473883
498,1.0777509806478942,2.688918267080453,0,0,-0.2696482359688574,1.1175452626534124,0.24627516680858666,-3.379991129601522,-1.0437004075901413,-0.7863516323719242
499,0.9657921683960666,2.7760217355887344,0,0,-0.04664881797304025,0.9540746221251442,0.0871576683902579,-3.1773679263556525,-0.07316268889151853,-0.4631196592703284
500,0.8522666009576982,2.804407366389086,0,0,0.09384738711343336,0.8304146281179299,-0.01147819825708521,-2.0986490450640334,0.2347458932973559,-0.6054789054956393
501,0.7449254375097625,2.7754908242734024,0,0,0.14766723471786095,0.7067839357313195,0.007688559782095216,-1.4059296083900594,-0.25645917584698313,-0.998762739807763
502,0.6518709854482241,2.6956433258357344,0,0,0.13098198428702393,0.6121023540727054,0.09679973686980116,-1.8106622075214986,-1.6654874065413052,-1.1803517140028015
503,0.5808583232919209,2.575063015274193,0,0,0.11543236532392175,0.5766909429858351,0.1784246541119418,-2.0718282318473813,-1.554660986746994,-1.0801892251405616
504,0.5385506816807929,2.4264862408625407,0,0,0.11909041626973241,0.5965290731513407,0.19681023698252154,-1.8191564860738954,-1.71558027681689,-0.9807157391392655
505,0.5297835329046457,2.2638509449369923,0,0,0.1321725292424705,0.5938627007504634,0.1642199549315693,-1.6896670563250002,-1.557369328546129,-0.8186474976785345
506,0.5568967840292184,2.100943064835079,0,0,0.14916533332217266,0.5301633320991609,0.12751988890295704,-1.4758809861863058,-1.3697082066082804,-0.8063929246218152
507,0.6192100601357838,1.9500649863681587,0,0,0.1395643572976308,0.4081113778593422,0.080307451219666,-1.1094817972076625,-1.2329337757417083,-0.8799922267830143
508,0.7127377679818911,1.8208249157679388,0,0,0.11084362063450194,0.4068365150263494,0.1513596402371424,-0.5625982674258123,-1.2277032300617214,-0.8579715162253542
509,0.830251905544368,1.7192026427640708,0,0,0.07836320622240439,0.4556100304780866,0.22592728117389502,-0.17505024688998988,-1.2608719116352824,-0.7084673627314172
510,0.961781103309472,1.6470664106321717,0,0,0.09554434932168168,0.5173782452936405,0.31452389612907555,0.21113929626861064,-1.0514738929231926,-0.5771229905991128
511,1.0955726695053667,1.6022845587737402,0,0,0.10953556678397489,0.6699482694920506,0.5391021124116276,0.6158257178514746,-0.7296182165734463,-0.5048460982148544
512,1.219445058823927,1.5794928683240248,0,0,0.07074319844362667,0.9942957213436306,0.8852547462740396,1.0759669570971937,-0.34289213945620234,-0.4914624716513425
513,1.322342224972527,1.5714498513604818,0,0,-0.05964747866237866,1.5812666763867178,1.2692459426011782,1.5617943589296366,-0.2025251526999422,-0.5354366238123871
514,1.39580638622242,1.5707560569184327,0,0,-0.5722411027852959,1.88749523051939,0.916691120426721,2.1445684330813557,0.01563527040659963,-0.4561410492460735
515,1.4350611052485949,1.5715719140245739,0,0,-0.20077156138476665,1.5468396471601429,0.6663820181590808,2.4959236842105184,0.5363384485020024,-0.12412312315791453
516,1.439476782180677,1.5709043977433526,0,0,0.4081126192610716,0.8825312375446976,0.5725951589520164,2.3228470298263075,0.6606645197444578,0.3447421477800103
517,1.4123561233547781,1.569100032342048,0,0,0.5978568575467128,0.8341450998054878,0.06518525510038856,1.6369865753605821,0.1265837519442618,1.0344015088915368
518,1.3601490594557981,1.5693856421027095,0,0,0.483753782250421,1.337844966176935,-0.3544602771335964,0.21595434604568015,-1.013989661272382,0.38536308838959665
519,1.2913036220732372,1.5765755280575864,0,0,0.20226754315494716,1.5746756223867155,-0.06413786729527084,-0.5372932221867619,-0.9185376876718103,-0.86498517
520,1.214966702957131,1.5953082884655305,0,0,0.08826400193748447,1.1523256044488317,0.20350532698778023,-0.8539959267909667,-0.5722125461825204,-0.5105113161137925
521,1.139719371705758,1.6283006360448775,0,0,0.05722939055441548,0.5073565198584077,-0.26417152154382917,-0.2383107877221691,-0.1806782279281818,0.3052816105662364
522,1.072515083111613,1.6750834387512405,0,0,-0.04006308098130695,0.39204068361822214,-0.5728847620860704,0.9868142069129533,0.4230896939014294,1.0553220329360273
523,1.0179757711487454,1.731541955467773,0,0,-0.12892766748860737,0.6522780081083999,-0.4147123766159379,1.2133040559585626,1.3564882862495007,0.9649210460183744
524,0.9781472017018983,1.790368505488234,0,0,-0.2294849190771622,1.0927170772346881,-0.0561052266256853,1.0670988857393249,0.6100119536528041,0.020527178182326935
525,0.9527110773363903,1.8423188267393706,0,0,-0.27895224997563217,1.3023202280511317,0.1689395849836078,0.9442906600155907,0.5011744698480378,-0.2564017415627478
526,0.939541396039963,1.8779947003056803,0,0,-0.20305903703962191,0.9903616590607743,-0.0054535499486241664,1.3153094222925017,2.36362410867595,-0.11194298439326246
527,0.9354328196827376,1.8897565911875203,0,0,-0.03733255346666446,0.9208693762327521,-0.04222034894243744,1.6985241729585996,3.163591458944181,0.5553017540448104
528,0.9368381319109524,1.8733010866113682,0,0,0.0822388577426194,0.9799115648885679,0.040128252881051436,1.804164735790318,1.7641368162280784,0.8593438547097738
529,0.9405028085270093,1.8284810060055388,0,0,0.12086025071463209,0.9862405631787643,0.11457436097520186,1.4970762367133428,0.32787635062928805,0.43245915886958525
530,0.9439366565814316,1.7591577052811123,0,0,-0.005869810999186034,0.9783606811235753,0.10071336606926683,1.3162861101420666,-0.1186907047257318,-0.12560115681411108
531,0.9456968231617853,1.6721864097226768,0,0,-0.12029073635336453,0.9832924576070647,0.053392783634813264,1.250992327316874,0.5174385258235566,-0.21209977483407275
532,0.9454787071005458,1.5758839650502774,0,0,-0.12959221045697214,0.9378129286612614,-0.04901264432530377,1.0062834040623123,0.6907577199073135,-0.03539073416189705
533,0.9440305303553077,1.4784101300385983,0,0,-0.11718750031866133,0.9272549502413269,-0.08936434057601456,0.7743435039840489,0.6119701466135522,0.08722412943825322
534,0.9429249167809148,1.386427905030791,0,0,-0.11392605622384183,0.9264167068437077,-0.10351562460167335,0.550393506576859,1.0089322131141143,0.1995872682052305
535,0.9442338711248892,1.3042700937976992,0,0,-0.07829562432640332,0.9077486228274401,-0.09563215876025767,0.39581309922425917,1.4698176194640349,0.26208875077574084
536,0.9501600946100336,1.2336879731711052,0,0,0.00038088722995932475,0.8921256755077902,-0.06713194058140527,0.4311525388785874,1.2979580195261242,0.2962539209299104
537,0.962677497701151,1.1741341491708477,0,0,0.034046407492164,0.9058732238900993,-0.049926447454740536,0.6154692261664474,0.7078699140518206,0.2796721079672565
538,0.9832273319382091,1.1234629507544471,0,0,0.010654869882933474,0.9503699439293184,-0.04199218693437616,0.7821127853711791,0.3248154006073838,0.2218327854922588
539,1.012503807127027,1.0789132597077964,0,0,-0.029946541915803298,1.0075107551008504,-0.020935292302550392,0.940569640286464,0.3413332288924758,0.17224477563042156
540,1.0503461920815846,1.038232291851501,0,0,-0.0786438905043954,1.0266005633068176,0.054999070510699806,1.0213353921732222,0.4442529696642821,0.2613901441021045
541,1.0957371238517108,1.0007733733864586,0,0,-0.14808479015707623,1.0571748692777316,0.09588049708156562,1.0202326167340352,0.4979066193007282,0.4110398460165792
542,1.1468927347423792,0.9683646718538615,0,0,-0.2484225887237066,1.1241094202310757,0.05862588684299922,1.0133827138316664,0.501918502530899,0.6244173765155956
543,1.2014200505034989,0.9457327881995,0,0,-0.22953015956182568,1.183653518733006,0.04908518327261418,1.0221577642042032,0.7230978820120075,0.7279688761681674
544,1.2565099653434415,0.9403014173523071,0,0,-0.11590592645191448,1.2847625872575528,0.09058386357422694,0.9895222887720713,0.8708244171098036,0.701256376324335
545,1.3091301109487121,0.9612787763795922,0,0,-0.12543907495350576,1.4441693605816834,0.10083743923911143,0.6754945261939315,0.8392175910250815,0.6252324501204743
546,1.3561838085588875,1.0180916875734292,0,0,-0.21773683691374238,1.464397788271401,0.1561022124410592,0.27956063957718424,0.720508386635421,0.5267357292879938
547,1.3946136257484973,1.1183954726589649,0,0,-0.24688840796843034,1.3708790048636839,0.25806010427537523,-0.13622111884553487,0.5245781018312136,0.4069491023487302
548,1.4214538030288542,1.2660413725289519,0,0,-0.1602990584274344,1.3003341733910023,0.2794715357431443,-0.33872845594707596,0.30537440598918514,0.2860895288274228
549,1.4338697659152104,1.4594607195865825,0,0,0.07955708333192821,1.07313627871801,0.2758863302789053,-0.712446018025007,0.12962026381916067,0.14507630801306787
550,1.429248365578565,1.6908873811746568,0,0,0.3547536479618294,1.0773272305845878,0.23321966926169757,-0.9577240315648283,0.32138868074422605,-0.31669879489229114
551,1.4053982500774327,1.9466839543446846,0,0,0.6565689020754396,1.328282290847431,-0.1462499475907406,-1.3798676256287417,0.3132391356087827,-0.6331922849181635
552,1.3608769754853958,2.208798177922747,0,0,0.6660156398974165,1.3859863459999084,-0.2939453151687885,-2.1215436738627678,-0.06815963062837424,-0.75017232183886
553,1.2953973981872873,2.457113763288243,0,0,0.1432938606210586,1.3341632639546581,-0.07144317561445455,-2.8838359919479166,-0.10048992459049143,-0.7665958145352275
554,1.2102165792118922,2.6722418012685836,0,0,-0.32723237670131194,1.2832141221324638,0.28486063650315596,-3.567441423102966,-0.6550256237004553,-0.8138985753754231
555,1.108401644149456,2.838188046157035,0,0,-0.2980482903184176,1.0924442624916384,0.20330867894709734,-3.4278010683168287,-1.2392059875946322,-0.5297019976354012
556,0.9948948081345717,2.9443707790164897,0,0,-0.15558846311018962,0.9798588111696848,0.1474437543151978,-3.179587587190825,-0.4604586952543468,-0.20161390519806516
557,0.8763419369851854,2.986651271768025,0,0,0.009599033226296164,0.901713806324067,0.05960191033357068,-2.919472820290408,0.13190529151846886,-0.26175121679750174
558,0.760687219038648,2.967309112757246,0,0,0.08601627936258807,0.8005403608478177,-0.012102863288797094,-2.1727384646159784,0.1846415709126298,-0.8814701744511815
559,0.6565640827322174,2.8941421777536807,0,0,0.14083488115935233,0.6766784030572268,0.020540913745166655,-2.1561654475551078,-1.0419620506412766,-1.1283786433266547
560,0.5725311443307622,2.779007464607661,0,0,0.1449734438537752,0.564231937705304,0.08170885723022359,-2.1446080575498674,-1.1653301076719638,-1.02685903021978
561,0.5162166537473287,2.636122196268978,0,0,0.12442470120782054,0.5044225684045217,0.13712292588631353,-1.884996265020157,-1.4889535830645353,-1.0315127806955566
562,0.49344887926270786,2.480360449593499,0,0,0.10991271381019,0.5046872801118544,0.14282253145966556,-1.821501482957397,-1.7858676303258096,-0.8103456908771833
563,0.5074632286871427,2.3256818367166234,0,0,0.07874911239040351,0.4874955950065632,0.07563584837600626,-1.8242190636170221,-1.6484406602127692,-0.7431176
564,0.5582886615151498,2.183768949423164,0,0,0.09362720823630674,0.4129813936054074,0.019052092597154804,-1.5266896418813727,-1.433031948931498,-0.7754974050788894
565,0.6424238582739934,2.0629450999338874,0,0,0.12437679538708023,0.32872435825174495,0.02903895385890243,-0.8183512955148272,-1.278869689133538,-0.7416814382059155
566,0.7529101491224481,1.9674751508940596,0,0,0.13002155683135538,0.33008353395331563,0.14157328359678328,-0.3011468774197279,-1.4031948963586551,-0.6061461187705547
567,0.8798794880784794,1.8973780956765038,0,0,0.14044030895131618,0.4241715953110546,0.2917155360583549,0.15061089186531398,-1.4508439419934953,-0.5182192782475608
568,1.0115890635503646,1.8488567642438223,0,0,0.14582798248144224,0.629290682776914,0.528800799240781,0.5796026561947567,-1.2894331910613341,-0.520403332761443
569,1.1358499800567072,1.815361006445879,0,0,0.10725696460146393,0.9808703501503919,0.8284147397424367,1.0712256367808932,-0.9226974579875935,-0.5852606318701109
570,1.2416376626988481,1.7891649591250534,0,0,-0.005914006602876581,1.6481557727519751,1.1793963950586086,1.6487433574493602,-0.5648429698609356,-0.6637712032181177
571,1.320579050908254,1.7631931667844731,0,0,-0.21769334541101723,1.92123097918157,0.7571951420255999,2.2657198031174905,-0.20213266628298412,-0.613889544316552
572,1.3679979026982307,1.7327146183924058,0,0,0.3585921629824924,1.345185009872663,0.7131192122197991,2.753945819419762,0.3497242802565359,-0.29388077798699364
573,1.3832947624410155,1.6964847590846421,0,0,0.7323533028617101,0.8522143062759844,0.3338154046056244,2.584914851463274,0.7412683089329063,0.32552429250247916
574,1.369615894315598,1.6569996235229605,0,0,0.6758366463317936,0.9887502653258221,-0.07447704075626768,1.8586284712845924,0.3719221173551289,0.9532801559775465
575,1.3329462905936673,1.6197455545479764,0,0,0.5502287463107044,1.2153962204114317,-0.1346332750201226,0.34372569731811004,-0.44344682265613206,0.35727648196224254
576,1.2808713047329217,1.5916235325308083,0,0,0.14820852222279085,1.1028671411970619,-0.031298340234746626,-0.722851362501973,-0.7139797741099687,-0.7571974234375
577,1.2212738505125293,1.5789785814768014,0,0,-0.16260063186856943,0.7732107331180463,-0.13224331289147578,-1.0970984543043687,-0.3714242967549594,-0.31180939096012134
578,1.1612003218453535,1.585765057731179,0,0,-0.37827812129426824,0.555796753716241,-0.5571920852429518,-0.15742865196444414,-0.10902999413058301,0.6793002434176866
579,1.106065171577125,1.6123093775864248,0,0,-0.4453180282956851,0.8271980340401764,-0.4429419671800062,0.6569514511041119,0.41086739475949385,1.1030321875985838
580,1.0592771858605476,1.654952451897618,0,0,-0.32764235350231385,1.1170694062141768,-0.010352115691621972,0.624908759911893,0.8158622724984262,0.9740253990560118
581,1.0222703583925024,1.7066334529046552,0,0,-0.09477032865358316,1.2027458582987476,0.28407229806288076,0.8392807354463422,0.8417405332999032,0.17442181770511175
582,0.9948389436286413,1.7582588680467568,0,0,0.12294245056637014,1.0444196742878087,0.17476728537024333,1.5310780300555533,1.6627161601903693,-0.16553158207376065
583,0.9756387048184544,1.800517756261695,0,0,0.1684751715191497,0.9595570795648056,-0.01728306767254745,2.13641653131758,1.8702336313375902,0.013187546049860529
584,0.9627272376627104,1.8256911861065814,0,0,0.15926134396934055,1.026088444785361,-0.008952379469895088,2.2216100978571385,1.549819674285729,-0.014434964141074683
585,0.9540532082968288,1.829006040500019,0,0,0.07610851790081552,1.0001919805132673,0.08543753411857943,1.9455138032667116,0.645909772290686,0.12147686382379452
586,0.9478424408872607,1.8092275652720344,0,0,-0.021739309735816274,0.9427436510681121,0.07418839855268063,1.631467520507307,-0.6375966186048936,0.11866995777853807
587,0.9428576357179171,1.7684300424076722,0,0,-0.15435838750218572,0.929193833493338,-0.017135202712226766,1.2588056261900216,-0.41547302827984833,0.08821778733243753
588,0.9385294682865352,1.7111252979432892,0,0,-0.19636174054373565,0.9185520937825212,-0.09567328005780654,1.0545541550898034,0.7105932183433388,0.07218067972574976
589,0.9349718966921299,1.6430668578007495,0,0,-0.18318599452827233,0.9158796941394286,-0.11745934262288518,0.5900374913514688,1.2667687292159042,0.08156230368991348
590,0.932903542681477,1.570053874071697,0,0,-0.15175071142872426,0.9060018696817972,-0.12769763798844783,0.4250669780528179,1.570547708474577,0.05069411094994086
591,0.9335011277696896,1.496971055838116,0,0,-0.08753638862235444,0.9012003836594097,-0.11880362388287763,0.3842395156063731,1.5751263575546504,0.08990163221272744
592,0.9382123428626205,1.4271865878445333,0,0,0.0033849177662395803,0.8945312619497994,-0.06870110936463295,0.5384044068688915,1.2157121659748484,0.13996323341848033
593,0.9485547082366426,1.3623454034026263,0,0,0.05509234980774918,0.8999656069917142,-0.03441241476165588,0.7211100046739962,0.7883650275844523,0.19608247150431976
594,0.9659225255082584,1.302554289213777,0,0,0.04919462494779104,0.9523647026459255,-0.025255229023506923,0.8910886812879212,0.43116935584263427,0.2229270206576628
595,0.9914150597014488,1.2469310320067637,0,0,-0.01381892901747805,1.069385679726209,0.05206383046101621,1.0523676200000045,0.35427059495704205,0.2067944889210794
596,1.0256879779077057,1.1944470724270215,0,0,-0.0474256757463487,1.078107201791699,0.10245487338676754,1.178722000878069,0.3383958832368786,0.2745729000798282
597,1.0688228358087133,1.1449241662586627,0,0,-0.16102104071955917,1.0506515097650324,0.07461606902117303,1.2037172208037825,0.31747447130023526,0.4758228552718654
598,1.1202116078025899,1.0999752459652945,0,0,-0.3497864791024094,1.0135487400591763,-0.008114072374441166,1.1589859320955471,0.4841222409172869,0.6170980474307476
599,1.1784636862999778,1.0636428082783118,0,0,-0.34054499098515334,1.0425802189633298,-0.01400410227990964,1.0642032100869867,0.9173012960022279,0.6869914565463634
600,1.241352604053471,1.0425071984902874,0,0,-0.26029934556381285,1.2201062416715989,0.026475266012189448,0.7972005082504044,1.1953239618829594,0.6512971790167208
601,1.3058202449689176,1.0451181530380762,0,0,-0.24667610131428352,1.3784941456289157,0.06267914648851451,0.3620064961279535,1.2427850088730468,0.5611981516636978
602,1.3680477959707111,1.0807396688294217,0,0,-0.2852151322525963,1.3769476995221668,0.19189242041166546,-0.05156193530223308,1.059490806379472,0.3788897326795715
603,1.4235948732157586,1.1575696942772777,0,0,-0.29394533301382225,1.3776859856844041,0.33479040233404744,-0.37268322268205495,0.8198406009868612,0.21275138635097104
604,1.4676108344552161,1.2807620995490296,0,0,-0.20705126151685094,1.277241821020334,0.42526538802551545,-0.41848350035324355,0.43135736091486704,0.10556379312165193
605,1.4951342062811568,1.4506871638705898,0,0,0.11565749637487113,1.1148390198931601,0.3671768125491305,-0.6237906396473144,0.15013978288381252,-0.06043225221474014
606,1.5015033619180802,1.6618738065228544,0,0,0.4275239519219854,1.2109242651997454,0.16111938051101654,-0.7730014517189443,0.22998728642362523,-0.4406123618492895
607,1.4828857806036588,1.902962404423275,0,0,0.6743149643273466,1.4931394664397515,-0.23287030271702183,-1.2845109893860236,0.054667691803621334,-0.597747373277799
608,1.4368880285848695,2.1577776846165535,0,0,0.5114080323972827,1.4898757000910094,-0.24629026858270828,-1.9897333890621707,-0.2026753642576434,-0.6294934748247925
609,1.3631520600923657,2.40735966314684,0,0,-0.11141027513458666,1.4660744952492457,0.13910615144542823,-2.899914522565334,-0.370878629073636,-0.6520246593349175
610,1.263808893805135,2.6325436892318903,0,0,-0.3932433738412369,1.4054589491323546,0.4116423749163287,-3.5274694629659136,-0.911928156328622,-0.8001803396412741
611,1.1436692826764376,2.816538699275709,0,0,-0.2512420113803893,1.1969003974377461,0.18266864609013825,-3.417023269614447,-1.4385658122615013,-0.647391871651403
612,1.0100772638926327,2.9469740203202095,0,0,-0.011614243546431912,0.9937725996661554,0.09850380627089798,-3.1185217240608867,-0.5179082100138145,-0.3040258114788351
613,0.8724160833401596,3.0170723425513564,0,0,0.10362450785465178,0.8697868598866474,0.01500061861363101,-2.553942416145682,-0.16031321261414344,-0.4012401997013917
614,0.7413164850383213,3.0258845867624125,0,0,0.10802027606748502,0.6962489753723908,0.009111737896280692,-1.7717779268424079,-0.7122743371945705,-1.0161324026746363
615,0.627660126302031,2.977763317354286,0,0,0.08920859416521998,0.5760258444147843,0.05775215051921705,-2.2200494083024984,-1.9124840928668685,-1.1724704383940634
616,0.5414907893709295,2.8813527477620853,0,0,0.069565637439589,0.49482973215557896,0.09708177512733508,-2.33347597787522,-1.4633675370141574,-0.9297277680884978
617,0.4909476081140648,2.748331027614968,0,0,0.07175389151284027,0.49508592981353067,0.08209379182379563,-2.0904666750099477,-1.8300380838042187,-0.7751790130919209
618,0.4813261362015638,2.592040106709895,0,0,0.09315232711883502,0.49552606754661044,0.06857943817770604,-1.9230984809294844,-1.8720770185096165,-0.6365507234775645
619,0.5143624180976731,2.426071531212284,0,0,0.1398012942490999,0.4412613898023357,0.04475303923786113,-1.8060532534630362,-1.8251072337743206,-0.7561541851050562
620,0.5878272840375616,2.2628741951264093,0,0,0.19386503742162595,0.36349129764212873,0.05343400163009346,-1.3591256447124849,-1.508546840188975,-0.869914224829112
621,0.6955116944417955,2.1124924855200726,0,0,0.21977428179395908,0.3368902018116396,0.14572527653023454,-0.6909539198375629,-1.4007219365002042,-0.8426231235891098
622,0.8276689895320262,1.9815957580489854,0,0,0.19281697884413748,0.36192400172215095,0.24948373154352813,-0.11807727614346719,-1.3774401883667629,-0.7111360256733553
623,0.9719412687025407,1.8729858314782577,0,0,0.1788360551167605,0.49753246128818496,0.35691442728961664,0.4108463207336535,-1.2069649690590103,-0.5853312073843698
624,1.1147244615861158,1.785735746550145,0,0,0.10257125157757396,0.843967538054881,0.5965025930628549,0.8698721,-0.81397796,-0.5525276
625,1.2428240314680077,1.7160091920141896,0,0,0.04869562440316989,1.3676947732524136,0.9895049933289526,1.364377012135647,-0.39856727353523125,-0.5571735081041964
626,1.3451463696890522,1.6584539981313446,0,0,-0.15380898172446314,1.81602220269708,1.203238419603536,1.826994225548481,-0.12554127470282225,-0.508704551755081
627,1.4141072946200681,1.60789547445307,0,0,-0.25981396271816504,1.781644322218134,0.7779132245321202,2.261709288960408,0.1700891210168374,-0.31616583533423215
628,1.4464683609434603,1.5609299244624026,0,0,0.21160752097062333,1.1989153753159079,0.6906994588139026,2.44040659999999,0.5180137000000364,0.007941248000034744
629,1.4434452495101466,1.5169912951527842,0,0,0.4505340039625191,0.970592045326513,0.4041713239235657,2.2776003253713646,0.6679963944860371,0.3572411083778913
630,1.41011730588784,1.4785700048014185,0,0,0.4962702005643812,1.226022616397124,-0.056519472332268464,1.4475532514231422,0.06292362682879357,0.7476816502635484
631,1.354316952918817,1.4504902183312596,0,0,0.43138862736479383,1.5146612615860366,-0.09458994615087628,-0.09165955274810451,-0.98563105,-0.2907318957619819
632,1.2852423843295087,1.438429443579358,0,0,0.058928579217877995,1.20992307437215,0.1984728157812685,-0.6552222143380111,-0.5513242161214956,-0.5609305691822372
633,1.2120357224735576,1.4470883671420225,0,0,-0.07142110104552814,0.615497044446133,-0.23026769205309494,-0.6723026189268793,-0.4017778734905528,0.004827852529024644
634,1.1425463392897799,1.4785081519149188,0,0,-0.1934289277546067,0.33412018457491033,-0.6322122407556248,0.047870749686933195,0.35499696356484955,0.7606316028272251
635,1.0824648382472213,1.5309715902409007,0,0,-0.24989093936799964,0.640083091967279,-0.5167353459860745,1.0663021183499126,0.9141948551784662,0.9259865971913401
636,1.0349427182351623,1.598758749042326,0,0,-0.22258761291378046,1.0941204599862728,-0.07395382256577052,0.662173068661184,0.7658818805282607,0.48619642791469636
637,1.0007001486550056,1.6728249588887893,0,0,-0.16995420266061573,1.3621165646369366,0.22540984067760578,0.6130288283355928,0.1019760381570549,-0.11477071933001264
638,0.9785090442762238,1.7422769776630416,0,0,-0.06901806778127807,1.1336504348117002,0.17896046328036982,1.3948207245029913,1.466922973455211,-0.18997892067167113
639,0.9658741250700452,1.7963486892886391,0,0,0.04575683321440071,0.9255681835889609,-0.07819602856519392,1.9135022120868677,2.551312572790171,0.18086612137011424
640,0.9597418006487386,1.826426547001068,0,0,0.13392447450180053,0.9667469733865186,-0.03334930632487536,2.0976043335890395,2.078491157125493,0.4611774914291597
641,0.9571207156102302,1.8276121287147893,0,0,0.1433828815900457,0.9900921159039374,0.032050013496346605,2.0166996908726524,0.9910163608085937,0.4206720605944626
642,0.9555554432193455,1.7994206090451623,0,0,0.03251590258571437,1.0009506016083767,0.07563341433315234,1.5283812804733705,-0.039420688295843116,-0.030420365266263998
643,0.9534317200363379,1.745488844282739,0,0,-0.09696826603241393,0.976841138111853,0.06621718963450715,1.3876352261645202,-0.14680624334390568,-0.1616038229633304
644,0.9501113166551778,1.6724719784656366,0,0,-0.14469097588494434,0.9429056372307997,-0.03134784461477067,1.2359206458458483,0.5730727141301283,-0.028284712297099227
645,0.9459093320009595,1.5885003654571754,0,0,-0.12898132983056798,0.9273211780505182,-0.10832336647245093,0.928279931769361,0.6387171991014021,0.11223732055745275
646,0.9419407623247877,1.5016019659953992,0,0,-0.1303851559888281,0.9231850980221515,-0.12508440175893595,0.7036573580079712,0.9197411468183877,0.06383542
647,0.9398742336605245,1.4184109297087037,0,0,-0.09936432962583469,0.8965303215807084,-0.11311278411833994,0.470807952452532,1.4927878130537964,0.11975677052333855
648,0.9416364549626803,1.3433476687560486,0,0,-0.024487009347891615,0.9019980165259097,-0.06499303483538234,0.5007404086373681,1.4428178911308365,0.16835321290667057
649,0.9491109782291006,1.2783258384345877,0,0,0.052842105130534,0.9003126529633021,-0.029612469143488352,0.6381610958677825,0.8494762795867282,0.2174326807438042
650,0.9638695020419847,1.2229554830733056,0,0,0.06373456350301371,0.9074813386364718,-0.035940113094710034,0.7978551077684681,0.3249872999314571,0.23347521480578834
651,0.9869633387587233,1.1751738063360047,0,0,0.011241955949087298,0.9943870580028944,-0.031156035887354862,0.9546156767163266,0.2542748908053138,0.18195225257700898
652,1.0187879669774085,1.1322122841308615,0,0,-0.03914502735029603,1.0563939063733898,0.021837691388882623,1.0745855039159844,0.40223638404414375,0.18526038083659718
653,1.059018457925696,1.0917656756822403,0,0,-0.06410915391194058,1.1042391274977807,0.07939017944342644,1.1087122608591884,0.34046393945902137,0.3708642204534682
654,1.1066035265832148,1.0531667730364367,0,0,-0.12154359031410195,1.090327980984389,0.06351907889395866,1.0917628218568256,0.26776407954281284,0.5878587391417794
655,1.1598047906593745,1.0183236518477825,0,0,-0.21979846662989802,1.0456966059889972,-0.019737677711296427,1.1064127208490395,0.5671677997917234,0.6800558654632038
656,1.2162731821177473,0.9921741305093855,0,0,-0.1913948473284671,1.1679891251666803,-0.023207000798511145,1.0455258359114983,1.0045422445271075,0.6991917575504217
657,1.2731583775830781,0.9824674147520189,0,0,-0.21626267605556693,1.3282392793695132,-0.058006920841413,0.6800539293649064,1.1431856547680652,0.5865369575552393
658,1.327243628835219,0.9987965397988625,0,0,-0.25468132055235937,1.3866114073009783,0.056012572756216336,0.30627313464878725,1.0137014672203304,0.41263140180708424
659,1.3750911680728997,1.0509671246976904,0,0,-0.2953648002545946,1.3921320348509645,0.21297170009175811,-0.13853917437944624,0.8241240886916997,0.4093832990316207
660,1.4131832005098646,1.146965864344046,0,0,-0.2623381195797722,1.425832496199395,0.3158908616645896,-0.2882190201579129,0.5590861315080825,0.29741578265297824
661,1.4380570610379864,1.2909334071882088,0,0,-0.11069498455967013,1.3038448417331143,0.32157207210035116,-0.4168523059259471,0.2669387444864857,0.1282586447142856
662,1.446455709529781,1.481599597080119,0,0,0.1553342101388224,1.1080562063198882,0.30286625726213734,-0.5653458861150066,0.41923860878982927,-0.3354539313644722
663,1.4355319974105876,1.7115769440169528,0,0,0.44598113186873883,1.2015540581588855,0.10288377955612965,-0.8993273611528629,0.4570972681154779,-0.6118353546608682
664,1.4031402448780803,1.967736512627761,0,0,0.5683311164747161,1.3709442045907603,-0.26720033252951014,-1.5755722004141197,0.11243708808519018,-0.6502614724649971
665,1.3482147441038708,2.232648801458709,0,0,0.07067027986009736,1.2939459343862139,-0.11531027333018186,-2.241721470116337,-0.09414516358684573,-0.6941773404733248
666,1.2711852267746009,2.48682374040667,0,0,-0.3356787861731741,1.380081206673183,0.2369769801793949,-3.0845765203848488,-0.3122445133794368,-0.6393366185207457
667,1.1743399580874172,2.7112963132165993,0,0,-0.2338107218636455,1.2542967098618276,0.25487712145857183,-3.4400201670699175,-1.102000593666597,-0.5629720445223312
668,1.0620355857064825,2.8900333129727707,0,0,-0.005412709551472811,1.1327910480070282,0.10918856049705063,-3.298899477702704,-1.4895536925675734,-0.2700127535135237
669,0.9406699006275315,3.0117119563466903,0,0,0.0651196920595302,1.0592654193843107,0.03839848006256941,-3.094772789925455,-0.9333259799758356,0.05781292572052867
670,0.8183703834664581,3.070625403589152,0,0,0.07736637557423989,0.9371855818126816,-0.0378817871418063,-2.3767161522139695,-0.2782953204007112,-0.45458821064917543
671,0.7043975415837033,3.0667273411451883,0,0,0.043429487568044316,0.6844159084649847,0.028825288889811916,-1.9040496501579782,-0.9598790780806037,-1.0860207253554655
672,0.6083092189640928,3.005026947374098,0,0,0.02024845860355703,0.5460810006604899,0.09151108411163604,-2.2691097518496797,-1.5972374957721653,-1.1977266073008355
673,0.5389732743755214,2.8946064117324215,0,0,0.043865366641276105,0.49129090013762494,0.11297707278565078,-2.1771828580645187,-1.7064914387096617,-1.1015870612903231
674,0.5035438942930721,2.7474640101423278,0,0,0.0850805740685788,0.4750315279380049,0.09209305571896471,-2.10902381228384,-1.872076395328958,-0.9979452269131265
675,0.5065267395703444,2.5772731980342236,0,0,0.12560803651468536,0.46337234589125187,0.05591940995060262,-2.0469897978623233,-1.7376025464600904,-0.8390051311041379
676,0.5490532502857517,2.398081244726455,0,0,0.15161616114283508,0.4374806799785127,0.0330564852085395,-1.8751875824090474,-1.6628310812164526,-0.8573821832438886
677,0.6284722698264615,2.2229801334873733,0,0,0.15429686998108427,0.4195764218655435,0.057152880326588267,-1.2675539172613948,-1.5234825452452103,-0.8306822584724928
678,0.7383502870848365,2.0628447800184473,0,0,0.13166672730628468,0.4221614180909409,0.13228273448584452,-0.659616016648422,-1.5012640054982778,-0.7285161949949426
679,0.8689436366502312,1.9253060132674809,0,0,0.15225819537692678,0.45804026692133837,0.2682763870727462,-0.17631637361153174,-1.2656040786316083,-0.653043640180576
680,1.008156173334544,1.8141643883273302,0,0,0.1767578123008367,0.5660608567925987,0.431295264057057,0.36643340482322173,-0.9086157672407706,-0.6243336187043255
681,1.1429176846629774,1.729421149304322,0,0,0.14035445443432087,0.7887991630435983,0.6939467170897382,0.9159294548225456,-0.5684866629436506,-0.637128611465811
682,1.2608175051057438,1.667991561950264,0,0,0.11443021020001236,1.3623268589298898,1.1338690326677678,1.4585397757076033,-0.42310233417451887,-0.6285306123820692
683,1.3517294271746345,1.6249924732850862,0,0,-0.2545816762644501,1.8338941637230806,1.1822474446315498,1.9460372079681552,-0.3078234528386291,-0.5247034512848499
684,1.4091129159713294,1.5953131137051082,0,0,-0.2603932306648321,1.8065290473978892,0.7313764208560353,2.3869692715844923,0.09806597280075029,-0.2574605641652996
685,1.430718384891325,1.5750584195465565,0,0,0.27910509931741095,1.089733221196568,0.6468708928335684,2.4453876128205154,0.48501135658119665,0.12976187811965384
686,1.4185686907639572,1.5624591355226218,0,0,0.530951609886117,0.828609672179524,0.1371498379835223,2.0148395094234304,0.29917072129301603,0.6344415962823307
687,1.3782769116321345,1.5579901626863146,0,0,0.551687341750083,1.1383736674760225,-0.2689864601728103,0.7734391249775027,-0.6198610877645252,0.970177616375898
688,1.317900871967932,1.5636846749185935,0,0,0.314865630507725,1.57419246794587,-0.0038590291614387646,-0.25184818479835014,-0.9868343523579863,-0.4729195331286511
689,1.2465799402060065,1.5818840178528564,0,0,0.013120584681545398,1.2227704916984132,0.16687431361669958,-1.0162494911504418,-0.6472530112791629,-0.4441810886082078
690,1.1731791228512911,1.613825275156883,0,0,-0.09246799175928455,0.5539086738554058,-0.24445412654522272,-0.6674927317037561,-0.3370606426008071,0.1733450612101442
691,1.1051351641442018,1.658490328368003,0,0,-0.23558866254365562,0.3641720793821787,-0.5745116790222924,0.7392027758785885,0.5731234503872028,0.8834445151757176
692,1.0476700429741372,1.7120365040700376,0,0,-0.25578945802727615,0.6562340561140847,-0.46916766554468387,1.1322387,1.5952746,0.9239337
693,1.0034768592394,1.7679545454734875,0,0,-0.22751084924294723,1.0058233290633398,-0.12222859023066329,0.9337654165969747,0.9226463784149934,0.3116164313898978
694,0.972878642541189,1.8179217479785226,0,0,-0.18461310156833768,1.3022674621132866,0.2289906890635362,0.9101892,0.2452624,-0.110872045
695,0.9543489255337012,1.8531803707921135,0,0,-0.04534438431510656,1.1363956724940119,0.2330359440058989,1.387606331626364,1.6538984354672144,-0.0463405848699415
696,0.9452172974461702,1.8661663870273544,0,0,0.06094696726370195,0.9488186894871738,0.0008149053201078593,1.7732572480421946,2.4177870061878743,0.4195047895942285
697,0.9423866865270788,1.8520237366967847,0,0,0.08876220413010176,0.9565573772120065,-0.037211058240181276,1.9739040811146185,2.001740361264265,0.6468738797164234
698,0.9429416676486391,1.80960907242381,0,0,0.04361953273062702,1.0015496952152165,0.05497065395689096,1.8798790531592462,0.8715392054016128,0.4446355000438421
699,0.9445885990746091,1.7416981815527195,0,0,-0.04491710340116277,0.9596521544847364,0.07850436643107653,1.5682696907731681,-0.05713074383930072,-0.12686582441370087
700,0.945912411970403,1.6543436261599394,0,0,-0.0964176494140043,0.9389597212268124,0.026469463721941783,1.1775272254711597,0.1518136189948682,-0.19450686451741833
701,0.9464599808794355,1.5555915958068909,0,0,-0.08982761886783051,0.9518850743726941,-0.0628888476465164,1.1006156956435187,0.8160079997612856,0.005388908148402751
702,0.9466751503962529,1.4539232340886603,0,0,-0.05615122182566763,0.9357159800977459,-0.1313420380643153,0.8279927923225606,0.5793955531565473,0.14111113460764965
703,0.9477205905542224,1.3568028860539,0,0,-0.07086546591905393,0.9017319143128846,-0.14617846935909876,0.7207108649375813,0.6023601774202741,0.0966577727489616
704,0.9512272625247357,1.2696303086330785,0,0,-0.0836432718566909,0.9021921157349668,-0.12671309401165382,0.5591748989095974,1.1071032984967037,0.15733820601323115
705,0.9590132420423861,1.195261763789145,0,0,-0.029881556807099877,0.9084042731804941,-0.0728399409240975,0.5837682757991591,1.092546092478498,0.21535126234846952
706,0.9728095100100771,1.134128653486247,0,0,0.045001664568395536,0.9515375364959962,-0.03580055016369131,0.715361808045745,0.6144388224438238,0.23640699489365963
707,0.9940208986173792,1.0848720990608525,0,0,0.02837810161423652,1.0097074696986916,-0.010397793350043288,0.8636753310211812,0.3933710042586972,0.23392708085854746
708,1.0235376274728405,1.045340947805684,0,0,-0.006728615727939355,1.0291447550577848,0.026152543699756316,0.9417162114098742,0.42340066837001616,0.209275313860797
709,1.0616009512168842,1.0137589841772685,0,0,-0.04044872844494651,1.0680964542925275,0.08647006569993268,1.0177242743836472,0.5580419297654864,0.2538450081539429
710,1.1077192426043225,0.9898386030086977,0,0,-0.13833569715527272,1.1157543319988343,0.0766855577281036,1.0681358029892944,0.5041063756574464,0.42394991141182914
711,1.1606293510883774,0.9756048892466835,0,0,-0.2910685611499918,1.0961363667725827,-0.008020081827601104,1.0766390487785686,0.5726255466686514,0.5598146160658103
712,1.2183002231388294,0.975713439838536,0,0,-0.27486369105414876,1.1212290334348896,0.012598605865363077,0.9500828973622973,0.8361669882854885,0.6441858343677267
713,1.2779779233553907,0.997111105729189,0,0,-0.27644613822146086,1.3190024754308851,0.026073601812734402,0.6904043917935409,1.1492346394898179,0.6101367726319914
714,1.3362705403174213,1.0480019131176,0,0,-0.3184706881153642,1.4122493982829165,0.08869074790305631,0.2761135220751651,1.1350979910385743,0.4547886389040514
715,1.3892695582952221,1.1362294550832195,0,0,-0.3435846561672987,1.3571067726524155,0.23498977746762456,-0.1549879491248474,0.8744850697861255,0.3471893423540082
716,1.4327078676875857,1.2673464495498172,0,0,-0.30456438362286625,1.3522168666992909,0.4120235521915656,-0.4713350848689765,0.5799346040467895,0.25190002774554493
717,1.4621683301219448,1.442769448321085,0,0,-0.04709258640972542,1.1468082984192571,0.37748661694360947,-0.6478309643884147,0.27763677290176236,0.13735697745200517
718,1.473373629407122,1.6584631410949142,0,0,0.28222675852374296,1.019194661441764,0.3007922342943476,-0.8633147537028868,0.09849767610665575,-0.254234189813554
719,1.4625891238288982,1.9045322914029268,0,0,0.624647894206811,1.3051487970455948,-0.03621880414551082,-1.0339793839401734,0.01754383154418314,-0.5779372474296418
720,1.4271384360481587,2.165921329520792,0,0,0.7068156359442868,1.4858007657559504,-0.342730952337013,-1.6935569195630502,-0.2064181447885404,-0.5965925049408685
721,1.3659711824676173,2.424166748753999,0,0,0.14955995339097156,1.4687109804825438,-0.20343609714065447,-2.685573810082075,-0.6043137543708935,-0.5042131515102998
722,1.2801657493011436,2.6598770231604094,0,0,-0.36081830864904924,1.4168397976930807,0.24014683381328292,-3.620366134205106,-0.828895489404061,-0.5461018852120247
723,1.1732333690609087,2.8554104501588005,0,0,-0.38394006486420473,1.2623088392935564,0.33262837850291416,-3.7545523020408345,-1.384292380612228,-0.612607458979609
724,1.0511222910547484,2.9971667900101338,0,0,-0.15495748892567,1.0663933976331808,0.21103198485061175,-3.358126029389937,-1.055672250101935,-0.2641444433747339
725,0.9218841450342592,3.0770453671652693,0,0,-0.015147199874828758,0.8859659516133571,0.08257632933176702,-2.928291587537373,-0.061937649870368365,-0.2020672791425785
726,0.7950332238459671,3.092904002447459,0,0,0.03794361260395542,0.707376891644748,-0.01682028815732619,-1.814201907266615,-0.4421115735934411,-1.0792104876965671
727,0.6806835100147088,3.048150597489736,0,0,0.09063051063777776,0.5851800783873411,-0.005811074681637832,-1.7284729885848322,-1.2605296924941374,-1.5156352334636436
728,0.5885757924439168,2.9507743448413604,0,0,0.14081039877477122,0.5067395326920606,0.05098890347264306,-2.249356434177205,-1.4936447651597364,-1.296542872875219
729,0.5271064978229043,2.8121210727622974,0,0,0.18260795027828589,0.5005293204860042,0.07732641166014806,-1.9067815652931632,-1.9080550603803972,-1.1363081451663946
730,0.5024500741257489,2.6455958419321526,0,0,0.2042656652364923,0.551136340726544,0.07786942222138546,-1.7242001815384635,-2.2657351114085937,-0.9674025648711305
731,0.5178429013959767,2.4653498937657483,0,0,0.19225908912401338,0.5718709945917054,0.06385114719960526,-1.6251466326781865,-2.0445431642247494,-0.908310879372643
732,0.5730827664611834,2.2849590799707826,0,0,0.1548268292489228,0.5220633811704368,0.03715842502644198,-1.4006719586140686,-1.7120113182427108,-0.9400994999521437
733,0.6643003013209587,2.1161365096902838,0,0,0.12159851989035214,0.4371070414161301,0.06582264037035787,-0.7779579169747901,-1.4363149117446978,-0.9097630446978792
734,0.7840705647530423,1.9676034350928273,0,0,0.08495833514912242,0.41173879894525056,0.16790243341696295,-0.23401460342139205,-1.315969685887644,-0.7832815327069824
