id,ASVM,GSVM,walking_nonwalking,normal_abnormal,ax,ay,az,gx,gy,gz
1,1.0059550679712372,0.09043277667697808,0,0,0.0058593750159330665,1.0058593913313925,0.019531249713204815,-0.077579886,0.01740966,0.04062254
2,1.0060915295443027,0.09725820687338663,0,0,0.024888516056627463,0.9991668803032293,0.0099808142135265,-0.07315909015286877,-0.06805308311892,0.03723246109986103
3,1.0062077425851141,0.10468496115156753,0,0,0.040578551363560984,0.9971249877879358,0.017359588170961535,-0.06477548068715083,-0.06281929983719074,0.01711056478531524
4,1.0062846881596699,0.11305998685824986,0,0,0.045436990996973355,0.995632332111491,0.03315664275131731,-0.040943414173473434,-0.06969216940721651,0.009177389770222049
5,1.006304809460427,0.12245717752747846,0,0,0.04539154621526031,1.0052093138493523,0.051288140414287614,-0.06557221713382674,-0.033642983752750516,0.005104372801960379
6,1.0062549435540968,0.132628439893705,0,0,0.02612299583833971,1.0196644160868464,0.06276635464761168,-0.0037012964694129254,-0.08287119409114425,0.01799913051621891
7,1.006130301282219,0.14302130612596825,0,0,0.0072662336370587196,1.0118753603692539,0.0603907992257432,0.02837332948050139,-0.14205533980700358,0.042445105870075606
8,1.0059368546689529,0.1528656688835639,0,0,-0.006914086296901483,1.0023241831583523,0.049257647436730514,0.017334805613216556,-0.12426696438730848,0.04458514288183806
9,1.005690129552774,0.1613179734401796,0,0,-0.010502729846139078,0.999143178864633,0.029011264058113558,-0.025868507478286284,-0.0875390702897761,0.06154000442375854
10,1.0054104117507665,0.1676380198274195,0,0,-0.01814753948084797,1.0015459752873181,0.029198923070191462,0.032700137007782085,-0.17428063438576985,0.11621923826848249
11,1.0051161876639514,0.17136338125242911,0,0,-0.023962635777215458,1.0055023868243422,0.039398778044074434,0.129508908055002,-0.239437257779992,0.15511375424471896
12,1.0048181273466918,0.17244099838630642,0,0,-0.026676046370810717,1.0039780214270446,0.0501135448674982,0.13009598120736965,-0.17709488612700905,0.11875617852606823
13,1.0045152941024198,0.1712792814837284,0,0,-0.025104276590112974,1.0040005952335902,0.03953422599694038,0.04978030316891624,-0.11886542814013495,0.061154303624851115
14,1.0041944560847034,0.16870085710908733,0,0,-0.004271952461155122,0.9957939544835126,-0.0014991379338284774,0.04823692553527547,-0.14472506258620693,0.06452842379211254
15,1.0038328977061888,0.16580123079549974,0,0,0.013597253794231405,1.0018702512522446,0.05405736222518279,0.05091998091539507,-0.14392781805825228,0.04069921623023565
16,1.0034047544222198,0.16374039899490087,0,0,0.021574601276596914,1.0039062268970547,0.01598590217054733,-0.04029082346528189,-0.1449800714124629,-0.00137943163086054
17,1.0028902179543258,0.16350518001426678,0,0,0.014825452135561431,1.0001770135329175,0.00950010289800499,-0.02260304545828367,-0.1734620064898689,-0.030519538493245943
18,1.002286002136096,0.16568145579943608,0,0,0.0199935443470844,1.0008908691187433,0.026691797179130772,-0.03523587459244544,-0.12461286667594433,-0.06482275898608357
19,1.0016145831340888,0.17027326127111928,0,0,0.03428428768238975,1.005708161030148,0.03830655327137953,-0.05742951036347416,-0.13193707837596666,-0.06628324072575849
20,1.00092919778827,0.17660293449406808,0,0,0.025405835607412247,1.0121412141205646,0.0664492248610177,-0.03115316280552818,-0.10113305353010865,-0.0504083229472853
21,1.0003116099296172,0.1833228318789463,0,0,0.00019431165696902146,1.0062367008832747,0.08905021513354965,-0.003955141240593013,-0.06535113622240028,-0.031724600197355096
22,0.9998606634515728,0.1885613921582305,0,0,-0.012082685019338292,0.9966487597238739,0.07301170785816687,0.06261767908187124,-0.08491133769473681,0.010692046732845953
23,0.9996719197991767,0.19021087850124677,0,0,-0.005423045192055672,0.9919233663082463,0.04679486387589636,0.13871144586330938,-0.10470296267625893,0.029299559428057533
24,0.9998116611434678,0.18633972370667248,0,0,-0.0025691046759315508,0.9956280324259508,0.03258714594679036,0.18205134179254584,-0.04615068354427132,0.014378944145237603
25,1.0002909206838424,0.17568340883451714,0,0,-0.010132211651355891,0.9981700988614869,0.036012620459664545,0.17623870812816875,0.06049833051632531,-0.005512281268505388
26,1.0010459905650662,0.15814270178536222,0,0,-0.013657771348707425,0.9896065834917124,0.03409603819576652,0.18228204969331868,0.13165551054764513,-0.03789773070098578
27,1.0019310909519679,0.13520381722289598,0,0,-0.016421203997257352,0.9934305886773191,0.024587933161091605,0.1441642,0.1337795,-0.070249505
28,1.0027271315603705,0.11019391219103067,0,0,0.006779135225369342,0.9957587502965412,0.007914696033844724,0.16640426336649408,0.09092776423000372,-0.07632898419896529
29,1.0031680944619754,0.08829682059897362,0,0,0.03869437544206535,0.9987873027652886,0.017614239947246403,0.1755054641383376,0.07736081958420125,-0.08205622215484379
30,1.002983644631056,0.07627716028184234,0,0,0.06095390203689718,0.9946776785261829,0.0412191384881366,0.18386444835731416,0.12983193227418058,-0.096516706
31,1.0019534730134596,0.08189512840506455,0,0,0.08065816663944607,1.000048272929682,0.05038472579934359,0.16678159147881697,0.0822365724428458,-0.09894478852118303
32,0.999966130249784,0.11303867869427008,0,0,0.091850248027425,1.0099182596140437,0.052681008552976465,0.15182147578125005,-0.0008606200773435779,-0.0727152311458334
33,0.9970732639527963,0.1766519830886862,0,0,0.08898704486430037,0.9995601907881773,0.04435073954387479,0.11840561813427147,-0.049170932303537467,-0.02496182665918592
34,0.9935297926845953,0.2775917541106199,0,0,0.07361051812659158,0.9891137395744528,0.039606846942757484,0.046025575115887486,-0.06629848382923931,0.036108029768621236
35,0.9898119186822937,0.41758282199092783,0,0,0.06302352175147607,0.9911404853047712,0.03377363368646824,-0.08794104490830303,-0.10691912297771645,0.11413295925695162
36,0.9866074466029561,0.5944563714363432,0,0,0.053872690354729226,0.9872549574194102,0.011911646089321529,-0.305095530393592,-0.05945026004628147,0.19187251553401913
37,0.9847754972999271,0.8018291124605106,0,0,0.05002106171091001,0.9901973853161923,-0.0009025182032766693,-0.540119685427611,0.0991664468837992,0.28187677461231353
38,0.9852747425429377,1.0293212220184627,0,0,0.04723528895926315,1.0102823676453658,0.006067982368159407,-0.7952900258702534,0.11556468815981011,0.322003534050633
39,0.9890612189506119,1.2633279243077966,0,0,0.02899759617081538,1.0139493100609958,0.022471848200044477,-1.1408190494142312,-0.32265249423973436,0.3623174901035891
40,0.9969598398726699,1.4882718643014328,0,0,0.011202004074207208,1.0094784617661277,0.03659200434246248,-1.3303667559750194,-0.44918665163457283,0.6785403947756123
41,1.0095189512174056,1.6881878369419583,0,0,0.009123091456038094,1.004227500087885,0.05634488277559802,-1.4829998032181169,-0.3765023125148986,0.9692199738974971
42,1.0268643751227704,1.8484413845363854,0,0,0.019671408108420132,1.0038557081089623,0.08177848331458874,-1.6068901744099864,-0.10823842183382,1.0935238623366494
43,1.0485762505708625,1.9573654154399627,0,0,0.047651800807934235,1.0124701757909884,0.1173761436218669,-1.569020279437751,0.2613418926465843,1.023322945020081
44,1.0736156957496112,2.0076106088222936,0,0,0.07147930633432104,1.012305344942082,0.13983973357561416,-1.5937289735066482,1.170856163107759,0.8195024980154794
45,1.100326697721311,1.9970331895547921,0,0,0.08854950853772968,1.0211666579112342,0.15091302342400725,-1.4958390455087445,2.1706140937201903,0.5765225359101752
46,1.1265307403864167,1.928981271222718,0,0,0.09273628423241548,1.0498923496684416,0.14980945769924744,-1.2300251080295825,1.9403805012150024,0.3920260742208135
47,1.1497174756308253,1.8119024244841977,0,0,0.07373514147320488,1.1226104683900415,0.15997729345366413,-1.0119345873531165,1.313520068532164,0.3007053207329216
48,1.167315443182994,1.6582981962862966,0,0,0.026701385334035557,1.1686565890484402,0.21252071182116444,-0.9810380638489209,1.1116807956834527,0.24653540168465213
49,1.1770061115999355,1.4831795792620095,0,0,0.05184920564777646,1.2044451197075805,0.2671142260857153,-0.8820474103168944,0.9701457003446226,0.20469883148148146
50,1.1770284717603798,1.3022787400279916,0,0,0.1788499260228595,1.266012473472949,0.18654229110000725,-0.6761706865853655,0.8350242432926828,0.15269861726626005
51,1.1664164866260909,1.1303060440436163,0,0,0.25009196994042043,1.2439288377219928,0.163078978661038,-0.4182219097702302,0.8065948139180821,0.08575407171828188
52,1.1451219680543816,0.9795102025481106,0,0,0.2568533051838043,1.184761873481283,0.20296824808267963,-0.06580108747756629,0.7148782631106676,0.004953916192422577
53,1.1140009498079242,0.8587294363081012,0,0,0.20261875524395231,1.058559571898968,0.23095834919698402,0.24621334427035155,0.5151160456443531,-0.0871470655777865
54,1.0746769693639677,0.7730324557329377,0,0,0.0672917242024855,0.9309202058903663,0.15605907342926056,0.4282577475864129,0.4221562978069136,-0.15858069932260704
55,1.0293285188587118,0.723948378301407,0,0,-0.046833726710985735,0.8660198006530827,-0.004267981909468144,0.5265423609709134,0.42114778416649895,-0.30815430339017125
56,0.9804659094077289,0.7101835903183488,0,0,0.06942252803616726,0.8620409528898497,0.15256616385390803,0.7191060272783921,0.2991515083839195,-0.3820962
57,0.9307548325669228,0.728638006128256,0,0,0.139128941220676,0.8560477973030288,0.28745851916681636,0.8401513503928358,0.18417588,-0.4595532554243849
58,0.8829118707090007,0.775484069757893,0,0,0.1085634321126583,0.8977848805026256,0.331133539851053,0.7926184719657944,0.274346947650875,-0.5914912336740725
59,0.8396559816635845,0.8470727327210011,0,0,0.0785639076255409,0.8977023542596662,0.3546348122786657,0.7651988701718009,0.20518479156793035,-0.7082587006911533
60,0.8036694457633637,0.9404797415277103,0,0,0.06653103341216822,0.8575639327749591,0.29397116655972205,0.7321640028824238,0.33356388392449404,-0.8106817195635068
61,0.7775156100897388,1.053588206317279,0,0,0.03039079671971852,0.7927754324196805,0.2509987983776202,0.4908585994395538,1.0109326371497154,-0.8649729429383506
62,0.7634799687718643,1.1847027782351605,0,0,0.01294290351663467,0.7110641446889325,0.2543381105596915,0.016461924441172553,1.2830293656579732,-0.6767679189130016
63,0.76333507316662,1.3317971914858577,0,0,0.033003360117207364,0.6534507376659824,0.3123778597799626,-0.34274925062699735,1.02028471914936,0.07930873993410781
64,0.7780632012886858,1.4916032224477642,0,0,0.04954469843859678,0.6430014193165507,0.356885244890789,-0.30394557497518326,0.7089272657573946,0.5121302500496334
65,0.8075918492946464,1.6588321811366622,0,0,0.05355751554876918,0.6518156415190741,0.4063119212393384,0.15173085412252632,0.021111111681275233,0.6109463217297294
66,0.8506022200749562,1.8258340926528527,0,0,0.06811987115731145,0.660893315707693,0.4747109849691255,0.765286338241714,-1.0862969062390992,0.4235840138481663
67,0.9044633255785072,1.9829042686865552,0,0,0.07260333443846763,0.6637540341118652,0.5350904514565737,1.0788587363278945,-1.9097373845291923,0.42565868774130144
68,0.9653298361875007,2.11925332313828,0,0,0.0681312300760216,0.6513490658462778,0.5557461550516698,0.9427109128341168,-2.2052374666863206,0.8584215052672984
69,1.0284237930461906,2.224443153360063,0,0,0.07694227284685608,0.6424525757135018,0.6128952697796817,0.33631765830351745,-2.236239179378809,0.854641653862787
70,1.0884977237567721,2.2899556304265514,0,0,0.08089656371685282,0.7005302466846628,0.6758696533977625,0.653864764456942,-2.5314239004818284,0.407416997382047
71,1.140446042341895,2.310546616477261,0,0,0.10015823146119492,0.8424250161951714,0.6871159911194562,1.2657792885759687,-1.6993871836771053,-0.44681466496629474
72,1.179992113675093,2.285114032694585,0,0,0.22894776776858886,1.1154115126117574,0.6871419532415879,1.96962708135241,-1.6419473240406552,-1.3399878663347802
73,1.2043375804279193,2.216916627956641,0,0,0.43184113768131566,1.403724214702119,0.6500660692889509,2.2827708023180815,-1.4226993781092534,-1.2670777372102409
74,1.2126361069860059,2.1130923926983787,0,0,0.4004646629501495,1.299152282432819,0.6246108327774021,1.6645297171280626,-0.44185539553077147,-0.7757202159968138
75,1.206166826531707,1.9835515838723632,0,0,0.18083038215452596,0.9980160088748125,0.6237478003044563,1.4211798497880073,-0.12128727876075125,-0.568405475136281
76,1.188141772276455,1.8394572516258278,0,0,-0.08502815183016753,0.9055172184803979,0.5942567464533043,1.4914339258665597,-0.24071578216790246,-0.5480186181326392
77,1.163167074628087,1.69160899861276,0,0,-0.2000777835108692,1.0724055364598968,0.42978259923155254,1.240648386802936,0.32428124151617616,-0.3096439424608047
78,1.136452497135322,1.5490596827779026,0,0,-0.1531860709681514,1.377687987524773,0.11261006637599585,1.1702735959199695,0.2777577218203191,-0.19902153174186046
79,1.1129054294903233,1.4182171973602782,0,0,-0.19163249063694565,0.993864612217854,0.05728058651614258,1.2380205527805266,0.027811112133979726,-0.34841799995052464
80,1.096262496410668,1.3025569767110168,0,0,-0.28749099817006146,0.5765728794725923,-0.06740158585944743,1.1612549,-0.3753767,-0.4474588
81,1.0884200260512165,1.2029396324730934,0,0,-0.39425752471637227,0.4714454028987025,-0.12068902886463513,1.0533219443731183,-0.4738767861544626,-0.36782542302908683
82,1.089113373332992,1.1184199198974718,0,0,-0.3612737098664855,0.6391432673558505,-0.4139946562594213,0.8913549049483642,-0.4886764207487098,-0.297819940490533
83,1.0960368556720042,1.0473618274897838,0,0,-0.17133702797596467,1.0787729283684735,-0.42478854113884473,0.8698769821978022,-0.6892638090409595,-0.19951096653346626
84,1.105387932003917,0.9886388619805085,0,0,0.10334382105366643,1.4017769876683623,-0.3854678894679236,0.9634779477357022,-0.5716010470915474,-0.17706274228186614
85,1.1127021629640692,0.9426883462994965,0,0,0.3023860278480532,1.3075258484472532,-0.3033977844402598,1.1671933173266325,-0.201240994996986,-0.21315218699698477
86,1.1137755103512752,0.9121988719972232,0,0,0.28163466152640015,1.1450975902865699,-0.2178192385829298,1.1814570849093775,-0.2141330582308909,-0.256814564925138
87,1.1054752731527577,0.9022466809578451,0,0,0.15975231679847984,1.0916459965226009,-0.278542573992602,1.225651839066036,-0.6148624459781946,-0.3111663563443738
88,1.0863028634210659,0.9197689378863766,0,0,0.0029206114410355822,1.1115163790548759,-0.2621504619557606,1.2224635741736807,-0.7648048674399507,-0.4731493638903722
89,1.0566488648691488,0.9723756627651761,0,0,-0.12772080839957103,1.1175195349678972,-0.14898797035625905,0.8399718747368436,-0.4627384594736856,-0.5811739657894736
90,1.0187421160744377,1.0666546287725354,0,0,-0.117130954014788,1.032650581444958,-0.06324142083638705,0.14204431449528634,0.09506732543447642,-0.5253455272024882
91,0.9763344877488059,1.2062890453942852,0,0,-0.03540848620251856,0.944664987369549,-0.09791967908464635,-0.3471921991656757,-0.04515476275804661,-0.44629312272546534
92,0.9341898295631518,1.3904287155231445,0,0,0.015244592330757645,0.8658482890973047,-0.08406253545880253,-0.1455354872007926,-0.19495156802191593,0.25446304710757567
93,0.8974637475965807,1.6127647563626337,0,0,0.04529205271008921,0.8172464585001583,-0.029094746419310476,0.15493863219916745,-0.8712429259473421,0.7607275255394981
94,0.8710676772182177,1.8616259249952727,0,0,0.021071269550019173,0.7834324820216422,-0.045000855507908805,-0.624372250188048,-1.193849096971495,0.761652899821852
95,0.8591029434834155,2.1211736409001976,0,0,0.009189669024613593,0.791240894857459,-0.12287118690057669,-1.7123971748872857,-0.6731152064830415,0.5641872979807874
96,0.8644296019894061,2.3734991074523797,0,0,0.0406597216987824,0.8286916850788665,-0.18308103724975855,-2.602669562945372,-0.5119878009817878,0.5121963530562154
97,0.8884065605539165,2.6011969403299324,0,0,0.07075739458894084,0.8623952234758837,-0.1365969387996102,-3.605108911852587,-0.48611244664342523,0.5992213964641421
98,0.9308110606639735,2.789860700296732,0,0,0.029240466777735445,0.8990825746757596,-0.021960191380939287,-3.851960242046128,-0.5519055362034351,0.9471385826788883
99,0.9899226215531094,2.9299563884674305,0,0,0.025816581354640156,0.9467382394440136,0.02363168347859906,-3.146625976414341,0.7645687190438256,0.6427426729721111
100,1.062740240797957,3.0176985739945965,0,0,0.20545467848716295,1.042502327420116,-0.09053146794535881,-2.683196264820494,0.726350424719468,0.5738634055926386
101,1.1452894946236383,3.0548394567208645,0,0,0.4326227626587128,1.116752922472251,-0.16126701345471073,-2.911704471136089,-0.021148174649541097,0.8953300425531919
102,1.2329665854874605,3.047576102606627,0,0,0.5166901537028763,1.2573694735876557,-0.12171449058203304,-2.147327833006997,-0.14599208843356898,1.0505703983216792
103,1.3208627471937149,3.0049749877789402,0,0,0.2509373480543464,1.4021547202714695,0.29653614344598217,-2.060410957771145,0.1736136747797062,0.808836617416914
104,1.4040216322481995,2.9373584832209647,0,0,-0.12647282350897246,1.384209733388246,0.4631909491309071,-2.1653454146936384,1.1985189066329698,0.8889924812611567
105,1.4776082518838412,2.8550095757739826,0,0,-0.1906141499324556,1.437378417885187,0.2553648844088055,-2.1729573530767663,1.3883433794748428,1.2973012932050527
106,1.5370058309173305,2.767376685169631,0,0,-0.03311713419638249,1.4068437178164694,0.13242965520732408,-1.6143126213465,1.2968956553315945,1.544831655432372
107,1.577892996332332,2.682766947937819,0,0,0.11527136687769254,1.3204784059723733,0.11233243728273397,-1.5646964828121885,2.057522134076875,1.372361501553476
108,1.5963714228886252,2.6083674360896176,0,0,0.10718633386958644,1.4392287573534541,0.05539460289309117,-1.4935434994752756,2.444136342502526,1.2308063065590293
109,1.5892014617847008,2.5503620091678565,0,0,-0.16598664098439914,1.5092714067556448,-0.3279044831538295,-1.317306368306448,2.7901327883870977,0.9755215030483828
110,1.5541605728779433,2.5139239722681213,0,0,-0.3567692842616342,1.5323680527690142,-0.4786022319133478,-0.9305261654309102,2.641917245270944,0.659975894121174
111,1.4904824716657965,2.502960744527489,0,0,-0.27126706644350507,1.5586176905787548,-0.31587621811213495,-0.2548642641852159,2.1912900924579817,0.3586017838511089
112,1.3992886793372168,2.5196438821993787,0,0,-0.08127501648309991,1.4853182744512108,-0.026328342973406502,0.6509684647573842,1.4443912255694136,0.22132734166171444
113,1.283907119330369,2.5639095803159457,0,0,0.00013178166943204227,1.3091871976435705,0.0032176421512003887,1.605467148763388,0.592307062675755,0.082232872990263
114,1.1499857163548757,2.6331715718975954,0,0,0.10645648487136271,1.2161039602904238,-0.14425775783655995,2.6876973173027574,-0.2238099948052264,-0.21957622339331864
115,1.005339863269707,2.7224029486846053,0,0,0.19223756357836647,1.1124355001532833,-0.20130569975522136,3.610169966875256,-0.40828226369802073,-0.30003193463867706
116,0.8595077619510845,2.8245671650156936,0,0,0.08084121102997631,0.9198222918112107,-0.30231414278447105,3.514625671729555,1.0104939817383827,-0.789357203283591
117,0.7230230666771476,2.931239640086862,0,0,-0.05992497976830769,0.6897950163994641,-0.35787592334283647,0.3863892600557942,1.272459337636723,-0.6145303217625493
118,0.606452933022144,3.0332548356248745,0,0,-0.12592283152146497,0.5430143286466125,-0.31465289387296747,-2.8855894327294407,1.7274874119848622,1.6738000395978396
119,0.5192916535278851,3.1213083171107714,0,0,-0.1461905478120774,0.4117388585302279,-0.2752480594842639,-2.839042172254333,1.7179084710982608,1.8040580895953735
120,0.4688390876603755,3.186534225373308,0,0,-0.15555217373764965,0.27638999717091434,-0.19856268630535193,-1.148692807214759,-0.035722353511649665,0.9224749709731508
121,0.45922060249536134,3.2211115194555715,0,0,-0.16599639060032564,0.1467872709690403,-0.13391888405293478,1.0800120372638562,-2.316198015072545,-0.19138302609663319
122,0.4907143019390855,3.218929501585111,0,0,-0.17661006791472458,0.10368183722889102,-0.052570406002545866,1.4003448880377218,-4.813374882675319,-0.55125601402476
123,0.5595352409812304,3.176263351519148,0,0,-0.19975674779149255,0.10865412291669165,0.05345345096351964,1.0972083139580064,-3.659021618915248,0.1748941990143849
124,0.6581784677709727,3.092312847536447,0,0,-0.22792065231410777,0.10612680597545138,0.1541465540477002,0.7354576195363,-1.634421693745053,-0.20876820531610585
125,0.776340149877863,2.9694406205038857,0,0,-0.17619108184306229,0.2573925735803996,0.2928283661976535,2.0467099832868985,-1.4094170495423706,-1.0641428869080722
126,0.9023227115375104,2.8130306004017385,0,0,-0.11853692688525137,0.6112983698217191,0.6362877002071595,2.5821176392645313,-2.514133825306448,-1.6792845621984984
127,1.0247000399009636,2.630968949915479,0,0,0.09092763189413651,1.4617040436855313,1.337491727665504,2.298585461073829,-2.117376877516784,-1.4424291332214816
128,1.1339064139665709,2.432774210661408,0,0,0.7623377949788629,1.8601758652522784,1.3349813829054438,1.862485581596319,-0.011032478194637789,-0.7345707830166031
129,1.2233786323636238,2.2284472805730964,0,0,0.26050218436304245,1.3319499802444148,0.9007432383797304,1.4451285306063169,0.3112765776566985,-0.47919607407002507
130,1.2899836942899285,2.027225650771012,0,0,-0.32482701207957576,-0.11750132816796355,0.52499648535727,1.4168063813743201,-0.33166226224231493,-0.4471461872332756
131,1.3336929936932866,1.8365272159228856,0,0,-0.4837553790088545,0.2742769097937698,0.0736429091245954,1.6098049103420853,-0.14455564420445385,-0.13565910760938768
132,1.3567058990041085,1.6613525658201451,0,0,-0.4867494381633555,1.4037756259787677,-0.494070765914517,1.468692678252274,-0.14253709373467752,-0.325557187892447
133,1.3623475399145553,1.5042828872669378,0,0,-0.30906895362413433,1.290801018727669,-0.6875599176287088,1.2645847235505068,-0.3486081395696361,-0.5446552097130927
134,1.3540360805667644,1.3660451589674674,0,0,-0.2578192447946565,0.9408526708037835,0.1547737066385458,1.1796424032664306,-0.36317418484848485,-0.7238678148740656
135,1.3345157820688276,1.2464848132777246,0,0,-0.2414097811349714,0.8894721686257158,-0.37192387360078627,1.0369337593749985,-0.1508889262378254,-0.7877025187905833
136,1.305467134945088,1.1457075220346296,0,0,-0.16453355576455514,0.8738506545235103,-0.5017241164640633,1.0254634239068616,-0.3177322378990425,-0.6168219192943457
137,1.2675387233157682,1.0651194367031578,0,0,-0.06935796069162005,1.0314431161563329,-0.4957535839492598,1.2101216037661828,-0.7545409133228745,-0.34998143508434654
138,1.2207631884250085,1.008101126544851,0,0,0.1537001141867111,1.3761629479427921,-0.6083036901065457,1.1650114034806969,-0.9416696021804335,-0.39704781011002466
139,1.1652208854876323,0.9800956208717627,0,0,0.3932528969560217,1.4737837496956192,-0.3790335704353015,1.324404199759904,-0.7146856006002388,-0.41532018016806693
140,1.1017395101898932,0.987985411425119,0,0,0.45257970816323784,1.407589750515325,-0.1438497470097218,1.170575150632492,-0.5863499713769376,-0.4431861841102368
141,1.0324079398073933,1.038782955751131,0,0,0.26603042323726916,1.2317214555485192,-0.10730832880013143,0.742127426536041,-0.45640755647897724,-0.49668259304165885
142,0.9607490621104926,1.1378458352914773,0,0,-0.013826522946493646,0.9456982299916051,-0.08456131944581945,0.2662449810401434,-0.27799345724342583,-0.4654556245797904
143,0.8915128468458129,1.2870016237888544,0,0,-0.1970291063000928,0.5912926180543573,-0.08151163412567747,-0.2002145386107353,0.19733133484910753,-0.48332287404441143
144,0.8301681912471562,1.4830637666808102,0,0,-0.1322795457998125,0.5469721294265902,-0.12389448475387267,-0.3569909833102328,0.385801978923769,-0.08461292679576275
145,0.7822443196696021,1.7171881036099217,0,0,-0.020705047581646718,0.641884595662626,-0.14451517744848985,-0.2599546008843933,-0.5040470269641052,0.7856575547491547
146,0.7526790181443447,1.975349677168648,0,0,0.09562474414013723,0.7621192218968338,-0.08012672794519773,-1.242363320000001,-0.36545955142403097,0.8499918235153922
147,0.7452845031157921,2.239946789840415,0,0,0.11060517347402994,0.8168718204553778,0.02192721457722939,-2.3027923429027117,0.16950243454545452,0.8102630623444976
148,0.7623780434510289,2.4922352971771256,0,0,0.052947934445878246,0.7728363377064376,0.07085521986418698,-3.390661478442281,-0.06405079388873451,0.7191795606397775
149,0.8045775995552781,2.7150522018765426,0,0,0.005867686189061247,0.7581200182116978,-0.052933841189614014,-4.04680110704164,-0.5430096583867429,0.9226908289077812
150,0.8707446665856782,2.8951939585574684,0,0,0.0309527986925909,0.836390957797277,-0.04723164359161067,-3.406728676366467,0.6251604730986163,0.7852930171367445
151,0.9580568756826129,3.024923778356245,0,0,0.15377179270566244,0.9099192574199033,0.0032764049309665336,-2.67503600935743,0.5168358213253006,0.49898717146987953
152,1.0621949038802037,3.102362250042877,0,0,0.26847760550979366,1.0228232387580776,0.025493923924672486,-3.0147413574382695,-0.034433619722186046,0.9206655387271679
153,1.1776232678970944,3.1308468508984912,0,0,0.38964272104230574,1.1054024759241892,-0.11910724275947035,-2.627796232649802,-0.027710272794743168,1.1143523745371313
154,1.297934600549659,3.1175930107840983,0,0,0.6269048872608793,1.2229749206115026,-0.138247556153522,-1.8221847110220342,0.12928185314630444,1.3891864621242553
155,1.4162187758864353,3.0720877206026174,0,0,0.6554179226110873,1.4662083269811566,0.18920702094233985,-1.9261396759720883,0.9946923211365974,1.3983293395812546
156,1.5254190859572287,3.0046076779164386,0,0,0.24320216529468114,1.4983365585606305,0.39326505490803354,-2.031821229753205,1.4518404564856864,1.4351827659032586
157,1.6186534998061135,2.9251173868547924,0,0,-0.060976791098733676,1.5027311203054945,0.2071494976767931,-1.701743463095001,1.8025656702848036,1.4148832180641309
158,1.6895085264299332,2.8426194670497877,0,0,-0.10853021357355778,1.4278391183790886,0.20881882194329834,-1.5570186001977055,2.339077003815743,1.1996945578489495
159,1.7323415362188166,2.764863277541589,0,0,-0.11441085350239581,1.5727154871853648,0.14523448126352664,-1.4848191276339548,2.890335981878391,0.9504090300140451
160,1.7426326247563662,2.6982233760789374,0,0,-0.3466754616161743,1.7109171192068684,-0.23732501433179415,-1.331084017869344,2.8909249798592946,0.7736682072180883
161,1.7173992841793708,2.647562069687567,0,0,-0.509507085475426,1.655195852663528,-0.4688692932670613,-1.0135984192192153,2.5996646249249213,0.655299754306305
162,1.6556400919901868,2.6159867599044357,0,0,-0.4596957807527109,1.6122163043565598,-0.3587801636188385,-0.38436073055354053,2.178345922663451,0.5263049132691527
163,1.5587340377027352,2.604564597539478,0,0,-0.1575152443035675,1.535559663559149,-0.16473631503642913,0.446198445616471,1.4608997150801462,0.4446528996457547
164,1.430707094875499,2.612186759283101,0,0,0.16468945837868382,1.5076742880984042,-0.017353890083583165,1.4589557374073392,0.7044822714125383,0.37350713721097867
165,1.2782850118660471,2.6357945044858777,0,0,0.2888288204289585,1.4070346594205976,0.023712993030274496,2.4610711832965855,-0.004653890453695641,0.14690804154354922
166,1.1106706166157427,2.671048884466792,0,0,0.23650779121363583,1.2670207906133126,-0.09176779013911766,3.435660591840022,-0.4107990409279998,-0.03405451459200434
167,0.9390116311871226,2.7132996813235675,0,0,0.11256386378755516,0.9873220056282525,-0.27999548351221804,4.030116653433593,0.14945821558485664,-0.3744394909994232
168,0.7755646948893973,2.7585212742783582,0,0,-0.0536996553986299,0.667881715570903,-0.3963747764754464,2.100946810954564,1.5407784898789467,-1.1455602963881715
169,0.6326122214578692,2.803859367908643,0,0,-0.15685429197129472,0.44889952261959587,-0.3756869226518175,-2.219934373197015,1.4975561124759118,1.160786790534081
170,0.5212396499706589,2.847589848798749,0,0,-0.18205015054836082,0.34192298428250995,-0.2887580860291408,-2.5169263837334945,1.682049483133253,2.065561300600243
171,0.4501172454769416,2.8885340411537466,0,0,-0.1875170389619303,0.2600823900217153,-0.22206459610043403,-1.8399564476776424,0.9646145567090043,1.228156853076614
172,0.4244459063838232,2.925191661235657,0,0,-0.19875497126914687,0.17853890289151253,-0.170775391446759,-0.2508107539735198,-0.30178765486091086,-0.09673786337746695
173,0.4452223246206873,2.9549735119680345,0,0,-0.20406972723723474,0.11063636546816775,-0.08480866992675662,0.4958924744894773,-2.859850909469976,-0.7921678200194846
174,0.5089588843858409,2.9738845464180206,0,0,-0.20695866282618672,0.08944117444708416,0.02199918812831757,0.324804500705091,-4.244667754208747,0.20325019796989885
175,0.6079565831114303,2.9768121989225453,0,0,-0.20999983188203633,0.0676629504253937,0.07837783433450317,1.158040916077738,-2.636410467805262,0.7348466483117396
176,0.7311686405544343,2.9583267378312654,0,0,-0.19363507875495448,0.16180978063789636,0.17889178620863197,0.6708831546418543,-1.4243096211317752,-0.3137070994855412
177,0.8656015930739269,2.913755299436603,0,0,-0.16793439332031496,0.4141062035382484,0.39045007361973816,2.231247150108945,-1.6341743285403127,-1.3363083237472833
178,0.9980801177761334,2.8402637349867486,0,0,0.014760889796649392,1.174156913614959,1.0249227321365313,2.9075938783756925,-2.8362594973590065,-1.803071150377282
179,1.11707233665539,2.737672771857267,0,0,0.8486907555285896,1.7801544134727105,1.4975354851011442,2.8450953896565316,-2.8270054380971135,-1.4394557008290534
180,1.2141883798095385,2.6087428732644744,0,0,0.5618088542243546,1.7249430812490139,0.9824423899030372,2.0566581402819644,-0.3648464866263618,-0.6398069294058384
181,1.2850005815942878,2.458791158873749,0,0,-0.12062876558497866,0.6491625311726162,0.6784035820733018,1.272651227239926,0.37573668066145227,-0.5433514161876128
182,1.3290188191605306,2.294764884313375,0,0,-0.5186339196681689,-0.017935024123940813,0.6388468193568819,1.3925419060660658,-0.27677219820140087,-0.4955848902262264
183,1.3489154013795701,2.1241258890380026,0,0,-0.5030477156348498,0.6540219687537939,0.48536326532517815,1.7459097335942102,-0.8849877908276306,-0.16779067084719093
184,1.3492917680825365,1.953934697680623,0,0,-0.03921062963175962,1.6385822918690958,-0.736902573070935,1.5766522281805444,-0.9520229678090705,-0.34512850980227994
185,1.3353320599566285,1.7903667067699194,0,0,-0.08483371373808062,0.8691429528439701,-0.5655015664517428,1.4543970336012841,-1.1015132533762093,-0.6320102901446966
186,1.3116332026193729,1.6386812574474943,0,0,-0.2783809649780699,0.5531790781710982,0.05374120941413536,1.2860668881647335,-1.0850964624550175,-0.7632791531787285
187,1.2814201918221884,1.5035155168766234,0,0,-0.24637778838367125,0.6361796725907356,-0.5654512355772914,1.095049550411564,-0.7578425902268622,-0.711920292505521
188,1.2462750772972515,1.3893195562823117,0,0,-0.14078182398860745,0.9201073436187793,-0.6338789766011187,0.984257419709883,-0.48566572202175584,-0.619154193773344
189,1.206400503003943,1.3007566940885822,0,0,-0.03242541363601131,1.3298391244932382,-0.47898091294118744,1.2149142196039215,-0.1427015502840563,-0.4392593904540904
190,1.1612997330021242,1.2429200221609558,0,0,0.19453731369197633,1.612537622164365,-0.4797548177726737,1.5328789854407703,-0.45276556752892866,-0.3024047374950126
191,1.110636438995804,1.2212368533477957,0,0,0.316352207921884,1.421186056407718,-0.29758496552970937,1.539855939478957,-1.2139131749899816,-0.34368221286573153
192,1.054998831078326,1.2409607442122594,0,0,0.25045618594797503,1.212161443832142,-0.11059411137616004,1.2765294223604844,-1.5937044574066557,-0.4700267181934988
193,0.9963502875748491,1.30622803966754,0,0,0.0838062480111995,1.0933864286363115,-0.061236338269977555,0.3140834027019071,-0.45852471855236565,-0.606613955341975
194,0.9380691103134536,1.4188064448185798,0,0,-0.10081425708041777,0.870698767410834,-0.11699132873086353,-0.24449520445724118,0.3265911390054547,-0.5503821910956138
195,0.8846085395171398,1.5768421908133807,0,0,-0.16472627960777433,0.6541215006580479,-0.16697694461424178,-0.6044029063605514,0.6375691503533654,-0.38616336359552983
196,0.8409012452053468,1.774017615608239,0,0,-0.1230279295725432,0.5939762695075623,-0.17909556641222368,-0.20125077845600023,-0.5403457128559972,0.6303562269919954
197,0.8116719449493243,1.9994828902451445,0,0,-0.02521350261926259,0.643689957050356,-0.16579019393638622,-0.5532893720971501,-1.132959581161139,1.1227431584123224
198,0.800809601679472,2.2387308936303927,0,0,0.08056185904878324,0.7358620415963855,-0.032116857039709644,-1.6597852159212871,-0.015038322079110891,1.0540781121844565
199,0.8109019467079016,2.475317079860748,0,0,0.17973026858751695,0.8252804079124415,-0.025404878234001217,-2.5646136184315957,0.08242834301125823,0.9598582034153791
200,0.8429732387440705,2.6930732745168244,0,0,0.2578100951679594,0.8581489276988759,-0.10619817926538355,-3.765039098016594,-0.5342832370289406,0.8878657773122847
201,0.8964145576325938,2.8782999060671752,0,0,0.2479560939808756,0.9177782291841989,-0.04038014858077108,-4.015491800805488,-0.34675134574122557,1.1493236273864615
202,0.9690682076497864,3.0214066101551063,0,0,0.16682029539403526,0.9173944657490983,0.1660149230390089,-3.0536102635475464,1.1921264423911082,0.9028535268861065
203,1.0574236789631644,3.117635737630585,0,0,0.06017972585097876,0.9301855240406034,0.09690538178378723,-2.5122913048921816,0.9353732763418299,0.7110828784345056
204,1.1568905093984743,3.1668012196831956,0,0,0.2606794681326279,1.1068700547869343,-0.09997982320313825,-2.934020662321142,-0.12519289089033003,1.004713542766309
205,1.2621183928134425,3.172282022052401,0,0,0.5894649861777178,1.1587794926032955,-0.2563236617963858,-1.9199080059457332,-0.3958364215363154,1.3555344978850756
206,1.367329691421658,3.1396978101875557,0,0,0.8945189649239526,1.3780641872585069,0.08627659369663733,-1.743216483143136,0.3271717270750638,1.1644597128128154
207,1.4666218830239963,3.0757116178212653,0,0,0.46434402477199577,1.4641625349685183,0.3979544489048803,-2.244695067199685,1.405249283070169,0.8933579214551265
208,1.5542050273727224,2.9872709907489505,0,0,-0.06447845215282658,1.49598334957386,0.24287545247472986,-2.2712582667361847,2.040046679207725,1.116750793574663
209,1.6245719379846084,2.881376905059943,0,0,-0.1688389241755003,1.5022141162061142,0.23158080550129603,-1.542270566970839,2.248863892342789,1.2193675843483436
210,1.672644628956345,2.765247593750006,0,0,-0.07686856137690523,1.3248288259389764,0.2662423187720861,-1.4325305253144343,2.597544856158914,1.042955690796566
211,1.6939719525959656,2.646607090327545,0,0,-0.0016740039868727334,1.3825578997348786,0.1210447912249939,-1.4119702383319952,2.705208272794707,0.9025034335645531
212,1.685045742385808,2.5338095079961946,0,0,-0.2895666926011836,1.5959132015698236,-0.44755207637187955,-1.187784812846202,2.8068138826163813,0.8108510837360056
213,1.643751140406049,2.435592277789959,0,0,-0.3327147843362519,1.6814210629029709,-0.4234372615243954,-0.779483150946777,2.5767327643013718,0.6356879307853284
214,1.5698905581294464,2.3604025860151077,0,0,-0.2189087869252194,1.7835816160446432,-0.24190613342882977,-0.06971255910697922,1.877031734896971,0.3647888783022613
215,1.4656563223722505,2.315421569761127,0,0,0.012704186072674215,1.66240208457244,-0.13196183979945444,0.7529107935869863,0.978709714599554,0.12933775096065295
216,1.3359065395265817,2.305554385799396,0,0,0.10820150296463338,1.4304989502099072,0.061233953553265365,1.6131237416418234,0.3492438237070115,-0.13052470043729142
217,1.188129016220313,2.332682025497299,0,0,0.12406625660094894,1.2127154768121897,-0.08552516287533245,2.380377933781895,-0.3514000850130611,-0.561966466880905
218,1.0320403171925234,2.3953531430375383,0,0,0.19864151538044583,1.0775260501490223,-0.27902755015552266,3.198149776634572,-0.17076121070598016,-0.8380979725531476
219,0.8788341700504906,2.4889019885773047,0,0,0.15134437104086088,0.9002830220945256,-0.3399057712372419,3.258440160027111,0.729183339949649,-1.1949804375314952
220,0.7401486937897233,2.6058479322336745,0,0,0.03421969862914998,0.6537943826151796,-0.34437060857666846,0.37297304822974703,-0.10807536550710484,-1.1099387669934684
221,0.6268636917020373,2.736448214108279,0,0,-0.08257395044365687,0.473968308596213,-0.28467805572777627,-2.2400399706057654,0.5321955789970514,1.1080520278053898
222,0.5478710885008055,2.869385507833619,0,0,-0.20065112222649778,0.32485665301706673,-0.25933035126000376,-2.3060385288880294,1.476658892390668,1.7904014110217759
223,0.5089815929305157,2.9926418008973266,0,0,-0.23655224168005992,0.20863212400464262,-0.21812559916373775,-1.3134392334589815,0.6092696143073537,1.2680928961698592
224,0.5121324298234179,3.094569992869546,0,0,-0.22545244475429288,0.14952653293477436,-0.1206091191453782,1.0398718846867123,-2.1672578717493525,0.4740402865248403
225,0.5550405874008328,3.1650590579928886,0,0,-0.25152035519962807,0.11516224847309917,-0.013995899536595207,1.8210710820266114,-5.134080304257947,-0.702573260393047
226,0.6314029160022127,3.1965663613546202,0,0,-0.3099984475472775,0.12021519805630772,0.04378889284890018,1.2515044459232583,-5.096820717226152,-1.087886847561921
227,0.7316777617255693,3.1847494638482137,0,0,-0.3469325870918709,0.14642834214659745,0.10666319248852214,0.8035919141589392,-0.2567525436245221,0.45362097508578003
228,0.8443916260790579,3.1285606020027386,0,0,-0.2490019601324634,0.3677363922140456,0.2767472673342938,0.9238675534745776,-0.31936623652744484,-0.6759377174460648
229,0.9578016584247092,3.029918836663151,0,0,-0.12211391318591697,0.8550793954804998,0.8307690688265683,2.0785747209709333,-2.1825810901926435,-1.5635762662932513
230,1.0616251635322302,2.893217334384588,0,0,0.4464598333958403,1.6597017498698596,1.6659142976683459,3.1335080801271884,-2.9452484060413258,-1.8129013535771024
231,1.1484607282151569,2.724818642596008,0,0,0.7148368438898378,1.9073195239857743,1.2689156008026632,2.715738543919003,-0.9033187932397014,-1.1615527689240226
232,1.2145407878002625,2.5324990741787246,0,0,0.23682837262243292,1.2046390595381673,0.6205498997219178,1.7485540868839429,1.0324357790341816,-0.5623383644038156
233,1.2596252759093354,2.3247674196737913,0,0,-0.09854782363774568,0.14713807521949238,0.4735832432811257,1.4162741621734753,-0.0778443897204168,-0.5484170775892434
234,1.2861306183746495,2.1101175389286695,0,0,-0.15207033232732867,-0.08683143438190612,0.2985309203894787,1.7692248545292097,-1.001600573790239,0.018491051174620698
235,1.2978439311341827,1.896397628451962,0,0,-0.30404264903563105,0.5832381686528102,-0.100226857178245,1.6999191329088748,-0.7225605910943104,-0.05473551979307549
236,1.298654729103603,1.6904675539201743,0,0,-0.5076206748746407,1.4725727229209915,-0.6156446325799562,1.3448723632812494,-0.5662633506249999,-0.3823769753645842
237,1.2916228688101454,1.4982060306099334,0,0,-0.3673296545615228,1.644035427363113,-0.04239924964254384,1.1659459281174434,-0.6157453234974086,-0.6638406781830725
238,1.2785013009124482,1.3248144889869369,0,0,-0.19624679691883481,1.0280775868486753,-0.08304246670139757,1.113147309434716,-0.6284921621203053,-0.5683380275578329
239,1.259682162889315,1.175288396958706,0,0,-0.1659928714826542,0.7583199734417444,-0.5004648604433151,0.931209150495208,-0.7014169992971335,-0.4891032503594266
240,1.2344847211524048,1.0548868191556042,0,0,-0.11625581037875517,0.829633697685913,-0.6159459575657775,1.1098755029873393,-0.016439944533236446,-0.3246324510702979
241,1.2017018892019387,0.9694191664517341,0,0,-0.022877397187399142,1.1408415345251859,-0.6748849134900324,1.2300293246113991,-0.11404427279792874,-0.31095730336787575
242,1.1603004977659555,0.9251844076355024,0,0,0.3441566766908335,1.4566865927762949,-0.5060376182434684,1.2867517675977649,-0.806136919441346,-0.39426913821229387
243,1.1101236862162565,0.9284474463416128,0,0,0.4291073746600544,1.3461471826183462,-0.12649965863488113,1.1138793577800252,-0.790756383406669,-0.607652946014125
244,1.0524193316000814,0.9844311384743962,0,0,0.24715669217527583,1.2417449434207277,-0.018216452519379932,0.7445784360721348,-0.30118329549765155,-0.6721837576820295
245,0.9900548869689312,1.0959462362583576,0,0,-0.08901726046446293,0.9902948661901784,-0.06266821038383237,0.24462468372920984,0.27388020209026337,-0.5221562842755314
246,0.9273686463430131,1.2619477202340248,0,0,-0.2772229126734448,0.7299340910600884,-0.10162378950261126,-0.16724234550770614,0.29093200245159984,-0.3269379961833264
247,0.8697083653442644,1.4764262091114124,0,0,-0.20323596503387012,0.6689586231326226,-0.16988193279850033,-0.5441846500000023,0.06158119369566112,-0.01564014343479556
248,0.8227781381305536,1.7280444901258285,0,0,0.032588384918008036,0.7079609067090373,-0.07816986128332534,-0.41936288578123104,-0.6285569524320207,0.7663049083383141
249,0.7919346640477707,2.000783328525483,0,0,0.17610548308705834,0.7055715387789088,0.03699917040826983,-1.2492377089249371,-0.48474141259635967,0.9456144437119677
250,0.7815519779557787,2.275602658369847,0,0,0.2174770457329536,0.7378267817132308,-0.08718756605410621,-2.2996588068195702,0.2141330046498887,0.8807947579054182
251,0.794531371997837,2.5328344420961457,0,0,0.20935963223304968,0.7545701042464876,-0.1543978296222145,-3.367081522830238,0.21376457412507074,0.7747314174183223
252,0.8319919820222077,2.7547968446364655,0,0,0.18173137124993616,0.7814819755982803,-0.0855643119847105,-4.060403294228078,-0.5501110401837429,1.0133681586778507
253,0.8931485504954767,2.9280400375366407,0,0,0.1186431776220813,0.8139740185882279,-0.010204516242526667,-3.421529818726136,0.2004392841812377,0.8009200349125972
254,0.9753660459991007,3.0447470802019945,0,0,0.11889099090681804,0.9388232914164636,-0.023474483377525217,-2.5650232000000015,0.5482515699999698,0.6389650999999944
255,1.0743692880292803,3.10308602174519,0,0,0.26294807868177006,1.0512601068617053,-0.04272618223686544,-2.834478487237447,0.11921550039607842,0.7863844925785141
256,1.1845734801218462,3.106622263919469,0,0,0.4558857196824486,1.1675142562669745,-0.0831152429748042,-2.2913238413876007,1.0298972741728554,1.112106841768599
257,1.2994892000155525,3.0631168238226882,0,0,0.6167132805650286,1.2234559623501544,-0.07076265047167583,-2.2656470155080206,0.4889675162091382,0.9438033146761737
258,1.4121494888994612,2.983095285313907,0,0,0.49606466115399817,1.4302285050707577,0.26605204885846473,-2.2235119306406577,0.6294575247910411,0.9905426901671363
259,1.515513643252114,2.8785012157905623,0,0,0.19093997708996188,1.4553294210634138,0.41492624822949037,-2.446209225563748,1.7626074484334455,1.030753876671333
260,1.602822995884673,2.761608200171815,0,0,-0.08666989849958819,1.5709150421824147,0.2044002798004537,-1.594344386677205,1.6512101538248678,1.4499132650128488
261,1.667912166718153,2.6442175424662717,0,0,-0.05064198733245572,1.5424714964091817,0.14378171033974896,-1.1658405217867078,2.0922838375248736,1.340189475288497
262,1.7055034921811165,2.5370655156323076,0,0,-0.010018570088174193,1.5189457385167116,0.07029226093316573,-1.1316351461447212,2.3392203902728332,1.171094971293003
263,1.7115202424179603,2.4493283769269634,0,0,-0.3093880179894141,1.5641796589313588,-0.29167413626385674,-1.0973896195404587,2.419093283996006,1.0057085581618357
264,1.6834385966938779,2.388137579260713,0,0,-0.47796934793445345,1.5782566664453022,-0.4697620378856072,-0.8857546,2.4058928,0.7623598
265,1.620662625841329,2.3580864823751533,0,0,-0.39016576272140935,1.6342547883300524,-0.32464163203213037,-0.29029977468202284,2.0535893036308734,0.495999542359074
266,1.5248659212615323,2.3608070521589117,0,0,-0.07746530054665413,1.6155577650001005,-0.2660127428976509,0.4872931200120139,1.3182751743034775,0.2820209547304103
267,1.4002174568453545,2.3947810566380836,0,0,0.11556619784393984,1.4488812562783016,0.14650364289555484,1.362606843619601,0.5787248200120259,0.03577679930416844
268,1.2534088835387702,2.4555598444320945,0,0,0.18731550224986404,1.2851288217539996,0.03275692288307212,2.326046778494635,-0.08017277736559758,-0.26856888290322906
269,1.0934224024272527,2.536454996227987,0,0,0.2380593295250959,1.1389677759858952,-0.24906046944799262,3.3541663895469287,-0.21687974967407897,-0.4511146324960283
270,0.9310110870865002,2.629565223372504,0,0,0.20787983849403024,1.0446262555894534,-0.30946663548576486,3.8000833817509343,0.3797222147871374,-0.8277369598680812
271,0.7778988272907963,2.7268430891064797,0,0,0.05682657544859995,0.8053563402763096,-0.35768350834324547,1.3130252958169624,1.2629604070584117,-1.1291824096851013
272,0.6457452720871304,2.82089282262065,0,0,-0.06733461621338031,0.5782520229810297,-0.2876042376772402,-2.478797800019787,1.6025671738665686,1.6135188960997573
273,0.544964855529333,2.905331692140485,0,0,-0.17576976181013823,0.41427116203825826,-0.2236626291222779,-2.6685931983057514,1.1389725437113312,2.0475883013752925
274,0.4835333748358014,2.9747450894444953,0,0,-0.22069498191496845,0.24588675745469726,-0.21391611651674047,-1.6606133186278083,0.2601753520821604,1.2050782962105933
275,0.465948178830353,3.0244265479811396,0,0,-0.23029619744449872,0.08144727843481026,-0.16106650603664527,0.46208897626713347,-0.5800654783246603,-0.2532861270469072
276,0.4925174949362511,3.0501674470520737,0,0,-0.21401888139686873,0.018855709514152774,-0.08091238936053688,1.0180505686223462,-4.023519120724822,-0.9958395022426839
277,0.5591357523597296,3.0483046756325582,0,0,-0.20739471739698104,0.019463358943740825,0.008791134259897464,0.7037651516164237,-4.173595550674245,-0.11648656266358665
278,0.6576529334262374,3.016062553431289,0,0,-0.21237912521230445,0.04833228416508672,0.09898201118455004,1.0956343468080023,-1.9676013788007467,0.47778210409449245
279,0.7768643372917757,2.952065042792168,0,0,-0.17303932296474234,0.19970832976992034,0.19498560620297184,0.9641369633909158,-1.2192159528650017,-0.48681878702318143
280,0.9040315333638387,2.8568530437568835,0,0,-0.10827325431333412,0.6145553024518681,0.6214973169686715,2.557342786882627,-1.8738688348930337,-1.2374578365326994
281,1.0267049986297516,2.733260804761834,0,0,0.21602387643214466,1.5238819282862044,1.4050936616031693,2.7893131098574524,-3.107668703774348,-1.6661075288897802
282,1.134489695243492,2.586484377562586,0,0,0.8445424746286796,1.864922580980774,1.440236338695258,2.340874445960893,-2.3476122594904214,-1.2533338595496744
283,1.2203469864240941,2.423666863423871,0,0,0.21975361501576557,1.3467332172271917,0.8302896381521039,1.6327064287415902,-0.9715026178444222,-0.7276302263199669
284,1.2811286494926406,2.2529588978846125,0,0,-0.25689046155676026,0.09384115427003421,0.5785166978700008,0.8621743978545802,-0.13809741449485968,-0.8476363224314629
285,1.3172807707433478,2.082268866135602,0,0,-0.4941406482749727,-0.3101364353691683,0.582385120655703,0.9872808192824691,0.3406748228622051,-0.6616168606150281
286,1.3319167564129346,1.9181131040917996,0,0,-0.30244967688546814,0.801008045918466,0.15393404664226415,1.3167324564439193,0.04686167473745381,-0.3916732319212395
287,1.3295973349485497,1.7649633445648316,0,0,-0.16531780872356552,1.6699065900696346,-0.6617793891245127,1.4381432558121012,-0.6161062944665565,-0.3840660137340759
288,1.3151313995315967,1.6252846950186537,0,0,-0.060800928221484286,1.2502992543679292,-0.5799679734757002,1.5454051864025462,-1.150506229962187,-0.4445540957017754
289,1.2926053780988238,1.500194049603802,0,0,-0.07530459410317762,0.6700130945247478,0.08244301986832774,1.374251143996974,-1.2002081895065217,-0.6452349146398193
290,1.2647604524250398,1.390473066297704,0,0,-0.10230018232701682,0.6258975675266335,-0.6769027542563884,1.197240416961062,-0.7924640002107638,-0.7397587596105981
291,1.2327884714269164,1.2975998985129806,0,0,-0.07175095593603434,0.9250983372159758,-0.5458412578955271,1.0070298226544656,-0.2735848012013868,-0.7744107819679618
292,1.1965624769803045,1.2245055387697539,0,0,-0.00791695884473579,1.307292264288525,-0.37522053516429943,1.1313384437014995,0.08277041918806086,-0.6797415034029822
293,1.155226751577548,1.1758561286088833,0,0,0.1301611027532752,1.400857476229521,-0.2903449328474859,1.4449357877686217,-0.20420940580034855,-0.5425849408475643
294,1.10797576113968,1.157758481589446,0,0,0.2105800931468828,1.3103006359746143,-0.29184995048308343,1.5007564747206648,-0.8590283935754366,-0.40825888765362994
295,1.0548045520495537,1.1768724297416833,0,0,0.23959380692021534,1.2724126555940083,-0.25643466327305736,1.2620211273821242,-1.1394615483527313,-0.4796471854843172
296,0.9970368121769185,1.239019236057068,0,0,0.1342474592432407,1.1629516881624,-0.08034455310492405,0.5917627308582719,-0.5737702145788286,-0.5797116276886227
297,0.9375140139545172,1.3475206563607531,0,0,-0.010655192465136928,0.9228108932234784,-0.02422484199276542,-0.0005593864586613624,0.04028479453780723,-0.46244428917940733
298,0.8804269831090625,1.5016543956852964,0,0,-0.06444114247945544,0.7427681021895559,-0.08981498306578016,-0.5105356374498843,0.1881465,-0.178245284354447
299,0.8308587424334928,1.6956841504973386,0,0,-0.06316171246905333,0.6328940556038589,-0.17258936284258836,-0.5843961561490973,-0.15766757705739498,0.40152855063183446
300,0.794161326403127,1.9188409159238773,0,0,-0.03778461920714691,0.6436800602963075,-0.19125889960195622,-0.810600788795508,-0.23344663742087804,1.0588517781863247
301,0.775298907337687,2.1563930749417297,0,0,0.014120587340133006,0.7138965520414741,-0.11729599051747595,-2.0459477261642762,0.607589079332385,1.084847004977013
302,0.7782616139527472,2.3916216952918794,0,0,0.1069812489908499,0.8191769153733759,-0.059079789567648186,-2.9537977949305065,0.1983923494889577,0.9845801529067851
303,0.8056091951359575,2.608231219635193,0,0,0.17251124935757087,0.8555273319420764,0.015346693449162408,-4.244843737233002,-0.01209077807397619,1.1702577038930027
304,0.8581640024915665,2.7925880520935755,0,0,0.19571304622978572,0.8600510013348056,0.06452827631419274,-3.195364472287679,0.3471915258844647,0.9658780584905476
305,0.9348526000359321,2.9352579493194897,0,0,0.17135784395711495,0.8108736197161907,0.0717177727751138,-2.324929414263072,0.8064306803486522,0.6879693086846265
306,1.0326939120897236,3.0315814218984625,0,0,0.157198835137692,0.8455090511835444,0.07113256254976207,-2.926456544106713,-0.2735750905946765,0.5667192245263732
307,1.146935540271927,3.081355990796545,0,0,0.2600697339812826,1.0934324552018984,-0.0424339637715359,-2.6381887671557527,-0.5921208664562606,0.9340794903497706
308,1.2713326266386,3.0879339315183127,0,0,0.5808620999904613,1.2283819479782347,-0.1198502381530655,-1.592484220502046,0.8557703556406243,1.3565514814903612
309,1.3985414058218841,3.057124281127928,0,0,0.7988081511823152,1.397223168038346,0.09271308145365069,-1.8687611848466856,0.979448568578261,1.1993795193548322
310,1.5205765721647237,2.9962290821739446,0,0,0.5450468688113822,1.5247696089499707,0.3615434594944631,-2.687936345352455,1.281459727822831,0.9749512487461011
311,1.629279110525747,2.913395377904989,0,0,0.15703776727054772,1.5708721079552488,0.2675590198650606,-2.325503638809505,1.6715009865079526,1.131051663968253
312,1.7167676876023716,2.8172824338152753,0,0,-0.011903376248283843,1.4502071844662743,0.32889021225193,-1.7184833863275066,2.176245409538947,1.0791687655007953
313,1.775886826001025,2.7168976705379753,0,0,0.06045715621241711,1.445427146940184,0.21388282654955448,-1.7060673518729186,2.5566393871739597,0.913425927170028
314,1.8006884728366679,2.6213975429715433,0,0,-0.1683634951113442,1.7229829056122743,-0.19277843520793392,-1.5284631035506513,2.4749318963891676,0.7959875450351052
315,1.7869669470130087,2.53968633927944,0,0,-0.4775229426206174,1.7821457286374163,-0.5315474976378985,-1.3181453647622807,2.5776487366759873,0.6786643124650399
316,1.7328147071197462,2.4797515385934306,0,0,-0.5512024328692937,1.7427585221285216,-0.4097163540123568,-0.7475212251643774,2.3139386411237317,0.48552066216377826
317,1.6391093102600043,2.4478175158094015,0,0,-0.48376867757416203,1.7255339714813136,-0.20615959909131648,0.08774864452958095,1.5835370719729998,0.2713722199960294
318,1.509814989208809,2.4475348964247643,0,0,-0.09832672702828534,1.6174294661914992,-0.17463269390988215,0.9956371007641245,0.6930006602955981,0.1658598028936258
319,1.351997886267324,2.479482305163452,0,0,0.1533669682642181,1.4249612625365256,0.12450234913769782,2.0433835831037337,-0.18474392366289033,-0.056410979846030204
320,1.1754999247275408,2.5411789578589503,0,0,0.15171738373113233,1.1903250484655912,-0.008020060833747988,2.925956840032493,-1.0035071903166903,-0.36744281394437944
321,0.9922719346725796,2.6276008052525484,0,0,0.14769718685456626,0.9994628543506427,-0.25779899667328354,3.90422780615416,-1.0166427463453416,-0.6297436933240441
322,0.8154166795597898,2.7319746124001014,0,0,0.0838839998745429,0.7478409486551667,-0.3864566887197609,2.829825576158358,0.5558682146059482,-1.274627455247531
323,0.6580304441168898,2.8465433477056847,0,0,0.0018272578317611024,0.5273021571495261,-0.3966034982524525,-0.9598511272595526,1.539589777132489,0.20544177900788557
324,0.5319581049729312,2.9631033492235996,0,0,-0.14838341528062352,0.30807056058605436,-0.26819867642618916,-2.544888725280896,1.5361738346910256,2.028503325000002
325,0.4465930428353833,3.073309430090588,0,0,-0.20444364025359696,0.23345913127880033,-0.23644674402722773,-2.2256148526231674,1.4713525174745508,1.6535931702174222
326,0.40785907391873044,3.1688867234278635,0,0,-0.2297632615867564,0.18960160598346462,-0.17498286851120268,-0.7454922013180693,0.20333208155716825,0.5152914567671323
327,0.4175043434483954,3.241917250291539,0,0,-0.24389639408350713,0.12679069664435497,-0.10894132460413909,1.7109442514952418,-2.8057544263158443,-0.45163089703350334
328,0.4728169267166296,3.2852911756311007,0,0,-0.25208538065633623,0.09702039781156993,-0.024459621945929013,2.0714759829201745,-5.385262353913727,-1.1952365979894635
329,0.5668405324165328,3.2932629544655874,0,0,-0.24973244750528975,0.07661333000112165,0.04638007164459862,1.3462130558203582,-3.6839886442386436,-0.3000564113058403
330,0.6891240260947344,3.261941790793483,0,0,-0.2457428627253711,0.10051311262584274,0.1374106210356937,0.7616665544086011,-0.2983079042361521,0.13523285219108946
331,0.8269725226915455,3.1895973001519513,0,0,-0.2128677973197433,0.26042385343286817,0.2802425550515423,1.750190965943803,-1.174808956144608,-1.0401536028915883
332,0.9670731390948891,3.076814216029149,0,0,-0.13004416968615307,0.7457700252489621,0.8494511915242023,2.718208591335736,-2.515620985800235,-1.802331101444041
333,1.0972517565733924,2.9265743881138717,0,0,0.43047428379055636,1.6327085307914886,1.5088209685057354,3.069794805771441,-2.7518352710657656,-1.9581939930742522
334,1.208016673871141,2.7442246891283846,0,0,0.9125149819645415,1.8753481679927206,1.3158089454845228,1.9590714713537327,-0.46344958886777626,-1.1067284385978968
335,1.2935329860427804,2.537192067656109,0,0,0.287998711218753,1.0009755513239122,0.915332061305168,1.4468398176635895,1.853910462585298,-0.7727537973986364
336,1.351807218178782,2.3143833888070393,0,0,-0.10297458897213363,-0.05990764072600556,0.7790547111478857,1.4040561696969698,0.3210236721051528,-0.7469433888420616
337,1.3841149071346133,2.085380197559839,0,0,-0.11998145640207263,0.15519913987815703,-0.19359582135206432,1.664879783850678,-1.2520098590176654,-0.026395739356004616
338,1.3939411194803037,1.8596395048226286,0,0,-0.48145650642550913,1.2692605342862775,-0.550761762201754,1.594293815830713,-0.918349433510964,-0.10725352400666525
339,1.385789968717232,1.645885208942588,0,0,-0.46889565071162415,1.763863332126816,-0.49698098068187224,1.2352569698039242,-0.7461215936470585,-0.3613938800392121
340,1.3641392574970859,1.4517830696545164,0,0,-0.07656543708383594,1.3267405044480378,0.09561091413574559,0.9338651719161688,-0.6931638377245523,-0.5259754441676645
341,1.3326798538184574,1.283905322700886,0,0,-0.08121136947815441,0.8465889331800204,-0.34294515919303,0.8663426954730499,-0.43096988299401934,-0.5125411991257491
342,1.2938966281881485,1.1479264195931722,0,0,-0.18492490105079987,0.690970621758198,-0.47511762809405095,1.1215756333333429,-0.021232327633089285,-0.3811557364508299
343,1.2490245669216258,1.0489347424570215,0,0,-0.2941639102730319,0.7711633829925528,-0.5307746791467807,1.1975490964541833,-0.21772868987251365,-0.17474542616334673
344,1.1983808165055219,0.9916927799088383,0,0,-0.2575013871186032,1.2086791893135767,-0.666837813925045,1.2336006281782177,-0.8985186866455434,-0.22109941073267317
345,1.1419909121775949,0.9806514731245523,0,0,0.054118717082105375,1.415676399536785,-0.6648466055574332,1.2544782829682284,-1.163811438859288,-0.5404994501874781
346,1.080329279794873,1.0195565467928132,0,0,0.39021912580305623,1.4000091413865243,-0.07624592183967185,0.987119477410773,-0.6893985020301113,-0.8619725114076132
347,1.0149453589016169,1.110598520078222,0,0,0.37061525100320813,1.2916200946902772,0.062326001877288456,0.427060591437971,0.276591724619071,-0.7348080631511755
348,0.9487830802625371,1.2532409166470762,0,0,0.07222714849524875,0.9918348532761432,-0.030197644621749672,0.0947789315102437,0.6331360934321951,-0.42485565537560954
349,0.8861069787358085,1.4430502581591331,0,0,-0.17308308848332557,0.6935899275969973,-0.07512457370302557,-0.2859281818584062,0.32086914460177113,-0.0022137107610635085
350,0.8320733022130805,1.6709566213591032,0,0,-0.14560986992025934,0.5730283452676388,0.008466784663740437,-0.5454491712795989,-0.2033446972716555,0.447284521448782
351,0.792077661330835,1.9233285877467998,0,0,0.006200017520111012,0.6192314758011707,0.03156568166484858,-0.6944808448710177,-0.400438650131974,1.00618796142771
352,0.771042839781791,2.1830463230913772,0,0,0.12648377147285697,0.7173494113156403,-0.10954877232791141,-1.9602852367234262,0.37432491364466636,1.0418225351800583
353,0.7727841434884349,2.431460596087824,0,0,0.22326503740002004,0.7872704863591189,-0.1922394990013881,-2.8320416280364418,0.5964394768674508,1.0088251741628715
354,0.7995336418991995,2.65083707685378,0,0,0.15254123754509813,0.7999994734040919,-0.07649490835959494,-3.854874694579404,-0.08485446398916442,1.0487041179080518
355,0.8516530465791543,2.8267166182146646,0,0,-0.022416291602741834,0.8107174322470717,0.026087022602194677,-3.6558235692796357,-0.5040390823476911,1.075247179321299
356,0.9275365444270972,2.9496490659719337,0,0,-0.11371965087411061,0.7902540607685575,0.04807497931058047,-2.620746478381552,0.023372198390734338,0.6222335387544412
357,1.0236955993221433,3.015974239954227,0,0,0.06592613116504788,0.9193564412419754,-0.04679763816696456,-2.634572442067727,-0.15204556122994703,0.42682551063576835
358,1.1350105837779303,3.027626448542344,0,0,0.3432219957057827,1.1251915678827566,-0.10216014121918714,-3.0238488380720834,0.28314569955449137,0.6612263761846936
359,1.2551168875804393,2.9911853197766876,0,0,0.6091279834222844,1.2251326750582228,-0.12454672730561543,-2.4810783733118855,0.5828813560128848,0.682418993569142
360,1.3768696494396668,2.9165036600042065,0,0,0.7909643175799365,1.3351685739933936,-0.0051197062812111845,-1.8594597765646863,0.9280360648270343,1.1680272545890824
361,1.4928177876239348,2.815229109221508,0,0,0.5265495967550095,1.5287561470556443,0.2637859216244206,-2.3048948223581314,1.5348703171044709,0.984725539015444
362,1.5956291578052049,2.699457444056822,0,0,0.13583262141738375,1.5388259985101869,0.2143389501334009,-1.893359634726953,1.1282620837967634,1.3885199237047372
363,1.6784445576389224,2.5806535180697274,0,0,-0.07925492114801728,1.56291653251733,0.117930809802979,-1.1794464592540628,1.3798005499097634,1.5860786884098652
364,1.7351825357320927,2.4688798937410765,0,0,-0.06000479506068814,1.4316876124927618,0.22953914287479982,-1.082866177744689,1.8222673689497701,1.5180024687909477
365,1.7608451638282734,2.3723043144103673,0,0,-0.16339684611943225,1.601948134102795,0.11517798059890016,-1.1184246333333334,2.2020310280312128,1.2251576155262103
366,1.751868562547268,2.296922538958522,0,0,-0.5056550367733612,1.746690428044306,-0.21943638663852613,-1.0286283025954701,2.085536522076372,0.8085084726113836
367,1.7065211220931995,2.2464356300973924,0,0,-0.6549974174650426,1.6613843660581298,-0.43381213398384777,-0.734059511320152,2.0429839976284554,0.4717354270335911
368,1.6252988873592409,2.2222619893687807,0,0,-0.49539699791077696,1.5816551911484535,-0.40809413351717166,-0.2814436422121413,1.7569668260252358,0.18903798445977796
369,1.511231525416775,2.2237233990273584,0,0,-0.07605371576258309,1.5057734972049754,-0.09260700253817124,0.38123342633936314,1.4444512420708668,0.030894590451786535
370,1.37000920489553,2.2484716199873342,0,0,0.2513475010872038,1.436753037405869,0.05078675298753131,1.448787937881161,0.7571335745485341,-0.23916233063365694
371,1.2098626385845201,2.293169890865911,0,0,0.253023325172966,1.2472684664671185,-0.055361307365134185,2.7178520527001155,0.1317791480007659,-0.43007896658368444
372,1.0411583528597286,2.3543102093318358,0,0,0.18772367318252228,1.1951474760847132,-0.18920485371582668,3.928858718720389,0.12161176672986469,-0.4629580397511904
373,0.875701244270074,2.428904851560111,0,0,0.0717789019319694,0.9578076316136614,-0.35965841448633223,2.7668896304530577,1.2428334517220552,-0.8303755104652628
374,0.7257708421840678,2.5147569183270715,0,0,-0.09382817812922276,0.660362639508571,-0.3739732103172434,-0.9615971488427237,1.2576215604747034,0.1006893526716584
375,0.6029614794857884,2.610151986585563,0,0,-0.21871572215615862,0.3820006800830356,-0.3139905548288449,-2.5542791968638343,1.2107304439360886,2.0316151242556604
376,0.5169454481382803,2.7130521091326387,0,0,-0.2668931990020125,0.1730443123442234,-0.24766698924253594,-1.9472751544736318,1.3626295244914082,1.6744121621568235
377,0.4743179923164237,2.820082403078913,0,0,-0.2361099148764611,0.10362242296291,-0.25672760366092146,-0.5146339006079554,0.25505187292798287,0.43877814609596993
378,0.47769902509262946,2.92570472867457,0,0,-0.20329636271039322,0.02901744055307281,-0.2506455301184591,0.8142125331897111,-1.5959415493118247,-0.4875614330021903
379,0.525253501130597,3.02195017922561,0,0,-0.21947207585896655,-0.03653582398635589,-0.17764270040094984,0.850909806489615,-4.033738975179706,-0.044631770748768146
380,0.6107542124525109,3.0989156884321005,0,0,-0.2359998333779869,-0.04091867503074345,-0.008826507256736803,0.9743913497005311,-2.8381692700339385,0.6220258092034349
381,0.7242508646941498,3.145970599476448,0,0,-0.20955532308012287,0.07016401178753068,0.12796335203669432,1.5744341493322507,-2.2400563479369526,0.23471611047835125
382,0.8533241004047761,3.153402208524005,0,0,-0.13777861598693483,0.32080073986978686,0.31411700609761156,1.9380207685657356,-1.4948538272111551,-1.3412913370916324
383,0.9847870327319866,3.1141347624228537,0,0,-0.06483132226903504,0.8068864646607835,0.9647298978312664,2.825546473956067,-2.238494682921051,-2.2881275745101943
384,1.1065597357939274,3.025141217037959,0,0,0.6011433570605749,1.7032036565779392,1.669366047023969,2.7866685360476646,-3.1781029904071545,-2.3415151626216453
385,1.2093307673324447,2.888196824374038,0,0,0.7695472011848914,1.9102822755807576,1.1262216780000323,2.304933277788844,-1.3551588256712293,-1.2476482610260853
386,1.2876139251213865,2.7097538759504776,0,0,0.09532310306203505,0.924955459675204,0.6928742371396247,1.5280952711925146,1.2170562070475952,-0.6874459702170004
387,1.3399616114734905,2.4999755034551012,0,0,-0.31642268905949333,0.18504679784820754,0.5906412647727161,1.6468442084739034,0.4829175787676102,-0.7287310792816029
388,1.368359016162508,2.271242959908864,0,0,-0.059019960739548794,0.9784774678092585,0.41270237902391393,1.5252359878154647,-0.5364754275256465,-0.10824123756328204
389,1.3770551115900191,2.036583381237836,0,0,0.19564699038710823,1.6207728458447157,-0.2553252139623308,1.7036132990059643,-0.5950483096620277,-0.09431371033797233
390,1.3711775641117452,1.8083993266265725,0,0,-0.047649216016597044,1.016700774542228,-0.826473909961423,1.5401682465428637,-0.7075542842196877,-0.36146038428290017
391,1.3554438849370773,1.5976950971952653,0,0,-0.4445044734458697,0.5450265420352429,0.010198337116575447,1.38886782736589,-0.8310449951476846,-0.6026482334177188
392,1.333206614211832,1.4138008018092163,0,0,-0.6607751179026818,0.5385348518371678,-0.22052355885612657,1.06427359036697,-0.6100624935460647,-0.7020418790985238
393,1.305998107108481,1.264461853039298,0,0,-0.5407302282966484,0.7888084240582032,-0.5332846702754842,1.0813088644791444,-0.17524201661198172,-0.5129635246096106
394,1.2736466433787108,1.1561000152449052,0,0,-0.3715739433959132,1.0711725290395366,-0.4999483901092918,1.270959325362321,-0.24001748721015534,-0.30967160753623035
395,1.234903020953457,1.0940397546404201,0,0,-0.060495196879787556,1.4213786342613395,-0.6269394169885854,1.3582655867894315,-0.8876888051040789,-0.24041166223578847
396,1.1883805658518367,1.0825105152700478,0,0,0.33629628501820874,1.5458381509707804,-0.6561730905219162,1.3546656420749843,-1.3272745675858024,-0.3036436519579484
397,1.1335290631303891,1.1242901461084738,0,0,0.5602097771934117,1.3624889447764517,-0.2621810478800827,0.9954459539204012,-1.1325379943546605,-0.5312141098110155
398,1.0713692988694412,1.2199728826948009,0,0,0.4556459812065716,1.2077849171455872,-0.09334786661219806,0.25490085056306094,-0.4330813442319777,-0.5073634118185368
399,1.0048053142977236,1.3670238859133619,0,0,0.1286315531578956,0.9705681357064866,-0.17633410695491478,-0.17736421687451276,-0.2826087394232268,-0.347099780031177
400,0.9384678915885208,1.5589544978768533,0,0,-0.15023551847930677,0.7293399753283172,-0.14916274778216612,-0.706591787321436,-0.07559662160715198,-0.16734026183814948
401,0.8781721127142812,1.785016114841877,0,0,-0.20726919894431192,0.6037770181229372,-0.002111748178352495,-0.6117164609034577,-0.6885587465420762,0.6285202322006813
402,0.8301515391352271,2.030706659535666,0,0,-0.1332381608952005,0.6409461862499273,0.03879819101862399,-1.0326823503686093,-0.8623793748216407,1.1348587931034484
403,0.8002461111618697,2.279143506368782,0,0,0.0015744578333656693,0.7799353715458776,-0.0029675896386738812,-2.1636206685881465,0.16684086798764342,1.1599867239807242
404,0.7931825699795574,2.5130759818290938,0,0,0.12620072978722616,0.8390177412955494,-0.06790758880517464,-2.980365017308509,0.25546036893985746,1.1410313400259644
405,0.8120252213172654,2.717091987621855,0,0,0.1520283560868274,0.827522521668915,-0.10225196198541728,-4.090139115248205,-0.3666111978368582,1.3176406996453778
406,0.8578226363095263,2.8794952351299252,0,0,0.12129981724159435,0.7975397801257964,-0.04443986708700502,-3.2377590271549894,0.3172696556037039,1.0427322123110454
407,0.9294485851259893,2.9934316160278653,0,0,0.037452632908393034,0.8534594960031356,0.09120029689353162,-2.2611362715996446,0.41789127721268576,0.6239502215265694
408,1.0236283999651683,3.057095845497546,0,0,0.040385350868823736,0.9996668871363472,0.050823625600989956,-2.9414626495299236,-0.2869647835087302,0.6669609822264493
409,1.1351394368051542,3.0731388950262475,0,0,0.2511029003673229,1.0627369053588915,-0.128704436257682,-2.6482011073540797,0.01136839261510693,1.1079173883693163
410,1.2571653915700332,3.047589740034594,0,0,0.541505865985711,1.0768705975955641,-0.20792350078429692,-1.9039866582313496,0.3215368512435803,1.2891891063560914
411,1.3817692141465445,2.988647316217588,0,0,0.8112217706286017,1.3631908305284357,0.10459409650649576,-2.2819585605258035,0.5498997297959669,0.8331050608397076
412,1.5004358756870808,2.9056231166042235,0,0,0.5597289064813428,1.460070226688388,0.3890652872852999,-2.6740414443907436,1.4509649159718532,0.8342252718227805
413,1.6046339738979416,2.8081756929751083,0,0,0.1786256822447135,1.5321718176132337,0.1546669931815653,-2.1281938670684424,1.7106788882970378,1.1360116739502226
414,1.6863602560136026,2.705826055502922,0,0,0.010946343082832603,1.5668310584015288,0.1547890293659986,-1.3960096527269314,2.150126873213905,1.2406476304487815
415,1.738657505960784,2.6076334887530788,0,0,0.030710032230785375,1.5457983099204484,0.25966547057760886,-1.1817415166798881,2.363682422848078,1.2278269847679497
416,1.7561146947578996,2.5218809847027073,0,0,-0.14900053338579736,1.6628299866618617,-0.026926818061296896,-1.1945484550580092,2.3605923388153913,1.1053287400976897
417,1.7353517302123411,2.4556617059322488,0,0,-0.48258487591589566,1.689073254905289,-0.4378981177793128,-0.9902794588182332,2.4669323951409723,0.8429744278104355
418,1.6754606184316927,2.4143454889095732,0,0,-0.5070499847307659,1.6802306244689071,-0.38022476651095255,-0.5351992241838174,2.1519787661484515,0.6495763266692527
419,1.5783392529082856,2.401013366396156,0,0,-0.2750968723423174,1.6822425131432504,-0.0666509405715714,0.20872540812497237,1.5625083155485144,0.4243794422098519
420,1.4488359149015975,2.416045222939707,0,0,0.04818760224035957,1.5872892867334474,0.07835298077947911,0.9599734212702705,1.0800541129019023,0.185393820627106
421,1.2946332820631703,2.4570753918339547,0,0,0.11097553279076769,1.2791769102872526,0.02987287358172946,1.844420420782392,0.25929760385493444,-0.14279323603993344
422,1.1258353920666735,2.519442573471921,0,0,0.12157680670209936,1.119158754109274,-0.21822513193397491,3.000318594476013,-0.2876808159138868,-0.35201792692120043
423,0.9542644646810572,2.5970644054552885,0,0,0.13317962014771584,0.9906135294175974,-0.32140662169624107,4.02714394889947,-0.02833733977313672,-0.6641899906999874
424,0.7925126409683734,2.683462635058886,0,0,0.08194638525924074,0.8002888677838839,-0.3453549822693976,2.3004053524779224,1.1856231664838357,-1.274724912987276
425,0.6528223313949837,2.7725862268317947,0,0,0.015101397211020752,0.6097554212081691,-0.30301150901731055,-2.1961014488867514,1.4615836048144148,1.1381054843651732
426,0.5458931142791208,2.8591852129968385,0,0,-0.09335981166207394,0.41307537547309087,-0.2539842886606687,-2.421243775201924,1.348763642730234,2.0848345644588178
427,0.47973725116828353,2.93870967070403,0,0,-0.18154929507029724,0.24369637828692906,-0.237120396530742,-1.7980049411764947,1.1894833934640647,1.2783871836601526
428,0.4587252665235578,3.0069231666492686,0,0,-0.21754126840151564,0.12703844854255456,-0.22116749311991332,-0.25673465824380187,-0.01786505563322969,0.29260168561067335
429,0.4829678295253507,3.059533244485761,0,0,-0.22944846148863085,0.0477845279580398,-0.18958430850593863,1.6717413267760357,-2.5601629901641427,-0.8213550377049617
430,0.5481636456061126,3.092093224570942,0,0,-0.22280982461666593,0.0024537092178916167,-0.14521000589927544,1.5118964795788532,-5.518879978148615,-1.4364724809098182
431,0.6460033396046814,3.100233846929972,0,0,-0.21014719309944566,-0.02620106986894522,-0.020391993693580763,1.2101611234599454,-2.5533770098407254,0.3386144040385398
432,0.7651542620838739,3.080092774407359,0,0,-0.15441425443937343,0.10092832669490412,0.20256091763151687,0.8765766364128464,-0.8780966149759721,0.13873527217428805
433,0.8927552028184406,3.0287899581339675,0,0,-0.1234506132063035,0.4200284756788092,0.5315859868725349,1.8567118791142514,-1.314297005216575,-0.7760801930905897
434,1.0162220644905702,2.9448969339867785,0,0,0.1815182448347605,1.4008472903026326,1.2546190249978195,3.0118187493201787,-2.4651266777536667,-1.512242042541857
435,1.1250304347822992,2.828869787094246,0,0,1.0730918229831372,1.8009549787554766,1.5411147443135302,3.0272079677691295,-2.561914370294752,-1.8675691610944312
436,1.212066428111505,2.683320541774005,0,0,0.5758604598549241,1.6133877107978358,0.9882566164904604,2.0170995326534618,0.1558423954989214,-0.9739008397700404
437,1.2742064251336367,2.5129624388135587,0,0,-0.061049443479668807,0.3751752112144328,0.663462831343777,1.4046847,1.353372,-0.64812803
438,1.3120173579839083,2.3241893389286616,0,0,-0.41289780538902615,-0.3767206845243946,0.5868728727615135,1.6617843498998952,-0.07225126199447722,-0.48161072301960434
439,1.3287601181371067,2.124430803203149,0,0,-0.3711471355739442,0.03999780641405183,0.25530877484903175,1.8368325507911074,-1.3485038711996875,0.056561742210897575
440,1.3290697587471698,1.921500106452161,0,0,-0.44582569585734144,1.1787950226740613,-0.22015434356743174,1.5800809729506853,-1.293850926988946,-0.09284893549686184
441,1.3176911851789972,1.723096512674688,0,0,-0.19029017539845444,1.7852957213435867,-0.5255301351633466,1.0712823424894355,-0.9227321732957928,-0.47913860616330417
442,1.2985161728649903,1.5365256527985558,0,0,0.09630264226555403,1.1000445701644215,0.007785400457134377,0.9138671816497241,-0.7982760538852328,-0.6088113603108172
443,1.2740180084183235,1.3686347425468206,0,0,-0.013695821531932276,0.7867795546128681,-0.5356392827390783,0.6896576245431326,-0.8270545466810777,-0.5140567581273342
444,1.2450971063680367,1.225919308901859,0,0,-0.13815347263718084,0.6821233209480513,-0.5802077563210938,0.854444286317029,-0.5663150018769765,-0.37842276251971835
445,1.211322938183399,1.114712789635748,0,0,-0.25259032147777816,0.7623547014275031,-0.555807258860158,1.172645164517344,-0.6676269691688766,-0.23819987283637192
446,1.1715213702912575,1.0413139588877487,0,0,-0.1873336229103464,1.2426820591117078,-0.708333415006974,1.2863962820126815,-1.1108589511093618,-0.16956834504754156
447,1.1245826478723684,1.0118688738363024,0,0,0.0609150758638086,1.4977819334595988,-0.564899014980901,1.2621519032039805,-1.1994212575323384,-0.31488091838606863
448,1.0702877858823663,1.0318480159055803,0,0,0.3272377789286856,1.4110571441846191,-0.05937552953713538,0.9913112626853638,-1.056037807214423,-0.5282772562725496
449,1.0099273140455272,1.1050753353416454,0,0,0.28777206927445514,1.2414204708194982,0.06186126279074518,0.4633687627468503,-0.28424590162531344,-0.5796260192123076
450,0.9465441946182629,1.2324572847287893,0,0,-0.07574856789075994,0.891695408059502,-0.0282330178422399,-0.1020126783749934,-0.1158977452638898,-0.46016909708333564
451,0.8847503966001096,1.4107517311290099,0,0,-0.3247650169676797,0.6160759242584181,-0.15504152825285963,-0.5697452029870403,0.1274643177806593,-0.2329099444267181
452,0.8301902744989256,1.631809983446261,0,0,-0.22139119987943265,0.5371856560029803,-0.15707614521670496,-0.49621511457327727,-0.23025299441009445,0.4838634650264887
453,0.7888036981865708,1.882658905692788,0,0,0.03013861341009552,0.6235249401178024,-0.003428946279297701,-0.5921843722603448,-0.4958861748715914,1.1859509428739472
454,0.7660571448551452,2.146577007115254,0,0,0.1607645217744001,0.732218763515752,-0.00912858902618331,-1.6258480257956043,0.31545783313249504,1.268436976252986
455,0.7662735071197687,2.4050309460932495,0,0,0.2496551789025504,0.7829322794403203,-0.07676262857903905,-2.6593861343223626,0.1205889428568586,1.3151658573376113
456,0.7921322776483418,2.640072791185909,0,0,0.22102299423038088,0.7508769443603569,-0.10867108463952627,-3.8204506884031675,-0.1034985606327175,1.3045217209980027
457,0.844361700052518,2.836646298924653,0,0,0.1226685245227922,0.7964481255992667,-0.06077244741210668,-3.7288363173563477,0.018577028666179066,1.117686390116492
458,0.9216177594626928,2.984279301689692,0,0,0.007464962424363568,0.8909461526605936,0.05136193004365714,-2.6146584436507827,0.9898756166666582,0.6969342090476145
459,1.0205365076224524,3.0778526121377254,0,0,0.024163134556526526,0.9805806316804453,0.004981966799733911,-2.5954340643999814,-0.3469594944127557,0.38641307578400574
460,1.1359427022013946,3.117444350637002,0,0,0.22637592206385374,1.0951631311596188,-0.0707490041524127,-2.821728097349277,-0.9879265825495981,0.8046327978753348
461,1.261190440889326,3.1075086328052497,0,0,0.4782823434535196,1.1329891477198895,-0.214325944995063,-1.7734332121803755,0.4701002833380499,1.4262991624320582
462,1.3886004402004357,3.0557593826364595,0,0,0.7927308663983386,1.2921645287896324,-0.09576929795924437,-1.7790885148722304,0.6904590646347678,1.2673285714228
463,1.5099492147894464,2.9720884225710353,0,0,0.7169512463580431,1.5341356485871818,0.2387658092363833,-2.48484307504446,1.6416881673977524,0.894984551529344
464,1.6169656096357705,2.8677022509288324,0,0,0.28259126818875474,1.5666351337835287,0.1836849300169466,-2.2609030298256023,1.9782393474443851,1.0711494450992187
465,1.7018067776323134,2.7544796702226386,0,0,0.06373197723924723,1.5289606403493352,0.19010537822248885,-1.67922769380953,2.398314450357134,1.058912537976194
466,1.757515303211639,2.6444095425148797,0,0,0.06901910585474631,1.4694230895355807,0.21108263277980518,-1.5164067598551256,2.5765513494471954,0.9742629982805928
467,1.7784823659114852,2.548927078166666,0,0,-0.23298684484891347,1.652365692690985,-0.020576774479627954,-1.4424183637225205,2.369854756079855,0.9027553760738022
468,1.7609355088406258,2.4780370667487155,0,0,-0.5153740450390235,1.7139675913953458,-0.4481665146571649,-1.1920449506767374,2.4443707236066814,0.7884099629577979
469,1.7034295565581064,2.439254410835106,0,0,-0.5222752247842442,1.7116572343877845,-0.4030927476761506,-0.6128541856323027,1.9776546808246467,0.5999316697948408
470,1.6072680562962094,2.436552853705133,0,0,-0.38333201117266863,1.7225493209892906,-0.2401078877732623,0.24771016146119484,1.2053716202273064,0.3372439368368295
471,1.476752209458969,2.4696318646937887,0,0,-0.0023268092197174166,1.6266154249614646,-0.13744715626785292,1.1501337324011414,0.47861464305231965,0.08378115558529152
472,1.319161902262607,2.533818584138204,0,0,0.16421315359696173,1.363700878357149,0.13060372947382373,2.04684502436176,-0.20601426824921637,-0.17736800740501096
473,1.1444138433567324,2.6207680438486753,0,0,0.15146643787538602,1.1209465411511952,-0.1250462123594287,3.203381865403754,-0.5841756647557372,-0.49190091118643486
474,0.9643963787927391,2.719847380712972,0,0,0.14054386975664807,0.9592771801953004,-0.3188519206003444,4.265247916192384,0.212085624136282,-0.9691377438176392
475,0.7920306377302531,2.81982785436591,0,0,0.09871897058419601,0.7261430852409864,-0.4060728844606349,1.981069264626706,1.1215948382055918,-1.6892921248365935
476,0.640143653413266,2.9104184825544697,0,0,0.024707628359395818,0.5285956001481631,-0.34275516335991046,-2.4269308050765535,1.1929143150685,1.2415119776188008
477,0.5202620896586209,2.9833005453876877,0,0,-0.0767971162823148,0.3743696007294135,-0.24187228440297254,-2.5376056750857345,1.387335782892888,2.1679248628606023
478,0.4414499315814847,3.0325626549994062,0,0,-0.17921179353913022,0.2788433391925582,-0.2235326502470156,-1.973968307993588,0.9636162465571421,1.5710645400474215
479,0.4093204757945537,3.05465400507801,0,0,-0.23070369011059683,0.2064439378832006,-0.16846582515600347,-0.09750025332723322,-0.8349257532201374,0.018230038298435898
480,0.4253492904837871,3.0480896896010448,0,0,-0.2546804954020672,0.09048771635819947,-0.11419169110857344,0.8360313131515587,-4.01283282670401,-1.1088054246992463
481,0.48659940846904814,3.0131280919121557,0,0,-0.24795284143313026,0.02313874645785617,-0.057052967202791086,0.7350256511080282,-3.787057723947558,-0.47190263823350315
482,0.5859425808533495,2.9515204555970316,0,0,-0.23076461671096593,0.00022326187418978189,0.060490646912822944,1.2527741959959597,-1.9146928093492104,0.28556270170968157
483,0.712815970469964,2.8663099860089156,0,0,-0.19067466557258675,0.034091042941043474,0.16042267257074586,1.344819215748973,-1.1654611507400885,-0.36555448966647497
484,0.8544819651362928,2.761620789790726,0,0,-0.14814343610862274,0.2534732388347063,0.3602717247171135,2.417836062449992,-2.283469666433203,-1.039113101341105
485,0.9976527393165983,2.642387347851041,0,0,0.024369304933999712,1.0315147076800069,1.1773545997412718,2.7416278672857968,-2.635578984062297,-1.5514511467345737
486,1.1302145758566489,2.51396199721526,0,0,1.1135007381210134,1.7590700720522574,1.515166118896039,2.123606895389488,-0.8230447890619829,-1.2104266209856738
487,1.2426942707684936,2.381544029096056,0,0,0.5768792339626322,1.7701988530486115,0.9275402004790908,1.5018727504156753,0.36519670548099936,-0.6447073861045127
488,1.3291335729445626,2.2494780524287568,0,0,-0.023606211876419918,0.3912574100266849,0.553562722647763,1.2883812887555115,0.10425409380549373,-0.6887246589395721
489,1.3872139253055553,2.1206211817153413,0,0,-0.4918276232823816,-0.3198968279164079,0.5446741923924361,1.6091197043478203,-0.7068098476448902,-0.5504294064492907
490,1.4177223807203505,1.9960382583018819,0,0,-0.6949784928431225,1.0298796897282325,-0.08507385550976142,1.6043467633633783,-1.167784469369365,-0.3375415730030016
491,1.4236215129800425,1.8751934943422834,0,0,-0.4714510627604841,1.6945564953251204,-0.714877423733054,1.3254841554447419,-1.0928515459513364,-0.4870112930115734
492,1.4090069202566669,1.7566383125617961,0,0,0.0019263477760848814,1.1644378774328943,-0.2883130635668934,1.2478687517241376,-1.0170308219453865,-0.5948041051664332
493,1.3781649752178025,1.6390495309586872,0,0,0.20732674572185375,0.7948460291216434,-0.3397418009384551,1.2923784133450913,-0.9981668760728972,-0.662954682592592
494,1.3348759493836169,1.5223897405914322,0,0,0.1605095212304526,0.7959155317797946,-0.5839171590264686,1.2907513193464284,-1.0555532396952592,-0.5543872039695386
495,1.2820629504015373,1.4089321944168998,0,0,0.051263208518661924,0.9723541290651395,-0.5059891981508697,1.2675413794825472,-0.901617742458865,-0.47189058212996104
496,1.2218234938060946,1.3039013425448045,0,0,-0.0817195914384991,1.3380403356339854,-0.46326877457728804,1.3278330322151732,-0.5720295881500562,-0.4407384818459706
497,1.1557812299060728,1.215524121355429,0,0,-0.041963574824593126,1.4568684239826897,-0.4012642887925032,1.496371054762858,-0.6905187423794055,-0.431554735269294
498,1.0855992542876922,1.1543643692033723,0,0,-0.013436113627244858,1.3280562178450042,-0.2300771790111554,1.489387204974339,-1.0351586201737069,-0.4305172342281878
499,1.0134556164082023,1.1319228410795992,0,0,0.08906617661122675,1.2433863854859906,-0.0327280038971267,1.0781715417993318,-1.0582391978502985,-0.5400717241640162
500,0.9423151920096979,1.1586340430400053,0,0,0.04169126284448927,1.0176304238870557,-0.0315325079850001,0.44199416712555734,-0.44285498870408024,-0.5365688959790075
501,0.8759185340261214,1.2415722654549957,0,0,-0.09057268834316409,0.7357341611829433,-0.15325003521616992,0.055904696276897654,-0.15048210502079984,-0.36339677456328245
502,0.8185066679878845,1.3823443541562397,0,0,-0.06658420507851143,0.5973628683277885,-0.2523079526936992,-0.39713255971291556,0.042072245799043693,-0.16969265751196277
503,0.7743742365517312,1.5757124731410472,0,0,0.02132574137911126,0.58104221095647,-0.2589912546977843,-0.5265405793837862,-0.2015825604055186,0.30656559223818447
504,0.747372069666035,1.8093936156074997,0,0,0.08284932980778567,0.676097571465482,-0.14278986836717625,-0.40885027290628495,-0.539958513132118,0.8014558714771138
505,0.740465117801841,2.065230178960177,0,0,0.09539897681184804,0.7428703431597441,-0.045594290792397976,-1.7314405402028523,-0.051102943847258525,0.7166704876805228
506,0.7554111607910677,2.3215873757486647,0,0,0.08916948256979834,0.766991655316022,-0.05694292172485014,-2.752579734168483,0.3761900843953429,0.8504146621345444
507,0.7925837333645525,2.55650642786587,0,0,0.11283676183611151,0.762626828020704,-0.0706648024717822,-3.5837133581982115,0.12575605751951843,1.0419181350150202
508,0.8509347440589412,2.750927670237635,0,0,0.14001798774007013,0.8150471392880013,-0.05781497070238525,-4.086488618108674,0.49702858747696976,1.2376061424563414
509,0.9280796320557453,2.891276696289456,0,0,0.1468136905897971,0.8463730369349028,-0.008425664060312981,-3.003762929150912,1.1838713762577056,0.9241673465897748
510,1.020482547893935,2.970905224682398,0,0,0.1847902685483314,0.9812075376783563,0.011086603538840934,-2.497526950170508,0.7033542360481873,0.7003573676228684
511,1.1237124676429633,2.9902289788325134,0,0,0.2858973886988233,1.182118022815351,-0.017292928096080195,-2.5417886506595755,-0.35171653091949523,0.7712720741976844
512,1.2327311953822682,2.955761814943349,0,0,0.4822626521619021,1.2109082139093656,-0.09159314248594425,-1.966148790292817,0.7409657282150058,1.2275877297232256
513,1.3421666623460862,2.8784690284412817,0,0,0.7036017714657926,1.323887213595103,-0.018341672842599074,-2.0530550676213193,0.5281132285799527,1.083823243655532
514,1.4465294407672156,2.77190356553318,0,0,0.5624425502382677,1.522460927123982,0.3040747611939611,-2.0856896801798115,0.6700763788970879,0.9557644529870171
515,1.540353576984323,2.6504891849301773,0,0,0.13692000169828097,1.4137522550950374,0.33868280395365097,-2.505776928206148,1.422973730148646,0.9299910817878865
516,1.61828284650818,2.5281525600953128,0,0,0.0753313890111279,1.3582071714396,0.11855029424664258,-1.4420112691050329,1.127998314490733,1.328139897767595
517,1.6751662733652213,2.417352603163033,0,0,0.15524007202047732,1.3494702784856814,0.09298814468918497,-0.95943155585875,1.5743963272873338,1.3455850996789684
518,1.706247252607807,2.3284517242112015,0,0,0.11124714493866199,1.5432381018968249,-0.10042487687561705,-1.0773744879109879,2.130742911447482,1.1427692315356797
519,1.7075074242544146,2.2693229239710915,0,0,-0.180495853110062,1.6929138634674568,-0.3017312485458942,-1.0126837931152233,2.458612102689671,0.9109198004014574
520,1.6761620466636564,2.245075193136378,0,0,-0.3871446149179358,1.7362830899355393,-0.4022640287702435,-0.7887986151715695,2.554834838946513,0.5444412002952711
521,1.6112276939429229,2.2578135449286516,0,0,-0.37362144673815667,1.7357147992661204,-0.3602071022609856,-0.15848352138337365,2.0246680971371185,0.11201764452331242
522,1.5140325117097928,2.3064394239295742,0,0,-0.24646185429023004,1.6474216821540755,-0.33776249196536695,0.5939807112651603,1.1264174371461635,-0.2768751074350074
523,1.3885345353434917,2.3866063795589736,0,0,-0.11739998923180742,1.415637160674254,0.09140105299959317,1.5406210553301454,0.03520189772295684,-0.546186610123308
524,1.24135060803002,2.490990227502753,0,0,0.021002238721746516,1.2371829764651934,0.09565025485524833,2.4819905155054345,-0.5398895110147278,-0.8217111220765592
525,1.0814558054929801,2.6099523317117357,0,0,0.12953847373754085,1.061788425600286,-0.19470512371041843,3.307241859819865,-0.20448135524922714,-1.0104469231831936
526,0.9195667752587142,2.732510254184265,0,0,0.17746466441426667,1.0256647504052203,-0.2493205791267411,3.5259604725615348,0.7158311449229153,-1.2667563379731661
527,0.767259434379992,2.847408308650852,0,0,0.08239658096938658,0.818255114838736,-0.32660703578935957,-0.21686573200160006,1.4099800207172908,-0.5077649536886416
528,0.6358965731687216,2.944095869835114,0,0,-0.08896586145861488,0.4852528921631527,-0.31222263250434656,-2.5526703991712596,0.804498054183158,1.7531084738950709
529,0.5354660371404004,3.0135372621500247,0,0,-0.19468077637198267,0.3700737271161661,-0.2607827403378451,-2.472632405381677,1.2826764944987201,1.8565778500298733
530,0.4734583213923224,3.048874211357259,0,0,-0.22578994873549899,0.25820158093811035,-0.22751827248123768,-1.3753188515587922,0.019546241428561272,1.0639704875098632
531,0.45393364209001696,3.0459703482612617,0,0,-0.2382367427417939,0.1122520285378699,-0.13244817035171869,1.2985893591720952,-2.538846580783713,0.2560867233713544
532,0.4769312839191992,3.00380297029944,0,0,-0.21566694283630922,0.014758116675806933,-0.04028270195729245,2.0216460052187624,-4.751569009233263,-0.9760596716740599
533,0.538353466994053,2.9245807026021216,0,0,-0.18721121236436475,0.004975096580182159,0.017664439719793257,1.285000485247337,-3.7629933753067153,-1.2179309620102985
534,0.6304096297951284,2.8134393420171646,0,0,-0.18983965346192422,0.04058812421384387,0.018948044466329816,0.4814658958120962,0.16755021600318087,-0.14734498351909747
535,0.7426294886444188,2.6776832275351325,0,0,-0.15756365908914127,0.2342901431995423,0.11740895129759836,1.3674244218586429,-0.6859564773784733,-1.3122447169796456
536,0.863340604719982,2.525739483641268,0,0,-0.1549932000315433,0.7849900442121448,0.5309618952634222,1.8502451340796198,-1.6554031007995609,-1.8253465960423783
537,0.9813685121785679,2.366090689855073,0,0,0.31121329656106506,1.6357404685030974,1.447030656685287,2.3883164872849507,-1.3244033486454363,-1.4691978265967942
538,1.0875962398186916,2.206370387119727,0,0,0.9129728887451731,1.9037640269829523,1.3917638877526066,1.7526289188007014,0.3020506950643611,-0.8900229040253197
539,1.1759929147968673,2.05267938681505,0,0,0.34397885942147993,1.2195970632555908,0.6615193879650136,1.4895049393177762,0.7645422880430918,-0.6162564646199887
540,1.243856650542126,1.9091498946676646,0,0,-0.15900256119989625,0.24410458465505291,0.3965032738865925,1.2624261302879698,-0.0021261992755368594,-0.35342678490568186
541,1.291290215387939,1.777823817880181,0,0,-0.2214823236498476,-0.14919608186998376,0.048265530542776214,1.634071467960788,-0.5119512747308528,-0.0485580404122473
542,1.3201962306581978,1.658914578654178,0,0,-0.46035389886899364,0.8695300151872493,-0.4244610187498656,1.642588242729449,-0.5627392491358801,-0.19206870033968235
543,1.3331851375232613,1.5514492231114747,0,0,-0.485725156581239,1.5575777753021909,-0.11549542375313634,1.1966696569943187,-0.4879978114106308,-0.5865184519325006
544,1.3327020881058629,1.4541846485047558,0,0,-0.13302482895346585,1.5070966899771892,-0.07244528671112055,1.1323424945772236,-0.5714769143201445,-0.8485713519883504
545,1.3205072144159076,1.3666138468302496,0,0,-0.025060473995989842,0.9448843635115026,-0.44952073556601646,1.3127587725030125,-0.5791030066245499,-0.8823845586582385
546,1.2975164900366571,1.2898445367067541,0,0,-0.004056802644532337,0.8660560813528541,-0.49275969294330146,1.3075304846153823,-0.4791749721874715,-0.7930405886778711
547,1.2639629486619646,1.2271403121394167,0,0,0.0658927160632893,1.045847924293735,-0.4987147638830258,1.2971179844699263,-0.1833055392315422,-0.5520665651196969
548,1.219819260604556,1.1839621916529297,0,0,0.18300503936330206,1.2233085510339716,-0.43036436808946676,1.2009679402919418,-0.43234449740052194,-0.3942583499100173
549,1.1653836245093492,1.1674323160065831,0,0,0.3181011018938458,1.3944537766603116,-0.2671181317427783,1.3248452547964389,-0.8875835269315149,-0.2551177596881734
550,1.101878782430233,1.1852464764513513,0,0,0.3857664651533882,1.410377188228099,-0.09647634314713088,1.0773571695644177,-1.105615556805807,-0.31233969626134545
551,1.0318899604670755,1.244174813275064,0,0,0.2390956823789752,1.2806876340407791,-0.01788501192834404,0.3652294772315177,-0.6316279686197918,-0.4732639583074748
552,0.9595003070304271,1.3484042953812945,0,0,-0.022685925206231285,1.025268025315116,0.00626476686796258,-0.26048259387590433,0.22825734826752275,-0.5400078034649476
553,0.8900666948711683,1.4980703622446225,0,0,-0.24851479126327033,0.7211183102826018,-0.03929646534160012,-0.6648589385101827,0.9016654795593941,-0.39778040375812723
554,0.8296819783140061,1.6883503992746696,0,0,-0.255628974986701,0.5702405214088748,-0.09119765526446223,-0.5531272657905028,0.5978786072529357,0.33803304936959144
555,0.784451215720939,1.9094114323560718,0,0,-0.10026550971136433,0.5633514036498538,-0.13389336971765306,-0.49909037596930117,-0.310800907471728,1.1228109788166385
556,0.7597410604119922,2.147327109014491,0,0,-0.0005468750014869219,0.6390755142683796,-0.08384114767020351,-1.3660023794248397,-0.14634763258689604,1.2660482365735108
557,0.7595406994242587,2.385845744078721,0,0,0.054358470356748095,0.7534152161170838,-0.14322813685989808,-2.5669626088158983,0.5600009555600122,1.149925410679213
558,0.7860188306224201,2.608654910853145,0,0,0.12213546233206722,0.7726172369671211,-0.0936587704501481,-3.826137062617974,0.23613957956598935,0.8689826657783155
559,0.8393020110960615,2.8016213306807924,0,0,0.1642760548710197,0.8717559122999291,0.020920431934397438,-3.905786677639349,-0.21824846400157058,1.0967709190193775
560,0.9174567140691265,2.954472275402491,0,0,0.1358835356253919,0.9926666280162665,0.18502926878648604,-2.768609367886089,0.7243890704212127,0.7178056592208708
561,1.0166384205896575,3.061564688167971,0,0,0.14580380681433813,0.9233555478159149,0.10286710392022845,-2.8697354378351814,0.8591100830982591,0.3430651316286088
562,1.1313717987709493,3.1216963861326565,0,0,0.24211001780302124,0.9419814301386921,-0.1047395919046074,-2.83224920033458,0.2994498007439479,0.7341920082660889
563,1.2549344958978215,3.13721002256811,0,0,0.47383736955083355,1.0123686968394046,-0.3177150141020468,-1.7498461402352576,-0.18813535544997453,1.2472036380000302
564,1.379818239598997,3.1128065284276256,0,0,0.8279897887947173,1.3031296981814642,-0.11191271013982922,-1.292720159391245,0.992836823460092,1.715688025070094
565,1.4982272865780337,3.0544836186743023,0,0,0.7689151095319263,1.618592402729386,0.35925511929634246,-1.981487331631432,1.744740149301954,1.5021038655364976
566,1.6025575812806407,2.968874933893589,0,0,0.2997671779897379,1.6310943702407275,0.42722787209112795,-1.8380970782248367,1.6495755987771055,1.6655783522682501
567,1.6858053909463875,2.8630532992380755,0,0,0.011207281191604652,1.5701349902951578,0.31232642109404957,-1.283517736289356,1.975416224620801,1.671711593932319
568,1.7418932391393336,2.7446642994304455,0,0,-0.0178714533452828,1.3654979512528216,0.288342160014097,-1.2317878344504036,2.6293175686327155,1.4764463170241253
569,1.7659523537971291,2.6221407188903805,0,0,-0.021485997024695048,1.4816925082809527,0.15673535495786228,-1.1080219994665197,2.744880988836191,1.21646846269513
570,1.7546241585861495,2.504734046909257,0,0,-0.3651017418471017,1.6942525169122065,-0.19866269339246329,-0.8273524457154152,2.773433844320445,1.026557815304897
571,1.7064146670621034,2.402177212885853,0,0,-0.5795707264566706,1.6764715065997913,-0.5338613572087627,-0.3758414167980405,2.33037633838688,0.8442620782292212
572,1.622069891936204,2.3239420877356487,0,0,-0.47943203410412105,1.6606129001799053,-0.46851018767770874,0.34249886667413454,1.578381894318154,0.5922999025771013
573,1.50487920663179,2.278228723845582,0,0,0.08367503003593146,1.5962050416876405,-0.170628925257275,1.0783205872272212,0.868148436656662,0.3038191533933962
574,1.360791625505524,2.27094293303851,0,0,0.3457031297145158,1.4862115693500848,0.05604302789966229,1.7896207830796995,0.40164806881594584,-0.1427125019083118
575,1.1982524438673101,2.3049158767214633,0,0,0.20912021097265474,1.27151623648085,-0.025543695575094432,2.544353198935365,0.012310164160082585,-0.7216635675867761
576,1.0277173686557917,2.379493033303533,0,0,0.0915988524482113,1.05533725702391,-0.2653481086463799,3.1395869672389187,0.2983100898807989,-1.0179228479094988
577,0.8608587148996837,2.4904583211432803,0,0,0.006861077720249576,0.7662376701627688,-0.4796628991438275,3.103817843351672,1.1161223884841365,-1.248732446569539
578,0.7095316593360834,2.6301848262695247,0,0,-0.076968322974545,0.539384793574166,-0.43287311892038577,-0.2015738187778552,0.2318372125624496,-0.5757330447584472
579,0.584611749659405,2.7879674981090825,0,0,-0.13641350781317987,0.3821394615000123,-0.3104051571434522,-2.4162636120314387,0.8374567472793303,1.3744437781539742
580,0.4948439074422989,2.950613440439397,0,0,-0.18479239154970667,0.27130983822127397,-0.21932995148693896,-2.139217959143896,1.5304782373392352,1.5903079658963146
581,0.4458551256440256,3.103404570505664,0,0,-0.19395373485206513,0.1964047380156231,-0.13472351134040195,-1.478721207195225,0.25922626204556143,1.1332062250346846
582,0.43947592431586285,3.231455973593418,0,0,-0.2039653448249501,0.1350588436137744,-0.07908079368277228,1.1553635030511846,-2.6195412818949704,0.4705409677237021
583,0.473488896060172,3.3213291429399345,0,0,-0.2672616499119412,0.08829966465313228,-0.05602027554434385,2.3648441716489716,-4.914116790262463,-0.9384786125105126
584,0.5418776532219429,3.3626028063258597,0,0,-0.3292367910107067,0.07860997412868395,-0.022992180952960913,1.160934017577531,-4.821041642347422,-1.543873704054319
585,0.6355885509770319,3.3490443983049833,0,0,-0.36709160785089096,0.10141044304694925,0.03149910962551109,-0.09643964451381558,1.2817020791149432,0.6887235985122142
586,0.7437431983610467,3.2791463779100245,0,0,-0.3112828753808829,0.27030109258314994,0.07527907183942599,1.1146053199120185,-0.7851732883131123,-0.6225001811787748
587,0.855153616824367,3.15603667099174,0,0,-0.16472426544239396,0.6768220115188461,0.3703470706302275,2.549263723191052,-3.085410471557461,-1.61676071669675
588,0.9598979810089416,2.9869276465637937,0,0,0.3987702758363435,1.551266425908062,1.4365048726390233,3.010959170834168,-3.1965237735147074,-1.790593341708343
589,1.0506360767515774,2.78222344366968,0,0,0.8843064817260307,1.8569849085256958,1.4591914754948616,1.9958844202759154,-0.07018959134964398,-1.0395024472105399
590,1.1233386445999423,2.554314127089128,0,0,0.2331389169479561,0.8211236152641689,0.7446105525368485,1.5679945079660047,1.7226344392765345,-0.7456491529353646
591,1.1772376290710511,2.3161331116390222,0,0,-0.016646500456283696,0.07375967316093875,0.6608666771466778,1.3445013309115406,0.7471085404817592,-0.5764805983696245
592,1.2140600622734297,2.0797051847108037,0,0,-0.05278285193779315,-0.077657025907429,0.052093985566140845,1.4267520136806562,-0.6045656189699801,-0.16929919192284404
593,1.2368569833494556,1.8549970118325176,0,0,-0.36880814521698296,0.5106994301407926,-0.3295198932626597,1.5002373825246502,-0.6954910529093378,-0.2161049391726236
594,1.248830202106482,1.6493212742762189,0,0,-0.6356755701001979,1.516798296914135,-0.404373089788033,1.2155450172654767,-0.6068818299401295,-0.575881912654675
595,1.2524592055557047,1.4673898530218796,0,0,-0.21973129586398882,1.718972143233561,0.043948148394018664,1.044296776806084,-0.42426816884930985,-0.7226355997798677
596,1.2490437509096728,1.3119430049681087,0,0,-0.02748844460366818,0.7769236120781327,-0.23886748289619356,1.0176599004237303,-0.5550315253732941,-0.646412495137203
597,1.238642466050569,1.1847492315070778,0,0,-0.13227146049220012,0.5767688393431097,-0.5565449008846792,1.1465427082766886,-0.8207682382247071,-0.5370505198260709
598,1.2203488432519127,1.0876888807589407,0,0,-0.2017824121271836,0.8292201839175422,-0.6633299552251418,1.2422226098386775,-0.44509964244174427,-0.5289838726946824
599,1.1928411516989643,1.0236071065418626,0,0,-0.09577883946305271,1.18409260592192,-0.7147946066165576,1.5148589666535837,-0.09055708435289568,-0.46979386597841016
600,1.155103746708638,0.9966561925391412,0,0,0.12239968487635904,1.4218711390279426,-0.5795007651220132,1.460237230577679,-0.42065158708169376,-0.47337796986055936
601,1.1071528750174984,1.0119492530924725,0,0,0.31985629226597684,1.3973449040131265,-0.1574424812173627,1.1657184958366653,-0.8645200514891952,-0.49084340538030413
602,1.0505703784106784,1.0745106959003066,0,0,0.3135533647885998,1.3138470450042719,0.04645840749611826,0.5738113878117093,-0.7446518936206014,-0.4237261276162001
603,0.9886911143524786,1.1877089778088865,0,0,-0.015698702345587345,1.0196695770284947,-0.05070938361882355,-0.10819584956667139,-0.21242241069193593,-0.4085693337643419
604,0.9263904202648751,1.3515446979026577,0,0,-0.3150583704715655,0.6616406104102812,-0.15172518544957245,-0.5623346470134613,0.517350949953875,-0.3608412148115175
605,0.8695319563619551,1.5612737747381265,0,0,-0.19542400226582818,0.6083665378069344,-0.14491538788004837,0.023300422001761786,0.03294972040976683,0.3576379027018779
606,0.8242186444031527,1.8068160445826493,0,0,0.015411897462523862,0.6638941837431807,-0.11142907877608847,-0.37092899226716886,-0.8429954986219044,0.8355902830437233
607,0.7960148606622105,2.07322542305667,0,0,0.11442920941987127,0.6987620296189611,-0.028868393510609703,-1.4777095041617925,-0.32712900067134304,0.9869759638319661
608,0.7892797942929789,2.342222711245341,0,0,0.11129974654165585,0.753511941830122,-0.03992166531687761,-2.3145960677135085,-0.27331430197252354,1.1315461910304245
609,0.8066950688869801,2.594497060116051,0,0,0.09547928416171524,0.8197202336272047,-0.13470221848204914,-3.4133659857904304,-0.24593745942570042,1.2083489711071727
610,0.8490129369721098,2.8122627851000694,0,0,0.12701886989242303,0.8271186111050112,-0.14793870535332926,-3.810577274936216,-0.36030613551522295,1.3503128129735111
611,0.9150116707253507,2.9814963455851715,0,0,0.16591454147501994,0.8762458534725167,-0.04467525927107896,-3.262610765442287,0.4740494094629192,0.900024408688767
612,1.0016248417568405,3.093405770498811,0,0,0.1954364216711948,0.9795009014930317,0.1197506570187413,-2.6618031612827524,0.7251305012925275,0.7148976265526004
613,1.1042044854404207,3.1449529560450484,0,0,0.2557033935225339,1.084476512184244,0.016061909257691624,-2.66391533131333,0.2135944975879225,0.8647438342439915
614,1.2168764505667324,3.1385365911818486,0,0,0.4519732053194542,1.043988596155317,-0.2800432738016565,-2.355858297458294,0.5141204283955507,1.021125434825262
615,1.3329450618466854,3.0811243864260094,0,0,0.650752725406405,1.3242077879164516,-0.030394137445242456,-2.089559976945923,0.6752325904278569,1.0640415737967757
616,1.4453040859096016,2.9831459871543364,0,0,0.47587218217524074,1.5062954309976548,0.39088287358300233,-2.79618256840209,2.1467685629555344,0.8854715770284435
617,1.5468168074554454,2.8573602680070658,0,0,0.07819388131485919,1.5602127804082482,0.20203948415189588,-2.361520936708852,1.1001498951617399,1.3690916210970483
618,1.63064662557408,2.7177800552736984,0,0,0.005596957166881102,1.5694499593264934,0.13777704612990643,-1.5752110258373249,1.2479494062200935,1.4374637813397146
619,1.690551237188587,2.578653053082057,0,0,0.041130148987073636,1.424999869151216,0.2028355850865109,-1.4654198209693587,1.6185963862407329,1.2424431095533768
620,1.721183891130763,2.4534799523099142,0,0,-0.0680391991472002,1.4585186196899251,0.17835098158682702,-1.313322787477407,2.1225702734497807,1.0934226883202776
621,1.718451586028898,2.3540632865853133,0,0,-0.39983386868292153,1.5834163833483685,-0.1875560705854511,-1.1035887152182586,2.6452980565478565,0.9051259147176589
622,1.6799492291349176,2.289597081057324,0,0,-0.5317069953047276,1.656887909715043,-0.45256133963406014,-0.6864767250682351,2.315046322672569,0.5953095848655806
623,1.6054305686218995,2.2658473808081765,0,0,-0.4610476202343235,1.7028865889789573,-0.3869013764089681,-0.045827403924924924,1.5672831153583755,0.1991378976450565
624,1.4972208353967151,2.284552579557939,0,0,-0.22649891167081176,1.5551811342453439,-0.18668805903461613,0.761765622850517,0.629064314291223,-0.12331211887112216
625,1.3604520862832103,2.343239059794901,0,0,0.0358703288026057,1.4543890747710824,0.05812030419267364,1.6327330841850405,-0.22222176155122586,-0.3787976675600974
626,1.2030189092148087,2.4356090460784876,0,0,0.15213032871948784,1.27966466593772,-0.12436166605968176,2.70506152938574,-0.9929796295764544,-0.7051887560015896
627,1.0351954857421546,2.552480008723934,0,0,0.24485033488192806,1.2092915812154916,-0.11228377512141788,3.7184740937349146,-1.2247315086747195,-1.0559857783132294
628,0.868906477033348,2.683033053195848,0,0,0.16170105448454852,0.9438033881517598,-0.28789650663182037,3.010183171832197,0.1425589252471497,-1.5246012680061443
629,0.7166963900563178,2.8160252272939443,0,0,-0.09839451954396179,0.5251249020651573,-0.3445278634912159,-1.1147376597135812,1.4031517003952805,0.28837307168983745
630,0.5904950901565035,2.9407173173650087,0,0,-0.17354880214264223,0.3714142225291893,-0.30649554970182247,-2.3771896572803795,1.2922942211592392,1.7690911833533705
631,0.5003249909654545,3.047476979302809,0,0,-0.21231783053673853,0.24451247518419025,-0.24418632998675513,-2.2194236564697554,1.0512584365744329,1.7224750617801547
632,0.4531241591349988,3.1281762040608085,0,0,-0.24020198637391918,0.11661519037519374,-0.1842155010892631,-0.8235006087778025,-0.5156097102915678,0.42130761584035475
633,0.45185948296407574,3.17652626361564,0,0,-0.25405569042243725,0.03156531772143503,-0.1301040017416199,1.4083019085628172,-3.6928148928229185,-0.6717155593711246
634,0.49507757911954964,3.1883971603767716,0,0,-0.2702108220933548,0.01662841619178517,-0.04259119408898955,1.4064902639816943,-5.579799852863936,-1.4944037369331655
635,0.576995613569046,3.162030604061902,0,0,-0.252553613383346,0.05427145738802203,0.07669242822406466,1.3553030943095223,-2.605196901798156,0.0007399456075346996
636,0.6881723416517328,3.0980077532968626,0,0,-0.2110379578597722,0.0995043495238987,0.20478587435289788,0.4684267230000504,-0.09942213392503789,-0.14202997675004386
637,0.8167182146516421,2.998954283139398,0,0,-0.09229366284307164,0.23213213551971987,0.40074870651671746,1.981945637190478,-1.2056586257183475,-0.9732715725857456
638,0.9498991587425561,2.8691297686013475,0,0,-0.03217971642514605,0.7566622832877921,0.9194542600650377,2.8867650288020914,-2.734377945325933,-1.6977752859876583
639,1.0758707681499986,2.7140467275180074,0,0,0.5091357766902083,1.6686567151766714,1.6002857845161702,2.5413623609809974,-2.391737267827909,-1.68742253471473
640,1.1851879332952624,2.540106373006727,0,0,0.8300840298675634,1.9128007463089225,1.1423724694538129,1.4068859875299478,1.1183627435252566,-0.970777814920048
641,1.2717407300467183,2.3541452779701584,0,0,0.35551165267906815,0.8244294459797804,0.7630802623244047,1.212570823357968,1.6810092875623293,-0.603952422868822
642,1.3329226707221218,2.1628781329371014,0,0,-0.17216132261030745,-0.20608472394156382,0.5117209994112972,1.4480215890731167,0.14580777297838332,-0.38586225721134215
643,1.3690971502013554,1.9723786189640704,0,0,-0.3942176764851896,0.11211170971517137,-0.13416604295342963,1.5739828236270244,-0.7135249952192793,-0.14231253784353892
644,1.382648467558561,1.7877984455967937,0,0,-0.6908369292270757,1.3208589383881209,-0.6356477629260769,1.4761343923917412,-0.5375517586806947,-0.2831752233832511
645,1.3769594590194938,1.6134494094970753,0,0,-0.323569362041443,1.7080524447812553,-0.3559694387530756,1.2973980955902975,-0.5802903317197844,-0.6657193156303884
646,1.3555579033084708,1.4532346040759991,0,0,0.18193730307134323,1.1863133341383327,0.06493522562542078,1.2342606405768073,-0.5378888520008003,-0.7021969406769474
647,1.3215390718348523,1.3112868087254945,0,0,0.18076347915108473,0.7646004824183102,-0.5305849862377638,1.2324393523101653,-0.45349087707914604,-0.6523314238931277
648,1.2772980615744034,1.1925909546657614,0,0,0.016836348754925116,0.6585576978740857,-0.489204599474701,1.3413685757793747,-0.49372268057553836,-0.5668580664028778
649,1.224580944154513,1.1033418956304601,0,0,-0.10679460426543981,1.0414884827055104,-0.48453677461674444,1.4944925080755365,-0.4747879477701868,-0.4858144513459204
650,1.1648218688286247,1.0508194238418813,0,0,-0.05927023803993726,1.4927247996340276,-0.6591343147676572,1.5449558355546544,-0.6665253355140157,-0.4395644731735063
651,1.099652492462792,1.0426533121948829,0,0,0.06251227965888032,1.4659180262296994,-0.35996796928434904,0.953931251248513,-0.9701587324035859,-0.48104592127689877
652,1.0313979512553373,1.0855027856844923,0,0,0.13842670649222866,1.221773523811265,-0.019291588079146944,0.23315324188280825,-0.6378129131903458,-0.4528713371359565
653,0.9633694495837737,1.1833655602134183,0,0,0.11393828977076087,1.1218306712674142,0.03797105540584895,-0.25146934587876907,-0.2607654364651735,-0.39356059777294117
654,0.8998385028371136,1.3359044032016454,0,0,-0.09877133428172996,0.8872589187805475,-0.08113108616901743,-0.6258071671107573,0.5226668130801323,-0.3897864478942143
655,0.8456909533762088,1.537261049675873,0,0,-0.26535066751531267,0.5979797048284533,-0.12522275143501319,-0.26137070051935335,-0.01881604597552941,0.2506945271706346
656,0.8058578320659735,1.7757729727317872,0,0,-0.15382033512202045,0.5099911235979975,-0.1421776409473099,-0.3747348401727224,-0.559362713047421,0.8693386305524257
657,0.7846734187714984,2.0348225314242554,0,0,-0.009567568170861327,0.5705032222853285,-0.16678680857852557,-1.4590484700698167,0.11023638478565112,0.8396762018145575
658,0.7853100338025232,2.2947719383101206,0,0,0.051214525532228716,0.70865434731423,-0.11158591003750418,-2.367426274791574,-0.12255862986502271,0.9511418955299721
659,0.8093932339427108,2.5356380217596977,0,0,0.06878549285234899,0.9118646037693802,-0.008994998797773792,-3.4622030112012605,-0.11248679196437872,1.0353573631407078
660,0.85683438467866,2.7399280481049435,0,0,0.06178138063409037,0.9293372213816236,0.037146502697328526,-4.096964120909445,0.14042744980514835,1.1902594912302056
661,0.9258602759834723,2.8949850858162702,0,0,0.08897571835424295,0.8543013073364518,0.06836371122194339,-2.992541079448714,1.8110925244021143,0.8429753226185608
662,1.0131907104846445,2.994329139749226,0,0,0.18239595092895217,0.9719782877234874,0.0226476883637393,-2.5456922824167187,0.6791626465474004,0.6933644087013277
663,1.1143121581114506,3.037790520727833,0,0,0.2829204285993701,1.1144528083052472,-0.13011561011121697,-2.8154486083697003,-0.8268170114597432,0.7572070297461266
664,1.2238019001364382,3.030586692592418,0,0,0.5410863427091053,1.0660051740554677,-0.2847579575736567,-2.0402916938547846,-0.22260054193339238,1.0640460888268108
665,1.3356606618340578,2.981747961138456,0,0,0.8072870543592753,1.3011605116919338,0.0811825115863386,-1.2453460387329727,0.8753914541860496,1.5711329083400143
666,1.4436150142877817,2.9023763531814337,0,0,0.5595520384699229,1.434947322885367,0.36953527517801354,-1.975831007891071,1.1219697150610948,1.368737093631091
667,1.5413639520112874,2.804139191805895,0,0,0.18403487440038663,1.4856035861422492,0.2503528830958494,-1.8650759795664182,1.1652311955038264,1.5237736046166186
668,1.6227727618959655,2.698217054958109,0,0,0.04246011386735627,1.51236077376733,0.2681674063458319,-1.3743853063592912,1.7344749022456425,1.4219281020667676
669,1.682054623318332,2.5947234579476626,0,0,0.09051212711571335,1.367749940872749,0.2415917468229676,-1.250959038024011,2.249879461365872,1.1819463883290695
670,1.7140066560493286,2.502457580393178,0,0,0.032424588629243904,1.3954983082680472,0.1403438440569422,-1.2979666266836767,2.6903347866483522,0.9558766359709284
671,1.714360777690707,2.4287770997382663,0,0,-0.28414061022320186,1.6716508844169886,-0.22133612530277658,-1.1203412563801751,2.813793667057636,0.7956739192962553
672,1.6802629351347893,2.379397469783801,0,0,-0.4049720382606946,1.739507030640779,-0.4070756703929838,-0.8129682844666147,2.4986444395613314,0.6065566773679014
673,1.6108230334590097,2.3580354979892566,0,0,-0.49645357826451464,1.713644522471385,-0.20951885273499318,-0.11298386644568778,1.7451745352089199,0.35452933689693844
674,1.5076167686139965,2.365985079898367,0,0,-0.36477999115531257,1.6137808300569354,-0.1149394596099828,0.6294743221372433,0.9708073055697771,0.1043249930214849
675,1.3750003441675713,2.4018565004223054,0,0,0.10503065567085092,1.5078062796765057,-0.09812624324784802,1.5076146369138315,0.22517661481562823,-0.09232806037114343
676,1.2201255271109321,2.4617252032772052,0,0,0.27426254447181214,1.30983608852934,0.0376393047359189,2.3486669338677313,-0.4304009489859691,-0.43731061134268345
677,1.0525985061524281,2.539780390526387,0,0,0.23539831220882548,1.068184374040963,-0.19441099056043992,3.301966253633103,-0.6986512734644669,-0.6986725183781657
678,0.8837899069568059,2.6293138295155467,0,0,0.05313306486418749,0.773437147784915,-0.3776959784770042,3.8584880572556117,-0.3332996520631668,-1.1386884438302403
679,0.725860644498214,2.723701967320301,0,0,-0.08684848569685454,0.5601552069551865,-0.3839097216067051,1.3356928407385968,1.7897083193686008,-1.4762783600953002
680,0.5906108939137789,2.817035464479148,0,0,-0.20405413212502146,0.410077747272524,-0.3258229063964916,-2.125317627454575,0.2919488005879335,2.0202858675151276
681,0.488283035808289,2.9042354380287234,0,0,-0.24132755386280075,0.33590842851771835,-0.2500511063689645,-1.9177948808605532,0.9778217780596314,2.227607790947858
682,0.4264550073068548,2.9807451560595144,0,0,-0.22275281068594185,0.2777843383259187,-0.17018378322836317,-1.7145924758606712,1.5115822222065551,1.0762037229917316
683,0.40915442364327104,3.0420725721197375,0,0,-0.20060551097020624,0.19788839297148705,-0.110741034941692,-0.3273024745804364,0.46908246866747016,-0.2798669724688442
684,0.43631239544646583,3.0835154964609277,0,0,-0.20958510176015246,0.12485207672732379,-0.05987369910038891,0.7130220964751481,-3.0374564644789808,-0.9954743138071946
685,0.5036589185706286,3.100299627288821,0,0,-0.20762975956608062,0.10661087466686843,-0.012569580044550424,1.380850841668408,-4.474671099142803,-0.8177164397240266
686,0.6031313378299585,3.08812889574496,0,0,-0.21277438699481088,0.09291768089028635,0.034713090309305555,1.771187600119011,-3.4548435314692556,0.0872547018721353
687,0.7238131665901086,3.043927438872124,0,0,-0.21617540489245518,0.16961433470925558,0.14582580615232626,0.8919322143396236,-1.0522428915094462,-0.6368986779638257
688,0.8533349353901993,2.9665002087739127,0,0,-0.12067914706696928,0.5126556575507949,0.36027051096988755,2.0386918901868194,-1.3237518748475872,-1.4081241141396235
689,0.9795534345675819,2.8569400765239936,0,0,0.22266749364106847,1.3017901410564845,0.9501116732159357,2.6625866037718384,-2.5001940554737647,-1.8839663298987952
690,1.092204326356244,2.7187058713914323,0,0,1.1889687082818425,1.8974951523355748,1.6699400223893326,2.5827456111865583,-1.919439585477361,-1.687890556212513
691,1.1841555023379375,2.557324502945704,0,0,0.002253728121107757,1.3498319673264365,0.8871828307319867,1.896539265518552,0.23332533006019665,-0.8856781501601815
692,1.2519519313559546,2.3797244209471393,0,0,-0.6071351525572813,0.38525464780662955,0.5320116656680393,1.272532454788155,0.958509101079501,-0.7848927283807238
693,1.2955571862540232,2.193343219466962,0,0,-0.5047245716830517,0.04388492882158233,0.3643744119197215,1.4325546358490486,-0.06484608471692642,-0.47802872676889224
694,1.3174664026836986,2.005276104790254,0,0,-0.28957567245889393,0.578995570036234,-0.046634717750412946,1.6644851081175818,-0.9144119864901499,-0.07270009505937312
695,1.3215363399035003,1.821728603054955,0,0,-0.25478721492307,1.316995482220683,-0.7292908280333767,1.3724848688652789,-0.9533328227626312,-0.3211775083901346
696,1.3118733063068269,1.647906864623546,0,0,-0.15149172614626644,1.4280518968683884,-0.33846525568750957,1.1088352235222894,-1.002803575469035,-0.6108457636070237
697,1.2919947310418032,1.4883124595877595,0,0,0.024515892791426085,1.085871908248411,0.03472704558591055,1.1005089267882193,-0.9611476649368857,-0.7440604593267885
698,1.264348627367265,1.3472835190244183,0,0,-0.00045773341484061904,0.9262025364899062,-0.5343073253025413,1.1102416213348993,-0.8740605252300012,-0.7100023657467264
699,1.2302003745649188,1.2295640540036377,0,0,-0.05128168296341891,0.8688658691642945,-0.4979832334383573,1.1818092063185177,-0.3653819639744822,-0.5898928887422751
700,1.1898605285489947,1.1406804036091207,0,0,-0.11201899952833905,0.9997403795897092,-0.4425737323200404,1.2556551809705265,-0.1518745973491181,-0.4895732224423452
701,1.1431865919477524,1.0869442551017034,0,0,0.010256315449804581,1.274644906906943,-0.550485479198667,1.346918388116228,-0.6029755743286386,-0.39840710859318795
702,1.0902344728510098,1.0749735235430686,0,0,0.20195787719242136,1.3286383182112127,-0.3309244588644965,1.3099044212736106,-1.0027957975291273,-0.4580500260948137
703,1.031888657542885,1.1107215173985263,0,0,0.2875437036075313,1.3115759968027587,-0.04164358642481193,0.8159120277699752,-0.7757988621318253,-0.6270159312061706
704,0.9702976981538914,1.1981347209834756,0,0,0.12878825838174388,1.1601257950889592,0.01512958267197131,0.18824500404463257,0.09703588087220287,-0.5353688806085213
705,0.9089953986372712,1.3377067523930897,0,0,-0.14053629732855036,0.8674586470490704,-0.021998345195286068,-0.24245532960387536,0.416603970733981,-0.45654542719082597
706,0.8526798095478754,1.5253070931690242,0,0,-0.2322411200789967,0.6470994054506013,-0.1185870519144734,-0.6294631398065617,0.7350030267057448,-0.11461565394197953
707,0.806715002380047,1.7516690775538528,0,0,-0.11235048852289922,0.6111821624617166,-0.13920999979447504,-0.4560420021797906,0.09400570033806196,0.736918018202126
708,0.7764799533311986,2.0027944862109033,0,0,0.030223009666594833,0.6669619267695737,-0.061344261794255374,-1.1179839681498396,-0.07285755986341001,1.2834845403145705
709,0.7666992933499399,2.261305510721975,0,0,0.1141640911676699,0.7276507639954486,-0.10067236831693235,-1.9153295987073906,0.30724296232666626,1.4511443166862519
710,0.7808610798387119,2.5085168014371457,0,0,0.18460960957496675,0.756479263500198,-0.1518173556201928,-3.0988170108682396,0.48872555844655846,1.2130840784406467
711,0.8207811680815728,2.72678968158193,0,0,0.2335072855844583,0.8039018656835882,-0.09028230630128992,-3.915084127853434,-0.5554946595414761,1.1369449661193385
712,0.8863350963096999,2.9016479526199777,0,0,0.19520674534237376,0.9194236615531027,0.031955728778048184,-3.3055098065286566,-0.2255846045700597,0.45798235765127016
713,0.9753574909367713,3.0232304557869014,0,0,0.1459920438967375,0.9019596395616113,0.1206176577324332,-2.5004489160287102,0.054324381844497074,0.36479081385964657
714,1.08370413660368,3.0868990803438714,0,0,0.17760528730025749,0.9343725534309884,0.039714205334756184,-2.864336618279564,0.01290759967661743,0.48146533124253155
715,1.205473460048105,3.0930934248698665,0,0,0.3510661943135985,1.0757716805252817,-0.09422704471617895,-2.5903992487492356,0.4271062601560845,0.8986463428697339
716,1.3333801199560995,3.046694499732044,0,0,0.5978629753094413,1.0695210615839834,-0.22021737796871804,-1.940402361831443,0.29645529557535766,1.427035034076173
717,1.4592561053032007,2.9561808437634194,0,0,0.7737132947308499,1.5147330200362936,0.11466919136193982,-2.3741368612980884,1.5238954461538774,1.1227748889423075
718,1.5746288190148652,2.8327718249730904,0,0,0.3543518943696309,1.7085886244240411,0.18939767072037067,-2.1698829990621538,1.4900076090269685,1.4376220982414945
719,1.6713082998562088,2.6896257835700705,0,0,-0.04210887441287255,1.748663987442092,0.12009287555082182,-1.5745553492974778,1.7445755330389323,1.462120836330793
720,1.7419246901106993,2.5410557410140573,0,0,-0.15507835547151586,1.5435914257201258,0.1997930725161471,-1.3404995120826704,2.0955893459062005,1.1961891511923664
721,1.780392008887691,2.4016790611535614,0,0,-0.2731356573901951,1.5018998518166995,0.3393288470764046,-1.3105825036279775,2.139593701964327,0.934527355349756
722,1.7823112483497943,2.2854335467156877,0,0,-0.6739508252206619,1.6220095971454487,-0.0839906574099652,-1.1674980735643607,2.308918219801979,0.7286385820495073
723,1.7453359539256004,2.2044541116211827,0,0,-0.7205530356871449,1.5450118911086939,-0.5559261032537247,-0.8439011138803271,2.1597208957938343,0.5723000665047374
724,1.6695001099825268,2.1678953873451565,0,0,-0.5523093170816532,1.4974639322891488,-0.5686251114363032,-0.18402813411784225,1.5514627952608213,0.3333536174432375
725,1.5574714326446333,2.180886079342345,0,0,-0.13986698748450377,1.524659059475622,-0.21203024497502193,0.5852584251717441,0.9989771185702763,0.09920839497203933
726,1.4146677064186148,2.2438640046450873,0,0,0.27174318505975725,1.5171132294332668,0.20193776773945077,1.432277135990416,0.47452773740234283,-0.09837206081074355
727,1.2491683504425086,2.3525034869629584,0,0,0.24121189241628993,1.3351793556018636,-0.019093529389783176,2.42753206590042,-0.11045885930300126,-0.4111430254227351
728,1.0713641813717392,2.498286240275988,0,0,0.18592425880046462,1.2383654539583482,-0.20213562993943282,3.4631613266905132,-0.19471515350188173,-0.628105906934375
729,0.8933130103105298,2.669551723336827,0,0,0.09486422171989319,0.9813680322004,-0.34983641723568304,3.9291673798486784,0.8667860588211688,-1.2684173388689663
730,0.7278090201189631,2.8527285910016302,0,0,-0.0006353303955498813,0.6852166513895114,-0.3360569160884584,0.3923495800875452,0.8798107876470334,-0.7006039091415568
731,0.5872279089900068,3.0334876646855715,0,0,-0.07644411219037962,0.44105929185592235,-0.2637952457338274,-2.7519351764495656,1.1082140337172366,2.069087471465455
732,0.48226688424885106,3.197721644761712,0,0,-0.15454098086153456,0.24403936024716508,-0.21638692451890465,-2.6540849247058653,1.109791006117604,1.7005866062940092
733,0.4207421493176082,3.3324058284043567,0,0,-0.1907873146964069,0.12802591160049015,-0.1691515931140007,-1.4643152681656182,0.6131689994910899,0.5327026895680014
734,0.4066225371477235,3.4264329550683597,0,0,-0.21043690645421673,0.042760321552316134,-0.12770648937901816,0.5932891433136083,-2.6682877200313997,-0.49240932081856137
