id,ASVM,GSVM,walking_nonwalking,normal_abnormal,ax,ay,az,gx,gy,gz
1,0.9004778724374034,0.06100942620683558,0,0,-0.5026855552099851,0.5454711853691118,0.5021972844957249,-0.020240024,-0.004261058,-0.023435818
2,0.9397548010625261,0.9626997732210342,0,0,-0.4763501754150791,0.5086138401448105,0.5471437785845759,-0.3806266356335858,-1.3088711931756134,0.14375385194726414
3,0.9763466189607765,1.8183557312304723,0,0,-0.4500147956201731,0.47175649492050914,0.5920902726734267,-0.7410132472671717,-2.613481328351227,0.3109435218945283
4,1.0079286080967618,2.591613940390075,0,0,-0.4953847184693242,0.49930407274619404,0.628845660653476,-0.8613072464850313,-2.6110119273397676,0.4611697685247827
5,1.0323860925768933,3.253153965524086,0,0,-0.5412638794220108,0.5273090427193565,0.6655428768119402,-0.9798961509215968,-2.5992598823304527,0.6112755437343736
6,1.0479959969911727,3.782988784791097,0,0,-0.4538780369252994,0.6563065732042398,0.7197356461505877,-0.8999997032513294,-3.500002546691669,0.7875576677632953
7,1.053630774635932,4.171844242495554,0,0,-0.36637839820758883,0.784362288032991,0.7737325290783784,-0.8206633717879916,-4.3984139574894305,0.9633823848864354
8,1.0489469524705493,4.421547442778759,0,0,-0.28927930265319174,0.6979966194651738,0.7840083345360517,-0.9033976655183653,-4.6007125238260205,1.0407789798225864
9,1.0345140631683907,4.544381576928131,0,0,-0.21160724622028465,0.612342044675051,0.7945310758139787,-0.9844169358676751,-4.799298546077024,1.1184861587946224
10,1.0118483136109004,4.561403097643208,0,0,-0.07232815390609842,0.603147136164778,0.8316053439744482,-0.881030007831544,-4.598696921403217,1.229588564390277
11,0.9833326566150795,4.499808120157773,0,0,0.06695093840808783,0.593952227654505,0.8686796121349173,-0.7776430797954128,-4.398095296729411,1.340690969985932
12,0.9520222462526737,4.389575012573001,0,0,0.20034481043473343,0.546547000855618,0.7990519433170111,-0.7732550096629559,-4.032063878929414,1.2213347488501443
13,0.9213484349189061,4.259757926441061,0,0,0.3333508676625688,0.49662385184217156,0.7223930015475153,-0.7753906073431783,-3.655131234190762,1.0867921350912713
14,0.8947482555970435,4.134916357491371,0,0,0.4026627462490516,0.35776735784030805,0.6913746601099205,-0.8471284755134281,-3.324275958818202,0.6762730855904775
15,0.8752612032068421,4.032203981859131,0,0,0.4681191183006473,0.21352759216088193,0.6631190143318261,-0.9230794758549038,-2.996209817902115,0.2490487594198324
16,0.8651475220812337,3.959583041318142,0,0,0.3708139201152179,0.25415188659953236,0.6559752964880537,-0.9046217602926171,-3.171534885593475,0.10565688411936207
17,0.8655868387503372,3.9154714647699658,0,0,0.26313737768787204,0.3078875803524476,0.6516686456760558,-0.8788759149737737,-3.3920552306777387,-0.006243529589817701
18,0.8765097136953849,3.889887653111964,0,0,0.30930850278418803,0.2516388209457529,0.6999483121320456,-0.8804994751257895,-3.7746792948071097,0.2654358649549434
19,0.8965971578058145,3.866882618242366,0,0,0.35933497170736173,0.19923423357373915,0.745419301711402,-0.8634292237708816,-4.142015925206497,0.5290833549176995
20,0.9234566431410219,3.827810140914487,0,0,0.47994697952484716,0.2172106494927063,0.7394676453875252,-0.5041034318757468,-4.229462651516305,0.6456787578263995
21,0.9539528336245056,3.75484400947261,0,0,0.6006659632997728,0.23559054674866614,0.7311762919822348,-0.15384085691187946,-4.303952587209027,0.7600866764032724
22,0.9846440651245145,3.634136631329746,0,0,0.7238385322519849,0.2632246339314517,0.6692219827534629,-0.011450922241859056,-4.081267436424875,0.8243227688938101
23,1.0122573236600512,3.4581163850196126,0,0,0.8463006434704484,0.2902186390443509,0.6039004923066164,0.13389000436920087,-3.8493019453244908,0.879813713408309
24,1.0341280284348415,3.2266060631146782,0,0,0.9557439147802582,0.3054834086335772,0.4768768176820111,0.33330662127548594,-3.4472781085004116,0.7750534878941694
25,1.0485366809733885,2.9466675961870106,0,0,1.0581386204173209,0.32000447656459824,0.3521801744318693,0.5175331384855943,-3.031993951760092,0.6649998554232163
26,1.0548914017626436,2.631299789879626,0,0,1.0223517311670962,0.31994585761748134,0.2731031511134723,0.4039696785806498,-2.3567516175622356,0.4511731306667642
27,1.0537316054913621,2.2973037883734833,0,0,0.9865648419168715,0.3198872386703644,0.19402612779507536,0.29040621867570526,-1.6815092833643792,0.2373464059103121
28,1.0465595529056106,1.9627554210394944,0,0,0.9652556567309256,0.30241727241134114,0.19394222729471436,0.13870585668769136,-1.425509823408153,0.15940958272795122
29,1.0355363559138235,1.6445567862321036,0,0,0.9436867638744393,0.2863630050682939,0.19764210267875948,-0.008095002521443222,-1.1960629274277388,0.08504158186004603
30,1.0230998012577246,1.3564698367394696,0,0,0.9098397619611184,0.3027198510494539,0.2175214731953726,-0.055140505432471745,-1.155967295578454,-0.00851481550389691
31,1.0115694392663528,1.1078841181628865,0,0,0.8767531223243438,0.31637307616575205,0.23725695353458026,-0.09752980688323201,-1.1066643305713166,-0.09408904555982345
32,1.0028009787496577,0.9033906547777921,0,0,0.8543845803429495,0.2919159513257888,0.2549641520656909,-0.07428510268477904,-0.9275744219249665,-0.06714631975423768
33,0.9979403180962272,0.743078676903454,0,0,0.835685080040046,0.2688599117414702,0.270589421791229,-0.047156317919783385,-0.7565973777329307,-0.03541218177174844
34,0.9973097853644869,0.6233722627235235,0,0,0.8869936494636549,0.272537630662475,0.24648992692445737,0.054083640067628586,-0.7404198777886422,0.08774569774452103
35,1.0004366909312645,0.5381809083787452,0,0,0.9381400614533489,0.276364746749034,0.2223221670367882,0.1546530654342357,-0.7238874832485386,0.2097622323040836
36,1.006209542199474,0.4801367292287583,0,0,0.9703648251685969,0.29762456423973466,0.19018876515175742,0.17698009771332546,-0.6659435150785701,0.1985987186596749
37,1.013125064632588,0.44171987394475726,0,0,1.0024756279051656,0.3187582965946342,0.1581034079273975,0.19927912357888303,-0.6070842554286848,0.18728572067719618
38,1.0195752139235923,0.41612924504647125,0,0,1.0099179757491987,0.3125991299136167,0.13641799249296224,0.21551576776847314,-0.3500972958632078,0.14361473758825394
39,1.024120939814672,0.39783172966793345,0,0,1.0161976713724727,0.3071896469843948,0.11438619184793514,0.22916406768548614,-0.12330101034839713,0.09848658846388374
40,1.0257078250580174,0.3828023970322178,0,0,1.012235644156117,0.3083840762917051,0.089303108253957,0.22001182228546373,-0.16245228127669994,0.0405223655287451
41,1.023794257578755,0.3685264205686083,0,0,1.0081366366885904,0.3094810093671832,0.06433693361474745,0.21022327136321337,-0.2016176715470595,-0.01758287307093493
42,1.0183812679143587,0.35385479585177615,0,0,0.9842062329033817,0.2964628682154212,0.05629632156782337,0.10831321473076208,-0.24282719785658513,-0.09610373732917092
43,1.009951239359372,0.3387926511989178,0,0,0.9585096088125634,0.28512333169736687,0.05098260536389921,0.014570494307201259,-0.27609003301447,-0.171874356155685
44,0.9993380356086441,0.32426744574506833,0,0,0.9157822937006872,0.28996965640722266,0.07196284596542477,-0.00041909525810819294,-0.2327272961512816,-0.22112587104511486
45,0.9875616022087943,0.31189163165412026,0,0,0.8780089619371478,0.2931907842449239,0.09217129731166576,-0.014069463598414404,-0.20537145810902824,-0.25453112083703405
46,0.9756636436119797,0.30371006804215667,0,0,0.8828755121628016,0.2824235317074573,0.10573681114727962,-0.016192898812947883,-0.315790060361334,-0.15154453560640685
47,0.964576193804569,0.30190971518012605,0,0,0.889287228809806,0.273219662724952,0.1169066542817646,-0.013435119330793286,-0.42390903726582807,-0.05407272975208878
48,0.9550425919285919,0.30846862607112113,0,0,0.9100168033274033,0.27850245565009674,0.10587767654520795,0.03455308795340202,-0.5107191710381991,-0.00770210381382229
49,0.9475941545162777,0.3247350717309545,0,0,0.9281344858001643,0.284373156879458,0.09383219032494935,0.07618594245779377,-0.5412950442280631,0.026224654370092245
50,0.9425710175546046,0.3509596020648667,0,0,0.9274100136012429,0.29448502071324656,0.07445362559067138,0.07197136608359192,-0.16619770983316123,-0.029618484195356266
51,0.9401669154045045,0.38585179901899425,0,0,0.92316543058569,0.30353018341627896,0.05779758365086186,0.06294759055223942,0.1733944534447779,-0.08064957937791117
52,0.940477178834383,0.4262839727770533,0,0,0.8871290571636945,0.30294146226114044,0.0657299363858943,0.010489656384567909,0.19232257593104873,-0.0882208283724195
53,0.9435356967251203,0.46728921134460333,0,0,0.8587549470492455,0.3018156070941757,0.073384004299522,-0.026793388461400197,0.17376132537549815,-0.0824407591023046
54,0.949335844685477,0.5024811493649995,0,0,0.8817021480672745,0.2970920653597309,0.07917413968430974,0.03756392871717772,-0.09590116024592422,0.01276551908882543
55,0.957837306992728,0.5249574166098884,0,0,0.9044719546438799,0.2958236636321911,0.08374364490843887,0.09841460838948086,-0.3503211080897749,0.10555497940422875
56,0.9689621731352683,0.5286511378375576,0,0,0.9260231343741889,0.3182906573220507,0.07992792136878152,0.13517612657428904,-0.5000310727301637,0.18174189267096336
57,0.9825806287792838,0.5099835326940729,0,0,0.9475134814417014,0.33950422464774627,0.07154245242788666,0.1761542974519352,-0.6174804964129653,0.2455342863784794
58,0.998483002842911,0.46957089174025074,0,0,0.9685879522472937,0.35214887115099985,0.03191638759603435,0.24595918212282586,-0.5143840395732482,0.2245928179528328
59,1.0163347901736413,0.4136783752153555,0,0,0.9849281305424442,0.3612238485425272,0.0017339106733472907,0.30483581070937626,-0.4378165625222797,0.2036030752227934
60,1.0356161420637422,0.35510458738447404,0,0,0.9730641732654318,0.3490328328892988,0.027810786781367145,0.2986083048695567,-0.5192931735824077,0.1823257424929343
61,1.055556225142173,0.3132176890246108,0,0,0.9635778262675623,0.3365149105603257,0.048949230334637744,0.3026185604008399,-0.6133257096186173,0.16653304825893855
62,1.0750826414490824,0.31293242272770494,0,0,0.9778304892400131,0.32073302129128434,0.0207803922740372,0.4088467122198168,-0.8327216141403081,0.20550117387204747
63,1.0928122706018166,0.38251565967414,0,0,0.9919919178333761,0.30602870449899217,-0.007511511971350904,0.5065426795786611,-1.0262534062291995,0.23396863515332003
64,1.107108499310081,0.5502480209016416,0,0,1.005288754752975,0.30153611053082463,-0.03696966516536126,0.5233825517131481,-0.9746813626554226,0.1629255057879415
65,1.1162195627783351,0.8401632076536207,0,0,1.020648467512977,0.2966782233822983,-0.07261741488951431,0.5400497833765148,-0.8870429510158645,0.07823458764392482
66,1.1184953566179898,1.2673258294806107,0,0,1.0629273444094725,0.2870535020934808,-0.1890353021773839,0.5544641707821109,-0.3287623073303932,-0.18455093988143761
67,1.1126592401264799,1.8333461315666202,0,0,1.0953485011090014,0.27673355989675136,-0.2850362082566364,0.5113126280149303,0.2736171700309809,-0.44329912919634484
68,1.0980920142283466,2.5229870071544998,0,0,1.0717795086924267,0.2624648829495065,-0.2650721853736196,0.14119653868120977,1.1264704104963088,-0.6791159343860372
69,1.075073063270767,3.302715701303207,0,0,1.0541045089356045,0.25257238917827135,-0.24523990201833112,-0.19787463649840345,1.9196342247028158,-0.9193972358930282
70,1.0449224651478617,4.121852930088487,0,0,1.0742039517774793,0.27072673729439195,-0.22625193377106084,-0.33797978081768254,2.330250090435551,-1.1882913762583498
71,1.0099976127768004,4.9165987771353725,0,0,1.0842382634410375,0.28841788365722476,-0.2022600556150818,-0.5473972776152156,2.997928340235315,-1.47916944717592
72,0.9735164828794798,5.616724642706593,0,0,1.0406778611718956,0.3036425779114692,-0.1516234057440063,-1.1258885262181009,5.03440991412604,-1.8871073431847318
73,0.9392068579015226,6.1541771852841105,0,0,0.966031682123679,0.3120111009077059,-0.0764651287633813,-1.6447049235156688,6.903117210788223,-2.2745642156078776
74,0.910817052758941,6.472333748637971,0,0,0.7348183581550215,0.2858477167046852,0.12219918677086893,-1.862961963431679,7.926809767640363,-2.5588660209839467
75,0.8915642281252563,6.534324874355003,0,0,0.5038181380850397,0.2656223893503878,0.3217451285698364,-2.0161971727141754,8.740087423993199,-2.77649166977947
76,0.8836272734466076,6.32885491602887,0,0,0.27471295529436235,0.29820143597642157,0.5291309590042297,-1.5912235263279684,7.68224336680892,-2.4011973118327985
77,0.8877945178273219,5.87237188706885,0,0,0.06690392223509684,0.3360238531630971,0.723534114147472,-1.1573546462198328,6.518546482990951,-1.989146634325318
78,0.9033431720395562,5.207174673017928,0,0,0.003728051806477001,0.40945671057462935,0.8297652095311863,-0.663073635197553,4.635948329107165,-1.3274647881892114
79,0.9281678771532561,4.395886067566174,0,0,-0.04808522784835022,0.47841883949285663,0.9195239164633995,-0.20524691533205489,2.8699594691912313,-0.6894304640681764
80,0.9591157043597959,3.513412743485044,0,0,-0.008984360695763917,0.5116098600603722,0.8774840598899512,-0.03909758126625453,2.036982689006653,-0.2406042458710639
81,0.9924481829213292,2.6378699009570385,0,0,0.03370766061555989,0.5369108221347934,0.852135401328323,0.06844855482603815,1.3419808633833354,0.14300767282335397
82,1.0243446584131586,1.8419125704321266,0,0,0.0907219190031966,0.5307446623246599,0.8933545589726133,-0.057726513939947995,1.1972505856299263,0.2665320010030465
83,1.051375758745096,1.1855727097898197,0,0,0.14185895089454087,0.5265084365310119,0.9301947856976677,-0.17576763982364327,1.0147867805124746,0.3578702066963269
84,1.0708957734257454,0.7112242044158271,0,0,0.16811830956240256,0.5304414156906341,0.9484994646527536,-0.25937865259671467,0.6726009766045792,0.3129679870711231
85,1.0813193493113082,0.4408591649298274,0,0,0.19233245799478002,0.5322599409079944,0.9643203332247122,-0.3274093401550306,0.34499207848314095,0.25744090629860034
86,1.0822606837169089,0.3755603336886502,0,0,0.2025007806713252,0.5195570978362359,0.9630832158228532,-0.28843952162262276,0.11749253786471166,0.1289458043379187
87,1.0745253900141132,0.49690750833212527,0,0,0.21189295116741855,0.5075202232748656,0.9613165789857839,-0.25088500962879096,-0.04820116627389664,-0.0035603554258563
88,1.0599582639303817,0.7700088786816672,0,0,0.2146173477677753,0.5012045559210346,0.9550009426660042,-0.2254891235205276,0.3170671670121771,-0.1705247402482621
89,1.041164387263522,1.147831192449497,0,0,0.20809205357165245,0.4943511026142023,0.9410217502836664,-0.22926036964759525,0.7158940445555502,-0.34394776891675555
90,1.0211359619144362,1.576463731046805,0,0,0.1411587386963435,0.4839854686541736,0.8769932899405881,-0.4235167644946795,1.3338855715433149,-0.5595510068526396
91,1.0028323003619792,2.000873160136335,0,0,0.08078529331118024,0.4701762495295131,0.8114917695356664,-0.6344325921591641,1.9496607997072033,-0.7865458684324609
92,0.988773144138117,2.370608669119514,0,0,0.061845536007840526,0.4346165311374116,0.7366860524028345,-0.9505733435192566,2.551437365891088,-1.0854929240303894
93,0.9807105564772272,2.64484354959029,0,0,0.0071846551519621285,0.3980373837524526,0.7088533391435274,-1.2417285023887563,3.040658342899335,-1.4091305133352574
94,0.9794351492840989,2.7961405580409986,0,0,-0.1771183418824381,0.3577584386348327,0.8514990156937955,-1.4422038404040656,3.1213830768656137,-1.8223770712560428
95,0.9847450637987349,2.812442532243416,0,0,-0.3237822627088046,0.3185636761364826,0.9600203038128716,-1.4878365674496856,3.0055573992431985,-2.0741347830507535
96,0.9955669621125388,2.6970305846859612,0,0,-0.33958841015670777,0.28313823390291765,0.9499031466924496,-0.9951362324191867,2.2063953707798825,-1.7644528194042928
97,1.0101825074231376,2.466535727242086,0,0,-0.35530818307579837,0.26432498105985663,0.9538543405660512,-0.5630901235690846,1.3103593770014115,-1.3629593629250973
98,1.0264961150194558,2.1474619114519102,0,0,-0.37075229324243203,0.29852923134735987,1.002704423161322,-0.32462088473946016,0.10515186834108382,-0.668451181278865
99,1.0422837334994612,1.771962385313464,0,0,-0.3636652522083966,0.3316779086626246,1.0272498890537651,-0.04553260235948934,-0.779323521891207,-0.14740415849214902
100,1.0553814908941572,1.3736949253432045,0,0,-0.28924443748062767,0.36167203298508394,0.9791616246466461,0.3549446614839678,-0.7052991154855213,-0.14474140693127927
101,1.0637994902028154,0.9844293150167789,0,0,-0.2271782940233563,0.39090907161218846,0.927717179045626,0.6220099702394857,-0.5988558616047879,-0.08899609811762908
102,1.0657742096727087,0.6317672780110453,0,0,-0.20209487951661154,0.4178798343521306,0.8662262708045401,0.48971716666284604,-0.3953693567651367,0.12564763887164626
103,1.0597957526398658,0.33799843521214173,0,0,-0.17007824175798308,0.44281998790977245,0.8229221159552113,0.34681299566409557,-0.1521749537387283,0.28244736935433357
104,1.0446549927918172,0.1198661953925445,0,0,-0.11674015418864064,0.4615154944695227,0.8355469187601487,0.171276132814248,0.21313147821273512,0.2613618599169376
105,1.0195456945822252,-0.01110914418134478,0,0,-0.07396616503779846,0.4816347792842719,0.8464201781964058,0.03862366600185648,0.48420861970933815,0.23352412835816197
106,0.984230788856006,-0.048122690214827415,0,0,-0.06767651576666914,0.5066712473557776,0.8512442793113968,0.054077437466663436,0.4298539718314766,0.18236681447396563
107,0.9392493069335865,0.011297101884471073,0,0,-0.05436444619467885,0.5239466108974689,0.8490518494068494,0.06847539003159835,0.33650446033298886,0.16023420673033628
108,0.886112223744174,0.16536215141711108,0,0,-0.016933149348728128,0.5145656599447671,0.8227604195728481,0.0792470236188676,0.10922306525475299,0.23778994772858156
109,0.8274206031173693,0.40777716509035744,0,0,0.004044670712633225,0.5030057736325018,0.7916865615773698,0.06399382000365057,-0.09841472593546036,0.2835355883628337
110,0.7668423306187221,0.7273292801247011,0,0,-0.024978101645320352,0.48482430450120695,0.7460793471756572,-0.030346454145152007,-0.24635742411785877,0.23261327949270696
111,0.7089041119391412,1.1075995175173272,0,0,-0.06312125156680945,0.45092050013802676,0.6815925008970868,-0.1187992890447264,-0.415471929276343,0.25356548398917655
112,0.6585898590854551,1.5271249442785166,0,0,-0.12718897106964416,0.37232613668660086,0.5634405156189474,-0.19051714528474206,-0.6447670555279699,0.4788201747140338
113,0.620779302878052,1.9602860625597365,0,0,-0.18619291757690037,0.2955527621685422,0.45549063055875866,-0.334423507596085,-0.904601553386698,0.7923217197093565
114,0.5996031363550466,2.3790436819368317,0,0,-0.21673563914650829,0.22901435981191076,0.40488223165781545,-0.884069485605609,-1.3360843311985529,1.6018197423557599
115,0.5978224815420649,2.755429606601452,0,0,-0.22566543679232567,0.1693552325707111,0.36778986552096654,-1.364370393124039,-1.782292654091845,2.29760312951268
116,0.6163515953479911,3.0644614452046133,0,0,-0.12000891353840512,0.14616830320534915,0.40235612733113757,-1.477021063949467,-2.3065721321808037,2.3904999337532002
117,0.6540293403677555,3.2869807148858543,0,0,-0.008232295556384623,0.12661043754453707,0.44559945645044036,-1.6300330746281213,-2.734881312912607,2.4578196781415276
118,0.7077083762978658,3.411870298884414,0,0,0.1348798943670325,0.12563378538548706,0.5332703441265126,-1.9896996756050183,-2.671811799248612,2.3941820052585343
119,0.7726760209032599,3.4372092352931682,0,0,0.2804038288475466,0.13985878045763464,0.6463042107606026,-2.2391099368347396,-2.5294654789608146,2.20600392673962
120,0.8433552600176598,3.3701357341961375,0,0,0.4318736163471422,0.1915615243304131,0.8218673113578587,-2.216697063801226,-2.1916721652784865,1.7107871458573052
121,0.9141712889979791,3.2254545250983724,0,0,0.5312672984111928,0.21668119638390995,0.9605866595009822,-2.1817736956609926,-1.664690952043836,1.1846277556588163
122,0.980425111223545,3.0232790146253254,0,0,0.5046024906179639,0.1774523180547585,1.0101198493719263,-2.1165666855527157,-0.6797503562426804,0.5835668595725744
123,1.0390058021528321,2.786179917711469,0,0,0.4622553177917105,0.140343046676794,1.0807661939880753,-2.0168280324562287,0.26810494382905803,0.04179068713254713
124,1.0888009623137254,2.536368704402885,0,0,0.3767657023756405,0.10906484867405,1.209495172477797,-1.822092264956801,1.1139379890582715,-0.33689224133733303
125,1.1307212262008455,2.2933606351545794,0,0,0.308684013917152,0.09183309403475307,1.274601910738649,-1.6098359523950079,1.680639591228094,-0.6509471442847471
126,1.1673247434680962,2.07237853343984,0,0,0.282848607495464,0.10868983286617874,1.1853075480556794,-1.3550600529933,1.5699333866765506,-0.8081600633434827
127,1.2021003650484952,1.883558688856404,0,0,0.2564208677209646,0.11982214444160912,1.106274437269318,-1.0662034673519698,1.3120473527412246,-0.998194614606186
128,1.2385356819152014,1.7318823827199328,0,0,0.22737495462213625,0.10565190861265629,1.0725970976250068,-0.6267068018233773,0.4036115880792238,-1.3333040995856829
129,1.2791465899068561,1.6177035140980673,0,0,0.18895830628568766,0.10026951590503634,1.0445734561704654,-0.2729283822738599,-0.3856992330941509,-1.5313912958556086
130,1.3246651897568922,1.537740845342541,0,0,0.11174251883817182,0.1312728217043781,1.0399587166051418,-0.27406279031370323,-0.6817781873855124,-1.1621434116835438
131,1.3735645732108779,1.4864043503736726,0,0,0.09072433181545171,0.12497407208199734,1.063561301795124,-0.3561581935371035,-0.8101042293861982,-0.9886938361973059
132,1.4220431409070449,1.4573048612788717,0,0,0.19110856184499989,0.038092527841621884,1.1481211415409345,-0.6131518210486994,-0.576037413804654,-1.2382229596326937
133,1.464504606466094,1.4447577961063165,0,0,0.22417077305166772,-0.09580984398688869,1.3222228915685865,-0.8584461805549005,-0.6134468807855551,-1.35604715451105
134,1.4944649886137764,1.4450527820895485,0,0,0.11317585857534367,-0.33032840926918405,1.6879283761381756,-1.0787061909592688,-1.2317672241907112,-1.1920462678194892
135,1.505715002673951,1.457248550121203,0,0,0.08996547954476557,-0.4797356103233596,1.8984036808402394,-0.9452223721069105,-1.632175926696091,-0.9303485886648706
136,1.4934952518214863,1.4832977496628994,0,0,0.26088638798480324,-0.44092311313593474,1.7655948912131243,-0.029451051706483627,-1.5506834909328902,-0.45259914276497093
137,1.45543283019365,1.5274242531204776,0,0,0.4315274580410133,-0.40113546877089384,1.5832208312857585,0.7723477233081705,-1.3559723788509204,-0.0839182035129085
138,1.3920518623258824,1.5948430816620294,0,0,0.6011756503748845,-0.3578879634124714,1.2249872198212794,1.1697673716143402,-0.7595568975113567,-0.10221666636478939
139,1.306784230696773,1.690074580925675,0,0,0.7036933674960584,-0.33173484143089527,0.9456204248719197,1.3924398754814329,-0.28664697770773506,-0.25175561461677265
140,1.2055253839821454,1.8152062638904403,0,0,0.6852803423509656,-0.33637602656231486,0.8083265500749164,1.3003179164223115,-0.03622347936046445,-0.6377148965731726
141,1.0958643097470295,1.9684761144841318,0,0,0.628510990949246,-0.3037873094071531,0.7077950842144916,1.1636299519145024,-0.0075704430963979465,-0.9930878289654216
142,0.9861514011075645,2.14349788379493,0,0,0.4988843994496762,-0.2004809768838665,0.6770932370436057,0.9422895588736917,-0.40016691998647924,-1.2903624713024546
143,0.8845607047141649,2.329338922427283,0,0,0.38721590384716803,-0.11368927187415545,0.6619880796526514,0.7385540847567953,-0.8756866271000544,-1.546649720119343
144,0.7982706696331425,2.5115096160900907,0,0,0.3065437458340393,-0.05540242464602011,0.673803385570654,0.5652053517135219,-1.4943348959911515,-1.7321912120507796
145,0.7328443464049885,2.673748366376986,0,0,0.24428339445150637,-0.013005088541086,0.6733510119261518,0.5135722393782463,-2.049379563972728,-1.8820806834648571
146,0.6918456364090172,2.8003158855284944,0,0,0.21513452682248074,0.0008168177295768122,0.6508366496185412,0.6808304531092538,-2.490040583038206,-1.9678541599531858
147,0.6766900112141375,2.8783868249947546,0,0,0.18418895824119932,0.0344712408126474,0.6560794689170781,0.795278459185561,-2.768943909811831,-1.9935416267370283
148,0.6867011973264158,2.9000837645073063,0,0,0.1501871163325146,0.10186171333284645,0.7085385674079011,0.8198938034229343,-2.772689748727953,-1.9170199481539991
149,0.7193309194855544,2.863758107499713,0,0,0.1661681810346214,0.17216768139886393,0.7257699120083779,0.9915360347336949,-2.6486227148609642,-1.7368687990555634
150,0.7704952917223041,2.7742744293093535,0,0,0.26386973266684177,0.24724039348237703,0.6854049823152207,1.403562621975331,-2.3155856367425987,-1.3872867109312534
151,0.8349863288005464,2.6422619395996017,0,0,0.34839624579299194,0.30099940471675657,0.6598842789528079,1.5090313904928985,-1.7179482712534695,-1.1942752702584996
152,0.9069265296489628,2.482507553841429,0,0,0.4117486148523211,0.3205042940437291,0.6582203399595469,1.121818526463097,-0.6950609394545869,-1.252894932682041
153,0.980242471740535,2.311826888657351,0,0,0.4932948998194251,0.36359854816054554,0.7100310441623999,1.0010092678238915,-0.027115930612970865,-1.355199040401498
154,1.0491338387227878,2.1468168382861106,0,0,0.6018199053477694,0.4416721263606615,0.8411362478678845,1.2752347264369728,0.1145053447915029,-1.522280321352125
155,1.1085064709863766,2.001845724470067,0,0,0.6848094941738622,0.49135737279424024,0.8959534305512123,1.4794765854929552,0.0758358489524607,-1.610597810106086
156,1.1543291127595632,1.887504011334378,0,0,0.7285912427201047,0.49745432825196784,0.8336357115861275,1.576263538945034,-0.23965747091473572,-1.5779790242210914
157,1.1838746613360045,1.8095969723072427,0,0,0.737543815823575,0.49720345204983707,0.8133838903617415,1.256688691700449,-0.23238343874403727,-1.4879407581356707
158,1.1958233019915019,1.7686840560244885,0,0,0.6947446537032983,0.4875205034793642,0.8556366554260224,0.3184530408907382,0.2544819225116978,-1.3125844304469774
159,1.1902311623264377,1.7601728734100923,0,0,0.6356399281657893,0.44501501707920493,0.8747954015533357,-0.11402294643725029,0.3836027222740179,-1.181164510936104
160,1.1683924649040303,1.7750072523690683,0,0,0.5511913288080109,0.35149318527699175,0.8580589207360605,0.23960754467750892,-0.043321844692442664,-1.118035318281869
161,1.1326370519741298,1.8009748529333773,0,0,0.503266315843942,0.3482514916974163,0.8404684443588558,0.7393852045744942,-0.18259544132582342,-1.2360492628852084
162,1.0861053962948837,1.8245605452499019,0,0,0.5100533472406281,0.48024873341668295,0.8215986893244456,1.458090172280961,0.10902984748940651,-1.6254141992792521
163,1.0325302894694912,1.833110199118987,0,0,0.5017365753152256,0.560910928459414,0.7744473658116422,1.8233281929602634,0.45891728426392475,-1.8150461827135012
164,0.976033474950642,1.8169208021392707,0,0,0.470276925277228,0.5629147417154866,0.6839614676774076,1.64696471781516,0.8980771883796914,-1.6986363509277915
165,0.9209265341912848,1.7708225268743456,0,0,0.4267710018770433,0.5882189297111285,0.6005049105325962,1.4288079734897179,1.1504069498947722,-1.552528026786257
166,0.8714971278093555,1.6949105661287478,0,0,0.3494602498094675,0.6789097444659558,0.536774427040959,1.0933689579756294,0.8784450207734985,-1.3230783726914308
167,0.8317657006668202,1.5942930150609371,0,0,0.29432893050812403,0.6902073972182918,0.4787718708455905,0.6477585602394739,0.7832898042734825,-0.9574563559692474
168,0.805209891112976,1.4779670081780156,0,0,0.2681812631435026,0.5977556079587757,0.42825445878459595,0.05817834012925397,0.9191821656219196,-0.41388694070938326
169,0.7944698108410714,1.3571317528470934,0,0,0.26097713689986884,0.5560780210117343,0.4241964562945626,-0.38593245852930264,0.9029035012365083,0.02394747648467171
170,0.8010630168098742,1.2433363428289743,0,0,0.27765032311306,0.5783985791642821,0.478698035236557,-0.6466868927821204,0.6948214614886556,0.32850862812004994
171,0.8251482051673668,1.1468333166697045,0,0,0.2783179868523669,0.5966231368416335,0.5139451787325122,-0.7731725214008496,0.5279084031202971,0.4116392997942805
172,0.8653783713028874,1.0754028798894764,0,0,0.2549505533936189,0.6086968318505155,0.5202784126482614,-0.6980300053020542,0.42281778640914064,0.16225329656555398
173,0.9188797875290474,1.0337820265545332,0,0,0.2427796503683273,0.6015784383556635,0.5215106994122765,-0.7411881620436068,0.32994968992356066,-0.07284941463111166
174,0.9813864315487187,1.0237140655780383,0,0,0.24466585923984113,0.5703646041138963,0.5163388071926525,-0.9328714181869379,0.25242682341730527,-0.29001962115209035
175,1.0475487202899818,1.044535326206034,0,0,0.2794420824262427,0.6106584630772823,0.6139709767976727,-1.0142176840313322,0.1342775805861949,-0.4781558915230872
176,1.1114137260811991,1.0941349786787693,0,0,0.35656840548584184,0.7430276224078939,0.8439765240300974,-0.9534909637117024,-0.03618331775941503,-0.6289072561701974
177,1.1670387337468628,1.1700665043742196,0,0,0.4159172756590847,0.8163480041473904,0.935373729607784,-0.9381055470737633,-0.27554288973950836,-0.7435441638578609
178,1.2091609671199721,1.2705636838126215,0,0,0.45239567630912175,0.8137028760167793,0.8484530463962652,-0.9810511475664645,-0.6035397396463358,-0.8117202769238218
179,1.2338222109591044,1.395218843421064,0,0,0.4504264340519942,0.8230874329095081,0.862630913471682,-1.369425876630358,-0.5759069325334263,-1.0313364284885327
180,1.2388493602184456,1.5451113589709733,0,0,0.4020226854028821,0.8470006434171965,0.9989088866798541,-2.17498693665728,-0.11876827451736517,-1.4338517880138493
181,1.2241158060884767,1.7222404002690879,0,0,0.38264190580565227,0.853715811891944,1.0121040573622377,-2.192128274223481,0.18596998175366147,-1.5327605201425962
182,1.1915425919453961,1.9282481257353479,0,0,0.39956907742294095,0.8389161012544182,0.8713217223517409,-1.2229506477819092,0.3000541956193046,-1.2518550924720468
183,1.1448375035232985,2.162635090542792,0,0,0.41300574084852304,0.7521096548868481,0.7370265711305405,-0.764193454853201,0.30749649572114557,-0.8098649049538604
184,1.0890136746990817,2.420918294437346,0,0,0.42242142937111926,0.5823533166083047,0.6102044873755026,-0.8934273624761917,0.1920900771551884,-0.18230925217196625
185,1.029769139953379,2.6933392589543685,0,0,0.43078945373080907,0.475139223192751,0.5979889947149674,-1.4847096655299272,0.12326094363172745,-0.12344508765697662
186,0.9728304178709941,2.964673894521834,0,0,0.4379358044252488,0.4408551934961889,0.7194154272435823,-2.6147832948145426,0.10874524856134407,-0.7277279952708197
187,0.9233570244800907,3.2154119285240017,0,0,0.3953641139822483,0.4066266165907088,0.7704423772624336,-3.3265284860561986,-0.2161962569439803,-1.033624483729305
188,0.8854753875131651,3.4241744776927936,0,0,0.29897636832403474,0.37245806311971397,0.7452671611895748,-3.5854644813839642,-0.8771504487372491,-1.0165400261536417
189,0.861977654975815,3.5708908364402894,0,0,0.2017942006350613,0.25079458168763485,0.7296812110540347,-3.752405660734164,-1.389049311816673,-0.959712873421195
190,0.8541980949782827,3.640075478754935,0,0,0.1037681885752485,0.036192964632201424,0.7242810913315136,-3.821628870789372,-1.7426198617217317,-0.8606705651523996
191,0.8620670669374462,3.6235506801490187,0,0,0.09065244300109751,-0.001326278878077414,0.7689373796219089,-3.810660320351779,-1.8165724507444434,-0.34297744687079745
192,0.8843287777195241,3.5220999336099172,0,0,0.16792824255745908,0.1496681877365817,0.8668814060963242,-3.7143233282486765,-1.5928566825127224,0.6203919717448548
193,0.9188861775568324,3.345753970485824,0,0,0.11841110814261077,0.10766069291849309,0.974722438493916,-3.3604771725518874,-1.1782687310548952,1.1702210870951208
194,0.9632086483463874,3.1126608459491325,0,0,-0.060988713959137825,-0.13205193178814822,1.0927016520116573,-2.742846740996728,-0.5681573274171356,1.2964325419599834
195,1.0147190163290438,2.846737907732449,0,0,-0.06948220662779084,-0.1496050839661636,1.157034629154339,-2.371150660294909,-0.08958317041110891,1.3324693645835466
196,1.0710782418506313,2.5745097556445358,0,0,0.08589579157000174,0.04585671826031481,1.169929553962446,-2.2352657913095353,0.26286807086982816,1.2820433191301577
197,1.1303123228188798,2.32167209674178,0,0,0.1626500234740154,0.12001541546118423,1.1615539170622362,-1.4938893010971328,0.22899456216032157,1.0451840482123913
198,1.1907696787983897,2.109974418962868,0,0,0.16190562198880995,0.07460689636277336,1.132212107399655,-0.15568597916428928,-0.1856752582723338,0.6245594742110777
199,1.250944918393249,1.9549804894974698,0,0,0.17086338606641513,0.040697340321828826,1.1312762270203418,0.35708323489074717,-0.21946633446909716,0.4685536376142515
200,1.3092413226512742,1.865121537953332,0,0,0.18822711351306112,0.016750494318890852,1.1549512646338091,0.15469573166877573,0.07673621306340313,0.5418136694447988
201,1.3637583506275675,1.8421686592753697,0,0,0.11713645096790411,0.0026176711374057337,1.2425312881385606,1.6948995887042222,-0.25125914010077294,0.8007844352938064
202,1.412178334341613,1.8828381956375204,0,0,-0.037385827820174945,-0.0022584063717868046,1.3903875313951966,4.878743898329882,-1.1680080843758602,1.2349205791957665
203,1.4517936122308326,1.9808421792477031,0,0,0.16191220554841598,-0.014703486720106995,1.4456504405073067,4.561591821276332,-1.2110109551348094,1.3372333893343462
204,1.4796743425721288,2.1285354903391616,0,0,0.6664170373079358,-0.03367761880505867,1.4210419739645375,1.2244664367450795,-0.5003170127316469,1.1533140815031637
205,1.4929431250263048,2.3175623602296587,0,0,0.8049833205738798,-0.13062835346311252,1.3591802445790333,0.22565361520388785,-0.022993419355089112,0.9466294451802837
206,1.4891061236348215,2.538476060257123,0,0,0.6227227529319865,-0.29594299245240374,1.2646577116337292,1.2768938942331658,0.24972895269804998,0.7199859146577381
207,1.4663933905819844,2.7798501396686404,0,0,0.5300761974256963,-0.310149891970173,1.2355078600086538,1.8291193658808789,0.6029972628463078,0.582323359381768
208,1.4240748983300209,3.0276048211553164,0,0,0.512344854010803,-0.19803426560156726,1.2610080365864875,1.964180163873345,1.0236000884658425,0.5190468121473126
209,1.3627288849249235,3.265108024679775,0,0,0.5289567805885035,-0.02472810329889544,1.2592333317339033,2.4652868210597565,1.377254746473463,0.49583439633372406
210,1.2844359282328044,3.4742603693599587,0,0,0.574671734026807,0.20043188105647725,1.2343454636018643,3.276586493489949,1.674176474835832,0.5065729552857785
211,1.1928594547305058,3.637420765514898,0,0,0.5622019284590732,0.2345413784388464,1.1829189581703783,3.651176278610094,1.988096043636381,0.40362346307174285
212,1.0931649636495326,3.73977163252846,0,0,0.5035124142271159,0.11688780227516989,1.1104111919788653,3.6788607197289673,2.3155180346482784,0.21036460667976103
213,0.9917388837080235,3.7716047279062503,0,0,0.4131182336715515,0.08257688862936549,0.9973263822036823,3.4789177820897734,2.468233458057646,-0.2355463523466007
214,0.8956971697286104,3.730040019098893,0,0,0.2974474421593465,0.11471108546202294,0.851891440307052,3.09749844481841,2.481663708244072,-0.8828847239968048
215,0.8122165157589175,3.619837972855558,0,0,0.22324550350661104,0.12146137728808865,0.7338545279404599,2.65819543477771,2.465178578977706,-0.9046135415171971
216,0.7477641857788896,3.4531656300487996,0,0,0.17988956532586392,0.10933022209238796,0.6361972395342425,2.175836499395054,2.4264413315641726,-0.4609918286412104
217,0.7073329339889937,3.2483639036987806,0,0,0.13059229466153788,0.055349562211806626,0.5769566626727424,1.909212569675438,2.5648481302301,-0.1108155092756058
218,0.6937975343701172,3.027895403242375,0,0,0.07673874419948551,-0.03072458026382065,0.547177033250125,1.8080311624946843,2.839102877347477,0.1676995536619051
219,0.7074976267703718,2.815720721057911,0,0,0.06514430257913385,-0.07516705378708136,0.5807408287305644,1.4874583986413863,2.8424734767571613,-0.06896897196528569
220,0.7461209540804429,2.63438530822124,0,0,0.08600636839755718,-0.0876349161536643,0.6629546406906417,0.998385223988635,2.637795359662793,-0.701316924653298
221,0.8049174086079085,2.5021441107346023,0,0,0.03120009594160487,0.09743974461902602,0.7179671931317874,0.5072508363976518,1.5279022414052452,-0.9490989364396238
222,0.8772253861167326,2.4305231012052286,0,0,-0.07665647814163697,0.4210094571835188,0.753909219246406,0.014671354700976823,-0.21662789747483194,-0.927265680711013
223,0.9552458922493479,2.422766281566633,0,0,-0.17710782895946647,0.646627441131259,0.7440674341227667,0.6766833489788951,-0.2727800705791352,-0.3572192815359834
224,1.030963227147136,2.473547046905307,0,0,-0.2723582810274795,0.8034511423617375,0.7020703772272334,2.149597749399262,0.8568635840311216,0.597852788060156
225,1.0970886531872288,2.57007188920651,0,0,-0.30795834539931577,0.9913449063962096,0.5695828158376056,3.1077833689509426,1.2157001956311801,0.7532399770473835
226,1.1478983931617042,2.694332029471325,0,0,-0.3024519390430288,1.200649774293348,0.3747361410339115,3.7112574045510613,1.0433557305659038,0.3575456989048466
227,1.1798503353975216,2.825941187226191,0,0,-0.29620197418358696,1.2572763524001498,0.3473759746084456,3.8196721974566787,0.8190238990403372,0.39388556355539583
228,1.1918933737714956,2.9449064951383344,0,0,-0.2894724404991557,1.215430857735886,0.4280386558922924,3.6087913665305487,0.56116206283787,0.7088721017924059
229,1.1854268020721814,3.033853238811936,0,0,-0.20169007936631717,1.0804507984177134,0.5393754469360829,1.6887852920905633,0.07537810341705,0.5881849337858278
230,1.1639199607528412,3.0795486856241014,0,0,-0.06264523129697946,0.8865670641235321,0.6701123156867091,-1.3121702473664052,-0.5545569637668777,0.1919525642364141
231,1.1322551157882865,3.0738511346198587,0,0,-0.07066670847455338,0.6592770124954598,0.865840751941112,-3.1303080397746705,-0.8741143113619716,-0.5155524122817432
232,1.0958972536814846,3.014286062183678,0,0,-0.17392011253100478,0.4103548987420505,1.1036540918682205,-4.182519208793699,-0.9926884061664396,-1.4246201179636848
233,1.060016100226601,2.9043175869748836,0,0,-0.22212879759690712,0.26963934460068106,0.984058233507043,-2.6976948927128404,-0.1304267939980651,-1.3793582910538533
234,1.0286918000657217,2.753210732087313,0,0,-0.235516945052471,0.19737378253399668,0.6383701966497787,0.3920234286013145,1.3522980933134638,-0.7304006329785665
235,1.0043329263763396,2.575336307789985,0,0,-0.19492646253100684,0.2595621802899852,0.5439402358211018,2.278292646802178,1.7988912254604579,0.37038358457817033
236,0.9874183549133255,2.3888439720135612,0,0,-0.11933070629097456,0.4089443001700653,0.6124517521145434,3.3841221790867393,1.5735503791032681,1.7641784335435673
237,0.9766260089930631,2.213707879945976,0,0,-0.14796838083241912,0.7738803879146752,0.44795754406276833,2.652884295037859,0.951044755624597,1.7476295486033844
238,0.9693259136058316,2.0692269317973278,0,0,-0.24147345822289884,1.2729617877278416,0.13845730402973838,0.7783875612546659,0.0813722927369385,0.8533839936085439
239,0.9623166770360977,1.9712275316558483,0,0,-0.27178355295595696,1.2922597474641946,0.16326023190497352,0.31771300315460327,-0.20158415400367075,0.27982115109242817
240,0.9526176415776905,1.9294522091569029,0,0,-0.2637307601262034,1.0203023354577674,0.3910038728409219,0.7153075493213508,-0.12837117696635073,-0.09906935629782236
241,0.9381272548899606,1.9457435920761912,0,0,-0.2864372599330424,0.8407837919477508,0.4669855590229117,1.356746290397193,0.11848993232378678,-0.05666553104526097
242,0.9180201360562268,2.0135037994362053,0,0,-0.3272959608870741,0.7158168590200061,0.4534068779982021,2.1420865474019144,0.4678272543688736,0.23435972966030671
243,0.8928456268145278,2.1185719704289077,0,0,-0.31607904235705436,0.6616155342326905,0.4301171557638678,2.434353580230806,0.5730440796195405,0.4954452565868114
244,0.8643680469709221,2.241300980126427,0,0,-0.2752667920493777,0.647631333545167,0.40130850760310516,2.446399930046376,0.5395236768172611,0.7395155974568648
245,0.8352324137653704,2.359386327539429,0,0,-0.23153218266447925,0.6556833912193993,0.28667546900082536,2.3281297386090007,0.6433940211728779,0.8188886689800443
246,0.8085505878949948,2.4509482251597814,0,0,-0.18587945032408953,0.6781991922020453,0.11571063688643389,2.124324835560764,0.8374423108524323,0.7901608558830047
247,0.787491989726962,2.4974369029368337,0,0,-0.17627179319125325,0.6913242065809,0.051470521027202246,2.203795544860489,0.8267606221877274,0.8319644684411652
248,0.7749389438611323,2.486035519037623,0,0,-0.18707842420184687,0.699130707343661,0.04767442133305638,2.443700653204238,0.7001292025949236,0.9137138666616966
249,0.7732354342171497,2.41131802823786,0,0,-0.2065176732353782,0.7629173748790646,-0.0001962604385369754,2.459489197219612,0.8348056573052518,1.0902941130183865
250,0.7840257429236703,2.2759757338472966,0,0,-0.23071433758807758,0.8575545795592964,-0.07235633986493605,2.3517676341525133,1.1134882618215576,1.3191354148803596
251,0.8081539533788957,2.090488973138857,0,0,-0.2171070307896858,0.9016488638107141,-0.15838149025524326,2.129938814696999,0.9214440190865846,1.1400520710956914
252,0.8455851624361282,1.8717269092500142,0,0,-0.18376377987487766,0.9193567069478918,-0.25164504047756175,1.8485391525353037,0.48365208195502596,0.748007555186668
253,0.8953202156708903,1.6406185271251883,0,0,-0.12958555511808711,0.843680675445741,-0.2729428638191992,1.3287987120216296,0.35316990832706413,0.3148754825293137
254,0.9553058268989509,1.4192201163270965,0,0,-0.06440527601289447,0.7186926327148537,-0.2562386793652663,0.6832007486352786,0.38496481483866996,-0.13995316319871653
255,1.022378128465131,1.227647719234236,0,0,-0.06771578465247031,0.8464765761041505,-0.10006354113769245,0.4603347013711219,0.33431855153012463,-0.05162558080659788
256,1.0922999445639543,1.0813880730252527,0,0,-0.10360291612084385,1.0944877491257707,0.12244887867550887,0.43853479185519606,0.24446037391571881,0.29504616975543646
257,1.1599458813085395,0.9894241704331364,0,0,-0.08260300959635286,1.1456925378133396,0.1719214456101006,0.5238921564283757,0.2047501851250372,0.4151916378902356
258,1.2196584130405606,0.9534361830935526,0,0,-0.034111430070663175,1.101787140626596,0.1377694257408823,0.6610351798241173,0.18927490390823742,0.4258642508080664
259,1.2657607397567776,0.968123744002481,0,0,-0.09748750857858214,1.1521056180346994,0.042958707881725296,0.8298884344147207,0.16237235665144015,0.6247705343719502
260,1.29318162561335,1.0225025662866398,0,0,-0.21400998485621667,1.2471882355584125,-0.08066991274069331,1.0138066737388514,0.13004091209709137,0.913103393137786
261,1.2981219046831078,1.1018969871267716,0,0,-0.19541486759196033,1.3687120817958112,-0.2000788332466538,0.7136897536655895,0.43133644803320603,0.5759129786600486
262,1.2786670712608366,1.1902925114386778,0,0,-0.10969122601319233,1.503372341884561,-0.3173913407515046,0.173096630300309,0.8983830620048896,-0.07204713706215285
263,1.2352328080217347,1.2727124276128219,0,0,-0.0924921066072063,1.4748849893548759,-0.13384538175033023,-0.15954487969529435,1.473817809673544,-0.08463706166630226
264,1.170737668770467,1.3373037445894342,0,0,-0.10698810065341759,1.3709358615740186,0.18885869067655428,-0.3960011151449431,2.099386058247688,0.19665511101515112
265,1.090440821734731,1.376838932452954,0,0,0.030120069735857943,1.0442984616358568,0.12526268364864185,-0.5229217803421429,2.069925165407267,0.3240058550354158
266,1.0014556050098993,1.3893881638776664,0,0,0.2359873365735136,0.6166622239027998,-0.11353724638805673,-0.6001632905237941,1.743380007465011,0.3815374518245133
267,0.9120246331370168,1.3780412607451025,0,0,0.3114226236497726,0.6393920489178885,-0.05584354468664315,-0.5099344971830614,1.0960330102908313,0.4529656251373016
268,0.8306848378158176,1.349763275093784,0,0,0.3277714393562563,0.8661404094739381,0.13616355573965921,-0.343840648893886,0.30336084975789684,0.5306890312583503
269,0.7654428425799396,1.3136831766257862,0,0,0.1978750392472858,0.8154120271677698,0.1346839766113076,-0.3197252715709313,-0.381665152013312,0.15970808611091644
270,0.7230379488900307,1.2792430104908774,0,0,0.0014031570459928045,0.6383673901899227,0.04512309582828292,-0.3602430181324167,-1.0176871923558475,-0.41553737692897386
271,0.7083280203889734,1.2546185014368383,0,0,-0.11494751219237907,0.6909509313497884,0.142995920505675,-0.2770354455247696,-1.0123408005440533,-0.6166982989475304
272,0.7238152053831677,1.24568589995575,0,0,-0.19513935852104822,0.8471660109147507,0.3254578551727467,-0.1379904524377465,-0.7175438808338928,-0.6490343104375171
273,0.7693296583020245,1.2556349971456382,0,0,-0.1673390252692621,0.7248299031029212,0.0004081692036459548,0.3732080962175121,-0.8033916191108486,-0.3566054594800487
274,0.8418994405149522,1.2851826265734905,0,0,-0.0959465422881569,0.49005375459016004,-0.5295037821821755,1.034630240503996,-1.0428904735066133,0.06691805560616731
275,0.9358495499653837,1.333238012307254,0,0,-0.07426216851711692,0.37626235412201414,-0.60874088091351,1.2596874276700583,-0.6829255169216084,-0.31303759420249294
276,1.0431841496012586,1.397798381454584,0,0,-0.07236037229840726,0.31061984120715114,-0.5086207205335455,1.3110823343242302,-0.08438903711839056,-1.0127577481093288
277,1.1542938249691084,1.4768144489255102,0,0,-0.4387638236892218,0.5148271774331993,-0.578759460233261,1.4083284241673124,0.5621036462620657,-1.3486646831327525
278,1.258976812700741,1.5687799881528603,0,0,-0.9445023259627359,0.8211225038677241,-0.7133095346574027,1.5229206608360961,1.2267388340843315,-1.5469359633633883
279,1.3476736010407684,1.672880676445483,0,0,-0.8733394221283302,1.2392679680491627,-0.5906531317850595,0.4111252191481742,0.45006804998994954,-1.087612246416264
280,1.4127207482120976,1.78868013176882,0,0,-0.5853841113795509,1.6994453293955765,-0.3713417187208342,-1.1615315305313336,-0.8682276763279546,-0.38117246994206583
281,1.4493796777270591,1.915488010301476,0,0,-0.5039097167935913,1.678630238437086,-0.37634322649912,-1.157044548910861,-0.5508027184139654,-0.5043563441606237
282,1.456420897631897,2.0516726289459775,0,0,-0.4975060686599837,1.4829396036683336,-0.462898704250307,-0.5791517553936144,0.36132501080411966,-0.9291684174145574
283,1.4361375390047075,2.1941823482839373,0,0,-0.382098544805423,1.3906535655665815,-0.3244092120981163,-0.3341507189245349,1.6710781541203223,-1.0838094038187371
284,1.3937886750535438,2.338418532684737,0,0,-0.22477475221501705,1.3381306535054018,-0.09938109581723173,-0.2171596290464909,3.133733876922836,-1.1345590030837813
285,1.3365908990328905,2.4784203317103732,0,0,-0.01825499445268799,1.2332749724842433,-0.010680854821192064,-0.3178775603677442,3.316737095419471,-0.8000462588923141
286,1.272457586432306,2.6071859510628244,0,0,0.2066314203315388,1.1088815506110625,0.02712319338483812,-0.49987424918398443,3.0219991298237954,-0.32170096052714225
287,1.2087200782135588,2.7169645387895627,0,0,0.3195017525433879,0.9030665954849562,0.062432001396994306,-0.7453200937789659,1.8999353918366453,0.2786452274175651
288,1.1510578673238474,2.799511151525672,0,0,0.3938119483805356,0.6692232958010425,0.09688185409069565,-1.0126075165716908,0.4930751012736814,0.9209886952335619
289,1.1028220233359292,2.8464833397191667,0,0,0.3481635789899236,0.7376255717974658,0.04484064467007547,-0.9032633451892427,-0.5546650969826225,1.4639603397863328
290,1.0648607892891047,2.850208531539694,0,0,0.26192939687836975,0.9082871763129058,-0.036463252598989145,-0.666492680192431,-1.4809035018237395,1.9733113237298145
291,1.0358543644875977,2.8048915687335434,0,0,0.16779999244751032,1.0844987889078785,-0.1309287943480725,-0.6167375093136009,-2.78295009085307,2.1094629405460585
292,1.0130551776627934,2.708037935339433,0,0,0.07109580168312031,1.2625203678006385,-0.22968660554734796,-0.6279717432702321,-4.20755507005035,2.1239069556331556
293,0.9932403556223409,2.5616230522718793,0,0,0.02188556768031623,1.286414448453445,-0.23489471946808832,-0.2762164257714925,-3.420250161999515,1.6671945365954643
294,0.9736437109856697,2.372516017612467,0,0,-0.012555262805125783,1.2623788266140379,-0.21101127470724806,0.1884193409544497,-1.9450979578421408,1.0639645394977992
295,0.9526585151062893,2.1519145137442806,0,0,-0.06699814855400847,1.0854755775325162,-0.23143281043910274,0.20546344652011744,-0.07266635349736277,0.2871003701910659
296,0.9301801731631635,1.9139310897784618,0,0,-0.12787259521569955,0.8594185068434134,-0.2661003912411548,0.07858669020920359,1.9275084566358462,-0.5455949994798038
297,0.9075618785928176,1.6737551358197569,0,0,0.005013356350931858,0.7676397766616092,-0.16838141989026353,-0.017098246542120884,1.6694543401146675,-0.12588688678838905
298,0.8872515716567541,1.4458579610738636,0,0,0.1996150177498739,0.7186307932839694,-0.028495266234247335,-0.10284810187633817,0.6921190755270455,0.6927312755957896
299,0.8722372960843784,1.242567547255103,0,0,0.23997305089050813,0.722046257185595,-0.09890601001246478,0.07698771580492067,0.027448949006263032,0.9567331385611348
300,0.8654405513864155,1.073162425759828,0,0,0.23117747075112946,0.7421680903361858,-0.23633315172679667,0.3414590909579776,-0.5375825638731064,1.0439925622552042
301,0.8691730645696516,0.9434979759479126,0,0,0.09723807668382445,0.7543192488292286,-0.3284726027243339,-0.29489602019454186,-0.23890535893004575,0.7013612609152089
302,0.8847313800380487,0.8560792120407432,0,0,-0.07186725055166752,0.7642306145632732,-0.4078860241434926,-1.1843871270880444,0.302477593680895,0.23792887473764526
303,0.9121634914866124,0.810426089481569,0,0,-0.07708942736830367,0.8382641728237652,-0.2737443739861303,-1.0898741053383876,0.5901304955495774,0.08300504639806547
304,0.9502111065099551,0.8035568633808325,0,0,-0.03753736975185471,0.9298164453543103,-0.08125770895345952,-0.7265230033151179,0.8084622455728059,0.012368311928707151
305,0.9964105891709301,0.8304543777309275,0,0,-0.04953407040191352,1.0239672320618518,-0.13693048092819474,-0.21479392301480654,0.4996576682721136,-0.0474989377742682
306,1.047322679909973,0.8844675792603981,0,0,-0.074844367253035,1.118789141986298,-0.2566958644207181,0.3352570209800191,0.05470858544098155,-0.10458473208831179
307,1.098855028581718,0.957692453507304,0,0,0.05218812868800316,1.014144318585956,-0.37450524774295607,0.7173303341246352,0.4416256610704742,0.09649825015119808
308,1.1466438361106557,1.0414164903354057,0,0,0.21777423141301583,0.8590201657697809,-0.4918196230922318,1.0568933088060628,1.0390642866456965,0.3629163711061817
309,1.1864695513396633,1.1266788619059405,0,0,0.31846961847702865,0.9305429727361215,-0.3732069058308104,0.7027932067133993,0.16738431540828771,0.11297681473044388
310,1.214686571347092,1.2049335714844396,0,0,0.403225567627532,1.0577382300205027,-0.1966422118270033,0.178305100227377,-1.065162760205211,-0.26379831519597435
311,1.228636241960547,1.2687551822378051,0,0,0.4107572790697423,1.3192595615946545,-0.1108697005321048,0.0394553609858375,-1.3594776690016208,-0.05967857012177078
312,1.2269865880296928,1.312504109502639,0,0,0.40045267643711707,1.6118058945634985,-0.04606726191274822,-0.010324324223600925,-1.4370911369730845,0.27860920009464696
313,1.2099210280886423,1.3328520696635053,0,0,0.2494941710443621,1.3775792169215149,0.033380798782259996,-0.1312674071336028,-1.5181457618707044,0.23721135018378317
314,1.1791096874651554,1.3290593101576784,0,0,0.06812102690718563,1.0294444962895795,0.11599579120760267,-0.2675986804352855,-1.5999444937315437,0.11371125690381018
315,1.1374509994910453,1.3029143337546418,0,0,-0.09981042809575646,0.9378608956770697,0.004727695185445859,0.10353818641564602,-1.5048740226555968,-0.16609000426678655
316,1.0886435456989294,1.2583039198756292,0,0,-0.2649827236596862,0.8989392363817363,-0.14633855032614618,0.5788424309612455,-1.3734978220035425,-0.47797501907930423
317,1.0366952342311953,1.200467304523631,0,0,-0.1886018265521106,0.921847651380647,-0.2102450425249022,0.21538207426092032,-0.39181531225755006,-0.3938123933851038
318,0.9854747867392467,1.1350811364186486,0,0,-0.06448846901289797,0.9569740856927258,-0.2569282081695284,-0.3138235481228854,0.757893177532701,-0.2313882132108508
319,0.9383713082500114,1.0673860617559687,0,0,0.3015988622454866,0.8666819891743486,-0.13394783574640803,-0.42953832561958477,0.7518968588663031,-0.1425044249246925
320,0.8980812908871183,1.001565858506804,0,0,0.7179203658530012,0.7503528110778351,0.024254950400222193,-0.45941176221673347,0.5059744289723078,-0.06888773608707477
321,0.866510724631195,0.9405191493965124,0,0,0.5581659531802021,0.652877051224441,0.1031500542468384,-0.6980082323204451,-0.03752896227588287,-0.16948273437427108
322,0.844769394862169,0.8860516187992923,0,0,0.2813969412009666,0.5592308649159502,0.16593589833584899,-0.9790012713557944,-0.6414780628219026,-0.30546423335410083
323,0.8332388093552161,0.839403805912599,0,0,0.14513759709944363,0.721998833569514,0.1683384953390274,-0.5957500755723135,-0.8728909847078732,-0.2656553395536787
324,0.8316997974247298,0.801948557113132,0,0,0.03854029802201308,0.9388966592161497,0.15799399370183434,-0.07227477460521235,-1.0256603151781105,-0.18873652560361043
325,0.8394977463362662,0.7758672538298339,0,0,-0.014873614462811614,1.018071069341468,0.054114724544021844,0.10643910480146594,-0.6616392413866375,-0.33983849469217786
326,0.8557070929989343,0.764649232301551,0,0,-0.05750305937450463,1.0693180795039363,-0.06873142002196136,0.21524264924271178,-0.1928239881729594,-0.5371782628046636
327,0.8792533160495499,0.7733258313560017,0,0,0.11197168353825672,0.7845246402027765,-0.0796493738638069,0.3247426826981598,-0.4235805247661877,0.11196133400049867
328,0.9089750156058325,0.8084048549422665,0,0,0.32363265100904925,0.4328948126125035,-0.0683054955534425,0.4343812433509099,-0.7934776085233058,0.9294604947974885
329,0.943647934107338,0.8774894079652843,0,0,0.14015989360893408,0.692924525440079,-0.27525048498608334,0.027619231317287496,-0.9363184195909842,0.54241961842055
330,0.9820134350715322,0.9885644563440845,0,0,-0.1227710751544361,1.075954048169356,-0.5260916085617564,-0.4829867790134309,-1.0335000419558893,-0.08684456324509379
331,1.0228341407324006,1.148954605335101,0,0,-0.15447016686801088,1.1258967489208587,-0.41052433375013087,-0.7726515306941357,-1.1673390569890734,0.0010644864242419828
332,1.0649554909618062,1.3640184904572177,0,0,-0.14489183214719575,1.1163797983287664,-0.2295491404359405,-1.0228758446077557,-1.3077218189251976,0.21699682484645755
333,1.1073249467515143,1.6357365415437233,0,0,-0.2966859387111717,1.0916256394966002,-0.10054637726429387,-0.4422395726988356,-1.3716806212525703,0.23753739830183992
334,1.1489337406393216,1.9614451684291896,0,0,-0.47466312700559526,1.0643992055600628,0.020023729327075548,0.27320590482028234,-1.4232394452496149,0.2263751698259061
335,1.1886861103290989,2.3330441148904484,0,0,-0.34446759003566224,1.0960912064954724,-0.10772840579738549,0.12610049286526,0.020264105839024858,-0.07661145251012805
336,1.2252401748848643,2.7370040250392025,0,0,-0.1625425768634467,1.1376731799194262,-0.27716359214682856,-0.16579159893638024,1.7147268989779796,-0.4285833412239119
337,1.2568872303454466,3.1553568505754206,0,0,0.03640375128769581,1.0625436075940125,-0.09006324418097718,-1.4827497727724193,3.3834400860371776,-0.6264902085094147
338,1.2815395221794164,3.567543572148013,0,0,0.23829079667437683,0.967250158694119,0.1586345958860991,-2.9768052996218564,5.047704593782982,-0.7977797594008529
339,1.2968791872672052,3.952643538700861,0,0,0.3491039166192471,1.0235524412573116,0.38981811319747467,-2.3470721970947515,4.986652039960468,-0.513785836574515
340,1.3006796865672658,4.291347587146772,0,0,0.447642810656912,1.1002856017641018,0.618641188120183,-1.431111600917153,4.693074849997443,-0.16843239530072032
341,1.2912491109424,4.567214658436066,0,0,0.5308376648968774,1.3000736216440831,0.717807505390574,0.4566708551167639,2.746014428001998,0.8155331009064974
342,1.2678824438927012,4.767178564389187,0,0,0.6120488800151503,1.515769867595442,0.8002121200887274,2.4700880238799408,0.5851958086252116,1.8820567746889325
343,1.2311809395749913,4.88166217120687,0,0,0.496902217740494,1.223730527541551,0.5696015123341389,2.676485234015244,-1.9551519320805724,1.5963621430419035
344,1.1831286551714817,4.904750776990775,0,0,0.3577044759087407,0.869500716013319,0.3006509402271327,2.661547902772913,-4.541986655124945,1.145039778730467
345,1.1269046565721563,4.834636291554774,0,0,0.05139295629943447,0.7566847582666624,-0.022226580744175606,1.0398206010247948,-5.944239170817083,0.4471584318662998
346,1.0665097089006375,4.674166760169283,0,0,-0.2747223900000499,0.6724775614760431,-0.3514947175189296,-0.7723194274691092,-7.206112712096354,-0.27994139969923365
347,1.0063391337372922,4.431103376186102,0,0,-0.34988849575182673,0.7979679944744549,-0.3299627437864032,-1.3974590745523279,-4.274918067643652,-0.21428488017631958
348,0.9508112392977266,4.117770563743421,0,0,-0.3971921626335824,0.9467407745180842,-0.26948207047572204,-1.8908082224453648,-0.8781746774606284,-0.060610061850082136
349,0.9040874586255028,3.750121294408326,0,0,-0.26605718726538496,1.0664658858911653,-0.02947855420093531,-0.48611269758638137,1.301513330428424,0.7356711240897426
350,0.8698480188958584,3.346557394026454,0,0,-0.11282402869328613,1.1825936783436684,0.23275741477066667,1.153640314702426,3.3304788688562215,1.611533913321678
351,0.8510571805026468,2.9268739450718897,0,0,0.10951065874336859,0.8894854838286091,0.047327074933537196,1.780957543249086,3.329090227354473,1.5639437966632124
352,0.8496763543824413,2.5114302292274306,0,0,0.3385984623303195,0.5563837017941509,-0.18185254938625747,2.3093320112623292,3.129280261122094,1.426106987642711
353,0.8663433311449407,2.120356092289573,0,0,0.4152509285785776,0.5015544909603459,-0.27330721099485034,0.9638701016607539,1.5284057898749202,0.7854261755199411
354,0.9000943431176313,1.7725492138739138,0,0,0.4781122234666208,0.47190123199643075,-0.3523015822664929,-0.5511220434174008,-0.19922617121932767,0.09925192365699302
355,0.9482287438513792,1.484413521932548,0,0,0.29731579107205436,0.7036515766370584,-0.30093261936978555,-0.8827473006149449,-0.8284304428846441,-0.04018311820097532
356,1.0063945370262763,1.2685193301758584,0,0,0.09187252479697705,0.9618438128017555,-0.23637694789957941,-1.0946708457815726,-1.3465249004142175,-0.12431357097310322
357,1.068923381326633,1.1324448009878718,0,0,0.07793771204948782,1.0492398504086646,-0.16916628458283628,0.01673016766001406,-0.6905919188799927,-0.1243262889236371
358,1.129390214421521,1.0779868712326013,0,0,0.08351517345504555,1.1192339289172382,-0.1016851115021199,1.2629611100538645,0.08495951598014571,-0.11576848024349054
359,1.1813314389951215,1.10082591986109,0,0,0.24782043083008398,1.0727572258899345,-0.11673606339523815,0.8346680900341403,0.6828455093187239,0.10953062279588151
360,1.2190305160538375,1.1906696126279221,0,0,0.4267050426379623,1.0155825301468,-0.13936769827295686,0.25256786690170446,1.2644127008583539,0.3547376955225741
361,1.2382647024789675,1.3318844187539811,0,0,0.5286224760570506,1.3418275789473513,-0.0343570508310958,-0.18563306333114074,1.0886789425272207,0.2248341003110691
362,1.2368947050808452,1.5046238218131753,0,0,0.6236169846255736,1.7025598758651257,0.08213456784683895,-0.6108907626716907,0.8448286465149977,0.061190629291594634
363,1.2151770418176537,1.6864600532702392,0,0,0.3084226143032012,1.4194525630295076,0.17999551550347662,0.17480917573648347,-0.5203778767358103,0.14295360055761872
364,1.1757099501822814,1.8544890332856023,0,0,-0.033634006992472064,1.0941817931503193,0.2766363867957315,1.0398117224092196,-1.9590192344685655,0.24078763025038516
365,1.1230023277598469,1.9877748120996301,0,0,-0.09833995213953448,0.8867991893706046,0.026070628808501337,0.7671461986159163,-2.436820825508165,0.5423238358509397
366,1.0627581611354358,2.0698494878938374,0,0,-0.1471968632567523,0.6861532324315321,-0.24433603874222182,0.4294693317320966,-2.8597158182621047,0.85550047717261
367,1.001043879547451,2.090872709360947,0,0,-0.01980553003841393,0.7871225746298997,-0.26237142636814603,-0.8372126195804633,-0.2590953708674144,0.04386884335099688
368,0.9435151080309866,2.0490590346619424,0,0,0.11767138117390392,0.905351462698729,-0.26596519334094676,-2.157055685194427,2.5145418392286727,-0.8321284902845264
369,0.8948274596324813,1.951087341157569,0,0,0.2606740876080333,0.8782412779170352,-0.001974256885294967,-1.6249147333218277,2.330943123726103,-0.6085217848053264
370,0.8582804213991984,1.8113478749386362,0,0,0.4040182170121884,0.8421510104646086,0.2785499676331092,-0.9783450235404045,1.9646253185259575,-0.31697371309436523
371,0.835682881562939,1.6500467836774995,0,0,0.31377147851413373,0.7527787418518898,0.20681659204742525,-0.400634047326375,1.2785050016585335,-0.4351369244687745
372,0.82740161527385,1.490401599382482,0,0,0.21415560250877938,0.6612693759068968,0.12095445406825016,0.17431506268701155,0.5795576683105548,-0.5697333182246221
373,0.8325539867458115,1.3553850394558595,0,0,0.16288597072083535,0.7442386892576943,0.10614198627025535,0.12663254948790534,0.6626505480287233,-0.30446586422811495
374,0.8493135941475685,1.2646043148589248,0,0,0.11409924787279728,0.8361686712332959,0.09497840297943601,0.04697366146769351,0.7859065194483955,-0.01866267801343067
375,0.8752955494623823,1.231874328216717,0,0,0.19619168393983774,0.8908554109857713,0.029289717557393777,-0.3689965989296967,0.20431404409097983,0.1772683693808835
376,0.9079741508653699,1.2638790367914616,0,0,0.28205795810043377,0.9444682596207133,-0.037971173165962574,-0.7946642372663545,-0.39760239988512813,0.37060799653807885
377,0.945070971569308,1.3600811990388846,0,0,0.26624737826966977,0.9812958630117724,-0.07077346618371037,-0.6157116451648811,-1.0292022732693618,0.2330327860701627
378,0.9848481419293048,1.5137943081988798,0,0,0.24808817507322042,1.0177357456577427,-0.10277980347756537,-0.4227929916538915,-1.6614878001848574,0.08781380737778187
379,1.0262538054339359,1.7141157422952504,0,0,0.17949462140102032,1.0509362955053099,-0.29084370357835765,-0.06055933017043464,-1.9904123894981822,0.22847506885639288
380,1.0688908521643652,1.9482751254928257,0,0,0.10920556800910841,1.0840279456089534,-0.48415393978741983,0.307366355614958,-2.3091386044927322,0.3787470393559144
381,1.1128108599235267,2.2039005618127234,0,0,-0.01546884469530813,1.0328959322083577,-0.479643962152119,0.23830270040717805,-2.7891033382141948,0.15185563808972657
382,1.1581692004739026,2.4707487878170933,0,0,-0.14150963039319445,0.9796478911007142,-0.47016396753009637,0.1582601648119458,-3.2731190144991578,-0.08451158162534146
383,1.2048107258396825,2.7415709604690877,0,0,-0.278313852604033,0.9759477493235498,-0.40072568213978815,0.31091032651986,-3.4606548535884047,-0.18352165319016395
384,1.251880493043081,3.0119823767292337,0,0,-0.41519950695873226,0.9726224684545008,-0.3308337747054892,0.46532095430405873,-3.645947636919203,-0.28149253185406564
385,1.29756027115541,3.2794562923289776,0,0,-0.19072782385229306,1.12470469075765,-0.13059287729866942,-0.3231127583168664,-0.9342374233101686,-0.24671350140990467
386,1.3390133422427515,3.54181598144876,0,0,0.0365221822917358,1.2775228534621774,0.07089339157551809,-1.1172800825256646,1.799242573668926,-0.21211491614507397
387,1.3725806979901394,3.795740198315376,0,0,0.17622083671804134,1.1978863994846212,0.34401962873216546,-1.0397081976368896,3.616868947123243,-0.719520080385352
388,1.394221141251807,4.03571315967666,0,0,0.3159194913625938,1.1182499453826513,0.6171458663155094,-0.9621363126269266,5.434495323417181,-1.2269252454183333
389,1.4001365005592776,4.253574786084527,0,0,0.4624402226958864,1.2742978741419166,0.4485254360118315,-0.5525890119165292,5.127409634805195,-0.33454948933793377
390,1.3874781792585202,4.438572794182574,0,0,0.6113394369163303,1.4254280087292277,0.285386059440112,-0.13588337248743507,4.778128116197131,0.5566806543208559
391,1.3549987150115856,4.577788684502824,0,0,0.9221160006967192,1.1970226667684947,0.5773933226403112,0.7121109827568031,1.9166799504044825,1.1181040659656472
392,1.3035025174209083,4.6569846230356955,0,0,1.219357480481607,0.9714384855901512,0.8609559753727076,1.5480911358598377,-0.9436670130169942,1.6597021001734686
393,1.2359771942319278,4.662061887290995,0,0,0.5951683137112338,0.9379110364688567,0.5696331760630953,1.5661780244366688,-3.729047204660556,0.8516439110600844
394,1.1573563407105865,4.581202278614039,0,0,-0.023819108651751224,0.9034562978885053,0.2780000821579773,1.5749794225814018,-6.480577582792913,0.052459088122395005
395,1.0739596482251026,4.407383465832867,0,0,-0.21366979925563404,0.7925014405468408,-0.03923192981049191,0.8177405389255801,-6.439544916882088,-0.01468524335299861
396,0.9927371919970852,4.140586354342768,0,0,-0.4007226210248404,0.6838267261625205,-0.35254844000875185,0.07347150407071454,-6.347073759593157,-0.07721062821125647
397,0.9204738103865839,3.788964081207506,0,0,-0.3745119076424301,0.748952635205416,-0.3674114490786066,0.31781057385336214,-2.3337774448842232,0.21233656161245287
398,0.8630813234490954,3.368597967829538,0,0,-0.3395779416707042,0.8091983364887018,-0.37833237351818205,0.5421539141767112,1.5775091664044536,0.49792739293493943
399,0.8250509715724473,2.901989406646486,0,0,-0.05382095041680554,0.729121549790473,-0.27590502635943687,0.1915523669377492,2.555671474615692,0.6697595178066805
400,0.8090920937299892,2.415782146817695,0,0,0.22478917367866683,0.6530099778285922,-0.17723896635699396,-0.15276240950915979,3.4410677846194706,0.825133870661869
401,0.815960208412868,1.93822579495065,0,0,0.31938716401510164,0.6789917578591206,-0.17541568515107808,-0.3352101633494277,1.9379952883553568,0.5567659489576342
402,0.8444687133017975,1.4967235930699005,0,0,0.404712340294564,0.7084948948651952,-0.17669781209963245,-0.5082912595425118,0.4698533074653597,0.29114162525255377
403,0.8916679084348329,1.115685430713614,0,0,0.1780237826848698,0.8564854438309096,-0.28247141143245935,-0.36620095174276035,0.17706116589878326,0.11783450399164762
404,0.9531588741485504,0.8148874491620273,0,0,-0.03284940874170306,0.999910282204081,-0.3791097528948851,-0.22230356655899997,-0.07422937574099991,-0.042350223662314126
405,1.0234960577117176,0.6085098635652245,0,0,0.05913678978948734,1.0559031718184915,-0.30081071980593993,-0.04380120117588564,0.4692229443075522,0.048754843909604245
406,1.0966312005055026,0.5048950763977024,0,0,0.152340416946239,1.105846583090158,-0.22659127847628974,0.15034617229727906,0.991350353048407,0.13456666335009224
407,1.1663656517563457,0.5068756364856204,0,0,0.2759615191379263,1.0046436744862266,-0.2543005070379635,0.7353843405232603,0.9806744879833319,0.08812658768069281
408,1.2268017580997224,0.6123731652223496,0,0,0.3992507781111986,0.9069504329850341,-0.28183980264732705,1.2702340286085492,0.9456742572131197,0.05220535300157929
409,1.2728023922511384,0.8149507932145901,0,0,0.5151251428714461,0.8876791517560493,-0.30558202070932,0.6836443407806414,0.3671568511699422,0.25132296195701076
410,1.300464468017529,1.1041288627812966,0,0,0.6262113172236281,0.9003202495654182,-0.31143600429915913,0.12010391242499902,-0.2152798869261015,0.4288813828546989
411,1.3075792798679169,1.465482089046673,0,0,0.6665192819972444,1.3846846622877877,-0.052869173226327726,-0.10272631467991897,-0.855651519377741,0.28775558264781864
412,1.2939991970830498,1.8807103245720598,0,0,0.6904912421122483,1.8240790195223158,0.19110795742152512,-0.28992160464315253,-1.5087675151444577,0.17686557873774494
413,1.2617876955411766,2.3279212822706503,0,0,0.43649757287856183,1.4982844565024958,0.18683373532384942,0.1292301243217871,-2.37873549281862,0.5804533997572804
414,1.215038899410409,2.78227925465706,0,0,0.18229600932215684,1.1766668904491413,0.16830204370833426,0.5490805140272139,-3.200023932436904,0.896156117785447
415,1.1593324392571236,3.2170426258893356,0,0,-0.07464175290083602,0.9100247088761629,-0.03787880605347923,0.9781263098623683,-3.380618449168661,0.0551623095992491
416,1.1009084947008059,3.60493436929822,0,0,-0.3129270496059642,0.6682802441278213,-0.24146504580085734,1.336055229393202,-3.3350417561062797,-0.764154107780598
417,1.0457419040289309,3.9198056415069984,0,0,-0.32721647506720647,0.7255303421506374,-0.413892834663287,0.8399476328037992,-0.5733942497993961,-1.323148583521565
418,0.9987166376438784,4.138610537996691,0,0,-0.31607701029488505,0.7730489357213413,-0.5510668844912257,0.2590178051414937,2.180244801322569,-1.742009701197377
419,0.9630561324621176,4.243684040960413,0,0,-0.06259046084973292,0.7278225556242831,-0.3522592668457445,-1.1303004342710825,4.857560155169857,-0.8253461191525064
420,0.9400889272273473,4.225113714577427,0,0,0.20430171483199097,0.6764946687167243,-0.13122012482993436,-2.380926379170904,7.1225018339457815,0.03792891720654985
421,0.9293567926985652,4.082706641208611,0,0,0.6121666340628237,0.5610037102986906,0.3236043643570641,-2.1730726587758085,5.05094723001575,0.3397732806072893
422,0.9290130566174623,3.826937054491575,0,0,0.94660510849722,0.48359342001378275,0.7001673145433519,-1.8596904109113326,2.876811499394278,0.57377936085605
423,0.9364094885188251,3.4785022680070283,0,0,0.6445870556181399,0.7362643406059025,0.3983633974465305,-0.6315924852967645,-0.1864919983162433,0.21976680228718726
424,0.9487404031187794,3.066583854845112,0,0,0.35536946480670817,0.9565377119297842,0.11364193220587407,0.4168067396406209,-2.966002310212936,-0.10297002893680204
425,0.9636192114307797,2.6262548051504004,0,0,0.17144610075381408,0.9103148454443849,-0.03056245119167409,-0.01296225565900798,-3.4110824664446677,-0.16843852306179147
426,0.9795030641552399,2.195477224408661,0,0,-0.003134062410890676,0.8755981343872654,-0.17544167821476647,-0.3886467941387114,-3.6593443873209353,-0.215701159793207
427,0.9959291639232014,1.811929243261768,0,0,-0.0840875097853697,0.9561827592442123,-0.3270834048445567,-0.22235967558715608,-1.9353223763324987,-0.08052582303951432
428,1.013556266029467,1.50977693517665,0,0,-0.14310388999423562,1.0292223391590416,-0.4695488831779382,-0.07478279838101927,-0.39691296612284305,0.061230988808166326
429,1.034013091321361,1.3165941909787564,0,0,-0.014779848369540096,1.037827967680912,-0.5336500910175411,-0.08698956552392248,-0.4436171449232892,0.25919295601916537
430,1.0595573724978111,1.2507981765101321,0,0,0.08657551243247474,1.0440021481164068,-0.5783855137347226,-0.06638765178240648,-0.551470589018494,0.4071028101469033
431,1.0925634376187785,1.3200089810816087,0,0,-0.06127373936106182,1.0277084858570558,-0.44417102745290676,0.2573835071784262,-1.2243749923533214,0.09250515296868095
432,1.1348890451801765,1.5205985497059729,0,0,-0.20378900360302984,1.0059072533680369,-0.3283094047773755,0.5394513478852134,-1.7820511196831315,-0.22069052982097648
433,1.1872144046749997,1.8384635758353067,0,0,-0.30846386746970805,0.945034189162369,-0.34264675675287953,0.5256673045391829,-1.5222742482128038,-0.5239403195299788
434,1.2484802598586537,2.250867718887563,0,0,-0.37425676704152294,0.9084888003766407,-0.3224569222982675,0.42150674544107053,-0.9819925999191924,-0.7916390882046059
435,1.3155615103928842,2.7290943937435106,0,0,-0.1384809423688822,1.0606289930796593,-0.034474043193037596,-0.38361455914430675,1.733885618746601,-0.7836039489973974
436,1.3832898631840078,3.2415793374002755,0,0,0.09840674847171726,1.187008171619721,0.2444945082839213,-1.119525318738963,4.212917772720408,-0.7815044872164856
437,1.4448845343987875,3.757086887826006,0,0,0.3430369697008975,1.1339993619781388,0.4606913812929175,-1.3734853155141342,5.042661634506944,-0.8207383838687097
438,1.4927733195592812,4.247387629245684,0,0,0.5879968984482076,1.1139111798225507,0.6341774660058683,-1.5896809683608526,5.740324358177655,-0.7985818794209795
439,1.519701878204575,4.688923889783861,0,0,0.8354608372556952,1.3438436561234957,0.4832900410497294,-1.5190696268826147,5.434876998110796,-0.3101867382370978
440,1.5199533482815342,5.063221305907808,0,0,1.054276002946402,1.5260719617177896,0.38519608109012454,-1.2709072938221173,4.570385796482687,0.13372199441470997
441,1.4904517741372716,5.356264751271814,0,0,1.072474349278422,1.3742455083769982,0.6567953358226738,0.22057931913048826,-0.2088837769419592,0.2661087729494583
442,1.4315211051956247,5.55747766543685,0,0,0.9991810919149545,1.2347537826158264,0.8538217176469994,1.5173954110986922,-4.600350528877129,0.367851124240125
443,1.3471289075754629,5.659043035023193,0,0,0.3103359212028759,1.178249618928535,0.5491247422259958,1.504475892182862,-6.382695148772192,0.2634189737885546
444,1.244550866873612,5.655965907758005,0,0,-0.3097418028432193,1.091311820659504,0.22987052188737506,1.554051243099869,-7.730613420982103,0.13194760822321588
445,1.1335143379899595,5.546722320923123,0,0,-0.5416461163661975,0.8325844835592908,-0.1715553647651946,1.9563930309159998,-6.626313867230828,-0.1521527276621143
446,1.024974505372819,5.333986200912701,0,0,-0.7051722561056673,0.5962070790328269,-0.5162587770905143,2.29305054455603,-5.067830718749383,-0.36436165277520755
447,0.9297213772214258,5.0250071561711644,0,0,-0.5082503554254061,0.47764489176014635,-0.5619558897777651,2.2834606139731806,-1.115168585178363,-0.19760289416650437
448,0.8570168593983966,4.631578727797531,0,0,-0.3066285283699599,0.36334279051260765,-0.5779501368004203,2.008076780018917,2.4804878896540012,-0.0377504785667644
449,0.8134420702304528,4.169830903878122,0,0,-0.0803307061829561,0.2714073961573796,-0.4379955945793292,0.33719670789645795,4.201759520638105,0.08584160148837468
450,0.8021095487552047,3.660055221800036,0,0,0.13444081158438798,0.23380783244208125,-0.3115935422074565,-1.2391778895327936,5.397717422919447,0.1822627991466161
451,0.8223558583015669,3.126479654872606,0,0,0.2847675393689615,0.5000056583009348,-0.2609648973630495,-2.287162358861858,3.6565905763741737,0.12676871277609275
452,0.8699626666698458,2.5966407204675437,0,0,0.3947913279820232,0.7772807979094377,-0.19304355748693636,-2.9516600168143703,2.00442515881217,0.05942457096403162
453,0.9378594974495273,2.100004798661545,0,0,0.2856607512680674,1.1147907921860845,-0.03109012740547608,-1.530880260508412,0.8360032552333452,-0.07235634491568826
454,1.0171651287544465,1.665778093799212,0,0,0.1961847884899893,1.3797762064137853,0.07290928193129612,-0.22165267657169957,-0.07893677098910079,-0.1638136356123334
455,1.0983653784565541,1.320210418609416,0,0,0.2109127704336491,1.2602540762219647,-0.13034932050482728,0.4961526433299496,0.350021976943509,-0.041484950239385365
456,1.172427871284599,1.0839122898141638,0,0,0.24810843855032838,1.1308192524459004,-0.3040525668534705,1.0684202880203608,0.6927874843747424,0.04606346450541819
457,1.2317138721857543,0.9696742636531923,0,0,0.38633866312424814,0.9568082052052534,-0.3448488342529302,0.9862220322370885,0.647952072129321,-0.022790929179477237
458,1.2706295194825385,0.9810835314804911,0,0,0.5410099543485167,0.8457276641530075,-0.32763934887564716,0.8530009042861648,0.5375938506721356,-0.020946487128216448
459,1.286021562283769,1.1120368530029934,0,0,0.767572067290749,1.0098194093187602,-0.0567917393362198,0.49667525809398655,0.14072814369010678,0.29003832854940415
460,1.2773410911851737,1.3471449463771872,0,0,0.8969554642523596,1.1738396142771295,0.1785225999436472,0.12465185603263919,-0.40859031273246527,0.5102833355632386
461,1.2465798521300187,1.662980710528472,0,0,0.609584182970158,1.3375530162919844,0.26145113679197673,-0.314691978598635,-1.6117082755525889,0.34138716714600137
462,1.1979604455509754,2.030061512688782,0,0,0.32300391644857207,1.407213959413642,0.3016789379928172,-0.47004494196920377,-2.6604157903694623,0.22181537343063848
463,1.1373688705749678,2.415350989737193,0,0,0.03966825459004178,1.0910880576958455,0.16675574080018507,0.539483305467983,-3.0757584776300733,0.30456359454149023
464,1.0715665511116466,2.7849816552711166,0,0,-0.20922080546114397,0.8103932006381069,0.009392392517363388,1.3752074118056228,-3.04152930186626,0.21427874887360124
465,1.0072877525296509,3.106917899663653,0,0,-0.3208436037826194,0.6708875114283357,-0.237392714653138,1.5183394028050645,-1.215801212354786,-0.5655255638422438
466,0.9503780444271961,3.353403790112721,0,0,-0.35463117396178456,0.5639256597874677,-0.43979479934866167,1.287072745173252,0.7291108231924733,-1.0983297571117667
467,0.9051310900666789,3.5031660776439737,0,0,-0.05900013863823814,0.5946976575297349,-0.4543565741915434,-0.5287448115541427,3.1784398205508446,-0.5857662313037014
468,0.873934369336193,3.543334636551189,0,0,0.22442808795058952,0.6240341078645946,-0.3833521897358835,-2.098034010750619,5.014618929796451,-0.13480678422477835
469,0.8572621470948552,3.470879547233346,0,0,0.456433439531136,0.6473211333411168,0.04822964910718544,-2.6284479167481134,4.266972502632391,0.05655187651428365
470,0.8539804875790217,3.2932048078542175,0,0,0.6185123005004621,0.690723596159632,0.38967670001066174,-2.69705069406658,3.0712264945259693,0.13272060504755057
471,0.8618694685493538,3.0275878108637597,0,0,0.5261228151204679,0.8073278174500494,0.4031157208378447,-1.0850841590476596,0.24480864280883483,-0.2102964615060529
472,0.8782323352404379,2.6994383207982953,0,0,0.40372924059732007,0.9042117871061455,0.3521422699581243,0.1982719258318871,-2.1069321041026994,-0.4528436202143844
473,0.9004591826091396,2.339670022695916,0,0,0.1760534171595979,0.9318987742108047,0.07514996420943329,0.32855694364965005,-2.7930641180593905,-0.34284890487540404
474,0.9264445759855777,1.9816102232286434,0,0,-0.013708839303239951,0.941944213576064,-0.15933771855000378,0.3487799325738803,-2.97623154927449,-0.22340580044781913
475,0.9548107554461385,1.6578062952100816,0,0,-0.07417040083050103,0.8918247942836854,-0.24886733683259885,-0.0063533972195017364,-1.444085024641739,-0.07173984266359398
476,0.9849395314191803,1.3969935982638222,0,0,-0.07869945972440279,0.8594002690877303,-0.3308126347709569,-0.30746341404999533,-0.20384078388548726,0.09007415930054699
477,1.0168508189548837,1.2214930029984337,0,0,0.10193761022709023,0.8855551902941929,-0.38764982611749343,-0.4297277283323054,0.07005270620179599,0.2854835479840071
478,1.0509794666964687,1.1453473494233426,0,0,0.24008037222936118,0.9309003740984914,-0.42424237619636235,-0.5408656735590136,0.08884269933821269,0.4214504973612629
479,1.087898862205761,1.1734530862939516,0,0,0.24123446027119988,1.0381091044079778,-0.3955723843558977,-0.6161356016912067,-0.7147430851108837,0.3657931724662641
480,1.128028615628245,1.301761088315857,0,0,0.19426346105489653,1.115435848140052,-0.35436306983101196,-0.5492333194445507,-1.5124670308919064,0.2315309163653602
481,1.1713545049515008,1.5183929591002099,0,0,-0.01650220443587862,1.0910586719849482,-0.2704759277650407,0.0015548335454943839,-2.2902400952700184,-0.17026474503281444
482,1.2171880143851623,1.8053559091598401,0,0,-0.22683008354824258,1.0828789995138928,-0.2541538728544855,0.422400852697437,-2.552286938536846,-0.5447433516816068
483,1.2639979892794515,2.1405066185491775,0,0,-0.4358204628955215,1.1241850208822142,-0.4442528370634903,0.44625504098525903,-1.2387163051461654,-0.8357644438168719
484,1.3093498532807701,2.4995114495732875,0,0,-0.49610519363013744,1.155809194975365,-0.47441652936456286,0.30231789164766043,0.31533407834298016,-0.9946699850211647
485,1.349983229503367,2.8576959963078,0,0,-0.07769958303201839,1.156267056292867,0.01025879515004981,-0.3817473132711529,2.6434998768637428,-0.7282894750112492
486,1.3820485118048456,3.191743899654949,0,0,0.2891209964743518,1.1417049282027998,0.3953644466546182,-0.9340976893032469,4.475354498482442,-0.48737436043491217
487,1.4015079035440334,3.481137299587743,0,0,0.4903301285386781,1.078921792318292,0.4608060925449288,-1.0635834668297517,4.71382416619419,-0.32821476501175695
488,1.4046806953875541,3.7091344307164604,0,0,0.6966994986506223,1.0578531896377548,0.5207730720677666,-1.018060623016986,4.516089060435188,-0.17305595719083883
489,1.3888720676626192,3.8631313678975063,0,0,0.9175254556551307,1.153649316869562,0.5654025811354535,-0.48224498048190945,3.096310963440846,-0.02910549726692083
490,1.352979413431024,3.934506903547514,0,0,1.0174509017540059,1.2212993630639228,0.553662361537445,0.10502367538298911,1.275057346337033,0.022879433658171425
491,1.2979424990463386,3.9183436232614883,0,0,0.7820371629358681,1.2108812207700432,0.3855706201538758,0.8350064639037384,-1.6597604126315502,-0.1802184742229303
492,1.2269149456201012,3.813500820333308,0,0,0.4943885739358928,1.181837562914289,0.24364840977158117,1.303431601358252,-4.116105031848042,-0.24192180080213907
493,1.1450886904478628,3.6232512159584425,0,0,0.05912718867212877,1.1001592288151427,0.1756798454937699,1.0327092928469985,-5.220311041791543,0.09594813417270662
494,1.059180892851393,3.3562142998590914,0,0,-0.3055934416070098,0.9961366468758521,0.05467760953722246,0.9548720542512863,-5.531325389572958,0.3179616217187893
495,0.97666352785654,3.026952988029591,0,0,-0.47207220156636587,0.8293196484084048,-0.21536604776797935,1.419102976251704,-3.613219850033182,0.21438178454569876
496,0.9048596029360383,2.6556119764218398,0,0,-0.48218554320272095,0.6704283292284859,-0.3416722333665881,1.5024004588566697,-1.617586784806231,0.23611048158695955
497,0.8500462360653681,2.2663520980677467,0,0,-0.08526936293768363,0.5321680772355755,-0.09382027699549278,0.59410301352752,0.5798555554706837,0.5840255778873789
498,0.8167019518383097,1.8848174709166254,0,0,0.2289095145521615,0.4762363226188485,0.03063488680371426,-0.21271678124798807,1.897158507725673,0.6977777370905246
499,0.8070140528042459,1.5351846002188902,0,0,0.3216762789742488,0.6406226831872781,-0.17513034234174535,-0.7479736868536208,0.8591330238178049,0.18488980692594434
500,0.8207149874741618,1.2373882408561137,0,0,0.3326860620505853,0.7782628565741823,-0.3404432480992425,-0.9489302084545117,0.14267043821458106,-0.13864311992163783
501,0.8552479783087953,1.0049904676220076,0,0,0.12474807432564572,0.844275898937071,-0.3974235585351508,-0.2546197742835146,0.28736341837517315,0.04492261418856794
502,0.9061956657073401,0.843989378222057,0,0,0.01753907716061245,0.9043254637741507,-0.41280836873603416,0.10870470786304645,0.403663404358906,0.14172002869052758
503,0.9678683371009574,0.7527028715737838,0,0,0.14670787877216868,0.9503807089742625,-0.3305822257255993,-0.3046859376872179,0.45333437493310774,0.0349007457696845
504,1.0339479094935349,0.7226983044187336,0,0,0.23590162590337052,0.9964224941300293,-0.28279285398139464,-0.49127366512150084,0.6004488868640228,-0.07565133398675385
505,1.098106927327492,0.7405694262848376,0,0,0.23369769351609734,1.0424335044368611,-0.31373860890042216,-0.1593064930636438,0.9703551774434512,-0.1947379598225713
506,1.1545505584462978,0.7902207811493974,0,0,0.2600922970867857,1.0810643371634514,-0.3268868249457862,0.08265251152543195,1.2623144722131319,-0.23964135939977427
507,1.198453219173846,0.855246536321807,0,0,0.3590677625423424,1.1009648527009128,-0.29486627036671076,0.09617778156373517,1.3564503488356767,-0.09627349547016432
508,1.2262771126579168,0.9210066082006179,0,0,0.41582586143130496,1.1265292602217554,-0.23746995793538717,0.22383670545517198,1.334332220852601,0.038463609313456576
509,1.235968645538635,0.9761041402280587,0,0,0.38019063214518584,1.1644891787731495,-0.12453842576761887,0.6012788113027776,1.0577904922401808,0.15431217085276308
510,1.227032502232583,1.0131289984863825,0,0,0.3330914699453749,1.209112807992393,-0.021255930010990454,0.6731917634162308,0.7392468687762795,0.22768469115883583
511,1.200484505780545,1.0287102699516066,0,0,0.2614334863837187,1.2680118941418634,0.061355740311163864,0.09057926488690544,0.33072391222630776,0.2100621308805833
512,1.1586866608705146,1.0230671364427748,0,0,0.16859128909841192,1.2401816115263515,0.11223594830654451,-0.2733433257047226,-0.14623247964873112,0.16857373499182893
513,1.1050755336481128,0.9993137564949383,0,0,0.031434180552185734,1.0309235765914377,0.09673762767047113,-0.17979206381637103,-0.7663436590118003,0.07716078674329863
514,1.0438108375072428,0.962732236507783,0,0,-0.0017399332342529449,0.8923345016217101,0.08008903671042511,-0.316664604811706,-1.191079096114681,-0.03922789869469304
515,0.9793892839591333,0.9201001646804223,0,0,0.1755269601606631,0.8967654195161039,0.06111252628904291,-0.9198693298922873,-1.2204126864729326,-0.20616253388440076
516,0.9162765253534996,0.8790230178865737,0,0,0.27352080237190673,0.8898027071606232,0.038708746925644834,-1.140182298837137,-1.0490663592170748,-0.2673616809430841
517,0.8585988373587405,0.8471668878136002,0,0,0.2129834599931192,0.86005487838382,0.009451074629230656,-0.5947838089242365,-0.4763979611217488,-0.1171097492766815
518,0.8099123901469305,0.8313507705152062,0,0,0.1788257437825778,0.816127552181101,0.00121668756656302,-0.08177472836870693,0.032577353949420886,-0.028655799036084985
519,0.7730469981726068,0.8365933124542148,0,0,0.19562420458054472,0.7448104146639448,0.033591907236805885,0.36866938456843507,0.41851999317750915,-0.05957385429209407
520,0.7500127127899254,0.865316698101913,0,0,0.20895268995043614,0.6955557946263548,0.026670127972033043,0.6734363571058092,0.6014021337918944,-0.025993357101421543
521,0.7419592365038782,0.9169173251562952,0,0,0.21562714523128448,0.6886082913280375,-0.0556076359052226,0.6988526257991334,0.39489515569773187,0.13126966191115444
522,0.7491819463336586,0.9878306958978238,0,0,0.2434027606617938,0.6945276962421322,-0.06672951978930193,0.5422342199683317,0.06537044576463694,0.30689579388847066
523,0.7711687218513653,1.0721116199551937,0,0,0.31383930194231824,0.7264605626567067,0.06600683438801017,0.017590184412608862,-0.5128633540476729,0.5196472495450549
524,0.8066784717606592,1.1624595165900815,0,0,0.3577642381769197,0.7626671952718305,0.11424022551394203,-0.5444124740537511,-0.6471301088133666,0.7426648573176139
525,0.8538388047845892,1.2515333064875722,0,0,0.35093527040079364,0.807055539779012,0.0007008662980941191,-1.1779346004129265,0.06853510683946061,0.9853360194177081
526,0.9102508622308749,1.3333122678234828,0,0,0.30535332576435836,0.8412898710899478,-0.1426132870141942,-1.6759077754890812,0.37695547779330496,0.9161396628851873
527,0.9730953571855503,1.404196727540501,0,0,0.19056499759085013,0.8573908204355969,-0.3391002798583559,-1.9318130251938401,-0.041895839756332647,0.28999968921987634
528,1.0392425367202525,1.4635521694002585,0,0,0.09992322516523312,0.906305342486254,-0.43529717394673395,-2.0516464213374532,-0.19010270388693165,-0.0998698264414451
529,1.1053748180209835,1.5135061355305846,0,0,0.05128767785860651,1.0123035473150295,-0.35702577035741817,-1.9347642797673639,0.13251335136521994,-0.07871467381235689
530,1.1681303832529264,1.557992862781754,0,0,-0.0009565511212342296,1.1195751871901072,-0.2441038684419372,-1.5671877587753957,0.2253830140243316,-0.10946800164105613
531,1.224269045646471,1.6012600217295916,0,0,-0.05987857602807239,1.229203294346683,-0.06706188792461787,-0.7357061268888612,-0.10688858762347282,-0.23627697062851677
532,1.27085138346354,1.6462433487980308,0,0,-0.0271054543593926,1.3138013286244579,0.013486138040167923,-0.021863942776180017,-0.33706688836450166,-0.3305164284887793
533,1.3054129036914208,1.6933067322225186,0,0,0.16875989558328022,1.3538799906985788,-0.07759339373040741,0.48274056206021976,-0.38565843605944383,-0.3668266028274254
534,1.3261112478561419,1.7397760815291146,0,0,0.36632531084972064,1.3187059865956512,-0.05594609840097708,1.0652718650121904,-0.09291975033595813,-0.40231050209901564
535,1.3318291080130376,1.7804566277895055,0,0,0.5668495108526161,1.1525626012908021,0.1618904291532609,1.783426593296225,0.7938684446531645,-0.43635635603229583
536,1.3222276044943604,1.8089868881439888,0,0,0.618358180581847,1.0705703089422975,0.29440712274488107,2.2900002301861115,1.5626159769790844,-0.48817344574307625
537,1.297758307874299,1.8195772806297663,0,0,0.4077007050602668,1.1366267979422322,0.27681884444303295,2.424334818992254,2.1236920977653426,-0.571255842979685
538,1.259648606009089,1.808536733782032,0,0,0.3100358926703149,1.1471164694078535,0.33469657022679117,2.1983974539083837,1.9848990326195846,-0.5354869990001138
539,1.209870239527303,1.7750799408132696,0,0,0.39070624350875116,1.0699056016787611,0.5116815177144426,1.4038465521775063,0.7415095964900342,-0.3121364577740476
540,1.1510875921500805,1.7212059259793027,0,0,0.4580097203795297,1.030155623657007,0.4620760021500417,0.8379163363708325,-0.13682859071717784,-0.11923657186017048
541,1.0865694606561107,1.650813103459178,0,0,0.5047724403076085,1.0479714637146906,0.06427092425332213,0.6233055069654898,-0.45419575173803456,0.026870061588175582
542,1.0200445612290931,1.5684858779749693,0,0,0.4388314595287883,0.9905479080031773,-0.22879862177806717,-0.03598054779777323,-0.6111004845256838,0.24670769533144762
543,0.9554912731970181,1.4784318097234963,0,0,0.20646535222552323,0.8220212928360051,-0.36720932313120297,-1.351901035843208,-0.5310566543679054,0.575421000200804
544,0.8968733943368553,1.3838795575257536,0,0,0.13428686061716974,0.7084741385166585,-0.325281659483497,-1.9627597655072189,-0.4175644120726917,0.6242372511653422
545,0.8478566919937525,1.2869922834066545,0,0,0.29502672852788925,0.6748690310708199,-0.021135747087432145,-1.5484341974371851,-0.25543701673636143,0.26607346001212556
546,0.8115532560883925,1.1891580935669743,0,0,0.2781511689829451,0.6874302241832655,0.0731978742617391,-0.8523527657232821,-0.2425895299452995,-0.1515888905972006
547,0.7903334039340865,1.091465555988581,0,0,-0.008607674074929631,0.7701402380417286,-0.15127431332278166,0.2718513731141928,-0.4565700414752943,-0.6596581772499202
548,0.7857202009726679,0.9952230109731381,0,0,-0.13824616285177774,0.8275495238348267,-0.2552286249592105,0.8329373258875589,-0.54003130660444,-0.8518293020699673
549,0.798352068480862,0.9024421006057254,0,0,-0.04688817722140717,0.8493722574017707,-0.18966940788484962,0.6019735513003884,-0.43991168920049933,-0.5996761993066019
550,0.8279795000055142,0.8162270551258144,0,0,-0.007041073313176316,0.8685441540612455,-0.20596820600630936,0.5671027847667821,-0.2750587404995186,-0.3695846153038247
551,0.8734613280005965,0.7410103276992006,0,0,-0.04299948834195719,0.8838149708198875,-0.3427326052404628,0.8208105040265153,-0.014941575134232896,-0.17195966353572525
552,0.9327431333717666,0.6825835765207705,0,0,-0.03533577673711832,0.8807495898045874,-0.401126553303332,0.8005662433390567,0.0032345260810582067,0.004619231953354172
553,1.0028273558142542,0.6478926941500185,0,0,0.035058176334959404,0.8513160740210952,-0.346820876078282,0.38636884054891757,-0.326509626625267,0.1509331152983782
554,1.0797718181987503,0.644585703930289,0,0,0.11634814053792719,0.8614063401290813,-0.33690144612888895,0.3011710709060694,-0.6162425407079221,0.2536895444534335
555,1.1587709835423383,0.6803202424370531,0,0,0.21209219103647423,0.9239268174953655,-0.38586252339078464,0.6524072523836553,-0.8528986074738224,0.2986649002364286
556,1.2343729416205866,0.7618576685917696,0,0,0.3403756982767644,1.0077491029835821,-0.3660153206222991,0.6691549978339236,-0.7933148578899833,0.3083634459634485
557,1.30086044755896,0.8940050733544185,0,0,0.5100330218942745,1.1186565701555176,-0.2586786073249778,0.26060175432378513,-0.35706311834698173,0.2732076392280431
558,1.352781758783676,1.0785244080375025,0,0,0.5753465969310523,1.2367456701454553,-0.151576951109981,0.3245301656025103,-0.2553569870258345,0.2154366294607265
559,1.3855699496214018,1.313189950180466,0,0,0.5080514745100249,1.3639617854722206,-0.04477402478061964,0.9889274858970382,-0.5788191860312638,0.12892434223958907
560,1.3961521815834421,1.59119155273649,0,0,0.44075635219413045,1.4911779006002397,0.06202890138188687,1.653324805153599,-0.9022813845313582,0.04241205515360705
561,1.3834332924801216,1.9010251285687816,0,0,0.4367676015764813,1.4987183186919082,0.06835937858493982,1.6927053,-0.9214538,0.037284255
562,1.3485462574042508,2.226920350228819,0,0,0.4367676015764813,1.4987183186919082,0.06835937858493982,1.6927053,-0.9214538,0.037284255
563,1.2947966956756591,2.5497873743738637,0,0,0.4367676015764813,1.4987183186919082,0.06835937858493982,1.6927053,-0.9214538,0.037284255
564,1.2272866282860397,2.8486310897946137,0,0,-0.219801645291672,0.8202477550260225,-0.33750676996773726,1.3230212775751287,-3.7790269756419446,0.3735751044446434
565,1.1522736535664657,3.102351537425483,0,0,-0.3967814330466691,0.7398878492803685,-0.641464625881839,1.130547301320119,-1.9652871969115044,-0.7233081250133228
566,1.0763839432706117,3.2918090632793806,0,0,-0.35917989819030033,0.6885832245502527,-0.6900031030191823,0.5397901594787188,0.6951701400677479,-1.054487013187756
567,1.0058261605183831,3.4019865917870535,0,0,-0.08216020288766751,0.6696969009440807,-0.4535585393920082,-0.4953496605984324,4.300348843037618,-0.5313346734395987
568,0.9457401657901,3.42400280432528,0,0,0.19999634690611434,0.6724090165488023,-0.13163355580536537,-1.1814464773486275,5.600353667604417,-0.015169101339923828
569,0.8997719058274991,3.3566148839720165,0,0,0.48796917367751735,0.699576272055268,0.2870778492007792,-1.4723343917281906,4.290292593885028,0.49308560455363715
570,0.8699105868957422,3.206814473418798,0,0,0.6268181732216548,0.6964280196077801,0.440215420072827,-1.3598424672238831,2.200534429823505,0.6294459802524912
571,0.8565679446284756,2.9893039332165796,0,0,0.5971488983076807,0.6590215457011837,0.29323968828613123,-0.7915087380105227,-0.7703251078335549,0.34554493947817905
572,0.8588374624176122,2.724980005557617,0,0,0.4559388444210322,0.6725252616046714,0.0845981207956202,-0.5956007321612681,-2.555973274454588,0.10726370605192408
573,0.8748578937880664,2.4388011074264453,0,0,0.1867964548019572,0.7444207114997327,-0.19477143038966008,-0.8268485442616175,-2.9822364660933602,-0.07869362786910983
574,0.9022162311604957,2.1574146924245725,0,0,0.025779180072681908,0.8442797329245516,-0.346354646393078,-1.0679356584662567,-2.5941070321204056,-0.10457372385352243
575,0.9383398456087608,1.9067675221973264,0,0,-0.011590958037074396,0.976116667173761,-0.3518070171583162,-1.320274565930667,-1.2746739342031403,0.05260348421258362
576,0.9808319101378286,1.7098186678939793,0,0,0.01443168545495748,1.0486052253136808,-0.3444355579514973,-1.1712070083855857,-0.5530935689321715,0.23510810025874074
577,1.0277039448314105,1.584504152775583,0,0,0.11081933886058419,1.0552180012625232,-0.32282984524903097,-0.5765844653028891,-0.49512051661652856,0.44572574855511354
578,1.0774688301292872,1.542177863722237,0,0,0.10951927111271854,1.0551562775061036,-0.3412638833592728,-0.17650404557873234,-0.8517264323793998,0.5082470057939461
579,1.1290829278833578,1.5867557085267259,0,0,-0.0014788030128345163,1.0475994530084034,-0.4046603874875729,0.00511613394871897,-1.6738820180588696,0.4044640576621397
580,1.1817597017511614,1.7146830182231625,0,0,-0.13120367534227262,1.0196519500292545,-0.46025156352860574,0.10254893541922458,-2.1362545381175186,0.111763641241246
581,1.23470653803201,1.9156877573002198,0,0,-0.27963373701350946,0.9713372975598582,-0.5080464182255902,0.11589150375373784,-2.239259151030617,-0.3696362499194454
582,1.2868515946518244,2.1741663017387065,0,0,-0.3987773877401765,1.0210228970094792,-0.5863298979867598,-0.13645199211059306,-1.3631442167879029,-0.621080388593081
583,1.3366253383171076,2.471019985514965,0,0,-0.4891341007760499,1.1670373757818133,-0.6945820260627347,-0.6499503351796643,0.4753915975401095,-0.6464906192192752
584,1.3818463487924402,2.785771426398327,0,0,-0.337116181129133,1.2195513500041761,-0.4739163910287263,-0.932463256224038,2.52573825417108,-0.6313964032731799
585,1.4197433005285256,3.0987397826845315,0,0,0.06514600534944709,1.1755289621656306,0.08634660019409843,-0.9764909147123203,4.794773008961062,-0.5744826064920502
586,1.4471320843782611,3.3929160753630714,0,0,0.4272123630520259,1.1183976321736258,0.421325571804631,-0.8048176978435787,5.516123226083355,-0.4361960633404241
587,1.4607526174407084,3.6550816540419278,0,0,0.7503479212611409,1.0485699201417897,0.5381105848956633,-0.4242320692943842,4.738497100390473,-0.2190977088728517
588,1.4577400125121294,3.8758442734671488,0,0,0.9722339819390742,1.0594880628063938,0.6590919585988579,-0.03082540308511131,3.4615925237237546,-0.13492182057732247
589,1.43615857975206,4.04866968424058,0,0,1.0933153626094165,1.1507973212078897,0.7842512573250048,0.3753459750178127,1.6876029630584206,-0.18308443299314978
590,1.3954867281131302,4.1684643422964305,0,0,1.0140552226044868,1.139319414887359,0.6731445927978826,0.7473277711522666,-0.6934975821894878,-0.2732575389842252
591,1.3369359355977792,4.230505423366521,0,0,0.7426745948805957,1.029272224764233,0.335467160793784,1.086522958575545,-3.656796259442096,-0.4037172341449493
592,1.263529251952837,4.230323404642691,0,0,0.3682567207402631,0.97967943411151,0.04414492718419635,0.9851662359038618,-5.56048876468156,-0.341016333593704
593,1.179934158639519,4.164605937927665,0,0,-0.10518388726474567,0.9881856330757236,-0.2026281881840922,0.4604222812928464,-6.445859220158997,-0.0926807142629734
594,1.0921004401647953,4.032647962276555,0,0,-0.433965307378127,0.9580583598568999,-0.39930327523351594,0.2342125280443613,-5.397035667541889,-0.08732701339030775
595,1.006766992189264,3.8376718741811016,0,0,-0.6378766789964468,0.894582610363044,-0.5527336617441776,0.26569798624036456,-2.6786126873526013,-0.2917157018757706
596,0.930879701719828,3.5875640990515842,0,0,-0.5826968825204294,0.8170891222273918,-0.5435405752191474,0.5908938388258451,0.3646907525613395,-0.1487161065544175
597,0.8709413594923224,3.2949692708367126,0,0,-0.3072822098279373,0.7276801567818885,-0.396112902323083,1.165751896524802,3.6841518413788448,0.28957342954712817
598,0.8323240232597818,2.976895579794925,0,0,-0.04374913508315404,0.644848998242186,-0.21818399286610055,1.2450482970669479,4.791033593479599,0.6169738384497945
599,0.8186124708714327,2.653889536507152,0,0,0.2091657065051862,0.5678962315536344,-0.012997027830279851,0.881475864241906,3.9205984671456293,0.8452759062142615
600,0.8310845876527303,2.3486527580882037,0,0,0.3601891052896701,0.5273061946342559,-0.06157412243975601,0.4450917441577587,2.4093200475004255,0.815068788834635
601,0.8684397937329079,2.0839994111499,0,0,0.4228944017053902,0.5182348721782668,-0.3301104171462356,-0.054404546557562876,0.34256746473507715,0.5607894618013745
602,0.9268508695159708,1.880334480703829,0,0,0.30347075399114415,0.6358762356850366,-0.49374453219752873,-0.6311798275082116,-0.5911599117216492,0.26023970021255316
603,1.0003520770150685,1.753133615871952,0,0,0.027244031789512308,0.862610301784629,-0.5670635994735299,-1.274488098698637,-0.5494144622110859,-0.08014637861204969
604,1.081510745036732,1.7109846410951852,0,0,-0.043915268435638255,1.0490864363055807,-0.505217816691407,-1.177655538686423,0.23549112965382585,-0.27224663045690345
605,1.1622796610603996,1.7545788929548574,0,0,0.05478679420793081,1.2022161369592759,-0.3314123410539561,-0.46774982993130076,1.6359708228681866,-0.341518826511574
606,1.2349034656450253,1.876757406477822,0,0,0.2247379290916422,1.2606010585883223,-0.2370234338164545,0.3504200565402993,2.293061940662552,-0.19839885297216872
607,1.2927541028998577,2.0634717375280585,0,0,0.4499488039243583,1.2455033132040816,-0.20422885727609014,1.2525580582210505,2.3735917353801304,0.10944938565138138
608,1.3309910930074436,2.2953865540563267,0,0,0.6990167357931437,1.226856289054969,-0.20797033786472635,1.5276798207742153,1.9476059686360556,0.442047220755777
609,1.3469722749808668,2.549844083785417,0,0,0.9746504879719994,1.2042569961178256,-0.25239623007463036,1.1045930526198477,0.9575941625653033,0.8022047557788525
610,1.3403745427648752,2.8029908296610895,0,0,0.9108163425796844,1.1369396241456486,-0.23475189878192565,0.5704369952497755,-1.1024574088690686,0.7560829872798203
611,1.3130240549401313,3.0319403035543364,0,0,0.5983281975567373,1.0368670808206246,-0.17164226889447676,-0.0450752749628711,-3.9462934489299464,0.41236909139985567
612,1.2684831713460352,3.216817872624729,0,0,0.28768681145993785,0.9953196002218851,-0.15649383865368255,-0.16162317109205734,-4.945760773877699,0.10640286374781392
613,1.2114863169977494,3.34242369326988,0,0,-0.021519238851398594,0.9992588995640059,-0.17862175520178689,0.1096334326801286,-4.51175003035208,-0.17022516590870518
614,1.1473370609469766,3.399210914079197,0,0,-0.3749740865919448,0.9679013163576324,-0.29988618956305774,0.12823569333748192,-3.2156251900299133,-0.5224590096305766
615,1.0813597363515903,3.3834422467843104,0,0,-0.7605412164857258,0.9109280441369476,-0.4930960771412009,-0.036518608983492525,-1.2938460416454942,-0.9295615810320257
616,1.0184521653752097,3.2966943962157114,0,0,-0.6335546115248674,0.8470482616033258,-0.4925277631250076,-0.09571764140966332,1.182685524916378,-0.7730344886000604
617,0.9627428415263792,3.145093285043819,0,0,-0.12784377830896285,0.7780652817908318,-0.3487773887064846,-0.07692224054973074,4.069121787403308,-0.20004333600962343
618,0.9173420360914564,2.9386047367101886,0,0,0.23201103779478985,0.7345709629581462,-0.1325986951029228,-0.20566940005923603,4.474626389575157,0.2737065743578327
619,0.8841895292364759,2.690439252908985,0,0,0.4910879608819279,0.7086878034058126,0.13362368916710357,-0.43635975436251895,3.165953747674052,0.678886647912226
620,0.8640168007708424,2.41640963872902,0,0,0.5593439496686299,0.6565588436607755,0.21407505280004663,-0.6300320555034092,1.3671128524376257,0.5557788632108409
621,0.8564387951582151,2.1340891483672717,0,0,0.5009931063591163,0.5870161887155568,0.17127012638645459,-0.7991434322996049,-0.7569473327966473,0.08215999722215628
622,0.8601728203893361,1.8617842661029775,0,0,0.33529805382287026,0.670842058296637,0.036578612914057035,-1.0581711214869165,-1.7755985923078987,-0.1273067710973063
623,0.8733625361184735,1.6174494649211073,0,0,0.10114710996730844,0.8524745922744913,-0.1567111077901281,-1.3745405280637393,-2.089304947684984,-0.16831762157942096
624,0.8939673522219448,1.4176365924496355,0,0,0.021040820243654598,0.9483277767638016,-0.23799436602496024,-1.2676473431401474,-1.488502998204557,-0.04822588467543726
625,0.9201598217561293,1.2764882134831665,0,0,0.0392092472700279,0.9894569508084724,-0.24782169850998748,-0.8907284854420735,-0.3042790183335239,0.1746432662280671
626,0.9506601671930471,1.2047879286761138,0,0,0.10646231531054348,1.007888222575619,-0.26913271568820335,-0.5168964074736369,0.09310859901645413,0.34738448437219016
627,0.9849380636525116,1.2091772709537618,0,0,0.2066806320260365,1.0110755814818673,-0.2981561763942048,-0.14513741061203114,-0.03794314358652158,0.4864597792784112
628,1.0232318633948394,1.2917263943859414,0,0,0.19058100259682412,1.0254116155667519,-0.33867750361638177,-0.16978065039639734,-0.6637053272245469,0.5379247121926176
629,1.066369484172075,1.4500080039198187,0,0,0.09908559282333873,1.0469740759491946,-0.3866515984209824,-0.4513666660182704,-1.610132386598042,0.5326017475590574
630,1.1154140840443363,1.6776772672936493,0,0,-0.024239413224691683,1.0138254064173224,-0.3901292337496281,-0.3854278467099531,-2.2522201342444617,0.24069875691868417
631,1.1711935382038414,1.9653951441855027,0,0,-0.16830453241212767,0.9450270531977505,-0.364613048034522,-0.09304240714904398,-2.6960008768908548,-0.2379393144568199
632,1.2337986139419483,2.301851312489252,0,0,-0.4005144387852939,0.9942766798291863,-0.4470746477453098,-0.00952035374758194,-2.227736282714429,-0.7721894194696481
633,1.3021438768337357,2.674692415224445,0,0,-0.702571307314047,1.137068908858914,-0.6150991097997878,-0.09150409478439098,-1.0367562772339538,-1.3505071515410876
634,1.373676754784019,3.0712955133486615,0,0,-0.5362241978167314,1.139892345350322,-0.47786000484458807,-0.33008342846032107,1.1578405840442598,-1.1517707816204155
635,1.444303664539523,3.479425622866764,0,0,-0.10046708163819056,1.0622105020757842,-0.1650436983564607,-0.6587312111080873,3.9296836640895108,-0.5060993714913375
636,1.508588005679049,3.8877761477146455,0,0,0.29721627689914104,1.0397614013606424,0.2097061813012614,-0.6759799351028862,5.458531280574652,-0.17528727424937834
637,1.5602545955005287,4.286237668084667,0,0,0.6714381044893044,1.0513474156291212,0.6226203129544636,-0.5013406180238603,6.221429362208016,-0.03849547023235214
638,1.5929849909530573,4.665647987859488,0,0,1.0252417985429971,1.1805744480300397,0.7474393470182209,-0.6111217431351874,5.424167532373854,-0.2833526154986554
639,1.601402492968482,5.016922745650146,0,0,1.3679782664039277,1.3735663566324499,0.7161024031443669,-0.8750670753687588,3.7812533511017112,-0.7350746654539291
640,1.58205866800501,5.329843257091028,0,0,1.2872942054566736,1.4269147062673746,0.6032805439690848,-0.4551091133585717,0.39205080372447104,-0.8726472064129812
641,1.534197941839562,5.592145532204776,0,0,0.9627725311330815,1.3998457168535692,0.4435334985545435,0.3586921684738093,-4.002796853658013,-0.8293086636831701
642,1.4601224498599645,5.7895952083830995,0,0,0.45611054751903257,1.2740092838852712,0.31419503167530644,0.8205938477667735,-6.569075104312749,-0.45884714696853657
643,1.365087585668483,5.90732384905036,0,0,-0.1514216605805586,1.09347494114612,0.20169698938462638,1.0876117473911815,-8.122682369272134,0.09277672720980051
644,1.2567758443459156,5.932073596816682,0,0,-0.6233115535756729,0.895233460455772,-0.03928558271595008,1.5126254360302982,-7.739047776321204,0.06741654058294161
645,1.1444697509245172,5.8545815944580255,0,0,-1.0204962592756246,0.6872397493412389,-0.35103118331817007,2.0246555192778497,-6.288474616086046,-0.27571839595373104
646,1.0380560225268254,5.671397190095267,0,0,-1.0191649722252716,0.5352145129433747,-0.4892913978851736,2.2288997115358136,-2.425732688323996,-0.32792819254305705
647,0.9469676663212457,5.385846784016105,0,0,-0.8048998652418697,0.41309417693448636,-0.5348554432221568,2.268688708484495,2.7258717207910084,-0.22469177750526764
648,0.8791518705208322,5.008272674507637,0,0,-0.45162038870043153,0.35219488740550725,-0.45684551625826547,1.7487467954258036,5.3149765328972265,0.009927757905665035
649,0.8401626209547405,4.555768949692214,0,0,-0.030046719889842727,0.3213719269100674,-0.3181268679542015,0.9538234505297988,6.6451910538477685,0.30909244870025354
650,0.8325017470650574,4.051433205495766,0,0,0.24619623468098725,0.396860911816498,-0.2333291113521322,-0.28443864966643817,5.369361013219808,0.433319821245453
651,0.8553316520638946,3.522947242009924,0,0,0.45294939881571566,0.5231828865167416,-0.174313595470214,-1.7346828945922932,2.8474524040805016,0.473901024580718
652,0.9046320043637635,3.000365215466869,0,0,0.3898785750444398,0.7585129162795625,-0.2524559973873272,-1.9723614105067857,1.104782315723911,0.3160477438038285
653,0.973781736614453,2.513302004902434,0,0,0.20070924523546127,1.0447863517645428,-0.3946972537462661,-1.643364116433192,-0.27372143560574347,0.065458853464969
654,1.0544542269675854,2.0880265510953486,0,0,0.09106405042661621,1.2255103603464481,-0.35947253147972913,-0.9054215803554447,-0.13108920229054982,-0.18813783153339028
655,1.1376547843843825,1.7450593228562996,0,0,0.02045240978533618,1.354426584184803,-0.2371405690735646,0.033247268772312474,0.7581760391177359,-0.44321086013219085
656,1.2147232744634338,1.4977154342191463,0,0,0.1854340180790408,1.2769373709263232,-0.29647961219587976,0.7045893376967067,1.4574649710570673,-0.29104114533368813
657,1.2781663691283298,1.351723723424872,0,0,0.4577452035744002,1.1054157166508412,-0.4385827934670342,1.2541449365942556,2.0702061053568404,0.04665676962573299
658,1.3222525629437052,1.3057302182307002,0,0,0.5654322944891685,0.9669109370599753,-0.40103386828524784,1.5562762032896245,0.7422452200556553,-0.023195732140241142
659,1.3433700783379294,1.352297389582897,0,0,0.5959196044031896,0.8438892828370896,-0.2792378387544658,1.7423788636687192,-1.4957997649187846,-0.2841672982091708
660,1.340186984724778,1.4790130278180609,0,0,0.5301678990236375,1.131543454294884,-0.19012077728061844,0.9390176270557854,-1.2681677671812208,-0.17308633571144671
661,1.3136513375222898,1.6694955585147542,0,0,0.420932236079711,1.6047544928984423,-0.1157691503888586,-0.3114159943819051,0.07353832280127304,0.1061002162480777
662,1.2668364491046413,1.904311790617916,0,0,0.47684502030478354,1.487891373753395,-0.14207626654656633,-0.7753076581839239,-0.6824230737717496,0.5319141271296544
663,1.2046056765786457,2.1619710059436112,0,0,0.601971495877838,1.1237282567764644,-0.2105694479826976,-0.9095596964172924,-2.317516623592197,1.0191795438386848
664,1.1330786991677142,2.42014366054772,0,0,0.31403163996876343,0.9045435164899207,-0.2985934853322576,-0.18659088009059444,-2.792442956381009,0.3400204402478064
665,1.058933152580622,2.6571143308682816,0,0,-0.1401493427258571,0.7437062295225797,-0.3944778378290302,0.8813718270132663,-2.800452743590831,-0.8085735015269427
666,0.9886381752938102,2.853350547481916,0,0,-0.2032953855921311,0.7005215389219492,-0.47112652637067715,0.8728616074286477,-0.5044263422516224,-1.0384366314573468
667,0.9277478151579974,2.993037187077632,0,0,-0.11292608099000329,0.7035257623194469,-0.5402235377667604,0.441741798283609,2.6961353849079277,-0.9076177214335286
668,0.8803676554733899,3.065440982988533,0,0,0.13302894103239712,0.6682925750199402,-0.2797949931666247,-0.7485442778781844,3.843527226344395,-0.37414615445327026
669,0.8488635484300023,3.065941132551548,0,0,0.4435390297821441,0.6171940586918165,0.1173591108769903,-2.253820893255318,4.139025197488101,0.3263926058963678
670,0.8338303880009733,2.9965075388157776,0,0,0.5690302899594109,0.617496255883351,0.28718139051275676,-2.0453603364620334,1.8992234262765257,0.23750380528647722
671,0.8342941010592805,2.8654437574731815,0,0,0.6201203338517903,0.6384681093419152,0.3655872214927816,-1.1477584072457772,-1.3600928685578089,-0.16883576995180238
672,0.8480866538715667,2.6863823260973643,0,0,0.4040673304289609,0.7212692008106354,0.15703066339808044,-0.6355521278772585,-2.607918992002714,-0.28230461720453487
673,0.8723176692366116,2.476713540880386,0,0,0.08984031195160089,0.8267922931108315,-0.15698343958965724,-0.2649772280649472,-3.1165304199776704,-0.2881446283440112
674,0.9038691564039373,2.255710477882296,0,0,-0.00016599910547834758,0.8739847981602309,-0.2890279665120215,-0.6455399284876665,-2.282064723677033,-0.08583376447539098
675,0.9398531864195253,2.0425897553635455,0,0,-0.005026730707333363,0.899026843957916,-0.351971360203194,-1.3113396491543168,-0.9375788700217366,0.1955203205600994
676,0.9779840999831617,1.8547225064903974,0,0,0.021892268274084983,0.9857695656417956,-0.33534154805757577,-1.018807300914577,-0.6329691798905595,0.33369122165737297
677,1.0168238853907976,1.706221073764421,0,0,0.0599306073824372,1.0941006012996257,-0.2908700417387068,-0.39096625042588423,-0.6921994757915146,0.4217640731822169
678,1.055867827728837,1.6071089865315626,0,0,0.01727171768370283,1.0703301474529694,-0.35946995155763894,0.027627122398142655,-1.2903310056542172,0.49669744986449593
679,1.0954541734314525,1.5631714214393195,0,0,-0.06468363030599004,0.9822313300525115,-0.4831313083908275,0.3443248941044842,-2.150886786961155,0.5652324057738598
680,1.1365073221644733,1.5764031412830326,0,0,-0.17288630815409567,0.9584844943925446,-0.49556529397877314,0.237716957338585,-2.23635434637157,0.1613206791570249
681,1.1801525933145443,1.64581635130005,0,0,-0.29006665203643306,0.9567486830816955,-0.46995494423016154,-0.013678940401344847,-2.056709857381997,-0.4041872419120792
682,1.2272615941188183,1.7683344670368952,0,0,-0.4172803651808972,1.0722547276694874,-0.5639584137067875,-0.3259067536997023,-0.8810549588957155,-0.4797516532333445
683,1.277994403151802,1.9395883081372762,0,0,-0.5480038605117603,1.2287732543640315,-0.6998041039764415,-0.6594142356730109,0.6430152626381437,-0.38392847201919145
684,1.331403346425892,2.154554647534407,0,0,-0.26667166949268395,1.1694189989557708,-0.39461338364489307,-0.6929932455173232,2.088416135098096,-0.1161714546571766
685,1.385166350258476,2.4080145270557534,0,0,0.15135039213067547,1.0384539793390808,0.05688088714483222,-0.6270779752181597,3.507720286807392,0.208620606003304
686,1.4355298312371256,2.6947360695803866,0,0,0.4324598155457002,0.9597679479842519,0.2606069499971697,-0.512654566144625,3.7485694984460936,0.14501206157809154
687,1.4775427629630336,3.009211879590697,0,0,0.6671802743998888,0.8987951691645333,0.3803837822319271,-0.3817955498439268,3.5901326739323762,-0.05019501314287618
688,1.5056257922712422,3.344843349701211,0,0,0.9148597891279685,1.0670645184117664,0.38853794511348055,-0.5284903851132988,3.351999052792579,-0.5034584963251167
689,1.5144346868884617,3.6926933981585344,0,0,1.1662604478143817,1.3011598790716419,0.36464007999864545,-0.7548837607649972,3.090980797451832,-1.030821902727038
690,1.4998746650139967,4.040218583835484,0,0,1.1446230115666653,1.381754290370847,0.5003302438316559,-0.2504410703869307,0.6329428463247531,-1.0227879821669865
691,1.4600489579774143,4.370577471871742,0,0,1.0446823183170002,1.418326916572094,0.6817878760489416,0.46359451241640137,-2.455167610491974,-0.8612100862863754
692,1.3959186616776151,4.6630555172820705,0,0,0.5207166630401476,1.3137900633336244,0.4700334454911502,0.7187257064205658,-4.766456185967341,-0.3552234298077358
693,1.311517252868195,4.894804322092935,0,0,-0.12320406467568802,1.1693338672642648,0.14704079620075036,0.8440345688860463,-6.857984762873294,0.248195174140798
694,1.2136719044324857,5.04359812348407,0,0,-0.5803186085475488,0.9290450342711312,-0.17862228844474615,1.1472070004934318,-6.4805362475231005,0.04729170099754581
695,1.1112859263705863,5.090945879740443,0,0,-0.9903595849015466,0.664607192126471,-0.5049583005777195,1.4951995380211844,-5.480926520300023,-0.35629408948664854
696,1.0142971056395462,5.024883248738273,0,0,-0.8705436872285759,0.5727698836967381,-0.5506547195903341,1.8367058650966994,-1.3520774213191127,-0.2742069058168132
697,0.9324481826626903,4.842049526189283,0,0,-0.6231168584761825,0.5225017534087913,-0.5287617922915622,2.1766500509088194,3.530418879494924,-0.07515005832937895
698,0.8740180144099278,4.548938393410505,0,0,-0.297898129886368,0.42721296176321316,-0.37262194177838187,1.6524965841404493,5.513684619439783,0.3073698701993522
699,0.844684076563588,4.162254622052365,0,0,0.0455948942466541,0.3213482506077701,-0.18494580078105696,0.9253557123279904,6.815884641386367,0.7329875836031526
700,0.8467034595211963,3.708169441278241,0,0,0.2873360726952561,0.39420615303292866,-0.05932470162027787,-0.054784230575560575,4.7942059497152725,0.745048248349218
701,0.878576273063409,3.2202379126072507,0,0,0.5024296463252433,0.5138693929634909,0.05004491614116811,-1.1011816344949936,1.9020427588185165,0.6488032157019088
702,0.9352748546709211,2.7360116908145886,0,0,0.3904208975528463,0.785661386071005,-0.17873189831312103,-1.5256784489031918,0.5742487244944179,0.34236705626179226
703,1.0090030291261682,2.2928176826267053,0,0,0.19672730677098682,1.095443366767385,-0.4919515185804098,-1.794872631930725,-0.362886978636547,-0.01655857759648651
704,1.09033502118439,1.9234771865856843,0,0,0.12860749620886175,1.2702384397511968,-0.4432142851343871,-0.8385933583710253,-0.1939605499888591,-0.2341124532783187
705,1.1695134082382672,1.652745560455933,0,0,0.09309515645569044,1.409981755710567,-0.30048850114073966,0.4359019489093473,0.262174631653289,-0.41495663174272357
706,1.2376778759517901,1.495016846763804,0,0,0.2285049437446002,1.2785052226520046,-0.3326822014384933,1.18995591794703,0.7904481435697395,-0.31615346963677143
707,1.2878450411971984,1.4535020919868913,0,0,0.404331579581681,1.0828950882543291,-0.406237979428341,1.8209444943621589,1.3357797394769435,-0.15122391185240558
708,1.3155384608189848,1.5207675245636396,0,0,0.5921804402343189,1.1415992724952002,-0.2699578358522533,1.703216154796745,1.1770656588583186,0.0031730708067372617
709,1.319044040936651,1.6803001691379302,0,0,0.7829137877824326,1.2613209747661285,-0.08333185569076754,1.405848508389223,0.8494302214266869,0.15504297753855234
710,1.2993176442856056,1.9087120900627446,0,0,0.7141278828929857,1.1662011727940256,-0.03342915877045612,0.48080566240568273,-0.7213613863462717,0.31166493160881803
711,1.259600563902047,2.1782660991875553,0,0,0.5806247928881811,1.0175056254749923,-0.01762160504905587,-0.6007626487117018,-2.6021630092485175,0.46947191933532656
712,1.2048199436123714,2.4594928377129834,0,0,0.28827345982461383,1.0190414354348547,-0.08800659923457979,-0.40716159688968845,-3.236423707279952,0.2783547969879257
713,1.1408708342037923,2.723699101838754,0,0,-0.039950071816191465,1.0545035197875847,-0.17785618512636192,0.07440693714143139,-3.5891819931312416,0.008441241491893604
714,1.0738840234058848,2.945184507455,0,0,-0.2619963616299446,0.9326176058841746,-0.3586281337491377,0.27627028040039525,-2.069716093158922,-0.5779715430485315
715,1.0095699144154588,3.1030681418715456,0,0,-0.4611601981913399,0.7768213346151727,-0.5589949284894532,0.41785384202111553,-0.1467637051892537,-1.2325936602895766
716,0.9527000702851471,3.1827518829922856,0,0,-0.23866771928294697,0.7437761478637603,-0.4618881279835961,0.08699134284937933,2.423478183405266,-0.9443027211466642
717,0.9067600907013652,3.1770764434037284,0,0,0.06181702262486029,0.7334357910704782,-0.30975869868894246,-0.3312578170003473,5.113446895428395,-0.48160452058165776
718,0.8737886769221266,3.0870870223243836,0,0,0.3281306577739278,0.6869149828825871,0.02684438736894872,-0.7460948310439306,4.483054500343232,0.14821212917443796
719,0.8544034257959913,2.922145115859889,0,0,0.5886365202385334,0.6342448907746673,0.3948008935052898,-1.160351911655792,3.288328538992147,0.8064324818346954
720,0.8479956174683045,2.699122993708249,0,0,0.5745816750563082,0.6040551303533113,0.36868065448751697,-0.8530578815045654,0.9502367947327809,0.41677682947618755
721,0.8530550169221935,2.4406598748951773,0,0,0.5155487312561665,0.5775480620796578,0.27800338958998905,-0.4275604951197083,-1.5751593178702892,-0.14454020458970265
722,0.8675718025906042,2.1727632177668625,0,0,0.31900672300672006,0.7024179460829519,0.03230525167230615,-0.6801050808056663,-2.1038543853761253,-0.22433688401580482
723,0.8894611617881428,1.922177195440069,0,0,0.09845946529450453,0.8537140261587987,-0.2404552093336253,-1.0510168935838773,-2.2839811111858723,-0.2200735325485455
724,0.9169588004301674,1.713869074994221,0,0,0.06954096026551525,0.9515729426042706,-0.2954011556600901,-1.0579785165611222,-1.456685020094867,0.018020632584118346
725,0.9489332683832429,1.5688436895200029,0,0,0.07379104096547327,1.040182541720439,-0.31264608216570555,-1.0019448274964666,-0.455016400874396,0.2965880423657799
726,0.9850570864706262,1.5024249424273448,0,0,0.13273458671472488,1.0556336891259024,-0.3649657632794107,-0.5073954367500814,-0.5172543092772303,0.4977150465091728
727,1.0257863011309623,1.5231425657347712,0,0,0.20085796335603565,1.0588058151924682,-0.42317244230308004,0.060755068482866256,-0.7580598419463472,0.6858443395781434
728,1.072125910148439,1.6323412446231855,0,0,0.08128942730119261,1.0178777740972154,-0.41767936685332513,0.09222768687065211,-1.6129470067016642,0.5444431347268673
729,1.1252030534288948,1.824530502026977,0,0,-0.0652299317554101,0.970617356809227,-0.40303959571802944,0.04663832358031772,-2.556010615168645,0.35572439767319136
730,1.1857179546837775,2.0883538774639927,0,0,-0.2497070301277552,0.9628077676948151,-0.4702308081790098,0.027117656737677805,-2.5612964255033326,-0.26416400255976036
731,1.25337874102132,2.4079660917611427,0,0,-0.44011230061765694,0.9611595383446077,-0.5502022373876989,0.011668352245311627,-2.4201217767858063,-0.9513917105009237
732,1.3264397207224055,2.7646279702269885,0,0,-0.3958080664009422,1.0427152010071805,-0.5572352806402503,-0.31761563135095444,-0.35088062489697625,-0.7977469668525689
733,1.4014528656649936,3.1384246930556046,0,0,-0.31496793853333943,1.1372227403203279,-0.5529144202044757,-0.695752474525477,2.018491673777308,-0.5132083912592814
734,1.473316254104939,3.510059129224036,0,0,0.015510035640150728,1.0810005836097463,0.042935996244978555,-0.7900560456770931,4.119828846473114,-0.25553465576017825
735,1.535665828437683,3.862567926096349,0,0,0.382112640416777,1.0029666116221323,0.7243855596909486,-0.8432866294734858,6.182379152281864,-0.0017484815382444168
736,1.5816035429930149,4.182613819906858,0,0,0.9082366151305451,1.1207164568286332,0.5815333595678648,-0.6825521636436966,5.811969118058266,-0.4037094937553223
