id,ASVM,GSVM,walking_nonwalking,normal_abnormal,ax,ay,az,gx,gy,gz
1,2.64909848581953,2.1484124932199693,0,0,1.1095097714306108,-2.382649732579423,-0.15581493170450667,1.6245283,0.35473305,1.3070794
2,2.1906471314193916,2.1699353731153463,0,0,0.7927459670421378,-1.3905445430183452,-0.00509079176562879,1.6245283,0.35473305,1.3070794
3,1.7585639270947007,2.1822478214906593,0,0,-0.016376783900137755,-0.5075205074588387,-0.03193822400926802,1.6245283,0.35473305,1.3070794
4,1.3774412047461282,2.1816285720010695,0,0,-0.3391156457700241,-0.3664584942510459,-0.16829510870948258,1.6245283,0.35473305,1.3070794
5,1.065750882505279,2.165540223361687,0,0,-0.4093585244334382,-0.4704969439416426,0.05296424077841243,1.6245283,0.35473305,1.3070794
6,0.8342631121116667,2.133077417010418,0,0,-0.24646272203404876,-0.7235792242375585,0.15518950443218557,1.6245283,0.35473305,1.3070794
7,0.6857516605765419,2.0853480337772954,0,0,-0.03427452859550304,-0.9523417170054841,-0.05930708372857018,1.6675723673608305,0.5422822831067563,1.3193777324479499
8,0.6158362065954888,2.025706970178407,0,0,0.11270367289380223,-0.953579739424486,-0.12626571523619934,1.4450940528439797,0.9736824288692911,1.3300063355872396
9,0.6146177145976356,1.959751519856369,0,0,0.13031281719623464,-0.7831491256092343,-0.11762599043352902,1.433846,0.99495703,1.3305153
10,0.6686994082573114,1.8949986057904273,0,0,0.09673118647688322,-0.7553538778278224,-0.06262776418783343,1.433846,0.99495703,1.3305153
11,0.7632233659251286,1.840204287385828,0,0,0.13969220228397541,-0.938980946424847,0.05019085247206306,0.9441898098274485,0.9770427148810322,1.2578630691741752
12,0.8836383638553033,1.8043533071497484,0,0,0.27898217843231204,-1.1011884080857983,0.12604952040098477,0.6980539253615867,1.1086987610308734,1.2320750473747972
13,1.0170067081752503,1.7954265127369016,0,0,0.5492042764400626,-1.19692918005769,-0.09128582462590501,0.680704,1.1195929,1.2303804
14,1.1527447202961363,1.8191243036103222,0,0,0.7127725652578013,-1.1195218542192396,-0.3324206274076455,0.680704,1.1195929,1.2303804
15,1.2827818910412323,1.87776766757028,0,0,0.7292211313389181,-1.0306953016414788,-0.054593129531461754,0.3072783341937525,1.1321368800899883,0.9322188411854747
16,1.4012216803779305,1.9696099963161902,0,0,0.6697076115936662,-1.0457557978013607,0.020794408157680935,0.26844665,1.1334413,0.9012137
17,1.5036782351900764,2.0887681138167427,0,0,0.5615640470683351,-1.159948628618038,-0.48454975564578395,-0.6776017183182061,0.7658502608795233,0.07389633683592038
18,1.5865230314187009,2.2259022943693343,0,0,0.4947318445802639,-1.1494526187448746,-0.28917536653657605,-1.820708947642412,0.8766241701441181,-0.9124530258064701
19,1.6462860365137517,2.3696252957503576,0,0,0.3716258570640017,-1.0209444602396545,-0.11042048455290998,-1.9622171,0.89801794,-1.0343717
20,1.679413930083353,2.5084179885370923,0,0,0.27086701613943687,-1.144174980022502,0.16951638964775717,-2.5154278969175126,0.4396169607629124,-2.080041575348666
21,1.682495624644579,2.6326436569826996,0,0,-0.0028313769306801168,-1.6307617635802891,0.5468975168343306,-2.602441,0.36751625,-2.2445123
22,1.6529306798952126,2.7361711416831183,0,0,-0.22659811204680883,-1.9965697125885342,0.05054987351076073,-1.6358781240230833,-0.8931785989135126,-2.6970229164965676
23,1.5898693042538605,2.8171852018588392,0,0,-0.1553437616126722,-1.977103386731285,-0.1394979014317039,-1.4647386,-1.1163971,-2.7771444
24,1.4951484428973378,2.877960440614504,0,0,-0.3166134456054603,-1.8294093731713164,0.10844903832471726,-1.4647386,-1.1163971,-2.7771444
25,1.3739332559849085,2.92363690292596,0,0,-0.36676357449234465,-1.550127627234951,0.14995770972844227,-1.3506988663401784,0.004551679105654053,-2.2741319397394584
26,1.2348486096854259,2.9602895034974193,0,0,-0.08174065385850306,-1.2653183146399214,0.04476733958712479,-0.46133779504453265,1.1011939227817233,-1.9233415578775028
27,1.0895106418388825,2.9927713431072536,0,0,0.4511732084657033,-1.0691274264244144,-0.14574201539930648,-0.24714136,1.3156016,-1.8620822
28,0.951494727031322,3.0228841500070707,0,0,0.49326371915163114,-0.9347395147850732,-0.2190841669470489,0.32381747769789554,0.1320081153112319,-2.221327923359771
29,0.8348733494697547,3.048359070732517,0,0,0.1913236414567522,-0.7749471119965532,-0.13708279924993766,0.4825648,-0.19707392,-2.3212113
30,0.7525212752814127,3.0629321453780376,0,0,-0.03687974968404042,-0.5339386680487287,0.06344937674646854,-0.13820991368407154,-2.015232194732352,-1.9588882095136326
31,0.7144232748221281,3.0575259826954486,0,0,-0.19246854924891954,-0.18286253923465295,0.3084609401198487,-0.32597092,-2.5651567,-1.8492991
32,0.7262312576080191,3.0222730616655085,0,0,-0.37189116652939525,0.1354042030822329,0.49140771506789294,-0.4888432350876428,-3.5407861246147356,-0.9506931976829581
33,0.7882945567688964,2.9489060560438354,0,0,-0.5344851250293035,0.3144181080688595,0.4710883901964268,-0.5422196,-3.8605185,-0.6562029
34,0.8953305428723428,2.8329549664547042,0,0,-0.4966817836380521,0.32342268836129495,0.36302638005474175,0.29241738760406205,-3.1099739723732944,0.03146882585605815
35,1.0368310099726021,2.675256575979235,0,0,-0.3418535449839799,0.13615212891374082,0.17363028548047799,0.58909124,-2.843191,0.2759035
36,1.1982260394736095,2.4824707693571835,0,0,-0.13177149545462888,-0.1789987346616164,-0.14525982964036796,0.58909124,-2.843191,0.2759035
37,1.3627343105759118,2.266535939959258,0,0,0.17895379743655065,-0.7506316922666618,-0.8346354005881801,1.3878500806240985,-1.8411116598993882,0.560246332120545
38,1.5136848335585495,2.043210432438043,0,0,1.046648854232147,-1.864556196128033,-1.2800574326648033,1.4148210126241125,-0.7720894339211252,0.56051309189941
39,1.6369101121910754,1.8300066852244266,0,0,1.7876031235114989,-2.8667443039495706,-1.0311105753776895,1.2964269,-0.49428272,0.51452273
40,1.7226789402961424,1.64391859919097,0,0,1.326790765296641,-2.5353819322829665,-0.9094810716303288,-0.11354513611546277,-0.229405705296559,-0.64163958828418
41,1.7666900717805298,1.4993521696181051,0,0,0.11068048796652474,-1.073233565516399,-0.5579749588538502,-0.7392935,-0.111852765,-1.1547467
42,1.7699302125110907,1.4065807493085019,0,0,-0.622331360585686,-0.0776472699329321,-0.24525585217561582,-0.7392935,-0.111852765,-1.1547467
43,1.7375847716683182,1.3708824193398106,0,0,-0.6184203219784631,-0.49997658438688825,-0.08960476100160375,-0.9192623162708151,-0.9836217425067777,-0.9956542207344496
44,1.677455433113179,1.3923428677451983,0,0,-0.7035118525350247,-1.7401642462951274,0.16429578822168145,-1.0056096,-1.401888,-0.9193232
45,1.5983532769860613,1.4661950863858566,0,0,-0.23519788814537315,-2.195648596507466,-0.4535963407582857,-0.17440177929385203,0.2429023764893065,0.6281756691107983
46,1.5087653174143247,1.5835459705344916,0,0,-0.054553308018916696,-1.1783503428135254,-0.26897584004163283,0.25033715,1.0833739,1.4189322
47,1.4159110840655007,1.7323746472598656,0,0,-0.17976751038390365,-0.2028656749252062,0.7988959524397115,-0.4552634131192122,1.449982467722364,0.921835933214898
48,1.3252213479891815,1.898717145653305,0,0,-0.2395847165151007,-0.04199879171407335,1.1656749310890222,-0.8383631,1.6490294,0.65194184
49,1.240249461974204,2.0679512079893683,0,0,-0.10020686799529764,-0.5757631957043233,0.5702955847511817,0.10244120722641692,1.591580846767485,0.9675709135381428
50,1.1629804443476188,2.2260824532811085,0,0,0.35058031351464003,-1.4584727340237482,0.05949158361190445,0.644485,1.5584819,1.1494204
51,1.0944092306852942,2.360925012792182,0,0,0.7915605445371682,-1.8958932434308589,0.0449528803075691,1.6311216822318222,1.278284962735007,1.768629103751254
52,1.0351709739464905,2.463060397047803,0,0,0.4734141899443961,-1.4048645148100083,0.0540347601511021,2.2349248,1.1068097,2.1475732
53,0.9859961849558498,2.5264550089169795,0,0,-0.11443362704745245,-0.7409114344124588,-0.09004498619362246,2.138753224552162,0.505252916200093,1.3943362251413092
54,0.9478608016597061,2.5486551314884007,0,0,-0.4089255995795645,-0.4733318800301131,-0.07587229190561673,2.0762005,0.113983296,0.9044095
55,0.9218564098947185,2.530576014240065,0,0,-0.3747631322109195,-0.490240394095841,0.10888310180549285,1.8940845785145117,0.36667692942068186,0.7998031473109736
56,0.9089228700933115,2.4760141343139157,0,0,-0.15752298898842515,-0.6869368591182099,0.15614173074550347,1.659652167064131,0.9305639126013308,1.0331409910537082
57,0.9096042042956771,2.391063530995591,0,0,-0.029667954775943053,-0.951198380855311,0.09075738445583541,1.5819178,1.2090752,1.2516857
58,0.9239257087730803,2.2835764088199033,0,0,0.03343729140141985,-1.0583170653078864,0.00480021461905889,1.5819178,1.2090752,1.2516857
59,0.9514052783055242,2.1627111105129173,0,0,0.11809750632190309,-0.9557724843829366,-0.08656667257199704,1.4814373728575339,1.2772582928492735,1.2546761752008857
60,0.9911531744842556,2.0385197151768164,0,0,0.20335674264040757,-0.8836410869289885,-0.07898551023328604,1.1037740148418325,1.341727132883873,1.3213326345007277
61,1.0419953574453964,1.9214836225890237,0,0,0.3055737286910153,-1.0237273380021719,0.02826665868990053,0.8628642,1.3507553,1.3731259
62,1.1025610101964287,1.8219140701694203,0,0,0.43491212594463313,-1.228373158511239,0.06593344174804543,0.7203179217393544,1.3932892921005346,1.3765745539385024
63,1.1712857849985858,1.7491816816992534,0,0,0.6172584019812526,-1.262085632966883,-0.07943094478498035,0.59867865,1.4295849,1.3795174
64,1.2462969128321153,1.7108109712628643,0,0,0.7577841163912912,-1.1351132801357064,-0.12648147415398847,0.2965799311076646,1.225947974938008,1.0651110086078497
65,1.3251774619356085,1.7115623520164192,0,0,0.7734376616565282,-1.001241361444925,0.05826422756109959,0.023435818,1.0418286,0.78083885
66,1.4046591358952418,1.7527065899031504,0,0,0.7364208681600182,-1.0119527095283096,-0.062149735992600104,-0.39232984505757135,0.8021519391468579,0.2194193416061167
67,1.4803489941564163,1.8317351468539074,0,0,0.6268487767240036,-1.1233190021409722,-0.4101464758154036,-0.7914915,0.572047,-0.31957933
68,1.5466285949186434,1.942697728679924,0,0,0.4676297274596054,-1.1441203503971005,-0.3774356788122948,-1.410835919416948,0.6200541255900683,-0.8946094876413653
69,1.5968578940993945,2.0771996366551297,0,0,0.3353605487677073,-1.079555461154327,-0.13754927701184508,-2.0421119,0.6689861,-1.4807175
70,1.6239691881119949,2.2258724239840975,0,0,0.18182684767121504,-1.1739332089197838,0.08083135788745564,-2.0421119,0.6689861,-1.4807175
71,1.6214513242859998,2.3799473590887503,0,0,-0.012566572730651504,-1.6234435640722242,0.3133766663576004,-2.3108518433315512,0.3344529240165159,-1.9468370538699056
72,1.5846074597976827,2.5324975944282957,0,0,-0.13883517128412462,-2.081472446753727,0.23432559711854042,-2.1740422883730846,-0.5227205741049423,-2.520653125840794
73,1.511847109026074,2.678995488070214,0,0,-0.13066519176398173,-2.0953188385248955,-0.04658527479432433,-1.6809874,-1.0769824,-2.5875273
74,1.4056978693229927,2.8170244340860577,0,0,-0.18854429746830995,-1.8138058950026519,0.013612232191044609,-1.5664646753674143,-0.334990799535854,-2.2988146497952973
75,1.2732429696130256,2.94523583436107,0,0,-0.1192703944121812,-1.470087716901595,0.25228098225891227,-1.4274544,0.5656554,-1.9483687
76,1.1258103997443083,3.0618847520150707,0,0,0.2567709625507458,-1.1190510947605772,0.15265955047578852,-0.9308556516060649,0.6745180185780576,-2.034069074110009
77,0.9779091832628181,3.1634350563928235,0,0,0.4031401267274728,-0.8526561461552724,-0.12908736339703702,-0.28549087,0.8159926,-2.1454427
78,0.8455653313941859,3.2437371032934794,0,0,0.2853795330468591,-0.6845631053359725,-0.14308874551172776,-0.22868361383151134,-0.20474885550984936,-2.297077760255769
79,0.7443148606545988,3.2941377892326424,0,0,0.10952929815647285,-0.5224128460231049,-0.007562896096082404,-0.15020229,-1.6149409,-2.5065672
80,0.6871562788566308,3.3046238870318487,0,0,-0.11314131693463542,-0.26037499560158994,0.19179942793565538,-0.43737295703674006,-2.4911132201057447,-2.1706723911167525
81,0.682758496909814,3.265797940814244,0,0,-0.3131659956012964,0.022556391505729984,0.4288944374558434,-0.85966843,-3.7795582,-1.6767262
82,0.7341723089425365,3.1712323850534263,0,0,-0.5040067470619537,0.1852062216160424,0.5502617921694947,-0.6246729766869786,-3.5948002863582085,-1.2818840398264622
83,0.8382176459434698,3.0196261691097273,0,0,-0.5937183036505224,0.22676319313859736,0.5088763446927419,-0.25672874,-3.3055155,-0.66365975
84,0.9856370070214022,2.8162369217134433,0,0,-0.4886877773249455,0.14042893948666832,0.3756182197354212,-0.25672874,-3.3055155,-0.66365975
85,1.1620371792172748,2.573246697927319,0,0,-0.25262700685516076,-0.10235149459519755,0.11570442021282451,0.30876179414475513,-2.709500240159982,-0.36193433347148374
86,1.349577658867305,2.308959656003678,0,0,-0.02214392841406778,-0.5041894461056948,-0.42143284898470146,1.2825783,-1.6831179,0.15765914
87,1.5292654940529449,2.045951337622708,0,0,0.3244218986156476,-1.255455456997512,-1.1977023822912187,1.657128656315207,-1.2829959397915605,0.36862569640949044
88,1.6835562056181597,1.8084515517714381,0,0,1.1009738595753042,-2.391609446705268,-1.554341819625663,1.8932682603198485,-0.28502494208332096,0.6825579183321704
89,1.7987845419933708,1.619337419890532,0,0,1.5947653431701674,-2.989043834639724,-1.2144685724299293,1.0439591,0.21411815,0.5454154
90,1.8668781965191072,1.4971542780253866,0,0,0.8236083432542461,-2.180452752027506,-0.9021297762467826,1.0439591,0.21411815,0.5454154
91,1.8859516971188974,1.4535861331888378,0,0,-0.35655057461613326,-0.7816575083893592,-0.4952009728304369,0.25792021854241515,-0.10687658442374416,-0.001349101882625928
92,1.8597165977611843,1.491755371929198,0,0,-0.8838899885768462,-0.5271738013009842,-0.23031077866952074,-1.3741912,-0.773382,-1.1366372
93,1.7960068605098891,1.605622393794117,0,0,-0.8782263527163203,-1.3214944243893352,0.016548989131402226,-1.2067229491450862,-0.5986181181999947,-0.6995616813899852
94,1.7049122796218181,1.7805934971755137,0,0,-0.7144638725230525,-1.7217104736321072,0.19338362195465425,-0.8362326,-0.21198763,0.26738137
95,1.5969852974480754,1.9952805352206233,0,0,-0.4081623852546378,-0.9701545449842105,0.09931305491086699,-0.798196449166395,0.5528558775630034,0.5574069713826639
96,1.4818378104333292,2.2242128970457857,0,0,-0.22309847238456407,-0.3274979192493116,0.8116874003367637,-0.39580060543630474,2.5155717148518115,1.2933188156124313
97,1.3672900271782573,2.4411545031832493,0,0,-0.00905920493143341,-0.36822688508168483,1.3696075729163604,0.36432046,2.8975194,1.417867
98,1.2591018792595419,2.6225248085266686,0,0,0.2385966853783591,-0.8537302501461637,0.796050156479487,0.36432046,2.8975194,1.417867
99,1.1611902888338461,2.7503405441496542,0,0,0.6495352763976315,-1.501174868069501,0.14705777266914935,0.9205491532496413,2.7930834073125337,1.633319804731561
100,1.0761252867354862,2.81416295507854,0,0,0.8202222551835917,-1.6307447695893942,-0.1309788065419495,2.4175703808084013,2.0359225978988658,2.0474063096660373
101,1.0056510010116424,2.8117456473601363,0,0,0.5668281592870997,-1.1731023612612559,-0.10659368899749,2.368083,0.70840085,1.562743
102,0.951026468828898,2.7483593404020596,0,0,-0.01740333129110268,-0.6125502845463977,-0.1246362215659294,2.1592765007467727,0.5645329298347178,1.3821821550994662
103,0.9131106799358307,2.6350489458487885,0,0,-0.30659860097686925,-0.43647029787157166,-0.04584593275786446,1.5254587,0.12783173,0.8341021
104,0.8922602948474374,2.486289700176808,0,0,-0.20950203961863498,-0.571121036523756,0.18245133110191347,1.471217083655942,0.3371550286499847,0.8816867774462039
105,0.888188038154703,2.317589766478058,0,0,-0.11537202287933485,-0.7997204814405913,0.13775005812244176,1.2911005,1.0322412,1.0396981
106,0.8999124975501404,2.1435098208559418,0,0,0.0038717482305339504,-0.9710076727331816,-0.028698933229301983,1.2911005,1.0322412,1.0396981
107,0.9258505100795532,1.976375425665735,0,0,0.12417756548415473,-1.0190961665115774,-0.09321849044276734,1.2732266713574008,1.0697541915957962,1.0313128448828106
108,0.9640225383954634,1.8257318202077417,0,0,0.171036215191847,-0.9829654752746348,-0.04692209515229841,1.2048141,1.2133362,0.99921805
109,1.012297842451094,1.6984110622442814,0,0,0.23759448931757904,-0.9742409043433177,0.03868719708650681,1.1127998599700446,1.1981374334829622,1.0234539508956013
110,1.0686018579119667,1.5989824366740768,0,0,0.3047332262549544,-1.115036945460459,0.031175043516310265,0.7275756,1.1345067,1.1249193
111,1.1310249770744685,1.5303352267806989,0,0,0.35798272044197543,-1.2440236638422661,0.01324221730266364,0.6883273824596873,1.1421277000913739,1.1674064403434887
112,1.19779463646384,1.4941786290562087,0,0,0.5982757986030481,-1.21948204577827,-0.025263917739847274,0.50813115,1.1771172,1.3624732
113,1.2671000905382601,1.4913158749408226,0,0,0.8467691549683175,-1.0847121715491834,0.016267732023187945,0.4081579435123257,1.1436145960148774,1.3086551934441755
114,1.3367977165269154,1.5216446942118815,0,0,0.7887914265181485,-0.9055961568773893,0.05297676269201007,-0.08948222,0.9768475,1.0407634
115,1.4040724893754217,1.583944374159211,0,0,0.7405145996378651,-0.9182667906490746,0.014904178313342595,-0.19299244444675756,0.9143787467718794,0.8589612014486313
116,1.46517200033214,1.6756095606296333,0,0,0.688919329559021,-1.0995734926980807,-0.2310571392318267,-0.7584683,0.57311225,-0.13422333
117,1.5153412037328584,1.7925427093153217,0,0,0.5239708747212038,-1.192414434686929,-0.31375948152906674,-0.8631756958207604,0.4976988900494924,-0.30337760699167
118,1.5490583895315733,1.9293804700660733,0,0,0.30860855434472934,-1.2186966165506876,-0.17157372214706185,-1.5009576,0.03834952,-1.3337111
119,1.560612623806474,2.0800959282162363,0,0,0.0509330881110877,-1.3385309845281785,0.04901658532078432,-1.5932379326064292,-0.088975685882395,-1.4476407746312712
120,1.544984086902951,2.2388331957100864,0,0,-0.27454832087216524,-1.5878350587017849,0.33415409864160844,-2.1755837510909752,-1.0121870021416397,-2.236500777697856
121,1.498903592809583,2.400679609283791,0,0,-0.26761094965646964,-1.7606244223676828,0.009060905819946268,-1.8013622,-1.3592775,-2.2786007
122,1.421893132647902,2.5620476760973983,0,0,-0.1813889602672649,-1.7008625825298342,-0.24837962166257593,-1.7691974975309779,-1.1475835807297554,-2.240618975960442
123,1.3170522056506504,2.720457035954448,0,0,-0.2710110511227708,-1.5886773429593852,0.0545243940858929,-1.5009576,0.6178534,-1.9238676
124,1.19137633801565,2.8737348382035934,0,0,-0.08709603665597385,-1.4212714872439647,0.387481585931261,-1.3866656208494013,0.6721250389804626,-1.9494931719010538
125,1.0554724597729943,3.0188918553785213,0,0,0.2861326081215082,-1.1424243715752256,0.11827508858110923,-0.2514024,1.2112057,-2.2040322
126,0.9226473349760737,3.1510792183685568,0,0,0.34775773069293014,-0.8710597193808833,-0.22125748561923098,-0.22959869396045443,1.0553132738180173,-2.237676874884835
127,0.8074612210796046,3.263038062088131,0,0,0.27027619769982814,-0.7074683865227382,-0.17989211142601105,0.033023197,-0.8223842,-2.6429212
128,0.7239359732997565,3.3453361695046318,0,0,0.16039532189734002,-0.5563958203666396,-0.04051223455363703,0.033023197,-0.8223842,-2.6429212
129,0.6836698009472195,3.3874869642127634,0,0,-0.09140304600187422,-0.29819098287724605,0.19695358408415845,-0.020217071231266884,-0.9696989644284223,-2.608818500474409
130,0.6941327256549762,3.3798112498977746,0,0,-0.2506999951817122,-0.12670715420897566,0.5677566270799275,-0.9864349,-3.6432045,-1.9899141
131,0.7573974511778361,3.3156737073148563,0,0,-0.40357166273476947,0.024296118721166278,0.49632638037504617,-0.9672011555886734,-3.647751389901816,-1.9582870596368431
132,0.8695083093768499,3.1935651166882626,0,0,-0.4754699838309362,0.09166455878725321,0.4577606735552369,-0.47723848,-3.7635794,-1.1526161
133,1.0206220799819226,3.0184813718152075,0,0,-0.3070667890502283,-0.034329569963334736,0.36775431026301186,-0.4452152514539227,-3.7268359095321406,-1.1228784719781464
134,1.1959782456038661,2.8022050779520344,0,0,-0.18626186778861423,-0.32330918777500073,0.07706825165677271,0.89588743,-2.1880531,0.12250541
135,1.3776596718479184,2.5623723228475734,0,0,-0.1113623514671335,-0.7018007276991336,-0.5927540235224185,0.9057936173395523,-2.175288213464993,0.12980104950255386
136,1.5469623999768645,2.3204919580966386,0,0,0.5687396989860586,-1.552704561025099,-1.5040421424289196,1.9590213,-0.8181231,0.9054748
137,1.6870100927785148,2.0992757528400876,0,0,1.5331241092846717,-2.514181252689204,-1.5273036891620433,1.9590213,-0.8181231,0.9054748
138,1.785097871543467,1.9197070328330945,0,0,0.963771962677822,-2.3444316226028454,-1.1646002896468612,1.2793519799662867,0.1945102628331769,0.8113992546579911
139,1.834246615816295,1.7982675356541882,0,0,-0.22732518422956485,-1.5013363821588948,-0.7318675906132781,1.2740563,0.20240025,0.81066626
140,1.8336477878527428,1.744709552666837,0,0,-0.7739962277044703,-1.2907962492728584,-0.47508883949777375,-0.8318017267230481,0.28918585755556453,-0.528759793310002
141,1.7879998494916796,1.7607076529193164,0,0,-0.5337702253362375,-1.7888613928051245,-0.14121698380516884,-1.2634204912303435,0.07152634104902726,0.5900987579193149
142,1.706020468640905,1.8396243687405611,0,0,-0.1407082054973811,-1.4510455685976789,0.4604503554687598,-1.2751216,0.06498113,0.624245
143,1.5985630724551148,1.9674665277178869,0,0,-0.2583910583427199,-0.29624318345412193,0.6302726759167088,-1.2751216,0.06498113,0.624245
144,1.476780034128747,2.1249141737360926,0,0,-0.200049872151178,-0.024686059860947206,0.7197456748565142,-0.9869726881365876,2.041438782573945,1.0392199921167447
145,1.3506997500541411,2.2901083995891085,0,0,0.11982740992339225,-0.2421672102000422,1.156060346710144,0.750245242399455,2.321414216149067,1.4004979360924967
146,1.2284360592040409,2.4417300732577623,0,0,0.22536223382467602,-0.71576488176287,0.7260230939955327,0.85966843,2.3329291,1.4221281
147,1.1160450542106437,2.561834232974771,0,0,0.39807815022162346,-1.6221871370376433,-0.0954223503123705,2.23796754008289,1.683159571154576,1.9527732075222375
148,1.0178471919655934,2.6379552533936117,0,0,0.6364443088150038,-1.8483651311080966,-0.2311397295324505,2.3510387,1.6298546,1.9963056
149,0.9369197737733284,2.664160039211888,0,0,0.41713504924324885,-1.2139434866675578,-0.10285323845968865,1.9065748048196134,0.6983205007290456,1.5102035498471336
150,0.8754838035625345,2.6409626609664483,0,0,-0.08957184741105581,-0.5479814032563012,-0.07945240803188344,1.8620822,0.60507023,1.4615428
151,0.8350452512179689,2.5742637717733317,0,0,-0.2795323943767825,-0.3404082757955552,0.142426297608753,1.8620822,0.60507023,1.4615428
152,0.816322833454005,2.473669052738523,0,0,-0.3016250798900095,-0.40751300801762813,0.22914219086532106,1.3661422830741317,0.4353316973755287,1.0604289212240745
153,0.8191022662026562,2.3506200536738646,0,0,-0.11451003768463733,-0.673698882451869,0.049889600980357406,1.3049489,0.41438788,1.010936
154,0.8421560900801918,2.216731790142949,0,0,0.12475256853183991,-1.022460473723693,-0.010839834355943009,1.4691519192317923,0.8874043833025874,1.2059270524948025
155,0.8832940260594045,2.082601657493424,0,0,0.15106017512970618,-1.0714602528227977,-0.030269399836804947,1.4924355,0.95447695,1.2335763
156,0.9395302641443781,1.9571782237251412,0,0,0.03871884123858257,-0.8684749011761704,-0.04321226911476722,1.3676234685095257,1.0278958199256016,1.1280366771741666
157,1.0073169830631858,1.84761514580458,0,0,0.05802191443748485,-0.8117948187943849,-0.03161418529699806,1.0551792153369202,1.1005350737506707,1.2272965847342994
158,1.082798252081011,1.7594349304782788,0,0,0.14246133813824227,-1.0784284712845338,0.004411283313041836,1.0045444,1.1110709,1.2474247
159,1.162054662659239,1.696800679530717,0,0,0.15777586943063013,-1.353338535361163,0.017461790931468976,1.0045444,1.1110709,1.2474247
160,1.2413112289167216,1.6627208013219588,0,0,0.2841155725030203,-1.2661808060446769,-0.02878831835711881,0.7454939699826095,1.1305883825796577,1.4736502933932127
161,1.3170741862120656,1.6590710948405691,0,0,0.747018987045781,-1.241736131516876,0.031871963642428607,0.15115814767931612,1.1836496920824737,1.318107062921877
162,1.386168320045153,1.686401254477105,0,0,0.9920960209030844,-1.1677838752734255,0.07886503801365292,0.035153728,1.1941614,1.2751216
163,1.4456752958677639,1.7435892398774666,0,0,0.8340141211436204,-0.940946435985706,0.06994015877856578,0.035153728,1.1941614,1.2751216
164,1.4928148096399383,1.8274974791909633,0,0,0.6296945790454771,-1.1084446593894823,0.024125326085399135,-0.5023552841318242,0.746665905282295,0.2155344422938049
165,1.5248441950736151,1.9328406824528683,0,0,0.5591479934416361,-1.4640401428764478,-0.06557032907740057,-1.161758740480241,0.1057107776708724,-0.8952225380001211
166,1.5390603495292903,2.0524636936872587,0,0,0.3641829627303751,-1.3785412005820485,-0.1371015727626874,-1.2974921,-0.03089267,-1.1142666
167,1.5329658561484019,2.1781283861508967,0,0,0.051005691995248216,-1.1956662224592673,-0.15736574926722363,-1.2974921,-0.03089267,-1.1142666
168,1.5046196146846211,2.3017358400298624,0,0,-0.36200704767552194,-1.3011908085300423,-0.17476848623468233,-1.9800350348932996,-0.6572455659337871,-2.048011842073323
169,1.4531413169824698,2.4167199520594504,0,0,-0.5649899601447733,-1.5536664057705276,0.11703533306674094,-2.192077644971351,-1.1139649041315758,-2.4158623368454557
170,1.3792816237045369,2.519217912303397,0,0,-0.4751397803268039,-1.5859701825345733,0.2302670894747317,-2.1965754,-1.1984226,-2.4458473
171,1.2859186294363363,2.608622262064931,0,0,-0.2687688549517368,-1.4509933101810872,-0.03766347293476301,-1.8580093190950113,0.2522335524969558,-1.97663452311015
172,1.1783240069128258,2.6872756023938242,0,0,-0.1150533458317799,-1.319532569511898,-0.09910896700989978,-1.743838,0.7414241,-1.8184065
173,1.0640761441887343,2.7593287358253464,0,0,0.15357991595646409,-1.1329722081965332,0.13952726086653305,-1.1162948869065128,1.4118427177011894,-1.8605024952167861
174,0.9525692838032214,2.8290335238083113,0,0,0.49863694987434,-0.9832030299399448,0.05145568996684794,-0.8863,1.6575515,-1.8759307
175,0.8541485272033826,2.898892826214764,0,0,0.41629532386158197,-0.8754853032865944,-0.05034074395031251,-0.13095177105169561,0.43297176478167887,-2.261234566385456
176,0.7789718176418624,2.9681228740540333,0,0,-0.2772931433537404,-0.42757499756347805,-0.07345753106781326,0.16831179,-0.05219796,-2.4138892
177,0.7357554322974061,3.0318227600617362,0,0,-0.11519345817053095,-0.2906266217096181,-0.08309813968609928,-0.04466165664764017,-1.4174698293092916,-1.9154566018797372
178,0.7305901388436333,3.0811130246723764,0,0,0.4945549256234755,-0.6985745122253937,0.09292406823795768,-0.13528858,-1.9984361,-1.7033578
179,0.7660069434171128,3.104313675772923,0,0,0.3722641039331848,-0.6962035227737066,0.42712477500400836,-0.13528858,-1.9984361,-1.7033578
180,0.8404265465839456,3.0890038774361126,0,0,-0.23915897021167876,-0.06571693925581985,0.4869347211138844,-0.6437720263384931,-3.2069003580229074,-1.5017053834871044
181,0.9480732871053893,3.0245817102551893,0,0,-0.8217717490114638,0.28142048004433684,0.4646382136506499,-0.88203895,-3.7731667,-1.4072144
182,1.079397178243729,2.904782752371029,0,0,-0.6107206178994331,0.09606394939901901,0.3628884909710254,-0.13911884361453705,-3.362960970300913,-1.2237948391602733
183,1.2220190352887736,2.7295876065247486,0,0,-0.17193114445260543,-0.19322095687874394,0.037825310501922484,0.23116238,-3.158509,-1.1323761
184,1.3621624003087727,2.5060821348187168,0,0,0.035779813766245276,-0.7835640242534462,-0.6093037191957121,1.43698186282234,-2.013224093718775,-0.3106376291344982
185,1.4864329827183502,2.24808605693959,0,0,0.8123863548520953,-1.7934046078080272,-1.4744693977942638,2.0772657,-1.4050838,0.1257012
186,1.5836571802801465,1.9746397033349385,0,0,1.503773039368183,-2.3635203441588537,-1.5741059699172713,1.9717783637365147,-0.8613136265611975,0.5027333554729705
187,1.6463714823087159,1.7076559927735535,0,0,1.1610289428674576,-1.8726230916947486,-1.062940534004404,0.15058320499171263,-0.47933473762603906,-0.12157526196242059
188,1.6715831040389724,1.469174933190759,0,0,0.355527037792565,-0.9909383736530237,-0.5455586343645001,-0.87990844,-0.43569317,-0.6114618
189,1.6606440741143196,1.2786915130248262,0,0,-0.15731448706532203,-0.6654167659643161,-0.19030754812693054,-0.8096764364053542,-0.689053547737627,-0.5176003134693669
190,1.6183849488041842,1.150958465079765,0,0,-0.3503257500713883,-1.1119411877803185,-0.08731315194429518,-0.76592517,-0.84688526,-0.45912898
191,1.5518533845908546,1.0945208520188785,0,0,-0.6563025543584484,-1.7837954999982322,0.032010429182118744,-0.26421478277388566,-0.0939993110263156,0.4424118735711522
192,1.4690048542956429,1.1110858225375742,0,0,-0.40496437668490237,-1.7770826224346215,-0.25586312357323426,0.068176925,0.4048005,1.0396981
193,1.377569620679473,1.1957134597088526,0,0,0.04026644401812542,-0.906352596381907,0.012094644425936328,0.068176925,0.4048005,1.0396981
194,1.2842070057206865,1.3377267063759561,0,0,0.061389260309582916,-0.279408703969666,0.8345620189669622,-0.3589925606908673,0.8121878600332851,1.1182082756452751
195,1.1940120307351165,1.522163298141974,0,0,-0.14506614212560331,-0.3539948253288615,0.917611980212452,0.2367280847469285,1.3031014715349294,1.0189286665827753
196,1.1104141218119152,1.7315386605241758,0,0,-0.3106906475617842,-0.7764284580433518,0.43137895700353523,0.9129316,1.4498249,0.902279
197,1.0354442580415852,1.9476717703771202,0,0,-0.08349181625486339,-1.2601564860549872,0.13896292211024536,0.9129316,1.4498249,0.902279
198,0.9702501440874499,2.1533470691348033,0,0,0.43762826835814544,-1.4839387735253975,0.07159507230064242,1.6813856569219248,1.4169749599536723,1.2841596356386344
199,0.9156615883945833,2.333633827437283,0,0,0.5912691474195942,-1.2659069466024087,0.005805676055118824,2.1446817289364755,1.0684636217743144,1.4777299749787913
200,0.8726004488390303,2.47675255771509,0,0,0.16117836233103253,-0.8779631766307409,-0.041251523834036984,2.0069582,0.7978831,1.3784522
201,0.8422059015544093,2.5744682137217714,0,0,-0.2809613758283089,-0.6117504395148156,0.01707834992471247,1.8368829227829622,0.8541994043554565,1.123902413383723
202,0.8256735585988917,2.622096313304246,0,0,-0.3087511088375355,-0.4648044694678705,0.12116758791191841,1.6852484,0.9044095,0.8969527
203,0.8239214154388221,2.618296085791823,0,0,-0.060547645270342766,-0.5403663686911956,0.10091524990914781,1.6852484,0.9044095,0.8969527
204,0.8372439236748321,2.564844352185913,0,0,0.08739079993043634,-0.7912536914315901,0.014418420785296732,1.76087045464794,1.2495702252866243,1.1335417212727408
205,0.8650901810857686,2.46651362737003,0,0,0.024766509204393036,-0.9035018996487395,-0.014166357726655728,1.8343854,1.5851135,1.3635385
206,0.9060349665134012,2.331050603189984,0,0,0.03688089551500544,-0.8132111404270607,-0.035538632241569446,1.6388974407280652,1.4689768646677175,1.2463508191249253
207,0.9579422871337185,2.1691344600957843,0,0,0.23128830006142134,-0.7791454962140146,-0.049454117600667126,1.438107,1.3496901,1.1259845
208,1.018272011964354,1.9941432403199473,0,0,0.44054622531259,-0.9538744107641061,0.017773342278599006,1.1329339796288742,1.4645126764152916,1.1647690319463413
209,1.0844486136954001,1.821578109609619,0,0,0.5481512322397486,-1.2050179337986493,0.13484080718784977,0.80107886,1.5893745,1.2069446
210,1.1541888814537684,1.6680611523153064,0,0,0.5272857904041502,-1.3582706019160602,0.11077109328524655,0.713971476281867,1.476035999554563,1.1896220899130798
211,1.2256796570162414,1.5499078652591054,0,0,0.47704404373635145,-1.3309382630186588,-0.04457288496335549,0.6135923,1.3454291,1.1696603
212,1.2975245469535577,1.4813778658809615,0,0,0.5488539905176919,-1.245718479431127,-0.043729793435568654,0.5171953664036074,0.9953307207903886,1.0684675095428755
213,1.368444059847525,1.472826309979902,0,0,0.6396227355926846,-1.2181370650436576,-0.014961106389574694,0.07254133267927713,0.4092730862295565,0.6316378939677822
214,1.4367965650160255,1.529090333023477,0,0,0.574527984664926,-1.1941272848685167,-0.23754248551598908,-0.3387541,0.20985709,0.23755397
215,1.5000581919908,1.648495460574982,0,0,0.48970458588972704,-1.177122622723699,-0.3064654117319828,-0.8374381357626279,0.3278106803989145,-0.2898215247061047
216,1.554437890018938,1.8227982459332313,0,0,0.4379147740847671,-1.1326055487713445,-0.12296622276213703,-1.5052186,0.4857606,-0.9960223
217,1.594801440191424,2.0381833551835737,0,0,0.283156063444008,-1.0767693928798348,-0.037850142311873766,-1.5052186,0.4857606,-0.9960223
218,1.615031749453585,2.277171930538608,0,0,0.0583671279071947,-1.1795837300245124,0.03545704623477207,-1.8731029537947652,0.35810084589733576,-1.4976043316264431
219,1.608859782120371,2.5210731301187286,0,0,-0.16834258061884072,-1.5781651347633374,-0.04636937781140148,-2.4138892,0.17044231,-2.2349248
220,1.5710689419714698,2.752487731727091,0,0,-0.3492068670340821,-2.1047680966199014,-0.17506427755981774,-2.366465810847412,-0.1082739901100179,-2.4379301159491042
221,1.4988389293727147,2.9573684356688985,0,0,-0.4627697870629714,-2.1029240480755553,-0.04550484154052258,-2.292449,-0.5432849,-2.7547739
222,1.3929110131760802,3.1262512038359334,0,0,-0.34188598080192434,-1.6101261364364812,0.08057741660559732,-2.3641564159803243,-0.11904954382088405,-2.5516696757460537
223,1.2582745811371105,3.254473936241307,0,0,-0.031056820999915385,-1.271026097745567,0.07849622064509033,-2.4831314,0.58483016,-2.2146847
224,1.1041911797451653,3.341443396198032,0,0,0.2542306992750385,-1.105932188960159,0.08610787014534732,-2.194958075355379,0.8568226463045079,-2.1052713350232635
225,0.9435270664756298,3.3892338901683705,0,0,0.42733879721808093,-0.9450290301284633,0.02680823338962592,-1.6863136,1.3369069,-1.9121497
226,0.7914924689401627,3.4009478919821245,0,0,0.34359680401792536,-0.7945617698183988,-0.07309876604146212,-1.2509795556529597,1.04298236659584,-2.1135287674207803
227,0.6639617576334503,3.3793074023760425,0,0,0.010376363206844652,-0.6187354830210025,-0.06421956267609666,-0.43356264,0.4910869,-2.4916537
228,0.5755892007439178,3.3258641991099145,0,0,-0.0868214859915265,-0.35479729693043033,0.04317309760019304,-0.43320631671874926,-0.2974598395902704,-2.6897701936424014
229,0.5379575872881813,3.241029961712084,0,0,0.256740532543674,-0.031541028380026113,0.21801490049417577,-0.43249738,-1.8663434,-3.0839405
230,0.5580007814795119,3.1248790028995783,0,0,0.2009023724574331,0.17384781846315414,0.3882734857409024,-0.4410471377238008,-2.2887015471294663,-2.475539501522007
231,0.6369171393249472,2.978444746723307,0,0,-0.16287348628704118,0.10039504780678707,0.44472435264173754,-0.45912898,-3.1819448,-1.1888351
232,0.7697397872489515,2.80509571447222,0,0,-0.3318583325105363,-0.08797123846862678,0.3850848620007784,-0.120448983111992,-3.0709022122463874,-0.8841210900669835
233,0.9456636038021035,2.6115716273865606,0,0,-0.3469768237658494,-0.23853812402372146,0.26463053281026266,0.64555025,-2.819755,-0.1949434
234,1.1491528040316605,2.408359110113931,0,0,-0.2229595381909489,-0.41402172916616314,-0.05852323265856633,0.9005110609881145,-2.651026329270989,-0.044581889939505875
235,1.361755903999568,2.2092370433934865,0,0,0.22181264308825327,-0.7333708437735589,-0.6968720307072325,1.6612350039465826,-1.9510391475692355,0.47104086303739
236,1.5644208368314656,2.0299857776865475,0,0,0.990968657044149,-1.5291909084326547,-1.4773580731970706,2.018676,-1.2239889,0.8490158
237,1.7399452385542309,1.8864195592441373,0,0,1.4905747658431847,-2.3870263896759405,-1.6168604191875817,1.581330791898123,-0.8814547776730223,0.5590902947214418
238,1.8750840821814836,1.7920641293421287,0,0,0.765490865396211,-2.261593693910132,-1.1542937426324427,0.406931,0.03834952,-0.21944448
239,1.9618661528128338,1.7559354845538964,0,0,-0.2321502674128363,-1.6807125298106598,-0.9049663121347317,-0.07671010538073492,-0.3000080900178099,-0.32594929544635487
240,1.9978801125663865,1.7809151902081148,0,0,-0.3591238422113007,-1.7294755875310084,-0.6534856421748909,-1.4796523,-1.2815131,-0.6348976
241,1.985598195982093,1.8631004762663754,0,0,-0.2129278776423524,-1.5358662183096168,0.10491394508494893,-1.5814322288935325,-0.9220625078512162,-0.39165647809683973
242,1.9310647092883968,1.9922602614020366,0,0,-1.0898250147299324,-0.21138270227939537,0.5808950723140879,-1.9004318,0.20453078,0.37071204
243,1.8423891670457135,2.1532714620175097,0,0,-0.5784450275507035,0.4296144534271077,0.8894592177461976,-1.407663234011513,0.6304011168518789,0.6446070157082491
244,1.7284409966576513,2.3282438166097665,0,0,0.41784647559634447,-0.012109127879708845,1.5542913112921375,0.26525086,2.0762005,1.5744609
245,1.5979871130479903,2.4989633517072374,0,0,0.06358796577743098,-1.2141109138494683,0.4404314241122279,0.7392904921173415,1.9113763494038698,1.7710693126671753
246,1.4593062225376814,2.6492447602658844,0,0,0.4431888725994614,-2.3241195538081314,-0.13784957431101935,2.489523,1.3028184,2.49698
247,1.3201265061998844,2.7667776042287184,0,0,1.0339300593901157,-2.066454056112155,-0.1929016578187604,2.489523,1.3028184,2.49698
248,1.1876393251218607,2.8441280198620915,0,0,0.43105452045776427,-1.0198323134566956,-0.09357251108372908,2.3654966882134056,1.013895769500451,2.219792298139451
249,1.0683844055780547,2.878751773625289,0,0,-0.25468867101222487,-0.46490755886902835,0.04598759615285949,1.8365159,-0.21837921,1.0375676
250,0.9679532638067505,2.8721514325802513,0,0,-0.5410436765082023,-0.39501460681832723,0.11541606185481892,1.8472103235451818,-0.22700979284931627,0.9730258386630548
251,0.8906135698029927,2.828559703586219,0,0,-0.48238569512301216,-0.5237158472954297,0.038143169715151276,1.897236,-0.26738137,0.6711166
252,0.8390165701364843,2.7536297808670085,0,0,-0.1557495713492301,-0.7239453454702693,-0.021815736843341427,1.9616396517302634,-0.0629171521152971,0.8193142086265823
253,0.8140994296922615,2.6535163186126365,0,0,0.14374957774514927,-0.9180473366923312,-0.04707526458019913,2.2935145,0.99069595,1.582983
254,0.8151979767807559,2.5345003127196053,0,0,0.17366637888990455,-1.0446997112457357,-0.09856778095709526,2.233808054319056,1.0897832312558755,1.554082533961022
255,0.8403093339583784,2.403069257269185,0,0,0.08126351962206035,-0.9366303177170873,-0.1278737404015036,1.7885618941363826,1.644244804133264,1.3416442973347193
256,0.8864176078482775,2.2662155339331727,0,0,0.04742180568166184,-0.7922769011227841,-0.08006343732005569,1.1664646,1.5776566,1.0588728
257,0.9498149602884988,2.1316972712787066,0,0,0.025460062295772842,-0.7986658362889028,0.041317219405199536,1.1223735054076545,1.5622247338366313,1.0849141153788129
258,1.0263885710497662,2.0080771377499285,0,0,0.1584624678764215,-0.9477364358345574,0.0821477776089664,0.82557994,1.4583471,1.2602079
259,1.1118689655527443,1.9044457118423979,0,0,0.3984730529694072,-1.1279730412332387,0.11608766473928672,0.8371945611450413,1.4714288268111193,1.2680324811503
260,1.2020324817742383,1.8298063752913232,0,0,0.621326242468926,-1.2572764502063856,-0.08124064273561518,0.9267801,1.5723304,1.3283848
261,1.2928339396077442,1.792154571392043,0,0,0.7333636192101683,-1.1503231714484012,-0.2861320912783184,0.8460660024685502,1.5209764469775833,1.2782936516112282
262,1.3804411269247832,1.797352846989757,0,0,0.9201888171188112,-1.0591262837563413,-0.055196737535480406,0.10972224,1.0524813,0.8213189
263,1.461164537564739,1.8479942828277938,0,0,1.017085288367303,-1.0927975888801362,0.05104740386342308,0.10972224,1.0524813,0.8213189
264,1.5313157131070876,1.9425306727370262,0,0,0.7919409034578506,-1.2273047929852074,-0.34328528985694096,0.03419332241103154,0.9859778485687191,0.7431773459060104
265,1.587066267669194,2.0749589699975695,0,0,0.41769404664724236,-1.2893339635738137,-0.25404034606872616,-0.9853256102467614,0.16135106005835065,-0.3359075554433558
266,1.6244019112576082,2.235265324738979,0,0,0.21526929542203066,-1.3347652218124089,-0.1422985933635624,-2.0431771,0.21092236,-1.7566211
267,1.6392626747197883,2.4106305242742803,0,0,0.035823934106941534,-1.368887700752825,-0.2583985294976752,-2.0431771,0.21092236,-1.7566211
268,1.6279258141028827,2.5871743270252496,0,0,-0.34480903667169477,-1.4744033250629331,0.20699091592939756,-2.0614791494335005,0.19575354510215123,-1.7946177409303583
269,1.5876221165374098,2.751854370590492,0,0,-0.3556163340517374,-1.6297295046887474,0.3232834123212646,-2.4351945,-0.113983296,-2.5704832
270,1.5172951272698563,2.89409814207362,0,0,-0.039977807051647246,-1.640121927170318,-0.17388784485537093,-2.421079118526605,-0.1211105214654915,-2.5640165460050888
271,1.4183441942933674,3.0068302431856133,0,0,-0.11524154822075498,-1.756340605522587,-0.08812881501756892,-2.0026972,-0.3323625,-2.372344
272,1.2951627128535643,3.086722496710707,0,0,-0.32539089840746327,-1.5664752447950525,0.17347856753247648,-1.9944582107320339,-0.2988397291017367,-2.368639490938423
273,1.155304988905461,3.133693792195609,0,0,0.007714123357999421,-1.1225929820677512,0.2130289204767834,-1.5691346,1.4317155,-2.1774006
274,1.0091827198224714,3.149865572764238,0,0,0.671017327069142,-0.8631377080156396,0.048284137141969274,-1.5603126089496282,1.4326550151539734,-2.1761065505430817
275,0.8692825432992589,3.1382920255217446,0,0,0.5634381158133009,-0.7406848787573926,-0.22738399690861483,0.02130529,1.6010925,-1.9441077
276,0.7489806092537323,3.1018165828571393,0,0,0.3236323871533782,-0.6922881499375446,-0.239241197490201,0.02130529,1.6010925,-1.9441077
277,0.6610916441538165,3.042362627443651,0,0,0.09646802227856689,-0.5559137535191672,-0.04381819023014911,0.3167993202320955,-0.8806367236345987,-2.2406533356342253
278,0.6163292578736264,2.96084832638899,0,0,-0.12560613821216582,-0.27508193949681464,0.3017651783399557,0.3206446,-0.9129316,-2.2445123
279,0.62187552993858,2.857731326559386,0,0,-0.29957181021174106,-0.0020934069092007988,0.4683725324738701,-0.39021512482415166,-3.376071051270207,-1.6238052364475952
280,0.6802579246863578,2.7339788088808374,0,0,-0.4771898301691577,0.07194017616423905,0.4321246869210804,-0.4101268,-3.4450653,-1.6064188
281,0.7887079532101356,2.592103456310055,0,0,-0.4709349340197401,0.08455257792603697,0.3875013441048742,-0.1273382875082862,-2.9203241649643004,-0.6437127170035679
282,0.9391358612777467,2.43689226774019,0,0,-0.24975286503010688,-0.024048084316045503,0.2502003346162624,0.9815710625583414,-1.7665672559367604,0.06155018030957472
283,1.1188038010753705,2.275596896477458,0,0,-0.005713638227872615,-0.2695559408123251,-0.03222454750007807,1.0418286,-1.7044232,0.098004326
284,1.3117007086590293,2.117557768529355,0,0,0.2347375080969799,-0.6756219557051737,-0.5994390945813489,1.9261581637133867,-1.339761468514989,0.5153283330341312
285,1.500488575214523,1.9733772580752433,0,0,0.8220449740197586,-1.5863844568507102,-1.3338297836520883,1.9899141,-1.3134711,0.5454154
286,1.6687097288320436,1.8538036919859981,0,0,1.6107808750360033,-2.568533447133691,-1.617570257799933,1.1250545453987144,-0.5932435122703908,0.5610512935171494
287,1.8027998863304107,1.7684937685722018,0,0,1.4360855882458512,-2.371198954211206,-1.2857918540298718,1.0471549,-0.52837116,0.56245965
288,1.8934655420434303,1.7248329544309056,0,0,0.22930271590856827,-1.0011461363933671,-0.5093178474089614,-1.2493709369299366,-0.6072300831797673,-0.8877752258580025
289,1.936208547791075,1.7269915114508474,0,0,-0.46947198341942253,-0.06792334982466888,0.03059870819977843,-1.4966966,-0.61572284,-1.0439591
290,1.931102353192826,1.775346059404741,0,0,-0.9392662212022721,-0.6183152921968837,0.3238792652242595,-1.4966966,-0.61572284,-1.0439591
291,1.8821267942218078,1.8663233365009824,0,0,-1.7498247446333965,-2.2803312891245566,-0.40302708648205904,-0.9255682874392914,-0.3033430015191332,-0.43143116654831803
292,1.7963311303743346,1.9926677551630712,0,0,-0.22720458497333781,-2.698124990138329,-0.16052209931054257,-0.6713267226738641,1.3960773262774704,1.404485577754925
293,1.6829181910557538,2.1440999480035923,0,0,0.7052661039887256,-1.1069066281784683,1.0534195277828697,-0.64555025,1.635181,1.6575515
294,1.5522340046060132,2.3082905721104723,0,0,0.12690170907836598,-0.22496679641078351,1.0572886445827454,0.07047992963642592,2.1314575643438847,1.1420463775277374
295,1.4146997513402388,2.472022524607137,0,0,-0.2531403554100806,-0.2356305819136735,0.4389808506331476,0.18748654,2.2125542,1.0578076
296,1.279840833841438,2.6223898845327387,0,0,-0.13493997864149232,-0.8048812260294924,0.24829346739741773,0.18748654,2.2125542,1.0578076
297,1.155601539247145,2.7478965472503813,0,0,0.040679980820282784,-1.374865695632537,0.21885762081755725,1.9411874162257639,1.918477631412209,1.287330802169474
298,1.0480345034676006,2.839346846730234,0,0,0.6722518641501627,-1.6945842572083951,0.20052223375217149,2.460944959895726,0.9363153764328523,1.7642195248023733
299,0.9612995944698082,2.8904455814747037,0,0,0.6054674681377733,-1.155889609759852,0.030887999183394816,2.4991105,0.7499462,1.8514296
300,0.8978154375442134,2.898059702815048,0,0,0.20430565877134182,-0.5736573846142456,0.03325191410114634,2.249013710867694,0.719446575607697,1.2362094184694274
301,0.8584349324213504,2.862156240355986,0,0,-0.32261981339293017,-0.4161920776871367,0.049653242176306185,2.1933794,0.7126619,1.099353
302,0.8426168824521315,2.7855043481938666,0,0,-0.46091559957142597,-0.5373438393632487,-0.014628642322817008,2.0303071024216073,1.2377381349255332,1.0677630335802082
303,0.8486429853215244,2.6732701061650244,0,0,-0.26045411670528157,-0.7482303270833994,-0.11181728798765327,1.9899141,1.3677995,1.0599382
304,0.8739294515386961,2.532614561385426,0,0,0.005337805391073327,-0.9018678622460476,-0.109191493704652,1.4104289982348965,1.6240458288076582,1.1654512739876126
305,0.9154271606636282,2.3723447233293085,0,0,0.22898544934154635,-0.9680038913366706,0.0744002395339735,1.252751,1.6937705,1.1941614
306,0.9700457635408882,2.2026015112720674,0,0,0.38922524664576474,-1.01393501469773,0.13993224475350755,0.6723169203949807,1.786541369372649,1.134229738911836
307,1.0350078367907771,2.034523306327061,0,0,0.4517534563002008,-1.119568722676964,0.04280920388212985,0.49960902,1.8141453,1.1163971
308,1.1080437631830715,1.8798043883279312,0,0,0.4502727185030059,-1.1360971139686642,-0.03982148773463751,0.4215337617105699,1.6934103263320681,1.1799841795833592
309,1.1873690874710243,1.750073343545481,0,0,0.5816631390485055,-1.0852977567378546,0.05122432531394966,0.39627838,1.6543556,1.200553
310,1.2714337765625978,1.6560501059339814,0,0,0.8565653762862567,-1.1022835763452,0.20502745328960276,0.39627838,1.6543556,1.200553
311,1.3584862591512739,1.6065064733370087,0,0,0.9264284067875163,-1.0511717877702145,0.020639851958142386,0.08376258938194565,1.1374122416222634,1.0517359918609823
312,1.4460451747207848,1.6071516078157213,0,0,0.8026805964880842,-1.0187310270413386,-0.20222178609857874,-0.02876214,0.95128113,0.9981528
313,1.530412483216572,1.6596691597812812,0,0,0.6058372680004983,-1.098789710915855,-0.3682993883691783,-0.423438654603962,0.4967121151134014,0.22492472655718573
314,1.6063854348979834,1.76119875195684,0,0,0.41986102954872984,-1.197717333927136,-0.3561489641150939,-0.5763081,0.3206446,-0.07456851
315,1.6673192015038767,1.9045235959958555,0,0,0.4056262849365366,-1.1946930410392345,-0.137797710741579,-1.4018133229223118,0.26119618477502127,-0.8609431590203298
316,1.7056451404139725,2.079066258271254,0,0,0.4454300806163722,-1.1851877760609608,0.22685810032375106,-1.7449032,0.23648871,-1.1877699
317,1.713859465172636,2.27253964938644,0,0,0.2676409297045858,-1.5169394497253266,0.495302397959134,-2.4033854927438045,-0.08869682379518248,-1.9384249918965775
318,1.6858737378046378,2.4728512681559973,0,0,-0.05182071382909362,-2.026084059628525,0.2296385554984614,-2.6961844,-0.23329292,-2.2722092
319,1.618488832185017,2.66973162594059,0,0,-0.12014308400632115,-2.209598597638688,-0.1665729760310346,-2.152487740260828,-1.0094866210892992,-2.5920731751562105
320,1.5126632591131874,2.855617419434022,0,0,-0.17031404892674648,-2.0346774065915305,-0.03253403765358479,-1.8940402,-1.3784522,-2.7441213
321,1.3742421597194365,3.025552243886551,0,0,-0.17811137465617866,-1.717030898572714,0.33935857909109984,-1.8699601557313894,-0.454911899015943,-2.400626605626224
322,1.2139111777803961,3.176194427122866,0,0,0.08565119619310013,-1.2754301460161712,0.3339779292318447,-0.9645346112242544,0.474434191230373,-2.119741924360977
323,1.046308905317154,3.3043333721125894,0,0,0.4449714820482275,-0.8869197005691684,-0.02781970953124317,-0.49747851,0.716923,-2.0634172
324,0.8884130239478191,3.4055037957033982,0,0,0.3891650917835562,-0.6883873481343601,-0.14200508347311208,-0.49747851,0.716923,-2.0634172
325,0.7574551320409888,3.473276562727543,0,0,0.06294659878506167,-0.5331063874708446,-0.09038739259954616,-0.061982061664299454,-0.6972552661487323,-2.407479746258728
326,0.6686922122626928,3.4995874461161343,0,0,-0.16103962011249798,-0.261192157641243,0.05970588285972237,-0.2377690308577106,-2.930216965490462,-2.1779786965680143
327,0.6333698459773004,3.4761123663699993,0,0,-0.242956746829703,0.044436764741272755,0.3338821873442452,-0.49002165,-3.774232,-1.9249328
328,0.6571666064037752,3.3963381433236126,0,0,-0.3194188207546456,0.17894508121703057,0.47018637207949754,-0.35374783934278187,-3.823134001112805,-1.33875985684979
329,0.7393274142215263,3.2577464610232783,0,0,-0.4586637411608216,0.15817173825233455,0.427456984264946,-0.26738137,-3.8541267,-0.9672601
330,0.8725981299162774,3.0635020142998437,0,0,-0.5596263453626665,0.0756932798592026,0.2861026419203322,-0.26738137,-3.8541267,-0.9672601
331,1.0439853336918365,2.823196889097834,0,0,-0.5067956307332897,-0.08167725781901924,0.08972804703435204,0.36077322834146386,-2.7679296017349584,-0.4556637974487337
332,1.2362863050633368,2.5524702863603275,0,0,-0.3497972654519007,-0.3718981506498722,-0.22710893068801247,1.38855016355897,-1.060589906286013,0.6215633493947124
333,1.430241893548525,2.271597261315854,0,0,0.12566733735514077,-0.9873202204355236,-0.9000115748560291,1.8120148,-0.37816888,1.1377025
334,1.6070359291633027,2.0033335243077315,0,0,1.134535018598127,-2.005508724872905,-1.4962090673026245,1.8120148,-0.37816888,1.1377025
335,1.750719706802672,1.7703699503103794,0,0,1.8626482535967332,-2.784577575896231,-1.3274540975903601,1.4938382255226563,-0.18822161684664176,1.282709559671875
336,1.8500671881468822,1.5927237563755203,0,0,1.299154967505285,-2.204486565031841,-0.8438670770574808,1.2463595,-0.040480047,1.3954965
337,1.8994730745966948,1.485355560015907,0,0,0.07183859903896386,-0.8398935324667062,-0.3835986716334421,0.04758353746252992,-0.15551115400385646,0.1400808853590092
338,1.8988038941026115,1.4562960426427065,0,0,-0.703525466442237,-0.2523045815278195,-0.03537648648924598,-0.9406285,-0.25033715,-0.8948221
339,1.8524549978531666,1.5055562074799451,0,0,-1.1084310606735859,-0.781230370726166,0.12388301878100344,-1.0481989647368257,-0.41425402702073116,-0.6967559027630588
340,1.768047080740809,1.6250211944518878,0,0,-1.2403371665825822,-1.653420194288414,-0.185592308709293,-1.1419635,-0.5571333,-0.52411014
341,1.6551336925537619,1.7993845994481077,0,0,-0.343330036433427,-1.801210012979479,0.3514800648862105,-0.7589333718693683,0.6069887949772094,0.4668690214045611
342,1.5240942496220977,2.0080160950672865,0,0,0.44500709920456594,-1.216090264002641,1.2902037482139173,-0.40906155,1.6703347,1.3720607
343,1.3852258582605914,2.227505287490945,0,0,0.2898666340605046,-0.7573250776307616,1.0372017019508795,-0.08764104356419311,2.3505753456753085,1.4040401414427996
344,1.2480021392394811,2.434499314073771,0,0,0.11387368828461719,-0.7259370707864843,0.37411886104093334,1.0887702182891745,2.598487952096483,1.3189641714370792
345,1.1205015912271898,2.6083800390737157,0,0,0.08680411330393331,-0.8792449528686466,0.025456505235595492,1.9494339,2.1923141,1.2037488
346,1.0090416716363588,2.7333565058633624,0,0,0.2062891089247833,-1.1051852508434987,0.004789636597198555,1.9494339,2.1923141,1.2037488
347,0.9180390669817178,2.7996911853036224,0,0,0.39384153629669105,-1.2012345781005358,0.03454478673230348,1.9274485308255276,1.6743789886646196,1.4818897364988357
348,0.8500638953474459,2.803989078998516,0,0,0.30216351855866574,-0.9564935383370919,0.03250704138206324,1.7399109570585933,1.030083677541882,1.4966225874656718
349,0.806016478712003,2.748686163891339,0,0,0.07597534567264813,-0.666298722476735,0.05903483304028332,1.5574167,0.9374327,1.1771172
350,0.785364360430724,2.6410153358454815,0,0,0.008416190010160082,-0.5770718674000201,0.0446284249627669,1.579881108252378,1.1879600354987925,1.1170492131437366
351,0.7864188624374171,2.4917654391764716,0,0,0.0731716812651829,-0.6555723843173323,0.033313979057167674,1.6064188,1.4839134,1.0460896
352,0.8066600710700039,2.3140826852394616,0,0,0.1918557077112939,-0.8210085395795635,-0.024400610910405723,1.4755843330477902,1.3804738635813991,1.1022965327328957
353,0.8431104250571964,2.1224386740765757,0,0,0.2516924667504562,-0.9338941331214813,-0.13753186730019054,1.3113406,1.2506205,1.1728562
354,0.8927227336507852,1.9317689109621554,0,0,0.23593371924561649,-0.9231172356721367,-0.13190802075375582,1.3113406,1.2506205,1.1728562
355,0.9527201079771833,1.7567126897043575,0,0,0.24371025551868197,-0.9150954592881895,-0.05821205998838559,1.0872274795132688,1.1421497386772044,1.1253442349171476
356,1.0208223002502148,1.610867481254494,0,0,0.34410891318821546,-1.0268364839988942,-0.01133593839939141,0.6755318824078704,0.9950310919899915,1.137100071302962
357,1.095311361584236,1.5059967117038289,0,0,0.443317911331963,-1.1350776993280602,-0.0008682057721652193,0.5294364,0.9981528,1.2463595
358,1.1749154285666727,1.4511817689879338,0,0,0.5900512744456202,-1.1402188353201477,-0.06561611873610838,0.5294364,0.9981528,1.2463595
359,1.2585164746561512,1.4519715042165706,0,0,0.8049463596720174,-1.0693126984538779,-0.035889147380615896,0.3766931932033176,1.0102554168331745,1.19502773432816
360,1.3447191237185032,1.5096474498793777,0,0,0.8976190234476468,-1.0077478717372634,0.0930122250309472,-0.13573415718325946,0.7902747374711238,0.7785092379586093
361,1.4313546623672153,1.6207844611746212,0,0,0.8465586705877592,-1.0600757169396697,-0.03922837416385336,-0.5752428,0.40906155,0.24074976
362,1.515030345538463,1.7773197952628539,0,0,0.6957176381727883,-1.2336764485585325,-0.37029446615711453,-0.9151618218769597,0.26969869948888836,-0.17062726495144898
363,1.5908578401673654,1.967302052715426,0,0,0.5373186703553915,-1.2570124679598884,-0.3261485208913791,-1.4924355,0.033023197,-0.8692558
364,1.6524974665573982,2.176343894124736,0,0,0.3523933695617496,-1.0532579535076068,-0.11431821196982869,-1.8747525718002078,-0.09479509280088991,-1.3156716257793386
365,1.692629502898821,2.3895800097043316,0,0,0.12325176887555064,-1.0095614539288775,0.19550579528473602,-2.5662222,-0.32597092,-2.1230721
366,1.7038979426053382,2.593726960080294,0,0,0.05386951611670062,-1.4114075381831082,0.6025054120917114,-2.5662222,-0.32597092,-2.1230721
367,1.6802543941065293,2.7787545483487497,0,0,0.13531087684979748,-2.0757153538092514,0.18490769456966588,-2.3290054902529547,-0.6720156210539445,-2.383405813590372
368,1.6184766277532467,2.938756955157356,0,0,-0.020273162534059357,-2.4047260342790393,-0.23540765116321344,-1.7349766876834476,-0.9204366396125444,-2.8348131586553467
369,1.519508924178999,3.071827628783683,0,0,-0.4166184318420306,-2.1473916188159263,0.02030700421723769,-1.4871092,-0.0127831735,-2.6951191
370,1.3892463997249884,3.1790146394629093,0,0,-0.3942731094502846,-1.6377787299295967,0.36248634518506595,-1.1250718073397428,0.5692769540154886,-2.515100540333644
371,1.2384946274156796,3.262676010121296,0,0,0.1139873322291576,-1.1223718014382251,0.25773687297673026,-0.330232,1.8471686,-2.1198764
372,1.0820363101630601,3.324703988742756,0,0,0.6555489624696651,-0.8254571711936948,-0.2688021500153425,-0.08775450629934828,1.1951735601925122,-2.2865994242324468
373,0.9369424452867972,3.3651122012738055,0,0,0.5342509172024849,-0.6863548060128885,-0.2545422267106593,0.48469532,-0.34408042,-2.6802053
374,0.8204079669324239,3.381381769798985,0,0,0.024731461419586036,-0.5325468805242083,0.003941917437854515,0.48469532,-0.34408042,-2.6802053
375,0.7474538517750196,3.3687688605136015,0,0,-0.3288751737652897,-0.1989821096683892,0.20371006474832798,0.16361027232335415,-1.1843792517476799,-2.5418066032057065
376,0.728835821978732,3.321527006496129,0,0,-0.42769124007553344,0.12891747470596054,0.3854048255399548,-0.6892261,-3.4163032,-2.1742048
377,0.7694528594708719,3.2347446453089055,0,0,-0.45152353446895327,0.27211673711159184,0.4870768978412322,-0.6339682445029379,-3.519359095003543,-1.8153050040627936
378,0.8674718098546128,3.106312143767913,0,0,-0.5101827930608738,0.31239075162325997,0.4857454392687085,-0.47617322,-3.8136468,-0.79042625
379,1.0142980306375546,2.9384876099089676,0,0,-0.46880653391939847,0.2684276924910704,0.33237585427840854,-0.1813021998377309,-3.4926809905345144,-0.5678377620111426
380,1.1954429724950726,2.7386552270713462,0,0,-0.23903258415119513,0.07755528859279233,-0.013980364285491029,1.031062417171362,-2.1115374076271567,0.30563219816925336
381,1.3922575673372555,2.5191092445883174,0,0,0.05126759069228979,-0.3446031454102662,-0.6153442121434393,1.9973708,-0.86392945,0.902279
382,1.5843788702229653,2.2959419581174263,0,0,0.608152109097863,-1.2100573066162739,-1.2954057277541118,1.9973708,-0.86392945,0.902279
383,1.7525565034691637,2.0872734508933624,0,0,1.703300183473622,-2.3779881638619162,-1.3002266534261806,1.889625212808631,-0.6707225385643832,0.9587937342250323
384,1.8813372741541665,1.9111161210527121,0,0,2.293645500870649,-2.978856389519698,-0.7924318135410844,1.4977618,0.03195793,1.164334
385,1.9610171236799225,1.7831648105189983,0,0,0.9636370187481537,-1.994020888207433,-0.6170698084992567,1.0805524329712306,-0.17686338238918592,0.7713860258061629
386,1.9884275328028616,1.7147923388120214,0,0,-0.6445745946971079,-0.6924663098348989,-0.3320681771651027,-0.6240638446952907,-1.0374961395162778,-0.745522611925313
387,1.9664766042194386,1.7115132418506183,0,0,-1.0461211209589256,-0.9528928359497624,-0.30788054313497604,-0.9086706,-1.2101405,-0.6540724
388,1.9027288097626307,1.7721310566475221,0,0,-0.6676815736645363,-1.9957777982150084,-0.21482019541738046,-0.9086706,-1.2101405,-0.6540724
389,1.8074961360828818,1.888701158704481,0,0,-0.2702494247318776,-1.7601395819135879,-0.30886177086109484,-0.9186968640011175,-0.7513459789143437,-0.39060441276920993
390,1.6919005295390048,2.0473415800503325,0,0,-0.3208967704602629,-0.4213146223765778,0.5187063152492613,-0.8942643384045468,1.4901024434699042,0.8940426235163432
391,1.5662608881423337,2.229821107042945,0,0,-0.22147204708912777,0.03480564645093278,1.308864188147637,-0.5400891,1.824798,1.0737866
392,1.4390419680213105,2.4157437031258597,0,0,-0.08279616623345064,-0.12207936841183159,0.9470533350454338,-0.1817471079040388,1.8696935159530588,1.209788811708236
393,1.3164725530578896,2.585037263810102,0,0,0.29006063040548646,-0.9472744722205299,0.4263988096732336,1.7811222,2.1156151,1.9547603
394,1.2027760688721116,2.7203721034653663,0,0,0.6172298167928186,-1.9129668869801113,0.07309816746610986,1.8560347785802083,1.988427494943434,1.9461222708769277
395,1.1007905808136078,2.8091177531332043,0,0,0.7807408434712294,-1.987558839949419,-0.06475603625490517,2.31695,1.2058793,1.892975
396,1.0126578207828514,2.8445221150562126,0,0,0.5474290150147555,-1.193999399534447,-0.058607782293121295,2.31695,1.2058793,1.892975
397,0.940293191109564,2.8259605222623776,0,0,-0.1043983258726728,-0.49404149290544697,-0.07069851238792164,2.2616885608066917,1.1017706643962801,1.7764078483277146
398,0.885505888643642,2.7583098454001713,0,0,-0.3874981966269996,-0.395903532043726,0.02726390721257601,1.807313144261892,0.3698260781301103,0.904089750332219
399,0.8498294693248959,2.6506909546221094,0,0,-0.31763169853431256,-0.5291203112638199,0.09165412867545829,1.546764,0.8767126,1.0471549
400,0.834235635708768,2.5149334605694036,0,0,-0.03371631019363334,-0.7313718715594896,0.1263800981759592,1.546764,0.8767126,1.0471549
401,0.8388978643587779,2.3641111126822434,0,0,0.13804037654174284,-0.8714889436663747,0.08975362048695162,1.5476906897487435,0.9204521264842754,1.0794035414528886
402,0.8630935300467724,2.2113773968297497,0,0,0.15913007582302197,-0.9212569509421097,-0.026536723865313586,1.5574167,1.3795174,1.417867
403,0.9052522721050038,2.069155903475669,0,0,0.1844561685367246,-0.861580559421028,-0.13947852079327897,1.5391800325813285,1.3568761279254677,1.405039518082968
404,0.9631111117143368,1.948591755268001,0,0,0.14828046193803632,-0.8391449938775026,-0.1499229921050731,1.2655486102074816,1.0864037464696952,1.241681126830384
405,1.0339223905068866,1.8591079142459095,0,0,0.29275747074141506,-1.021360679976039,0.013033318663686342,0.7073356,1.3486248,1.2506205
406,1.114660534061933,1.807939444850206,0,0,0.4495561147959375,-1.1962486871571365,0.01991428964128079,0.6846398369849522,1.3559825295327101,1.2565066825635602
407,1.2021742321313629,1.7996008179348064,0,0,0.5922069008557378,-1.2664219425649776,-0.09337453747682124,0.28016454,1.4871092,1.361408
408,1.2932352992685037,1.8353315068323364,0,0,0.8887019624954509,-1.1586175270614043,-0.043987085741425395,0.25475522238044246,1.4702912283213538,1.3314193290529395
409,1.3844579935374322,1.9126447693921176,0,0,0.952648902547517,-0.9867058195918104,0.14108810061852703,-0.38775626,1.0450244,0.57311225
410,1.4721079953421123,2.025168941433951,0,0,0.8365800259316724,-1.0129455958572777,-0.06862010527783209,-0.40819372573441476,1.0326720875658901,0.542892751280206
411,1.5518748387318093,2.1629952329634174,0,0,0.6654655581135427,-1.3448855332891754,-0.6154260680727119,-1.2602079,0.51771855,-0.716923
412,1.6187224414257837,2.3136856327599697,0,0,0.46386268656402907,-1.3380868733365225,-0.4135237184849352,-1.2739239277089986,0.5158214504712088,-0.7265223220556403
413,1.6669452384791938,2.463926612315451,0,0,0.17416719927085778,-1.0375096277023854,0.1237912880879479,-2.799107823537346,0.30486929205600655,-1.7939400701640846
414,1.6905391837520358,2.601579465343494,0,0,0.04881010423650777,-0.907284705912081,0.5760459036702763,-2.8005803,0.30466563,-1.7949706
415,1.6839398302355635,2.7176745921741503,0,0,0.1166454663365564,-1.5697698539417537,0.28086758127175404,-2.1292967589663143,-0.910986817282594,-2.6225372270454685
416,1.6430716526761608,2.8078292819838184,0,0,0.32258009066413956,-2.2811190228190004,-0.3237759914134848,-2.118811,-0.92997587,-2.6354642
417,1.5665114805550842,2.8726799255204263,0,0,-0.10331590388573858,-2.1713298317724705,-0.255425621955333,-1.7671310589279525,-0.7969356332435904,-2.6292763657662563
418,1.4564621952929664,2.9171659212548837,0,0,-0.49012856901351715,-1.8465804755086543,0.1408233627592962,-1.7555559,-0.79255676,-2.6290727
419,1.31923461693167,2.948794106481428,0,0,-0.31288625065043113,-1.3525153441396207,0.3363054258605281,-1.4883921736642176,0.971942528976999,-1.6965393689529695
420,1.1650569051203419,2.9752699583135795,0,0,0.012712956635803862,-0.9333074856503867,0.22668500982563855,-1.4753913,1.0578076,-1.6511599
421,1.0072078999956664,3.002050257790655,0,0,0.6055936393883036,-0.6561496402058621,-0.319262740455379,-1.4753913,1.0578076,-1.6511599
422,0.8606195027950184,3.030415544074772,0,0,0.5998952337314589,-0.6441868531991047,-0.19826123940960574,-0.06293349553431357,-0.17846623079175136,-1.840283965035191
423,0.7401691621255486,3.056567729470788,0,0,0.17423900917508786,-0.6476697142377636,0.015305578793211016,0.036218993,-0.26525086,-1.8535602
424,0.6588966269877399,3.07204128459328,0,0,-0.15033979069922163,-0.3933695191329102,0.2685566136581611,-0.21955971458568488,-2.242880745798443,-2.188718374081555
425,0.6263630895060922,3.0654066327659195,0,0,-0.24009089222745367,-0.07499373752041963,0.5320138446495389,-0.24181503,-2.4149544,-2.2178805
426,0.6473472522896406,3.0249063805961955,0,0,-0.2311621634738544,0.05227996004761474,0.5731041944445879,-0.4279931589886979,-4.029784740126132,-1.533941212316267
427,0.7210446464668198,2.9414057678531917,0,0,-0.28682716270361286,0.0607730630471064,0.4461853383904874,0.2722700159053776,-3.386063908161614,-0.7972605500443758
428,0.8409025901420862,2.810959208088928,0,0,-0.32353635056302255,0.009081780075511576,0.26226026614768067,0.3568636,-3.290602,-0.7190535
429,0.9951808932667846,2.636418020830625,0,0,-0.25056607997704594,-0.1285121834859321,0.031677124712125825,0.3568636,-3.290602,-0.7190535
430,1.1682623976430442,2.4277636906075637,0,0,-0.1111244033382527,-0.35296678416532995,-0.44050102081069537,1.3711889631205727,-1.5907452506974329,-0.3567278851955246
431,1.3426228261704012,2.201145502661964,0,0,0.20739746319920682,-0.8753515123923157,-1.127769750095412,1.5169365,-1.3464943,-0.30466563
432,1.501201064009521,1.976850419411607,0,0,0.9933804237239463,-1.8250419972497947,-1.498518559720788,1.9348949507638953,-0.40631667191914517,0.24956357419170233
433,1.6297367815291117,1.7765915341296907,0,0,1.6575017082708465,-2.5870906290933577,-1.153833649861429,2.0037625,-0.2514024,0.34088463
434,1.7185627627045859,1.6205651962182863,0,0,1.1956341736149432,-2.1739498834451076,-0.8148785652656596,0.6771444690880439,0.07641401239660726,0.26863856548666304
435,1.763448595571989,1.5247258494822564,0,0,0.16710042247611986,-0.8668526282744152,-0.48486446247341936,0.43888897,0.13528858,0.25566345
436,1.7653860325767692,1.498681031880138,0,0,-0.4197872134501754,-0.28727099604737477,-0.37156054104403075,-0.9057695220229026,-1.2040338797899581,-0.6007558692339894
437,1.7295424726905024,1.5444999685744767,0,0,-0.5467037558551495,-1.1631932115436476,-0.04983376256270545,-1.171791,-1.4689997,-0.7701862
438,1.6637982642756606,1.6565579924929117,0,0,-0.9964895180780952,-2.1220728673636833,-0.014879013116602533,-0.5475779459251505,-0.3307289423141863,0.08045699541201931
439,1.5772511022626485,1.8223644954664566,0,0,-0.6051626792254867,-1.590071306129433,-0.28930728681232776,-0.8570309021868769,1.5397565211700945,0.8322549467570671
440,1.478917145636818,2.024199807050761,0,0,0.12045510903808364,-0.6094840888110974,0.7670514320262316,-0.96086854,1.917476,0.96406436
441,1.3767378290660532,2.2413088087490025,0,0,0.06505118452831135,-0.2062701550691329,1.208317527612486,-0.96086854,1.917476,0.96406436
442,1.2769637574983164,2.452343048862968,0,0,-0.1083515157028187,-0.32235487108834004,0.520142746639551,-0.22676989535412037,2.1045827294389925,1.095544702031066
443,1.1839680545102724,2.6377204826233647,0,0,0.16970818754577055,-1.010793444097754,0.196502389907007,1.4339317309623234,2.09478648784478,1.7236954583888087
444,1.100473077758182,2.781596402377954,0,0,0.43766524777133553,-1.5639187213427144,0.11866990444384772,1.8418423,2.078331,1.8887138
445,1.0280613380571915,2.8732009766322757,0,0,0.6202846629375678,-1.6694059235154797,0.11122792851925285,1.8418423,2.078331,1.8887138
446,0.9677489174506358,2.9073947351691527,0,0,0.5766181627443839,-1.2383624234924344,-0.002650721211100887,1.9384742668290804,1.2557407332634585,1.8245632011498731
447,0.9203983434030113,2.8844305790319518,0,0,0.13972405648165062,-0.7016061983618439,-0.15330679788846185,1.9686087,0.99921805,1.804558
448,0.8868542742509564,2.8090709012557094,0,0,-0.17765474339512918,-0.4794494302129584,-0.086769171100394,1.898471767974332,0.7154823611522424,1.2123792999286986
449,0.8678377818461408,2.6893396211975262,0,0,-0.18876249304464612,-0.5092149791283992,0.0571458339532547,1.6321958460588895,0.709803203314522,1.1273102676622897
450,0.8637396119169573,2.535241141605081,0,0,-0.057363015516247694,-0.7255707814417854,0.09190819856518541,1.546764,0.7414241,1.1675298
451,0.8744593942037171,2.3577310759818686,0,0,0.0845175378063145,-0.9519756432706752,0.021508229866681626,1.546764,0.7414241,1.1675298
452,0.8993684987924598,2.1680917750881297,0,0,0.1278722406181203,-1.0115461515711468,-0.022915733912875602,1.534500168364325,1.172955872366125,1.324659571707642
453,0.9373892088556842,1.9776939649677792,0,0,0.15042046645130694,-0.9578082124255258,-0.11618077744659067,1.3244297956196123,1.2260237181250766,1.3200041418649289
454,0.9871297576427264,1.797974832907503,0,0,0.24104388393698625,-0.9527393480487929,-0.13085836758075306,1.2410331,1.1792477,1.293231
455,1.047004583138231,1.6403836007843184,0,0,0.4040337039577758,-1.004579746468237,0.00823591285195797,1.2410331,1.1792477,1.293231
456,1.1152851969903685,1.5160581683037244,0,0,0.6661483234672966,-1.0594795559861026,0.10665737036360103,0.9627190513363355,1.1240267562401747,1.470674643024224
457,1.1900498109949191,1.4350912577115686,0,0,0.8463774513327693,-1.1005028036491815,-0.05700775860762118,0.6201182059410785,0.84691633325542,1.360814243359951
458,1.2690244389774166,1.4053981273730927,0,0,0.7846474895095452,-1.0973240499170733,-0.1340485712591304,0.5187838,0.72970617,1.2729911
459,1.3493413731248733,1.431379257820589,0,0,0.700827286523515,-0.9992773609426965,0.10370678149348109,-0.08866814099457973,0.32592509532137287,0.49249009548500156
460,1.4272844180715856,1.512733652949257,0,0,0.6219686248001014,-1.0413491198285902,-0.07161360564162489,-0.3898868,0.1257012,0.10546118
461,1.498129548918435,1.643855770511284,0,0,0.49722325868579575,-1.1749762489155782,-0.30433338773351626,-0.3898868,0.1257012,0.10546118
462,1.5562015853924773,1.8141774478743122,0,0,0.3926864329942783,-1.2129200191262413,-0.22185565239525631,-0.9275136476533266,0.1622791592963768,-0.6557742672761022
463,1.595238386544069,2.009576232609815,0,0,0.23075334336989636,-1.2775605197874387,-0.2443691404803464,-1.900686544850398,-0.06707068953672549,-1.833561175413361
464,1.6090879264255145,2.2146262660044433,0,0,-0.05775071631077855,-1.5224158950637254,-0.06032380199646607,-2.2849922,-0.20772657,-2.2647521
465,1.5926753546616876,2.415154160878075,0,0,-0.25242760423212524,-1.785285875200039,0.264237517465346,-2.3394857628074965,-0.5719025901595016,-2.4302262697239776
466,1.5430872634710076,2.600423084091089,0,0,-0.15979098150772608,-1.8003222766373035,0.06757818336006689,-2.372344,-0.7914915,-2.530003
467,1.4605558436582615,2.7643662493695706,0,0,-0.09793391978296767,-1.7363668689225167,-0.12554106077127283,-2.1734697653326434,-0.051705743893496185,-2.2333113500383597
468,1.349112555360801,2.905575987047845,0,0,-0.1737285187457104,-1.6373049520217928,0.09672770120851072,-2.0453076,0.4250405,-2.0421119
469,1.216727907818264,3.0261080389119854,0,0,-0.050691518120139924,-1.3660720714852084,0.36451162107481644,-2.0453076,0.4250405,-2.0421119
470,1.0748459894332658,3.1294672649821464,0,0,0.39721027334956494,-1.0011430928510132,0.1901784780240115,-1.3868713813687374,1.1446975998196083,-1.8978057047501493
471,0.9373324152520393,3.2183309626604775,0,0,0.6686792722874754,-0.7464178079190984,-0.09080800204242784,-0.922519,1.6522251,-1.7960359
472,0.8189564759452896,3.2926193737547376,0,0,0.47515117701347237,-0.6570142093252642,-0.16432867932572834,-0.18756586505439596,0.6058615034504627,-2.107446373045484
473,0.7336051332514926,3.3484466199616176,0,0,0.12552198675357376,-0.5398523150355109,-0.05225675834211656,0.36218992,-0.1768339,-2.340386
474,0.692471593115254,3.378291170570395,0,0,-0.10269294067525965,-0.29386224736631994,0.21556458896180314,0.004642676595979937,-1.7914482473994204,-2.214857713074088
475,0.7024733955355676,3.372433470043109,0,0,-0.2431484956072637,-0.0651540521943445,0.4885281485832672,-0.27803403,-3.0679617,-2.1156151
476,0.7651319852083135,3.3213726061398288,0,0,-0.3962354689730199,0.03942924286375866,0.6030106971684762,-0.3541463747530001,-3.736123618746227,-1.5909628729936889
477,0.8760897249683621,3.2186485261001883,0,0,-0.5152806905997306,0.08438859972218375,0.5670658228954815,-0.41758367,-4.293016,-1.1536814
478,1.0253665915683494,3.063364142585715,0,0,-0.4735699481472864,0.054029780462946694,0.437765921684918,0.11589199047587585,-3.639041453737659,-0.7808707470923925
479,1.1983846608575068,2.861775306585598,0,0,-0.32518924518944775,-0.12374162686343647,0.12437726394297728,0.58696073,-3.06157,-0.45167214
480,1.3777087816753466,2.627562277739038,0,0,-0.12455961015385761,-0.5237956217302051,-0.547645590290104,1.3054145921600506,-2.2396148396488953,-0.0806086187746994
481,1.5453369873519165,2.3807108555066097,0,0,0.5541531284099123,-1.3755767044069591,-1.385522451174077,1.9771309,-1.4711303,0.26631612
482,1.6852108039841245,2.145204279403494,0,0,1.4711317652611464,-2.413341100661815,-1.5361170826685813,1.981950025687857,-1.0234832967172716,0.5758136538888978
483,1.7854586591020873,1.9459038554418548,0,0,1.396035743591426,-2.712027861269009,-1.1228201265396782,1.9867182,-0.58056915,0.88203895
484,1.8398529981964298,1.8050916863258903,0,0,0.42252115156244635,-1.9117583762645243,-0.7698293834242927,0.7414206681859163,-0.4640500667901372,0.1902070036153504
485,1.8481398594656566,1.7391993364678202,0,0,-0.40283676636364985,-0.9435637860340024,-0.48096924578373224,-0.5635249,-0.34194988,-0.53476274
486,1.8152387052137975,1.756250923182602,0,0,-0.6775617387679164,-0.9613996774812428,-0.32690317594869933,-0.9926779391146595,-0.7221289715726801,-0.6564402594429907
487,1.7496367472405612,1.8544676015775687,0,0,-0.6338123681139423,-1.6239783428558787,-0.11483327953861681,-1.2458552093621091,0.031266138293639494,0.0066600403283287105
488,1.661459514220001,2.0222936561586895,0,0,-0.646050572966098,-1.3898702618287215,0.1193686505699355,-0.99069595,1.3752564,0.9193232
489,1.5606701953872113,2.239855596446342,0,0,-0.5152945574675009,-0.40729814778269585,0.409593113582634,-0.99069595,1.3752564,0.9193232
490,1.4557251701585665,2.481624523888233,0,0,-0.14903263986852583,-0.08132858638586633,1.0114508887291698,-0.8718972127394313,1.9990681833212804,1.0007311143288653
491,1.352868584196704,2.7198609193634655,0,0,0.06600377869776693,-0.4097987942679525,1.1800970196177512,0.1945283377696867,2.932559425490497,1.399333461979775
492,1.2560948253767583,2.9282922629891233,0,0,0.21776770739703707,-1.0945005195380082,0.6080905458011899,1.3752564,3.129747,1.7811222
493,1.1676434877359947,3.085422441810173,0,0,0.6077666626262597,-1.7632543001500065,0.0789356277469262,1.3752564,3.129747,1.7811222
494,1.0887562304927245,3.1769272964373765,0,0,0.7949346455946441,-1.770741183387815,-0.12397156619644084,1.7650634361752835,2.6483507225847434,2.0001397503387244
495,1.0203781428444036,3.196768610098039,0,0,0.5487209088108681,-1.1991498659326456,-0.0845747481269997,2.3137543,1.9707392,2.308428
496,0.9635599942111767,3.1469293100497873,0,0,0.1048446894175087,-0.6253479893004025,0.033094435071807204,2.0241680999384464,1.3368956789689839,1.950930011297287
497,0.9194860787249327,3.0359682181852516,0,0,-0.24067290551676904,-0.40002036396093377,0.13497787520589405,1.591505,0.3898868,1.4168017
498,0.8892313829364172,2.876838046842648,0,0,-0.22065092689724153,-0.4782587411708683,0.13005049000483776,1.544053174635013,0.49469354748069766,1.2368972396430231
499,0.8734484833109188,2.684536056260349,0,0,0.038021120798267034,-0.7062411088196845,0.0754821645407745,1.4689997,0.660464,0.95234644
500,0.8721639590568185,2.4741158852813383,0,0,0.24065695927838812,-0.9243770815603274,0.0708256027211948,1.5231744084814267,1.0460605952623783,1.0069195278352583
501,0.8847661113572878,2.259392114895071,0,0,0.2760003276663391,-1.004165665340502,-0.014559928202901985,1.6138756,1.6916399,1.0982877
502,0.9101608486289837,2.052396138307992,0,0,0.18862709641632855,-0.9569033525673288,-0.10979887532119564,1.4706328008757639,1.636870599739809,1.0377733448866413
503,0.9470104116924263,1.8634031923389847,0,0,0.15684603300482058,-0.9432183962738464,-0.09961248337510413,1.2154667,1.5393071,0.92997587
504,0.9939596831021569,1.701227077752958,0,0,0.2492504923797341,-1.0021295279778533,-0.014060599783187612,1.059165882899197,1.3874195092879715,0.9910251121711274
505,1.0497772941409989,1.5734863579410898,0,0,0.39056549029393023,-1.0685727514218184,0.02582957733768775,0.6869921073634155,1.0553532353526072,1.2128418837037227
506,1.113368946564578,1.486641482982551,0,0,0.49192925980255164,-1.1158116173224069,-0.014791856805255738,0.5390238,0.96939063,1.4199976
507,1.1836475343808182,1.4457299712988811,0,0,0.6076554169075944,-1.1221403824279756,-0.014170051560153114,0.33587502325921087,0.9167096855421069,1.270907025656821
508,1.2592719164581316,1.453851583429385,0,0,0.7255131856803445,-1.078094772774022,0.03836495800374971,-0.08948222,0.8064052,0.958738
509,1.3382982473632272,1.51156289631397,0,0,0.7846669620120036,-1.0094710484068077,0.07082494814746716,-0.2873878481280293,0.7233701725841741,0.6213466574002945
510,1.4178218142256827,1.6164137790888302,0,0,0.7661084787465986,-1.0693976693252827,-0.1578546353999917,-0.7318367,0.5368933,-0.13635385
511,1.4937136354185288,1.7628664264270488,0,0,0.5412648001486898,-1.1633320680853803,-0.4403391784093578,-1.0212466021988815,0.5384559818983006,-0.44014051074627786
512,1.560564197548769,1.9427552248272764,0,0,0.42427544082815494,-1.2312821661299824,-0.43026301137058426,-1.7182716,0.5422196,-1.171791
513,1.611930731272604,2.1462838568872105,0,0,0.4117473303618782,-1.219296711050593,-0.030275424038900437,-1.7182716,0.5422196,-1.171791
514,1.6409428696705513,2.3633713098929237,0,0,0.19712278876371217,-1.2327946566723822,0.17791671445285343,-1.985842462376137,0.32551879188540506,-1.43907445118438
515,1.641253547819075,2.585020960812038,0,0,-0.07157441119348683,-1.5664377346286356,0.2308153462952098,-2.5993172604883044,-0.4700565015279425,-2.3431721882194516
516,1.6082293634044162,2.8043393547654585,0,0,-0.21019481397409273,-1.9656949013737568,9.987868475411942e-05,-2.2903185,-1.0535465,-2.847452
517,1.5401741309063484,3.0168875321866606,0,0,-0.2844854674955897,-2.0496943930358618,-0.23285820001955165,-2.1726755864802536,-0.5322527943383029,-2.70298748340295
518,1.4393104024500423,3.2202117390896854,0,0,-0.33055107753115043,-1.815718614453804,0.20018144432374235,-1.8184065,1.0375676,-2.267948
519,1.3122496465544025,3.4126489162022335,0,0,0.05713774623992359,-1.3190184612649012,0.6564216477010819,-1.380274626970497,1.2818911354343439,-2.2279359848857028
520,1.169774056929917,3.5917573284295163,0,0,0.8122330979511053,-0.9099523165576354,0.10130140486948291,0.0479369,2.078331,-2.0975058
521,1.0258971140443862,3.7528813250337265,0,0,0.9466162989428153,-0.719431261377051,-0.3560696577370639,0.0479369,2.078331,-2.0975058
522,0.8963126413084395,3.88836025764484,0,0,0.5121747229955785,-0.6479572965278734,-0.23009390395230217,0.18724353949373607,1.3579749771536673,-2.283096708050627
523,0.796449471754805,3.9877373610727913,0,0,0.12615016159774642,-0.48049659009641615,-0.03477933221065251,0.5191700906145374,-1.9254927373333168,-2.790910882912389
524,0.7394145598452415,4.039054307683676,0,0,-0.18329326454473865,-0.23737658763857297,0.23972598153907868,-0.18002969,-4.3026032,-2.1102889
525,0.7341302140447682,4.030995219598693,0,0,-0.3997640914263662,-0.06990909647330783,0.4689331607700066,-0.18002969,-4.3026032,-2.1102889
526,0.7839447330891368,3.9553709279744536,0,0,-0.5199812669284214,0.021172339054065674,0.5407193741007478,-0.1708157282102147,-4.3184826537078775,-1.8987598202622935
527,0.8859256696712196,3.8093201927945977,0,0,-0.5881024791585686,0.09932085143038924,0.4482121533307537,-0.12996227,-4.38889,-0.96086854
528,1.0309576192404148,3.5966935264011006,0,0,-0.5095490045479935,0.058753904917731845,0.2667135947602458,0.09073749116502362,-4.110710619328284,-0.8131931026340082
529,1.204684684994033,3.3283236816482256,0,0,-0.27824115020160856,-0.18518667337565256,-0.029234313933726736,1.3836372482067216,-2.4522802854899246,0.0784882829936517
530,1.3892516136877986,3.021171990301104,0,0,-0.11167918553182392,-0.5985292097468903,-0.5562643870371015,2.4682178,-0.93849796,0.9395633
531,1.5656717095879633,2.696576344891959,0,0,0.3489582923560543,-1.4161028893423788,-1.3431086811669901,2.3241548035285042,-0.8294987660216979,1.0115947833418242
532,1.716472076818645,2.3779546423884868,0,0,1.5093784204539182,-2.516124912650963,-1.5884753433862002,1.5009576,-0.2066613,1.4231933
533,1.8280991769952546,2.0883317308653053,0,0,2.1668931522254256,-2.8908367573339047,-0.9830136663432564,1.5009576,-0.2066613,1.4231933
534,1.8925363931591603,1.8480029690312367,0,0,0.9973956542359876,-1.6709898400381407,-0.5620558611333296,1.1790050727683954,-0.26818174020863667,1.1437602894163224
535,1.907784424616162,1.672574165726674,0,0,-0.42783693825909563,-0.332103881937589,-0.13645425333373487,-1.0628642341842065,-0.7192295491496707,-0.8117109192692781
536,1.8772287427498828,1.5715489138210739,0,0,-0.9807824117972674,-0.38809588555862357,-0.024116324710028662,-0.9353022,-0.86179894,-0.77231675
537,1.8082588596681721,1.5475714854023,0,0,-0.9994721518300864,-1.4517065258932844,0.20949311790958353,-0.9353022,-0.86179894,-0.77231675
538,1.710620587782027,1.5963738162584935,0,0,-0.8605637200901243,-1.9813475043797664,-0.4654151161871108,-0.8781348673381568,-0.6762092736845462,-0.5917292282871517
539,1.5948714052043138,1.7074173189109025,0,0,0.2242404857705138,-1.1332030792660697,0.361883245836901,-0.3387541,1.0748519,1.1121361
540,1.4711277187110066,1.8651605093650352,0,0,0.19822128553528076,-0.39461685442160477,1.4006342473782423,-0.33459043428693147,1.1569107958152856,1.110141008991654
541,1.3481764724781935,2.050815635308183,0,0,-0.20015588847037663,-0.4007920050825891,0.8999119173372604,-0.2876214,2.082592,1.087635
542,1.232979127445916,2.2443846181693146,0,0,-0.06144103570240756,-0.8127709930271467,0.23262901734780855,-0.15732973406910084,2.0805090619101088,1.1063814832641072
543,1.1305601153522025,2.426707432002525,0,0,0.152083822430615,-1.270950066195197,0.11454572140240042,1.6447684,2.0516994,1.365669
544,1.0442072168122605,2.58124326132525,0,0,0.5496646826628862,-1.6432951184263782,0.18210858431998905,1.668940231682728,1.989207739406184,1.3910437091311854
545,0.9758374324684578,2.6953536779206453,0,0,0.578814136816593,-1.3364603993074715,0.010514713722369529,2.0943098,0.88949585,1.8375812
546,0.9263521942214877,2.760963045247819,0,0,-0.007300173817739075,-0.7421209169758403,-0.1186297944492104,2.085678801492822,0.8916112899850978,1.8006455939268884
547,0.8958586050141774,2.774608923037737,0,0,-0.29598246354816937,-0.5693321457193817,-0.031696251797033365,1.8651218158740372,0.9644971797525622,0.9078658615923488
548,0.8837451796109483,2.737024140514917,0,0,-0.2890449113684796,-0.5810775443490064,0.04381868587262603,1.5371766,1.5648735,0.9150622
549,0.8886965337613233,2.652468506889012,0,0,-0.034249773926787595,-0.729033846114974,0.037426069106010824,1.5371766,1.5648735,0.9150622
550,0.9087544609419029,2.528023224167315,0,0,0.19704418387523362,-0.90581530426911,-0.006777674809150845,1.534388804703125,1.5672696214881072,0.9190595762405056
551,0.9414879541809983,2.3729811644052305,0,0,0.2824364217455703,-0.9713378758449053,-0.04610166645522845,1.2793826,1.7864485,1.284709
552,0.9842669377461662,2.198353219655436,0,0,0.3005735062085961,-0.9026588131042214,-0.07608832845161662,1.2793826,1.7864485,1.284709
553,1.034582903341249,2.016418796396077,0,0,0.30330415520605336,-0.9290514547631309,-0.01830847977093837,0.9265109605586486,1.405051247401025,1.1938497718085987
554,1.090336084314775,1.8402134761268742,0,0,0.4556617924819738,-1.1745422530549692,-0.001540908139645926,0.6310537888137757,1.1469685918059929,1.3623459477012854
555,1.1500051255674764,1.6828712816441693,0,0,0.6443428364769782,-1.35789689501717,-0.10133643222341066,0.62531024,1.1419635,1.365669
556,1.2126250082073815,1.5567966630629704,0,0,0.8055946632029523,-1.249954691030351,-0.1375404942927202,0.2660811373823496,0.9474239374153014,1.2987639519634144
557,1.277530637766278,1.4727031609561552,0,0,0.7878212476572376,-1.0304698051848107,-0.0379831333196811,0.25353295,0.9406285,1.2964269
558,1.3438870731629031,1.438611555650071,0,0,0.7768931833369733,-0.8935038996027572,0.15924445159362477,0.25353295,0.9406285,1.2964269
559,1.4101107722793882,1.4589534672102824,0,0,0.8508664858606046,-0.8486260683186526,0.02351601248656671,-0.4607592436406437,0.36455387932110866,0.5004147919222999
560,1.4733543853163593,1.533971609547148,0,0,0.6897033719191247,-0.9307459238153573,-0.2353491094058891,-0.5006743,0.3323625,0.45593318
561,1.5292477788692058,1.6596167034077982,0,0,0.4019438182380747,-1.027239845789128,-0.20511618157384726,-1.013343951356271,0.1773693658575556,-0.7243991915677211
562,1.572049687654373,1.82807241354533,0,0,0.23289261915949572,-1.1801678001342875,-0.3032164923162546,-1.0503508,0.16618125,-0.809601
563,1.5952762201301678,2.0288801217293035,0,0,0.010577235605138948,-1.426260374274209,-0.17457456383183825,-1.8771125255614998,-0.146911965128279,-2.024794012399552
564,1.5927516819698795,2.2504312822087087,0,0,-0.2578345653410657,-1.8093459556719367,0.335362028473392,-1.9504992,-0.17470337,-2.1326594
565,1.5599005299616338,2.481437016024656,0,0,-0.15091756218049382,-2.0114479462236035,0.18683506089357554,-2.311383151438943,-0.6021673936700682,-2.5138069261173768
566,1.4950057438607267,2.7119564627374153,0,0,0.05654359165453232,-1.8244485431025272,-0.2903352241357604,-2.3489082,-0.6466155,-2.553439
567,1.400136795376835,2.9336988937269273,0,0,-0.021861483603994175,-1.6487647518254605,0.03300743398153607,-2.106425108471462,0.24724349519264766,-2.060865609285778
568,1.2815118953208968,3.1395712193116974,0,0,0.14549407040342596,-1.422745066425082,0.4696009773276975,-1.218373414035263,1.3566172115225958,-1.829477165084065
569,1.1491795480904132,3.3227277542335094,0,0,0.6467013998438589,-1.0715178891140495,0.12007383158940468,-1.1046792,1.4892397,-1.8066885
570,1.016040772857667,3.4755805253720213,0,0,0.636285035388419,-0.8090882666879439,-0.114517603610585,-1.1046792,1.4892397,-1.8066885
571,0.8963522585865704,3.5892651966603375,0,0,0.3183210690690609,-0.6734094670986556,-0.1726369728199266,0.04679485044141333,0.18036988053189065,-2.44915766428284
572,0.8039362052879819,3.653915133414261,0,0,0.06693156962967424,-0.5030485938766116,0.022917490867548625,-0.2333504087344946,-2.662443391085103,-2.3646243861263536
573,0.7503665643754159,3.65982227743404,0,0,-0.13854612996748392,-0.16251647209710535,0.35228918554587313,-0.3121225,-3.1127028,-2.3329291
574,0.7433972515353284,3.5992469342636504,0,0,-0.3484842008960361,0.04759346219933271,0.6218989539329416,-0.5480549475698651,-4.371902844495091,-1.6492611797422547
575,0.785846794000101,3.4683901675138977,0,0,-0.7230349315255097,0.03992957216422721,0.6511416172421426,-0.5933523,-4.6136603,-1.5180018
576,0.8750752737336632,3.2689640761822907,0,0,-0.5984515500335847,-0.09088052332609188,0.4631124385353364,0.32745042029027366,-3.1249268750831374,-0.9851827592618438
577,1.003116791562246,3.0089260619565583,0,0,-0.45058605258422013,-0.1621993892929092,0.2112173143985978,0.52411014,-2.8069718,-0.87138635
578,1.1574824293278119,2.702220518518025,0,0,-0.2934615925737551,-0.24492857454494033,-0.14922311782877848,1.7399517942197475,-0.9219860825672397,0.05730976125194578
579,1.322602075152134,2.3676539765717757,0,0,-0.06003783039365109,-0.5504483093912661,-0.7198655671384931,2.026133,-0.47830373,0.2759035
580,1.4817825625301622,2.027188217036033,0,0,0.5437040460482992,-1.2096774928604768,-1.3934189644336787,2.026133,-0.47830373,0.2759035
581,1.6194123637753122,1.7039379562216497,0,0,1.5318732767643397,-1.9073846295151997,-1.3306656043379599,1.8677996722024284,0.03291057733519108,1.041461597823945
582,1.7230010465333456,1.4200754143784442,0,0,1.8765953788441743,-2.288875453545719,-0.8691887236663507,1.8258632,0.16831179,1.2442288
583,1.7846127353294106,1.1947790440730703,0,0,1.0209520635893832,-1.6112227796726175,-0.5615505572627005,0.10368587363841064,0.09048261519179569,0.22665386740677265
584,1.8014052379796732,1.042377724715039,0,0,0.06765871142523842,-0.781927885923628,-0.30887929378360923,-0.3898868,0.068176925,-0.06498113
585,1.775270416379241,0.9709026154205946,0,0,-0.3147608135709438,-1.0632433000336197,-0.17228571175422033,-0.8246146523093588,-0.5867588669164414,-0.533024518339738
586,1.711832021454842,0.9812765995406603,0,0,-0.362948306000574,-2.054961818187588,0.02121162302151069,-0.39821976213105675,0.16964859722876433,0.25900590579902083
587,1.6191579870329882,1.067295513747524,0,0,-0.41566705397887876,-1.5863480119821187,-0.5926080883707759,-0.21518342,0.4825648,0.56459016
588,1.5064851470107155,1.2164204064329422,0,0,-0.48236445231953745,-0.352633567781655,0.2986503311372115,-0.6395821194744193,0.8904284354850865,0.8527718474653262
589,1.3831425713501437,1.4112661262980069,0,0,-0.2350513747261824,-0.49572615394839464,1.351348730513547,-0.78936094,1.0343717,0.95447695
590,1.257771904939193,1.6315692694914241,0,0,-0.10449702117397788,-0.9374414354080695,0.7936134417360693,-0.78936094,1.0343717,0.95447695
591,1.1378711283180944,1.856360361457237,0,0,0.1676940327520995,-1.135144479347851,0.2322692864140005,0.5718840147314543,1.1759289888697668,1.526062108819548
592,1.029612247358503,2.0660570945838543,0,0,0.524182330792664,-1.2540402171128842,0.05786708211962605,1.1057445,1.2314457,1.7502295
593,0.9378248831960303,2.2442277302737557,0,0,0.5129244799664116,-1.125054472197553,-0.10788338441287235,1.8267289951293206,1.086949358810245,1.6102252129587418
594,0.8660270493805605,2.378833143915251,0,0,0.1761409244587473,-0.8495898317815294,-0.18202846314259755,1.933416657916041,1.0295470264030546,1.3779894579394854
595,0.8164255527968893,2.4628422644236974,0,0,-0.13419131143783863,-0.6601177417360521,-0.08603131359149342,1.8461033,1.031176,1.3017532
596,0.7898791178204515,2.494226713529238,0,0,-0.15664550561212803,-0.5422613395500342,0.05487306318856149,1.6077061225306608,0.8261109546778016,1.397401843630349
597,0.7858802165479839,2.4754516953775654,0,0,0.04525104029611801,-0.5520141195010049,0.14688352827913195,1.4956313,0.72970617,1.442368
598,0.8026330654789274,2.412653777898323,0,0,0.2245412353703608,-0.7050685718485661,0.1706307642948406,1.4956313,0.72970617,1.442368
599,0.8372772069717256,2.3147078860602286,0,0,0.1973472016093373,-0.8962754176384868,0.0505330364319758,1.492818589629527,0.8429166105541306,1.3657224180106016
600,0.8862494482598011,2.192339849040742,0,0,0.09764530142654326,-1.00087445667071,-0.11617647875191413,1.374772350864568,1.0677821024444891,1.177036728460317
601,0.9457245099136945,2.057363444911134,0,0,0.09677332863002631,-0.914137235094549,-0.1184793325200378,1.3124058,1.1568772,1.0972224
602,1.0120495695238274,1.9220424203919633,0,0,0.24858826087698188,-0.9290771530299459,-0.0008222940357848553,1.3124058,1.1568772,1.0972224
603,1.0820908497693815,1.7985197447494283,0,0,0.4339869134119806,-1.1352955051387958,0.00496222002695876,1.038897517629593,1.1246206885989674,1.3210018808179984
604,1.1534263648732397,1.698230086088904,0,0,0.5599704756734243,-1.2658305268636858,-0.04093893399856228,0.8788432,1.1057445,1.4519554
605,1.2243372704168212,1.6312240912265266,0,0,0.6093628432831957,-1.3023279353187884,-0.05721334584223708,0.5917861336615172,1.090636223614238,1.4007186902253856
606,1.2935771420754114,1.6053865415069164,0,0,0.6315342402638817,-1.245955263263121,0.0521250969225218,0.4133226,1.0812434,1.3688648
607,1.3599454893073093,1.6256167219598987,0,0,0.6318235536219655,-1.1050085136977867,0.06318463218249884,-0.05748966452983801,0.9086977817383247,0.8339091836952074
608,1.4217554670637658,1.6931345298582914,0,0,0.6325252640851101,-1.0573271420101211,-0.15836883612474462,-0.3685815,0.7946873,0.48043427
609,1.4763437732946358,1.8051387369559215,0,0,0.637180484671116,-1.0495480008936766,-0.3117912890510523,-0.8018372416215167,0.7909307395131767,-0.006039296263830624
610,1.5197969901120139,1.9550268888316966,0,0,0.5400878736090318,-1.0108077030665403,-0.2818898320758061,-1.1057445,0.7882957,-0.3472762
611,1.5470488377771876,2.133264229242579,0,0,0.22227570145624245,-1.0042614224037694,-0.21829578982408307,-1.7548682990560511,0.6593266531095542,-0.9805081220955413
612,1.5524361246287504,2.3287860434276326,0,0,-0.11811341730943875,-1.210993866377537,-0.02291819565006031,-2.4570993100253453,0.18010591831025,-2.035664418736388
613,1.5306934173642237,2.5306090568356168,0,0,-0.17765777569268656,-1.700120039729757,0.20114128482328839,-2.625877,-0.113983296,-2.4841967
614,1.4782329100616474,2.7292108496454635,0,0,-0.08433526641496467,-2.050707054997197,0.006339175682776067,-2.1688995668103717,-0.16208617779160026,-2.530539780461436
615,1.3944342406964338,2.91728336568115,0,0,-0.06756472447602571,-1.9204991720882787,-0.1686219715030889,-1.7960359,-0.20133498,-2.5683527
616,1.2826142130605176,3.0896730656174554,0,0,-0.13800097189818794,-1.6054432800510388,0.09330029843558464,-1.7960359,-0.20133498,-2.5683527
617,1.1503948888513504,3.2425994982132487,0,0,0.09542073513554002,-1.2641041158169604,0.24792680643501608,-1.3966973855494251,0.5804447988387808,-2.3909314474488856
618,1.0093245063510707,3.372484192528091,0,0,0.564322391406461,-0.8845734975442895,0.00468276135163553,-1.0407634,1.2772521,-2.2327943
619,0.8737716176242646,3.4748487815496434,0,0,0.6420984932527976,-0.6406848570777787,-0.21958475905726277,-0.32540746031214224,0.8787357917407382,-2.2563654292719946
620,0.7592528127559754,3.5437300039052726,0,0,0.37375593866782175,-0.5279780609976295,-0.178964769513713,0.22031495906606946,-1.1310975145404567,-2.36880287731822
621,0.6804440683174522,3.5719129347849057,0,0,0.10450754263943754,-0.39510563392724135,0.05493733990880776,0.094808534,-2.7196202,-2.4564998
622,0.6491666792273537,3.552032102981605,0,0,-0.12080402166696105,-0.2171269678437076,0.34367381522618357,0.094808534,-2.7196202,-2.4564998
623,0.6726373492683104,3.4783038568299545,0,0,-0.29851231705473735,-0.09395406781798549,0.4857780657753787,-0.09138973716751501,-3.6981954626473077,-2.0292782195757764
624,0.7522327072488021,3.3484324554715874,0,0,-0.4457923844020993,-0.03168539665742315,0.4867824556275407,0.039577108280656505,-4.248048616402927,-1.2030323293680871
625,0.8829523405977241,3.1651585368946957,0,0,-0.5431463710308206,0.03311004541578883,0.4466383715945117,0.39840892,-3.7156425,-0.7946873
626,1.053689949954366,2.937015911582072,0,0,-0.49906266889984535,-0.0014346138429176915,0.3155262588213794,0.9749669631504099,-2.6649380219839593,-0.4849904444496746
627,1.2483484398055595,2.6780901041528473,0,0,-0.34221232111358924,-0.19390587732695455,0.013801931308297962,1.6458336,-1.442368,-0.12463594
628,1.4477458816907127,2.4068354044225218,0,0,-0.11989830085407018,-0.572267192755489,-0.594109846662631,1.6458336,-1.442368,-0.12463594
629,1.6321248692466568,2.144198023328571,0,0,0.562617930445311,-1.4100074867574113,-1.4987108569833099,1.9519302925661424,-0.9534570210627458,0.28083677145895375
630,1.7838933042154588,1.9113565230432377,0,0,1.6465966053555514,-2.6003175645521095,-1.9132621659675393,2.3414512,-0.33129725,0.79681784
631,1.890057084805229,1.7273630978352328,0,0,1.6046417493244598,-2.9040938248548116,-1.3501734630094624,1.5448630278012885,-0.3703545909766593,0.6546672580325819
632,1.9437835809897892,1.6069350283411985,0,0,0.253630975586967,-1.7537498693097917,-0.5771846506073871,0.47297743,-0.42290998,0.46339005
633,1.9447482618806484,1.5586506442758132,0,0,-0.7315471059552948,-0.6614744753324945,-0.33298049998733376,-0.37137690722967137,-0.6221248330333723,-0.2068161886372474
634,1.8982972997371386,1.5838113754622984,0,0,-0.8378316014601471,-0.8185454758307612,-0.32970475455341364,-1.5723304,-0.9054748,-1.160073
635,1.8138000742419085,1.6761735856116575,0,0,-0.5712077327372332,-1.7395453586398253,-0.051312836836970674,-1.290478806831469,-0.5590056738946085,-0.47266124992904746
636,1.702696292959453,1.8226259561462492,0,0,-0.46618637614214475,-1.7106372490502144,0.15850805924732567,-0.86606,-0.037284255,0.56245965
637,1.576667314352217,2.0047510659882186,0,0,-0.19100282556803957,-0.612941054900774,0.6704261392189967,-0.8738456963057325,0.7875907485746177,0.9185532225907643
638,1.4462081027485187,2.201097340590483,0,0,0.04970296166215011,-0.1527888742412211,1.2954050197489053,-0.8863,2.107093,1.4881744
639,1.3197423973667841,2.3898742177337593,0,0,0.16442899766513303,-0.3582027892778103,1.031401543019356,-0.29867456393511144,2.3397768925328424,1.4787093094492934
640,1.2033146539642336,2.5516651582845866,0,0,0.3674519323412454,-0.8701617056701434,0.2718118115176855,1.2645972181709182,2.550426405968592,1.5892848096136847
641,1.1007833148766366,2.671692587131435,0,0,0.5663641108606948,-1.4286243774807352,-0.03369315515388692,2.2509038,2.2264028,1.8109496
642,1.014337249011242,2.7412307109653757,0,0,0.6724264969580271,-1.5998186619701438,-0.027712928528739807,2.1356824488351966,1.6149862784220865,1.7548256312700936
643,0.9450968276886136,2.757949299029296,0,0,0.601812533873649,-1.227620834355686,-0.029612961875162498,1.9206718,0.47404268,1.6500946
644,0.8935807470386906,2.7252296140363117,0,0,0.03185816590555382,-0.6385524546332821,-0.05658991873980655,1.8363678297523653,0.36697304881380144,1.3754841363265315
645,0.8599254262194144,2.650738106562684,0,0,-0.30968212733919176,-0.4587798794843667,0.027728504513992825,1.6682042,0.15339808,0.8277105
646,0.8438855012171588,2.5446874579521457,0,0,-0.23952586933038147,-0.5478672643804332,0.026457629222150402,1.6719462718065017,0.5095755314645437,0.9090155756710772
647,0.8447411540908294,2.4182099615505352,0,0,-0.01113017859691159,-0.7079174382414897,0.010969889126986467,1.6799221,1.2687299,1.0823087
648,0.8612457834957984,2.2821330124619434,0,0,0.14510761353958904,-0.8607036738816918,0.009193953356971592,1.6799221,1.2687299,1.0823087
649,0.891686403299913,2.1462528215725754,0,0,0.16289395730918396,-0.9564610855654392,-0.05671660925030178,1.5910584079815162,1.253550339591736,1.1174114130345727
650,0.934052240754694,2.0190354856921204,0,0,0.12583799694579778,-0.9858978835431724,-0.0850389443799096,1.3805827,1.2175972,1.200553
651,0.9862543544312611,1.9075868416428994,0,0,0.1243179534819322,-1.0031269162912988,-0.00994827327053236,1.2713370036660157,1.1384467519922559,1.177680622572625
652,1.0463217738455965,1.8177254726730487,0,0,0.2323183216520349,-1.0822914821372192,0.06296237758668237,0.9938917,0.9374327,1.1195929
653,1.1125084928651314,1.7540352366507508,0,0,0.39197242718791275,-1.1694349688604162,0.03132077187558303,0.9522002604875299,0.9959720503675955,1.194694620676682
654,1.1832670171733275,1.7198297046756792,0,0,0.5300800597825753,-1.2403799669562345,-0.09168948759924857,0.8383631,1.1558119,1.3997575
655,1.2570719450901413,1.7170107570656565,0,0,0.6737717391205729,-1.1987507484394613,-0.11792782239529855,0.7018097564473265,1.1748532008002774,1.3380092543312636
656,1.3321132894665129,1.7458481201847191,0,0,0.7941893219747628,-1.047467416300703,0.05204772691976004,0.30360037,1.2303804,1.1579424
657,1.405924609112664,1.804757239688391,0,0,0.8511718054451578,-0.914431363584723,0.0552202758794297,0.051223647229929205,1.16722177502015,0.9130416041749395
658,1.4750558329206762,1.8902064007489034,0,0,0.7513482405579963,-0.9546049287680501,-0.22619830724199858,-0.7392935,0.96939063,0.14594123
659,1.5349260555051398,1.9969094519866117,0,0,0.5512450497773965,-1.0602350400043155,-0.2788210027072286,-0.9119414087052697,0.9204453255359124,-0.16526327021524706
660,1.5799798885667684,2.118416947400791,0,0,0.3493794172000411,-1.2052273651242331,-0.2947773894092544,-1.4945661,0.7552725,-1.2154667
661,1.6042158085534766,2.248090313800993,0,0,0.10453014836446263,-1.3865166096423316,-0.14808694167615602,-1.6784691127954294,0.6012594218985823,-1.4719270072858703
662,1.602064305228338,2.380264962086173,0,0,-0.05952829691745002,-1.7060163758358067,0.1837846413793964,-2.328098273051832,-0.16767639340700197,-2.44610399355156
663,1.5694883248950666,2.5112567032673954,0,0,-0.07474747469597776,-1.94938246657495,0.2563091436246856,-2.2327943,-0.94275904,-2.5726137
664,1.5050901240327483,2.6398258876576297,0,0,-0.07574062675191971,-1.7905592060792268,-0.20161400093176557,-2.144835027161626,-0.6883347985410465,-2.4811607170052548
665,1.410971529089724,2.766831431905909,0,0,-0.12315093595136056,-1.6683905943130866,-0.06080974970486077,-1.7768611,0.37603834,-2.098571
666,1.2931272743824636,2.894057826484012,0,0,-0.09399436305034363,-1.4831273342667033,0.299678584274517,-1.5615248814270104,0.5591499448779452,-2.0570581054804613
667,1.1612419104122829,3.0224889722577823,0,0,0.274857231099014,-1.123227208531109,0.32092109034559846,-0.56672066,1.4050838,-1.865278
668,1.0278762323158273,3.1505187044665703,0,0,0.7648213154673082,-0.8267783251259192,-0.11460691587870782,-0.3858546766044535,1.0983753631165423,-1.9652576729216686
669,0.9071368649845838,3.2726546645658336,0,0,0.6217814467503514,-0.662197536188945,-0.2185925587349425,0.5432849,-0.47723848,-2.4788704
670,0.8130052851425895,3.379178724445623,0,0,0.23762878132759974,-0.5876094623507396,-0.12556525775611677,0.5432849,-0.47723848,-2.4788704
671,0.7575557018748288,3.457007016625413,0,0,-0.022973288309435486,-0.4178413630707542,0.1672425080898499,0.4305521578508646,-0.9023595509455875,-2.4296240074613915
672,0.7493128301575014,3.4916971228982203,0,0,-0.20723635461335227,-0.1533709492083146,0.5054532038888485,-0.2891310469618665,-3.656481361118582,-2.0154058394834213
673,0.7919855817581212,3.4702390793845934,0,0,-0.4293942036027713,-0.007176332112992159,0.6185138046228191,-0.43675843,-4.4730453,-1.3049489
674,0.8837612547898999,3.3840210518593725,0,0,-0.6220811681548228,0.05926934918557261,0.5685947615272853,-0.30911147110903947,-4.315132865623645,-1.2122529054460354
675,1.017272929995884,3.2312763684065087,0,0,-0.622609498672973,0.08410597747313465,0.5142876560879438,0.63702816,-3.1446607,-0.5251754
676,1.1802829117751712,3.018445816854541,0,0,-0.4382548051447054,-0.04553283732637075,0.2757558080004859,0.63702816,-3.1446607,-0.5251754
677,1.357060370771831,2.7601663243746826,0,0,-0.201684115197575,-0.33660446614914413,-0.30875475360182164,0.7606926422318483,-2.9981029456373096,-0.43963227756666184
678,1.5303445001001592,2.477891637739315,0,0,0.15351304272230668,-0.9961741849364292,-1.085329231082251,1.9259981,-1.6170714,0.36645097
679,1.6836452430763782,2.1973717518711076,0,0,1.0939106556497094,-2.2083206892848817,-1.8361493237054418,1.9259099642763025,-1.5206541399074127,0.4225915504326914
680,1.8034660305185344,1.945364085137376,0,0,1.71941933653985,-3.003756522844565,-1.623247302296908,1.7343177295877013,-0.43610496434472923,0.932659216610258
681,1.8809447380863822,1.7460553815143411,0,0,0.7755687072423052,-2.121368927994393,-0.7697290407780653,-0.5273059,-0.2514024,-0.40053943
682,1.912524407138095,1.6177466075464813,0,0,-0.24300072365679878,-0.7646848892848929,-0.48354247073259504,-0.5273059,-0.2514024,-0.40053943
683,1.8995868853761297,1.5703583176295643,0,0,-0.6352535142278417,-0.4642379265604545,-0.3844137860773416,-0.5638776887981588,-0.2798087869340864,-0.40916485189654306
684,1.8473377580822758,1.604201944449743,0,0,-0.56883139306814,-1.2417305725131982,0.014936522707406896,-1.2048141,-0.777643,-0.5603291
685,1.7634050651508821,1.710227147362399,0,0,-0.9910972196048531,-1.8669340538446322,-0.0278618412128871,-1.19310799145394,-0.7039534630364849,-0.49842989100612933
686,1.6565431075452044,1.8716623622922506,0,0,-0.411362784785423,-1.3646392849633864,0.33825316457218546,-0.8905208586562975,1.1234237544718273,1.0216153787341797
687,1.5356343476896406,2.066707754949395,0,0,0.38552694203690124,-0.5371443725379136,1.6174580977266557,-0.38562572,2.1486385,1.4668691
688,1.4090135959591954,2.2717719713930955,0,0,0.2880761929085744,-0.4158203347489963,1.3902728393534456,-0.3395773424667555,2.1514915836631787,1.4664301643399615
689,1.2840631393066049,2.4646770673197564,0,0,0.2058297913150273,-0.7852986261583305,0.23019697374583034,2.0730047,2.3009713,1.4434333
690,1.1670168391228275,2.627290134268399,0,0,0.23026542695209504,-1.195057728996732,-0.20668836033791543,2.0736922715075297,2.2968962681852005,1.4442648656219064
691,1.0629140261519257,2.7471774019232025,0,0,0.3621859203061007,-1.429905177845027,0.057394213797141755,2.2749821673421056,1.1039109269649419,1.6877097372899714
692,0.9756346927176011,2.818103119010111,0,0,0.5270081266206419,-1.2656224886892613,-0.014251986376616248,2.2764702,1.0950918,1.6895094
693,0.907940793408947,2.8394660672439938,0,0,-0.014404822243988863,-0.6999184530414054,-0.10351807240144552,1.56905824910252,0.5710444789300771,0.9654280795566063
694,0.8614763454435601,2.815007080499548,0,0,-0.30687347022611167,-0.5218044073935694,0.03925697754878772,1.5531555,0.5592638,0.9491506
695,0.836741176504591,2.7512506473730602,0,0,-0.22984579569027633,-0.586920891346392,0.06393570866652379,1.4648833081056325,1.7827580795940507,0.8495877340941843
696,0.8331043658188607,2.656113677001814,0,0,0.11732698867306783,-0.7337934374855314,0.09305156552141569,1.4615428,1.8290591,0.84581995
697,0.8489221103928496,2.537945770520421,0,0,0.3722654516653217,-0.8586782188206205,0.07827657874173001,1.3786364767901798,2.1556295250774635,1.0176991685489285
698,0.881776501975699,2.4050472213705194,0,0,0.37476390738414156,-0.9160061019015798,0.03798490422546068,1.3741912,2.1731396,1.026915
699,0.9287959648282379,2.2655437934999716,0,0,0.3193711662462708,-0.9276885896221065,-0.10905394815776695,1.039673104276903,1.7559874394630288,0.8915147560915473
700,0.9869881560987299,2.127429649651997,0,0,0.24106734853084835,-0.9096780303678897,-0.18252633692176934,1.0162623,1.7267936,0.88203895
701,1.053518061880729,1.9986061961694053,0,0,0.2313833088202151,-0.9606769596035722,0.015563692060432737,1.0162623,1.7267936,0.88203895
702,1.125882490910816,1.8867985629441932,0,0,0.3997209768281717,-1.212384238740099,0.13834248605975316,0.625930123808315,1.3706156197615298,1.229434575818057
703,1.2019495435215193,1.79928675619463,0,0,0.6337231168518788,-1.2930531355009944,-0.04441485168782766,0.4240388410257759,1.2829215609531381,1.4920993603352224
704,1.2798451871112155,1.7424379483944374,0,0,0.704008794636696,-1.1559113949834732,-0.15054099119188805,0.406931,1.2772521,1.5158713
705,1.3576911829461447,1.721080064616785,0,0,0.7824439257596836,-1.0666288477494255,0.16994711679661442,0.406931,1.2772521,1.5158713
706,1.433238369877402,1.7378237789056978,0,0,0.9431570491328861,-1.072466419741888,0.16840841335797826,-0.22526621696137925,0.7546735040230407,0.8411496057657992
707,1.503487373624717,1.7925147766057914,0,0,0.7959244614386423,-1.0979218369371262,-0.2810248597227521,-0.7947510832379621,0.3665108497783978,-0.19004187255941224
708,1.5644248106799659,1.8820460374953856,0,0,0.6280411313261899,-1.047722155009882,-0.3424643660527731,-0.8628642,0.32170987,-0.32170987
709,1.6110117974527853,2.000722169179036,0,0,0.6001541892177745,-1.0399058801935421,-0.20354763464340256,-1.6532550699492665,-0.022937285279763187,-1.27385503999089
710,1.637534996076569,2.141211429576954,0,0,0.4307367794115302,-1.1098402780902914,-0.012066762157469131,-1.7789917,-0.0777643,-1.4253238
711,1.6383618529275725,2.295891341778259,0,0,0.18213260744643645,-1.435190419376035,0.3496981923525366,-1.8548114656978096,-1.059811006919743,-2.315303612258828
712,1.609031768958334,2.458199322328551,0,0,-0.023516547704223227,-1.9598150977556712,0.2872851448498234,-1.8684739,-1.2367721,-2.4756746
713,1.5474867913043526,2.6235388933583805,0,0,-0.0009974337444847072,-2.1084443704697944,-0.17782957244652772,-1.8684739,-1.2367721,-2.4756746
714,1.455148109983606,2.7893974181626775,0,0,-0.20164721476952735,-1.926563366235957,-0.016225447767023046,-1.3862342335530915,-1.3725397258429204,-2.4985964306060797
715,1.337530527573468,2.9545671461456813,0,0,-0.33026547484859226,-1.65420773810755,0.3138224027115086,-1.2857742,-1.4008228,-2.5033715
716,1.2041749437881355,3.117650331981271,0,0,-0.13630694600461074,-1.2529278676753501,0.2699213897972264,-1.1142639560825427,0.2960896848387401,-2.1889358766367524
717,1.0678377079340786,3.2752837994699133,0,0,0.279503989347811,-0.8786563209230813,-0.10690723688279496,-1.0748519,0.6860303,-2.1166804
718,0.9430453073908124,3.420664491581571,0,0,0.5653987837690225,-0.644870515609343,-0.2603785720980066,0.029511341348008504,0.5584074491491354,-2.2289885950075883
719,0.844250042852907,3.5429465630924186,0,0,0.4100528714830738,-0.5686578540253109,-0.03201766363667721,0.30786142,0.52624065,-2.2572954
720,0.7838835890128037,3.6278984731500175,0,0,0.06289426020083515,-0.4102433066555859,0.17688065852719453,-0.2101675597431981,-2.07894387023028,-2.2781836564567626
721,0.770606150725974,3.6598855269426998,0,0,-0.19427762191541206,-0.16167084729054346,0.4482453048238078,-0.35260254,-2.795254,-2.283927
722,0.8080058211052372,3.6248552191425483,0,0,-0.41629293385208127,0.024642425311931775,0.6575510184615916,-0.8624337934868677,-4.4117722371165655,-1.6763986423740533
723,0.893930017007954,3.5136615648466405,0,0,-0.6232212937003332,0.1393565709622545,0.6262179137074263,-1.0141318,-4.89276,-1.4956313
724,1.020545030717783,3.3248927409025986,0,0,-0.6696430288451859,0.14453875297311009,0.4731512640438498,-0.34518429506796533,-4.138380316957006,-0.8702057167365247
725,1.175141232151465,3.066446482155788,0,0,-0.5434231199828975,0.007845777893956692,0.24212507940102534,-0.12996227,-3.895672,-0.6689861
726,1.341635520980422,2.755417220653601,0,0,-0.3219723540992595,-0.2663498095889411,-0.29556404456497487,0.939377607768026,-2.2005703586055683,0.0019256541293043315
727,1.5026435045050324,2.4162996508544365,0,0,0.2402301849998858,-0.8260435046052691,-1.0684400074869873,1.669912232688353,-0.645028475275761,0.7775102363720754
728,1.641867689793726,2.0779123008960845,0,0,1.2349876851025066,-1.8281551052816205,-1.6968570617151357,1.8002969,-0.29507825,0.9736517
729,1.7463888631569071,1.7696834054811528,0,0,1.7057057691567477,-2.7710266700609716,-1.5932371926738345,0.598168264864239,0.10102543817804333,0.35262866613815297
730,1.8083510611571305,1.5179918798692107,0,0,0.9344726960915153,-2.46867891105062,-1.0613936850899548,0.13209279,0.2545982,0.111852765
731,1.8256195959000268,1.3431527528127771,0,0,-0.008325389482907905,-1.1002425743606086,-0.5670127666272653,-1.0730315773396404,-0.46983045737824985,-0.785596312252602
732,1.8012946060848616,1.2574239649993346,0,0,-0.5010818061601439,-0.22352600917498433,-0.40948970701057696,-1.5744609,-0.77125144,-1.1590078
733,1.7423415335960257,1.2641491929350612,0,0,-0.4036938825936296,-0.6521609859132137,-0.14593758263064102,-1.1599368271737651,-0.20358177237244388,-0.07299895208619823
734,1.6578384765440648,1.3579366559658272,0,0,-0.710111809853857,-1.6838252932101545,0.19217675832956024,-0.97471696,0.05006743,0.41225734
735,1.5573243936971175,1.52568366375788,0,0,-0.5598029724386624,-1.9197867737978895,0.2412320802414239,-0.97471696,0.05006743,0.41225734
736,1.449537060224877,1.7482631804998423,0,0,0.17081497605001697,-1.0633338419218745,0.6646392721748116,-0.8347798706032491,1.3309203999823136,0.9591544369395094
737,1.341628069303021,2.002695566050735,0,0,0.1756808282209156,-0.39408974983886225,1.0305390660223728,-0.76592517,1.9611518,1.2282499
738,1.2388403486656923,2.264589090293368,0,0,-0.1392619770978175,-0.3522517158000194,0.6267619001707684,-0.16301315379536666,2.1148490280068954,1.0822375891382825
739,1.1446068768993882,2.5105860178910326,0,0,-0.05014083180439573,-0.8722125695623983,0.24934559653638105,0.15339808,2.1955101,1.0056096
740,1.0609955049182695,2.7205497593119823,0,0,0.22446744718582765,-1.4691491027871428,0.23940030649323624,1.3009844134983835,2.1066558737871017,1.5318999180888535
741,0.9893488503764635,2.879274336697378,0,0,0.5687276666770401,-1.7386378676380205,0.24073680564220112,1.9419771,2.0570257,1.8258632
742,0.9308932536799737,2.9775596625117497,0,0,0.5340735684792748,-1.339738919883922,0.012016608027596054,2.1364094271073757,1.5666018091247924,1.8659523674142529
743,0.8870918790732589,3.012564984523715,0,0,0.172105563121754,-0.7356160792439118,-0.11156309768665613,2.251969,1.2751216,1.8897791
744,0.8596268229100045,2.987442540260998,0,0,-0.08640129518002579,-0.4704274449310718,-0.10210331361140253,2.1468750163598167,1.2085402727671304,1.35255933035994
745,0.8500629984150706,2.910362211231947,0,0,-0.09672584780148506,-0.4757708948460062,-0.05620051777978538,2.0804615,1.1664646,1.0130665
746,0.8593752072532581,2.793131753693787,0,0,0.05719587897632776,-0.6297900221397617,0.027990397037454963,1.8858393351185512,1.3547056759256644,1.1470687091589173
747,0.8875453389657836,2.6496569350910777,0,0,0.16617919897967792,-0.829455579463042,0.04385740206219828,1.6056482046020641,1.5210288478290601,1.2493693296781567
748,0.9333698142379218,2.4944602821094697,0,0,0.1776350949755245,-0.9427737767344946,-0.026873552271275813,1.5020229,1.5488945,1.2580773
749,0.994515421439833,2.3414091424734473,0,0,0.1677950121311856,-0.9738660772537279,-0.1139553504885283,1.298713856424281,1.3725300076864082,1.2305204091547477
750,1.0677767330062573,2.2027299321167964,0,0,0.20023870228844354,-1.0402813856598678,-0.1606722077144945,1.1483551,1.2420983,1.2101405
751,1.149440795961006,2.0883285584207836,0,0,0.3979952864878862,-1.2015158960286652,-0.035590733044915404,1.1483551,1.2420983,1.2101405
752,1.2356495511708874,2.0053975950273246,0,0,0.6823197282636887,-1.3496288076366234,-0.019951227981560682,0.8570684990318397,1.518673502118006,1.3566664530384673
753,1.3226577525041834,1.958262790719614,0,0,0.9254911229739757,-1.3183558720350528,-0.11003624485163079,0.62104917,1.7427727,1.4753913
754,1.4069142868195141,1.948411121232896,0,0,1.0227816355056312,-1.100799489879892,0.034225304711718633,0.16205953703217058,1.601985278341644,1.1188444652098481
755,1.4849524606007587,1.974664871068627,0,0,0.9731538420216381,-0.9623226972354296,0.058836689897733024,-0.23329292,1.4807175,0.8117315
756,1.5531519293145672,2.033518634088025,0,0,0.8715289314579521,-1.0234886762745432,-0.2490100072918741,-0.65402683074208,0.9886539362346138,0.17645117551678888
757,1.6075044957396238,2.1196996695786563,0,0,0.7278911956604716,-1.084199567043297,-0.4147353317395083,-1.523658607459335,0.3008840335287852,-0.9463677320447781
758,1.6435471876729162,2.2269919953644686,0,0,0.4760672872722176,-1.1003491551285072,-0.22650513772189948,-1.9813919,0.07563378,-1.4583471
759,1.656603104759531,2.3492622594570216,0,0,0.15803508996613813,-1.1943055792895687,0.04623052677425958,-1.9813919,0.07563378,-1.4583471
760,1.642395109953602,2.481487548120814,0,0,-0.0393627316094368,-1.5391277768699114,0.19537095475201643,-2.248989643603513,-0.35704391046467354,-1.9588442812095492
761,1.5979818836957014,2.6204913331412696,0,0,-0.07913699417799326,-1.9467503827531933,0.11235756876034922,-2.1879249787006434,-0.8461478827023645,-2.5724595349382455
762,1.522837083317122,2.7650979929815667,0,0,-0.06278160604325754,-2.0000001948200654,-0.13426303116578941,-1.8333201,-0.89375687,-2.6780748
763,1.4197969075339223,2.915528933948997,0,0,-0.14357292987302694,-1.8151568057654683,-0.025983097769857782,-1.8333201,-0.89375687,-2.6780748
764,1.2955861200364438,3.0720643884385392,0,0,-0.11391944091958815,-1.5488093402701726,0.3874475492108963,-1.6174092562775864,-0.0365512001069958,-2.4299753615639927
765,1.160710174012069,3.233238309548923,0,0,0.4053486706494073,-1.1670988701590546,0.29109492436574896,-1.3688648,0.9502159,-2.1443772
766,1.0286397240251839,3.3940474380408046,0,0,0.8326580586317818,-0.8439352797869507,-0.1497018044495084,-0.5930763325029956,0.8665806993732738,-2.1179408549874528
767,0.914363389151018,3.5447626402200423,0,0,0.5801234703257244,-0.6874838406854545,-0.2158788329036533,0.350472,0.76485986,-2.0857878
768,0.8325084788080915,3.6708768719190306,0,0,0.11206114509024892,-0.5538917078228346,-0.024108541855814816,0.3844790914831509,-0.603809153764982,-2.311725314225199
769,0.7953122315285527,3.7544949886649572,0,0,-0.15171812363364418,-0.3205311833260622,0.23649145043026618,0.4282363,-2.364887,-2.602441
770,0.8107610614814655,3.777102134704003,0,0,-0.290621073452834,-0.07024427419340082,0.5276078909379575,0.07219083938606684,-3.400039519956409,-2.232840566000358
771,0.8811959138398611,3.7232337961763684,0,0,-0.4506334210209259,0.0621136213000584,0.6428630926098337,-0.4111921,-4.805408,-1.7310548
772,1.0026125219577235,3.584247115867611,0,0,-0.6130032970635622,0.09722310626972286,0.6023235791941379,-0.22400488653538603,-4.659236210514076,-1.3981320716934569
773,1.1647897472897115,3.3612827177165903,0,0,-0.6824660249567783,0.1103582833455195,0.48601229312994276,0.04580637,-4.4485445,-0.91825795
774,1.3522835382135667,3.0666581893038223,0,0,-0.6193419011690985,0.004912962401968719,0.2200133030340721,0.5807317133810197,-3.613466566588526,-0.6057936338497381
775,1.5462301963965457,2.7232972770647508,0,0,-0.5034929542299533,-0.32719390530545195,-0.37474907616646375,1.7724768998855647,-1.5200131158468333,0.2589795915811822
776,1.726783863350776,2.3622459405841156,0,0,0.040273617056891704,-1.1989861505431265,-1.45844993432577,2.3691483,-0.22690132,0.8692558
777,1.8758482098688611,2.018717059438703,0,0,1.4331480137522563,-2.683249904812064,-1.9984031159756996,1.7078568892685413,-0.24859618320698207,0.7423007166109634
778,1.9795911059300326,1.7273519915153424,0,0,2.0076729888987748,-3.251809637795312,-1.250832700467169,0.61572284,-0.28442562,0.53263223
779,2.0301734170783137,1.5174795842144586,0,0,0.6801719624653223,-1.9104626992545855,-0.7044681407961753,0.61572284,-0.28442562,0.53263223
780,2.0262950630824275,1.409120606146257,0,0,-0.5119308625777553,-0.6993859671217103,-0.5546851246260799,-0.04339812146324173,-0.2938740175001411,0.0008757880320921677
781,1.9725333373684677,1.4103450375617894,0,0,-0.86337675986201,-0.8438586693787467,-0.3653795704984362,-1.2005423007055493,-0.08583830911720487,-0.4545361232106143
782,1.8778193561565548,1.5163529577361146,0,0,-0.8765024790860371,-1.4020850748308362,-0.08463995270473156,-1.1227888,0.3355583,0.5028048
783,1.7535645510518143,1.710359877921722,0,0,-0.6573583768702841,-1.4813540693957867,0.3160084505251871,-1.1227888,0.3355583,0.5028048
784,1.61188100739391,1.9660917538371967,0,0,0.2139723910303758,-0.876995473866615,1.1666385079225094,-1.079362236949816,0.8837750185274681,0.8766205488096637
785,1.464162997521087,2.2514773994253368,0,0,0.45607131718054816,-0.3711916233207266,1.383022990867894,-0.36761234816832267,2.362262506079905,1.4319354608393564
786,1.3201392996399135,2.5329695927316163,0,0,0.19846216637060388,-0.44556060919529583,0.7922135089433398,0.9576728,3.0988543,0.96939063
787,1.1874054198575432,2.779834296769881,0,0,0.22037793857045082,-0.9312882983020595,0.11949173659188324,1.4298163767689058,2.9165382454407656,1.0234702103397517
788,1.0713775560241636,2.967754569525364,0,0,0.33826086266425764,-1.403058758330743,-0.13194786157578606,2.5108283,2.4991105,1.1472899
789,0.9755490354056404,3.081231335637656,0,0,0.3108900345760509,-1.4448972833315494,-0.11915026155169943,2.5108283,2.4991105,1.1472899
790,0.9018817025621517,3.114506262173588,0,0,0.25962523660336867,-1.1885195333793859,-0.10023459001904989,2.3205530677413915,2.1768750061534137,1.1836615989112387
791,0.8511651500644529,3.0710224360155185,0,0,-0.06861112600960073,-0.7173976856637465,-0.07395092204317252,1.8365159,1.3571469,1.2761868
792,0.823245546137512,2.9617111195322865,0,0,-0.19328310379939512,-0.5140734637614388,0.06799613880884585,1.6619952455535405,1.3351172599534709,1.181201785253966
793,0.8171297020613786,2.802585939849203,0,0,-0.06329850578671953,-0.5443350248639132,0.17210792394970909,1.1867046,1.2751216,0.922519
794,0.8310444443651008,2.6121877603001313,0,0,0.21034771824030782,-0.6828307711903164,0.19343517574291105,1.1996984384925844,1.4009993770436693,1.0115809479033353
795,0.8625374574482685,2.409339051552136,0,0,0.4587314224921251,-0.8663955312618238,0.14922846167562193,1.2735325582603363,1.710184173283365,1.2539536140352188
796,0.9086574168801909,2.2114762036739726,0,0,0.4636382820385561,-0.9581204296141457,-0.004749162481591775,1.381648,1.5275892,1.196292
797,0.9661936966086713,2.0336133507539675,0,0,0.3020761761112834,-0.9143301278304654,-0.13140990314198317,1.2776249971715723,1.4238150526487832,1.1659312112781728
798,1.0319266082473861,1.887832974427726,0,0,0.16502742726956518,-0.8576188731779333,0.018627146928989046,0.93636745,1.0833739,1.0663297
799,1.1028433819787007,1.783133060864245,0,0,0.14928419642331156,-1.0079653794143308,0.2301969186600235,0.8972579133507719,1.0817443473548465,1.168992237801707
