id,ASVM,GSVM,walking_nonwalking,normal_abnormal,ax,ay,az,gx,gy,gz
1,0.7699993698101009,0.9022857112414707,0,0,0.4368616194113179,-0.4557261348166805,-0.46483161936033207,0.43096924,0.019760132,-0.78842163
2,0.8887074795399377,1.116792598372156,0,0,0.5070830314804238,-0.4626642173940925,-0.6141765000643057,0.43096924,0.019760132,-0.78842163
3,1.006912512781403,1.333150827259632,0,0,0.5841160454196994,-0.49953261121803666,-0.6827854196843064,0.43096924,0.019760132,-0.78842163
4,1.1218838939797733,1.5507261329067255,0,0,0.5628394999965096,-0.5766426326179117,-0.6911545635736097,0.43096924,0.019760132,-0.78842163
5,1.2305714622131534,1.7652293269722488,0,0,0.6106463467569372,-0.7106330088864885,-0.6993123408422385,0.43096924,0.019760132,-0.78842163
6,1.3295790187508276,1.968194552973433,0,0,0.5852050404507094,-0.8588138321258393,-0.7442385775187148,0.43096924,0.019760132,-0.78842163
7,1.4152328409599004,2.1476486203440914,0,0,0.6472699267261027,-0.9155859982643648,-0.7024610432031316,0.8080140559049118,1.5109133565200397,-1.1352174813526106
8,1.4837673900059216,2.2899270773432683,0,0,0.599446378318461,-0.8572207958571675,-0.8067571838074344,0.82429504,1.5753021,-1.1501923
9,1.5316266890601298,2.3822880939900886,0,0,0.5892636113664314,-0.6408010152396746,-1.284300142369636,0.29893811689345823,3.503369630710324,-0.8062255472989424
10,1.5558488133047814,2.415722312659953,0,0,0.783645279936106,-0.6350238051081286,-1.6462832689501916,0.2682495,3.6159973,-0.7861328
11,1.5544709119400948,2.3872517275780654,0,0,0.941013703726181,-0.6941789312090283,-0.9301489875446833,0.2682495,3.6159973,-0.7861328
12,1.5268793227419533,2.301116825191741,0,0,1.5853319278854048,-0.22570683519564783,-0.10079334674123076,-1.4409695446277833,1.4627428055225975,-0.7395436640654242
13,1.474045000349348,2.168553998910414,0,0,1.1140959120059546,-0.413637588612205,0.3961946222195367,-1.5813293,1.2859192,-0.7357178
14,1.3986178007735632,2.0062556974784984,0,0,0.849892785765264,-1.0631280781993442,-0.12084284055845168,-0.9530292834614094,0.9044636779859707,-0.29839548962284695
15,1.3048779390892988,1.8339308533153358,0,0,1.0736813683946431,-1.1914693326067276,-0.11287891331852856,-0.89112854,0.8668823,-0.25531006
16,1.1985460064488196,1.6715377685094681,0,0,0.8501167147885053,-0.9409821728880942,-0.10532287461860133,-0.89112854,0.8668823,-0.25531006
17,1.0864483468618797,1.536736253855578,0,0,0.6826982955087421,-0.7436342179303335,-0.1131442299400183,0.3168117233137702,-1.024140248334897,-0.36580646992757965
18,0.9760448719554613,1.4429588131634703,0,0,0.6832178420304623,-0.6556118949583226,-0.04778501507749971,0.46669006,-1.2587738,-0.3795166
19,0.8748539694155749,1.3983072258087148,0,0,0.593955538351565,-0.6684909309462942,-0.004420991234782352,0.7690630352791857,-1.1105942408966092,-0.4199425863819179
20,0.7898352737302029,1.4053016924865878,0,0,0.36631098832975356,-0.6162550808214573,-0.009391995607243069,0.8119354,-1.0895844,-0.42567444
21,0.7268007518543987,1.461379932604156,0,0,0.20969026515370526,-0.578588404488122,-0.2206497252095671,0.8119354,-1.0895844,-0.42567444
22,0.6899193418849431,1.559970971383684,0,0,0.27315066587961206,-0.5774532046400773,-0.2963746616514886,1.1324111606064942,0.6097945383914587,-0.5727271719606082
23,0.6813675042339927,1.691936896569642,0,0,0.1986620827990638,-0.6041604530787837,-0.05435837680787199,1.1867065,0.8977051,-0.597641
24,0.701161590234565,1.8471593664635786,0,0,0.18052008392280564,-0.6122807741352698,-0.03771042620415661,1.8258402908300653,1.2315088767984268,-0.47533697681444975
25,0.7471905464737784,2.0160313723922756,0,0,0.1608421935744731,-0.6509038537068905,-0.07691090063856518,1.9463806,1.2944641,-0.4522705
26,0.8154503109702264,2.190610179374838,0,0,0.2751917531239221,-0.6655024059405533,-0.20472507795637257,1.9463806,1.2944641,-0.4522705
27,0.9004622334705593,2.365221454189499,0,0,0.515372393892844,-0.6129962304710475,-0.38553817885583413,2.745034536086064,1.000526999224719,-0.0320383560467501
28,0.9958350558615355,2.536391678698769,0,0,0.7003033361515416,-0.4928394201294224,-0.50786811180776,2.9196014,0.9362793,0.059814453
29,1.0949058421524116,2.702117439573337,0,0,0.7845949467173511,-0.425186012332756,-0.5951660661404603,2.2866416187195617,1.3749916964623032,-0.0398699732857173
30,1.191375218696688,2.860637550560974,0,0,1.0013904472953596,-0.3673324083853729,-0.8846071483496719,2.1351013,1.4800262,-0.06373596
31,1.2798419768516123,3.009030446817932,0,0,1.1899001647729794,-0.3379550191933688,-1.0086917947119496,2.1351013,1.4800262,-0.06373596
32,1.3561487101722856,3.14206960225866,0,0,1.2417202111303531,-0.34590682561426334,-0.9171101642936377,-0.3543556272726108,1.564942192549475,-0.130610733648598
33,1.4174835252943863,3.2517785683350855,0,0,1.0679627546962724,-0.47280980908034903,-0.7771411565600252,-1.031601,1.5880432,-0.14880371
34,1.4622455533204606,3.3279919443052446,0,0,0.817351514600436,-0.6463850407192756,-0.3626099017771375,-3.004576454588025,1.9819076439674632,0.10295793447739897
35,1.4897547647859761,3.3599476454225568,0,0,0.8496652734777372,-0.891171604021411,-0.16815250081295363,-3.5861511,2.0980072,0.1771698
36,1.4999320563468561,3.3385883233247644,0,0,0.9580326304242465,-1.1354044176379914,-0.1260150140539738,-3.5861511,2.0980072,0.1771698
37,1.4930665726473085,3.258987911775412,0,0,0.8049056816225337,-1.1868340354115885,-0.035973576544133336,-3.638496217519471,1.0529626510118875,-0.11439852748410508
38,1.4697320788096113,3.1222657178337285,0,0,0.6548310869030487,-1.3125476939495095,-0.04784638037542024,-3.6557922,0.70765686,-0.21073914
39,1.4308479005283226,2.936502217568278,0,0,0.9384799581262213,-1.1177712879050166,-0.005640645058838283,-3.182942425092045,-0.16665204235773137,-0.1408345048110245
40,1.377831919520257,2.716427589072327,0,0,0.8742126711996691,-1.213819017980198,0.13579559683077183,-3.0149384,-0.47729492,-0.115997314
41,1.312771026508842,2.4819181710518285,0,0,0.8755868695247072,-1.152220050312253,0.04978253238232451,-3.0149384,-0.47729492,-0.115997314
42,1.2385348545764523,2.255562831394106,0,0,1.0089433070489493,-0.8614093785626485,0.10246154797155209,-1.4111188802422494,-0.41435197889170183,0.154399094631332
43,1.1587785417493361,2.0597394075126014,0,0,0.9005208703733271,-0.610805559878459,0.2502269288308238,-0.7785492,-0.38952637,0.26104736
44,1.0778145720062096,1.9137473253771957,0,0,0.5940796035688828,-0.7959417196019877,0.3835515503031715,0.008726217284470518,1.1566590890821142,0.4694141209270218
45,1.000370216897874,1.8315259839035545,0,0,0.5715499924961732,-0.5130492390340676,-0.16158863378208807,0.34077454,1.8087921,0.55729675
46,0.9312702557492932,1.8203264061435782,0,0,0.5762813527931907,-0.18127298765773164,-0.6290695123088068,0.34077454,1.8087921,0.55729675
47,0.8750847201034421,1.8804591179878007,0,0,0.5099388347650482,-0.26408985872942164,-0.995073830516804,-0.6069975921784239,0.8129376612695162,0.9086644821878828
48,0.8357626014335325,2.006022966222389,0,0,0.6649852242583,0.009787285405933294,-0.931193533593449,-1.0475922,0.34999084,1.0720062
49,0.8162561734228878,2.1863780284008554,0,0,0.5933770255587622,0.26244754525484804,-0.5241879180504341,-2.215965347297574,1.2890575018581814,0.7434267628654048
50,0.818152617542301,2.4080317963379465,0,0,0.27306501348308626,-0.19540613708343924,-0.1919251230388745,-2.7944183,1.7539825,0.5807495
51,0.8413712277542481,2.656539712167048,0,0,0.25753375616511254,-0.48570770649242945,-0.08072243700928469,-2.7944183,1.7539825,0.5807495
52,0.8840197261776256,2.9180225997887113,0,0,0.4987819891933698,-0.6311887814811425,-0.1364748058708344,-3.0180831513202615,1.8099803321660188,0.5113407083763611
53,0.9424907159348547,3.1800294648402154,0,0,0.7356529324201658,-0.6566849198413421,-0.2017308903553179,-3.1394958,1.8403778,0.47366333
54,1.0118165081076653,3.4317114951472125,0,0,0.883129288222182,-0.4953093287793192,-0.1504791317460829,-2.2520531389110436,-0.35814391846740906,0.3887831381252116
55,1.0862254417785984,3.6635357744388983,0,0,1.0256729733744678,-0.35361988427161406,-0.04084053897965296,-1.7405396,-1.625351,0.339859
56,1.159793100051937,3.866938823561793,0,0,1.2078413657201146,-0.4314924212210676,0.06359530392331993,-1.7405396,-1.625351,0.339859
57,1.2270663865060576,4.034298958875439,0,0,1.4265167913977692,-0.5797036297486405,-0.017315211142502156,1.2865424707972901,-3.8666910297227273,-0.07538673238625462
58,1.2835488438880662,4.15936882681538,0,0,1.330419247594664,-0.5979103486628781,-0.22298705491048423,3.1922607,-5.2777405,-0.33680725
59,1.3259685992155175,4.2379681677436665,0,0,0.9987081896246208,-0.6903248323211626,-0.4558533818708441,3.611835813203172,-3.696208201370257,-1.1898336739474649
60,1.3523065737861046,4.268506448715844,0,0,0.8259992052540945,-0.8089453707031456,-0.6350189065946222,3.8917084,-2.6412659,-1.7588348
61,1.3616302723786256,4.2519523604438065,0,0,0.7103161760697853,-0.8271988543315643,-0.6679611886442662,3.8917084,-2.6412659,-1.7588348
62,1.3538328104647044,4.1911759598965,0,0,0.5440789383356494,-0.8138408244992081,-0.5512832089155527,1.2140558904188226,-0.7668384266698275,-1.2842914144818687
63,1.3293980505421779,4.089972572071711,0,0,0.4316074030059584,-0.8377762817894622,-0.29665529568571514,-0.7315521,0.59513855,-0.93948364
64,1.2892952000072146,3.952296617107673,0,0,0.46419340266414016,-0.9705997359370397,-0.10454911040787564,-1.9910352410727692,2.908569121963182,-0.30144731004436
65,1.2350523863975682,3.7821220405718443,0,0,0.5722008264898341,-1.1557495997918426,-0.09126422081333874,-2.959259,4.6870117,0.18904114
66,1.1689781470926282,3.5839359877179526,0,0,0.6275589856579112,-1.2711075074626619,-0.28131577492414556,-2.959259,4.6870117,0.18904114
67,1.0944176797556198,3.3634364092551405,0,0,0.615325393745792,-1.2499859508660554,-0.6334554806469164,-1.9556868529396334,3.6847194313183933,0.09362985019755131
68,1.015885145091559,3.1278642157262087,0,0,0.4905786663177506,-1.0425293596738565,-0.835030909121944,-1.116745,2.8468475,0.013870239
69,0.9389342173857719,2.885640494090999,0,0,0.3035112891214264,-0.7092509438005316,-0.6803162747655134,-1.4998930059329627,1.3736245134275762,0.022602633755195924
70,0.8697168353558777,2.6453930348705432,0,0,0.20092539511717247,-0.4600204763841831,-0.33288730862173843,-1.8384705,0.071777344,0.030319214
71,0.8142999795281454,2.4147634192208227,0,0,0.24558352372983652,-0.3225789802519274,0.0005256190077878658,-1.8384705,0.071777344,0.030319214
72,0.7779065002862461,2.199445444285309,0,0,0.37360449424811404,-0.22487391416484254,0.18245997967390376,-1.3393670054476328,-1.286419616306062,0.46544761651071526
73,0.7642716609880732,2.0027548586560266,0,0,0.4957693128993671,-0.30841986491647855,0.38866559663518024,-0.8601837,-2.5904083,0.8832092
74,0.7752538177923287,1.8257997051031636,0,0,0.403518479585755,-0.6146540694193837,0.5031472874103662,-0.41450959474638266,-0.5467575683504989,0.8387486007695409
75,0.8107408237635577,1.6681338115113618,0,0,0.3281408013998167,-0.8161046035985499,0.21515513906104974,0.03765869,1.5266724,0.79364014
76,0.868805877797656,1.528682651121694,0,0,0.5043988224231651,-0.7441081917495784,-0.11265380474322605,0.03765869,1.5266724,0.79364014
77,0.9460217973057015,1.4067013857048116,0,0,0.7435300435126008,-0.6138126774628954,-0.2255061964143667,0.533770696910327,1.7150425431359606,0.5894394139141524
78,1.0378414406739571,1.302518453869622,0,0,0.9214758584631383,-0.5441310643351084,-0.35319497201418193,1.0805969,1.9226685,0.36436462
79,1.1389741275732794,1.2178453445484856,0,0,0.9192920068968126,-0.5059564902977338,-0.623252861509439,0.9637432389223871,1.0483803044291522,0.29918592610069744
80,1.243715958308712,1.1555333240561474,0,0,0.8572758076270169,-0.5022433861310296,-0.8087730097859935,0.8276062,0.029815674,0.22325134
81,1.3462202916529131,1.1188284759758174,0,0,0.8169684061056022,-0.5176323756218754,-0.8068563443337899,0.8276062,0.029815674,0.22325134
82,1.4407216358014985,1.1103508265948443,0,0,0.8522537177011891,-0.5302465249896409,-0.8187503869188131,0.1327830580346942,0.05790184715990111,0.2131263141036237
83,1.5217450561948382,1.1311159586161963,0,0,1.0978384783862292,-0.5620220519716759,-0.7544798078945426,-0.7472687,0.09347534,0.20030212
84,1.5843342541995145,1.1798846691575857,0,0,1.4837632768637357,-0.5661643825603179,-0.44908619911191605,-1.1177893358992874,0.1311762958745993,-0.1522516982571768
85,1.6243129560940295,1.2529897507487198,0,0,1.6713221110508487,-0.48199625886096903,-0.08232759342248329,-1.6141968,0.1816864,-0.624588
86,1.6385683834713107,1.344619829136371,0,0,1.5175537039439875,-0.43242796897278396,0.24818977942905668,-1.6141968,0.1816864,-0.624588
87,1.6253298350960994,1.4474216747426245,0,0,1.2698385703225086,-0.5841702056128419,0.5608856852222603,-1.01772125943378,-0.07899742885651721,-0.8908197427037869
88,1.584415456081311,1.5532620427272636,0,0,1.077846663921075,-0.890994727822029,0.5921177435085915,-0.14756775,-0.45928955,-1.2792053
89,1.5174243957747575,1.6540466656406805,0,0,0.996238578273467,-1.1224720664962426,0.27004893619482007,0.2786001466348012,0.3620930828713686,-1.0340081424667893
90,1.4278452916611646,1.7425567112016225,0,0,1.038549027439687,-1.1413046705492451,-0.10336276114892301,0.9371033,1.6312714,-0.6551361
91,1.3210357841313114,1.8132730305353237,0,0,0.9727289297046035,-1.0841450027061879,-0.4048849652217136,0.9371033,1.6312714,-0.6551361
92,1.2040173059905712,1.8631163253241034,0,0,0.7035346628742565,-1.0449687909995704,-0.615485503658629,1.0797012531396435,1.5698318291172668,-0.545586489120099
93,1.0850416560422516,1.8919858241874274,0,0,0.4552390776351238,-0.9395808872548332,-0.6264657168502293,1.320221,1.4662018,-0.36080933
94,0.9729265341005752,1.9029728890385942,0,0,0.3137119741151856,-0.7993680129286921,-0.4845176869144571,1.495902195697069,0.2769082528619228,-0.2805266678774739
95,0.87621746396578,1.9021574054215835,0,0,0.26797956890976354,-0.6557288841390202,-0.29044466846192774,1.8103943,-1.8520813,-0.1368103
96,0.8022940356681864,1.8979361326361917,0,0,0.2551108610595724,-0.46048628104157074,-0.12937035138521777,1.8103943,-1.8520813,-0.1368103
97,0.7565767082915531,1.8998783271652198,0,0,0.20141590257404854,-0.2949824436029693,-0.1461997348673445,1.71468685293793,-1.2599298186666295,-0.16259612049239475
98,0.74198830867923,1.9171848740025375,0,0,0.19751033005002064,-0.24629528456561534,-0.3343193053633039,1.5269928,-0.09864807,-0.21316528
99,0.7587739658075061,1.9569579571018574,0,0,0.24413105349827027,-0.30644317278312366,-0.63963129075589,1.1470821810967429,0.4501331122886659,-0.17020008176310145
100,0.8046933780122371,2.0226199320778675,0,0,0.2522766458205307,-0.38244220344940155,-0.9752703832736691,0.35411072,1.595581,-0.08052063
101,0.8754995800272101,2.1128684459791995,0,0,0.27489663778238377,-0.3669742565592498,-1.1486874498847133,0.35411072,1.595581,-0.08052063
102,0.9655510302518856,2.221477508706146,0,0,0.37609140096641197,-0.2730108847252829,-1.0831019033591909,-0.5057106916990116,0.8019676880593509,0.16954790868429948
103,1.0684004448507434,2.3380744273469856,0,0,0.6447443199296522,-0.2611615411417657,-0.734664632710234,-2.4815674,-1.0217438,0.74420166
104,1.177261954779259,2.449789770720933,0,0,0.9807147263586374,-0.42559021394280866,-0.28890679969693484,-2.414675753707615,-1.4116734273714662,0.6790809029771565
105,1.2853413187023284,2.543447031939349,0,0,1.0752955849232928,-0.5840958024488901,0.0056613624758154865,-2.2504425,-2.3690338,0.51919556
106,1.386078061285119,2.6078046789701848,0,0,0.9388062731140605,-0.6357374791354614,0.18614483140237942,-2.2504425,-2.3690338,0.51919556
107,1.4733703859793115,2.6353546388095435,0,0,1.0851800241874894,-0.6391030937131095,0.25867074819201985,-1.6889146582493895,-2.4642523503694664,0.36920850545711015
108,1.541835395551128,2.623323571315175,0,0,1.465701249942878,-0.6676576655495616,0.17715081087654028,-0.16081238,-2.7233734,-0.03895569
109,1.587112624004846,2.573751177558612,0,0,1.7600293898586368,-0.5051779629727348,0.2042754834464002,0.1625719487455927,-2.4138290639044477,-0.3022889341709085
110,1.6061692763671493,2.4927455017445945,0,0,1.781738965558506,-0.3777636182065943,0.17050803530098504,1.1077423,-1.5091095,-1.0719452
111,1.5975384030588837,2.389172906211702,0,0,1.42018559201497,-0.5665558039465783,-0.03940455435087248,1.1077423,-1.5091095,-1.0719452
112,1.5614346969958266,2.2731024449151547,0,0,1.1366243682901536,-0.8451084460976128,-0.3270955129001753,1.2402561759251831,-1.028068063130887,-1.1652056269574562
113,1.4997359027768329,2.15429951462914,0,0,0.8993713929951666,-0.959410732064192,-0.5071285578052316,1.6734924,0.54463196,-1.470108
114,1.4158577429562238,2.0409860854465154,0,0,0.5934793976926813,-1.0740055556974197,-0.5634204873748824,1.6329590919617512,0.43133306487510753,-1.2439239253108083
115,1.314561309245615,1.9389978228765534,0,0,0.4852030118839087,-1.1793980949400635,-0.516852715294148,1.4896088,0.030639648,-0.44400024
116,1.2017155171322285,1.8514029720732186,0,0,0.5738657233579796,-1.079140860010273,-0.32053066582393674,1.4896088,0.030639648,-0.44400024
117,1.0840132819521529,1.7786027678002592,0,0,0.7409643608144543,-0.814676875593333,-0.13057884935059436,1.4985080065832972,-0.2220585531310259,-0.41730562822331846
118,0.9686268607975534,1.7188811501793597,0,0,0.7954197309458938,-0.6780512036261802,-0.04778979886913417,1.5341644,-1.2345428,-0.3103485
119,0.8627914098171587,1.669297244144763,0,0,0.7367231573170436,-0.6190386142008283,-0.05159933178151905,1.5574857085578746,-0.9734151935838362,-0.32120907839823626
120,0.7733225164492743,1.6267401370365138,0,0,0.5740936609012979,-0.5701053563066443,-0.12392811836009522,1.6595917,0.16986084,-0.36875916
121,0.7060976270253535,1.5889309838837715,0,0,0.36853362168472253,-0.49958454782089856,-0.12638530539294102,1.6595917,0.16986084,-0.36875916
122,0.6655578122935312,1.5551761423521568,0,0,0.18872273134957815,-0.4080661425105627,-0.12296505683458225,1.6962141135486617,0.1803319511024771,-0.31960570008000705
123,0.6543062535872445,1.5267280373352499,0,0,0.055494054835545044,-0.3998400557908821,-0.21666900282709975,1.8812256,0.23323059,-0.07128906
124,0.6728797218471196,1.5066759915594194,0,0,0.0009236517684113562,-0.4621819250292453,-0.3491402446514563,1.7671945283763666,0.21619074811061556,0.0584369624292915
125,0.7197404954971421,1.4993645687626342,0,0,0.014623770307554386,-0.529360745509307,-0.5578649739052226,1.1282501,0.12071228,0.7853241
126,0.7914855849439156,1.5094260229529741,0,0,0.08387497465360076,-0.5719777912204614,-0.8566914742281707,1.1282501,0.12071228,0.7853241
127,0.8832204766920402,1.5406026433277449,0,0,0.314495597002369,-0.47940983203653514,-0.7684607520153546,0.8646413616255316,0.07402140396942501,0.823833498475053
128,0.9890207028334589,1.5945923054811393,0,0,0.5475281460514686,-0.3383854650071484,-0.5781035593834045,-0.88797,-0.23640442,1.0798645
129,1.1024142018512149,1.6701512796078246,0,0,0.5970841333850277,-0.3691995575328926,-0.5265470682570418,-0.9341250290318578,-0.332427954113282,1.0435007899869881
130,1.2168427679131102,1.7626341499889617,0,0,1.1908341285600288,-0.46754869763623086,-0.5163051202571906,-1.2826385,-1.0574951,0.7689209
131,1.3260742326710255,1.8640666312317944,0,0,1.4283846619205796,-0.591841162057874,-0.3589363833808429,-1.2826385,-1.0574951,0.7689209
132,1.4245311998936512,1.9637638590989757,0,0,1.2838439848557655,-0.3091274419205869,-0.49632090345441593,-1.2880651855094358,-0.8542685655952361,0.706105078442872
133,1.5074985768495368,2.0494430163887647,0,0,1.2845287878197553,-0.43827046119093255,-1.0694613001078321,-1.3390198,1.0539551,0.11628723
134,1.5711934246751411,2.1087296815540175,0,0,1.052154868504237,-0.5607894904829516,-0.9513018773441482,-1.4322702570944164,1.0430786674338872,0.07593812369307414
135,1.6127244375223369,2.1308991549744443,0,0,1.0519790808698994,-0.610820048141863,-0.6240425944660631,-2.469986,0.92204285,-0.3730774
136,1.6300124302758243,2.1086166454239885,0,0,1.1251455629752118,-0.6845074161626536,-0.38744607615902965,-2.469986,0.92204285,-0.3730774
137,1.6217631824395249,2.039373250053369,0,0,1.1586453856485828,-0.8503187083662429,-0.2762824240945335,-2.412007346628314,0.9026981006359907,-0.42386620057914465
138,1.5875641552020971,1.926314288846273,0,0,0.9799519771830135,-1.0991344331104484,-0.27763186082630353,-1.5311432,0.60879517,-1.1954956
139,1.5281189722162032,1.7782527383445246,0,0,0.7664779105431296,-1.427072572877714,-0.2943231788228212,-1.5012296203657545,0.621747621915293,-1.1674180486784205
140,1.445560841817174,1.6088232044515964,0,0,0.7038659631871658,-1.510221231529494,-0.20045749845433966,-0.9073944,0.87887573,-0.6100311
141,1.3437298150992958,1.4348958673366632,0,0,0.7202851546067195,-1.3754472328624638,-0.188730112471042,-0.9073944,0.87887573,-0.6100311
142,1.2282825750767241,1.2744848679003196,0,0,0.6991504829090189,-1.1803499674613256,-0.2727401954306854,-0.8959177293955153,0.8795225667338202,-0.5958531068672833
143,1.1065337082685935,1.1444400005448734,0,0,0.3804419047017619,-1.0556922279064493,-0.5342414839706591,-0.48640442,0.90260315,-0.08995056
144,0.9869923668000196,1.0582223022385844,0,0,0.48962121910826156,-0.7173150474021929,-0.3547446516268331,-0.4743911504922506,0.8884671124579337,-0.08745841829731993
145,0.8786349693903416,1.024057400597657,0,0,0.5520115767477253,-0.5381765981463499,-0.12043747241299231,0.4058838,-0.14735413,0.09515381
146,0.7900192885530881,1.0437418288397526,0,0,0.19364668846854838,-0.5136877968612619,-0.14745889852044464,0.4058838,-0.14735413,0.09515381
147,0.7283801238357807,1.1123277943053307,0,0,0.002244748411283268,-0.5681691667208243,-0.2766442824893685,0.4058838,-0.14735413,0.09515381
148,0.698844080082415,1.218803873793909,0,0,0.13858209633680438,-0.6507212390668909,-0.09460373879183907,0.06243358067561366,1.1703507916333955,0.7748936841259213
149,0.7038667383520552,1.3477197243203958,0,0,0.2335045302301022,-0.6859494116661662,-0.01959183096412429,0.057510376,1.1892395,0.78463745
150,0.7429480955374163,1.481513458904311,0,0,0.35398948919286205,-0.719695869306383,-0.13503511404881102,1.1138003051620509,0.5650236711876385,1.5118361092998405
151,0.8126424401156427,1.6031591002787973,0,0,0.3169106647044393,-0.5995701542366874,-0.1048231261491008,1.1441498,0.5470886,1.5327301
152,0.9068567944568138,1.69870794125467,0,0,0.16503845293344824,-0.495923421925812,-0.013551471424852616,1.1441498,0.5470886,1.5327301
153,1.017419231216157,1.7593533165977977,0,0,0.8538019119662862,0.08311379813712444,-0.4718543928202688,0.6215736234010746,0.16009946772442285,1.658068261493531
154,1.134874876868958,1.7827659502839874,0,0,0.8427743076527873,-0.13819941833519603,-1.2533814374610108,0.5948639,0.14031982,1.6644745
155,1.2494252008551223,1.7735764112003134,0,0,1.2649964738364081,-0.3936769118932088,0.12367093053331032,-0.5770059971815773,-0.3096840627414479,1.8204271455681131
156,1.3518865958643367,1.7429837983138639,0,0,1.282119756557969,-0.5924077856817858,-0.22288511741738307,-0.6550293,-0.3396454,1.8308105
157,1.4345392272430941,1.7075370986229417,0,0,1.145104518921587,-0.7368557028205371,-0.4564871644904037,-0.6550293,-0.3396454,1.8308105
158,1.4917712860570191,1.6871878130494593,0,0,1.1032438931790423,-0.6545037404070766,-0.4043522537868451,0.5060537949649212,0.682414410938523,1.5143880715049005
159,1.5204696021597972,1.7027735230581582,0,0,1.1378656812428345,-0.9601236439995592,-0.6500067165512718,0.61131287,0.7750702,1.4857025
160,1.520137882927237,1.773166175348394,0,0,1.336697368966224,-0.635229572254706,-1.3279282162566042,-0.3670486406553748,-1.1734950673171094,1.2288445630541975
161,1.492737774754013,1.9123903214472744,0,0,1.224522562207138,-0.058932087166487894,-0.0753000429522189,-0.4720459,-1.3826141,1.2012787
162,1.4422657976424977,2.127067862261927,0,0,1.7632517026356367,-0.15119579561046861,-0.03477589741704355,-0.4720459,-1.3826141,1.2012787
163,1.3741162305793067,2.414568143002466,0,0,1.0436458964231528,-0.6452743770331281,-0.15427955089856474,0.025372899980871187,1.5874920586958252,-0.4817644177363302
164,1.2943281146824683,2.7622271086864263,0,0,0.6399530297559997,-0.5239513831076001,-0.2565108523781778,0.091674805,1.9833832,-0.70610046
165,1.2088502921987685,3.1479277442180047,0,0,0.7431682512889203,-0.7323692770981969,-0.22481939901920325,1.378651748261583,-0.08200375369105367,-2.0292464672824537
166,1.122960230196177,3.5421851232205452,0,0,0.5739942260989309,-0.8900465741943204,-0.01013056579734821,1.5733643,-0.39448547,-2.2294312
167,1.0409313048052373,3.9116507709813138,0,0,0.4120660972248811,-0.7908551785983385,-0.11521843696144299,1.5733643,-0.39448547,-2.2294312
168,0.9659712645007154,4.223663552981225,0,0,0.41184759287577627,-0.8029259835436433,-0.21526081279729092,2.3471475789912457,-4.214677840214841,-2.0905310705003313
169,0.9003793288258342,4.4511676759126795,0,0,0.6866560878822981,-0.9501953247818323,-0.3163103816694796,2.485962,-4.900009,-2.0656128
170,0.8458145531394897,4.577071614961766,0,0,0.8057288087044506,-0.9179184869196819,-0.19403057263810805,1.3863527657797845,-6.046314524124482,-2.243030676105203
171,0.8035485674334272,4.5970617602806705,0,0,0.38153623593597263,-0.8284067775626796,0.12768730059879668,1.167633,-6.2743225,-2.2783203
172,0.7746028242861402,4.520121687822627,0,0,0.2882467998260164,-0.5482606626041217,0.30625698034270366,1.167633,-6.2743225,-2.2783203
173,0.7597396907239481,4.366546619444181,0,0,0.31543247814227354,-0.37117839499156313,0.14650897898453222,1.1466576977260414,-0.48517673265024536,-0.816053244131166
174,0.7593550770326571,4.163942751902419,0,0,0.36337169688909016,-0.3640138822435241,-0.20171611718189394,1.1418457,0.842926,-0.48059082
175,0.7733641595379166,3.9422899655491466,0,0,0.48089654436780666,-0.2851573542809792,-0.4351457133716511,0.4397198919856977,2.7476468315141855,-0.4012116959241661
176,0.8011607755903031,3.729328097220724,0,0,0.5420432469456973,-0.35366578553998534,-0.42348637380067283,0.26374817,3.2250214,-0.38131714
177,0.8416801147259984,3.547208726904619,0,0,0.788922089517519,-0.42949105606971594,-0.2644451278047445,0.26374817,3.2250214,-0.38131714
178,0.89353637372553,3.410752914733489,0,0,0.8762438457396052,-0.5670283921950682,-0.07846223759803493,-2.2749105105307152,3.6386230455642,-0.49360763861387874
179,0.955169685692015,3.327103884211357,0,0,0.6398787114116319,-0.8067028259874874,0.10553933203828915,-2.9955292,3.7560272,-0.5254822
180,1.0249311733491282,3.2962656063370406,0,0,0.6877406620876045,-0.9027432284840606,0.11241429360429854,-2.923893986065267,2.2763105332924614,-0.43140850318582197
181,1.1010580661623808,3.312008039849465,0,0,0.8381486660722082,-0.829007806345104,0.043631539867748224,-2.9019012,1.8220215,-0.40252686
182,1.1815308400649964,3.3628305535437213,0,0,0.9025988613922321,-0.7093347936775192,0.03096212540591924,-2.9019012,1.8220215,-0.40252686
183,1.263847878605671,3.432973503626583,0,0,0.9492633566770359,-0.6557848077292177,0.10639232187210128,-0.6547740475807436,-1.2101553651330987,-0.4493363305713077
184,1.3447883581300768,3.5036967212640815,0,0,1.0266697654988308,-0.6168352279593216,0.1868091776051093,0.11677551,-2.2512512,-0.46540833
185,1.420250927805003,3.5550834443770687,0,0,1.2278832908717148,-0.5520276078220883,0.27550685303546524,2.586219654234058,-2.0990221851478426,-0.8628983827041915
186,1.4852490433736576,3.5684420056617405,0,0,1.3788992826967026,-0.5885599818630195,0.2525051430726721,3.4967499,-2.0428925,-1.0094604
187,1.5341182371952171,3.529043941884901,0,0,1.2114691847637864,-0.675639761058077,-0.16242368650341674,3.4967499,-2.0428925,-1.0094604
188,1.5609584116484743,3.4286319608810225,0,0,1.0673818038217733,-0.574344379391832,-0.31723294521758993,4.601007335473583,-1.4893555618342509,-1.2525291919298223
189,1.5603019353427343,3.267019906188577,0,0,1.1095298107046083,-0.46577036235181707,-0.39284283742663045,5.052231,-1.2631683,-1.3518524
190,1.5279575055356145,3.0522529021734743,0,0,1.1945869568730085,-0.6290519938754058,-0.9333503682397355,2.7143215995863463,-0.391260070420497,-1.0588688912523876
191,1.4619200280953502,2.79916300053347,0,0,1.0363403579078356,-0.9230572359280109,-1.591868559499788,1.6937256,-0.010635376,-0.93096924
192,1.3631725962316859,2.526626091741574,0,0,0.9172240829181826,-0.7295730779839655,-1.1827816841076746,1.6937256,-0.010635376,-0.93096924
193,1.2361809794085914,2.254214269463845,0,0,0.9305965393309344,-0.5779007928112042,-0.19789270491182756,-0.35283576953594825,0.2820573831142668,-0.42632156937243015
194,1.088926182673761,1.999080408340831,0,0,0.7586849182458072,-0.913608194560192,0.2559596004316282,-1.3363342,0.42271423,-0.18380737
195,0.9324182714736567,1.7737729466906296,0,0,0.5657238853198728,-0.9909545687914465,0.07928772904292372,0.509434623263569,-0.7309240877464306,-0.13026059174645835
196,0.7797335608204081,1.5853470708004598,0,0,0.5031242628998857,-0.6062598084515529,-0.20167452717335596,1.4534302,-1.3209381,-0.102874756
197,0.6446879036667893,1.4357452273853522,0,0,0.429275067325168,-0.2777296051509967,-0.27810554387685144,1.4534302,-1.3209381,-0.102874756
198,0.5403075941052011,1.3230879274800753,0,0,0.30262337947250434,-0.12394346752401561,-0.21842077275337998,1.0239625746467804,-1.7940624727663201,-0.36885440485548426
199,0.4772948829908454,1.2433372630564294,0,0,0.19280368508722862,-0.07988354645406955,-0.21240446648976977,0.7833557,-2.0591278,-0.51786804
200,0.46269875639246993,1.1918087139149405,0,0,0.13989116669850915,-0.09513989372793956,-0.229018938865345,0.2990677784435607,-1.2994764143862232,-0.2659491322029614
201,0.49898305405737853,1.164183500079182,0,0,0.09969021842089279,-0.11447378557304078,-0.25722645489794543,0.011123657,-0.84780884,-0.11616516
202,0.5836349994731651,1.1569300109888143,0,0,0.08556342507330023,-0.14240996359699423,-0.27607692391710165,0.011123657,-0.84780884,-0.11616516
203,0.7093870877280803,1.1672702975861857,0,0,0.16336272150564987,-0.24228907135864028,-0.3552265677972561,-0.5214650916024963,-0.3467279167550903,0.2564878123588291
204,0.8650416297596373,1.1929422593339425,0,0,0.3618679005491191,-0.5308311947912753,-0.4595677038143845,-0.8671112,-0.021530151,0.4983368
205,1.0367955912821554,1.2319924774937796,0,0,0.5861759711369378,-0.9462564781961738,-0.5495342546290628,-1.0196100602968796,0.18891540490191108,0.8253358498075042
206,1.2098752592090627,1.282735504889799,0,0,0.863141432390448,-1.0795991227748143,-0.5338636083019165,-1.1244354,0.3335724,1.0501099
207,1.3702282412834086,1.3439048056153131,0,0,1.3144213454057778,-0.7550424510713835,-0.5494757995637587,-1.1244354,0.3335724,1.0501099
208,1.5060080820313784,1.4149552964373835,0,0,1.6721490197887445,-0.30727549421838607,-0.7491884565281309,-0.6201858948125278,-0.060881989893273494,0.21672801648829995
209,1.6086322564910822,1.4964688952383864,0,0,1.5720448273153476,-0.007240218555420284,-1.0467896684429048,-0.2427826,-0.35610962,-0.40701294
210,1.673285121815014,1.5906154355746238,0,0,1.2636837117130908,-0.1714457414044244,-1.1055878801696204,-1.3386377484343208,0.7970021062770308,-0.3265828930062455
211,1.6988506970235357,1.7015626584985768,0,0,1.2161285903366763,-0.7757816717708215,-0.6750389367175601,-2.206192,1.7098846,-0.26290894
212,1.6873698041265441,1.8356026856812233,0,0,1.184441869097133,-1.096955448007556,-0.16119896409144088,-2.206192,1.7098846,-0.26290894
213,1.6431959983953193,2.0006626174260256,0,0,1.0172826160198989,-0.9691168793386394,0.20053885627910145,-2.020904939332121,2.350483831190007,-0.2684116185839554
214,1.5720579148557379,2.2049184930565486,0,0,0.9503788178727279,-0.7956542082613136,0.4055416582246594,-1.8614349,2.901825,-0.27314758
215,1.4802216107909973,2.4544788905641917,0,0,0.9232555543550156,-0.7359675343867813,0.39656093129806586,-0.2400431248982923,1.8794171918567983,-0.23583343031679915
216,1.3738945863667544,2.7504784217402105,0,0,0.9621151492257779,-0.6500558690933741,0.2828461674661652,1.2349243,0.9493408,-0.20188904
217,1.2589344059568426,3.0862824130317215,0,0,1.1924807414476335,-0.34546208257712935,0.010581901240301082,1.2349243,0.9493408,-0.20188904
218,1.1408337123113,3.4456936022104077,0,0,1.348806962097991,0.017120090509816128,-0.4079670043485146,1.0938538937930673,-0.6948870148919173,-0.42892783615618874
219,1.0248722831715322,3.8029563180786905,0,0,1.1119810323455797,0.14120692498560847,-0.891187649280527,0.95443726,-2.3198395,-0.65330505
220,0.9162830185235663,4.124965173323747,0,0,0.6859444400113834,0.08029180032358896,-0.954262899725418,-1.8307773548832917,-3.075560909394303,-0.21043800310026806
221,0.8202931385166536,4.375507919691509,0,0,0.4789438003832786,0.05085054447270698,-0.4676320888675242,-4.7395477,-3.8648071,0.2520752
222,0.7419710647702614,4.520786432982127,0,0,0.5478744433155709,0.09011819058256464,-0.23442361202770368,-4.7395477,-3.8648071,0.2520752
223,0.6858984108601642,4.535071282524353,0,0,0.5383750468306655,0.042669273015146975,-0.39205299651474157,-5.112811033295556,-0.792380711022582,0.600084519937314
224,0.6557493821422735,4.4052973231358195,0,0,0.3856430439897874,-0.16090016024035209,-0.41463514171070315,-5.5363464,2.6938477,0.9949646
225,0.6538753571689845,4.133694816673748,0,0,0.3407190688365878,-0.434843779680359,-0.16963590233406858,-4.277460627233831,2.1273521916429776,0.8425824017635145
226,0.680973629574819,3.7380363856723204,0,0,0.36525928932346874,-0.6223364626014279,0.09184338406163592,-2.7674713,1.4478607,0.6598053
227,0.735890798264792,3.2496031769308216,0,0,0.4249126326522601,-0.6116831948345304,0.1877410614565498,-2.7674713,1.4478607,0.6598053
228,0.8155878406219026,2.7094075527161947,0,0,0.5185837613183248,-0.46870980595908757,0.05162338190064398,-1.1005586129886138,1.101009648734673,0.41662350942426235
229,0.9152790752094396,2.163462693190081,0,0,0.6497672405274186,-0.28403553834638134,-0.17768757696571877,1.0737,0.6485901,0.09942627
230,1.0287464402574977,1.6579216585552148,0,0,0.8274921726510122,-0.13214015829564518,-0.40759131941207266,0.9536189555033451,-0.0726589622681509,-0.06610346295875887
231,1.1488127684628766,1.2347480835560067,0,0,1.040249747744293,0.039782941843205265,-0.6193823686292784,0.78790283,-1.0680084,-0.2945404
232,1.2679262232401713,0.9283060601173996,0,0,1.1825428122426451,0.2632403672342632,-0.7460296744409836,0.78790283,-1.0680084,-0.2945404
233,1.3787724138364377,0.7629728246443511,0,0,1.304916079207424,0.42188807913191745,-0.8361639621009578,0.5498670293090012,-0.9207994888431783,-0.40408002421911093
234,1.474812923601527,0.7516865825578177,0,0,1.4670086756194747,0.4039660248868585,-0.7191609737703386,0.1920166,-0.6994934,-0.5687561
235,1.550665978068429,0.8952914915901327,0,0,1.5321118268581395,0.28902489339360515,-0.4725497613081213,-0.08319871709810618,-0.0965937358039744,-0.5669612421463682
236,1.6022960263921613,1.1825995594797345,0,0,1.4646360350966956,0.03984207308782764,-0.2138179097047049,-0.5215912,0.86376953,-0.5641022
237,1.6270455386639286,1.5911734426118658,0,0,1.2717866896545587,-0.26884157241541456,-0.010197316403933194,-0.5215912,0.86376953,-0.5641022
238,1.623595159409699,2.088874914151555,0,0,1.1914275415244564,-0.591849968151616,0.07376905812912044,0.42634958619461594,1.0942877234344404,-0.8247598828300524
239,1.5919497096853223,2.6361942296862346,0,0,1.2304209080978503,-0.91417067542019,0.15215343403143575,2.075714,1.4953766,-1.2782898
240,1.5335071257115644,3.189284346298475,0,0,1.282375517432105,-1.0949862906629095,0.07410373609769647,2.5530150669567475,1.3220512840253893,-1.4499057454005335
241,1.4511938883633493,3.703503274653943,0,0,1.280513732134181,-1.0386198274484706,-0.0014569575103291345,3.4348755,1.0018158,-1.766983
242,1.3495836712263893,4.1371666858095875,0,0,1.2919987574315122,-0.7408643824122698,-0.13214711670676868,3.4348755,1.0018158,-1.766983
243,1.2348906355307023,4.455168284083092,0,0,1.3371431633095188,-0.2766591137414408,-0.44247338764504457,3.8353948125185298,-0.16156921370147792,-1.4468085797975085
244,1.1147530390899925,4.632130215643507,0,0,1.0343896107543984,-0.06442036528446508,-0.5343053475994715,4.64682,-2.518509,-0.79815674
245,0.9977796742244444,4.654764246195233,0,0,0.7158707384169944,-0.07486026432247576,-0.4794112554384017,4.673464412927111,-1.9606146351714566,-0.9944332985215294
246,0.8928953819173009,4.523146480223611,0,0,0.4933872085782745,-0.14280248397730014,-0.5663726494544201,4.730957,-0.7568054,-1.4179535
247,0.8085691917497658,4.250668627611589,0,0,0.22532051084942054,-0.16359681281782512,-0.7074064578140433,4.730957,-0.7568054,-1.4179535
248,0.7520249028218797,3.862563376878761,0,0,-0.1383201319406711,-0.19116357485722568,-0.7916952352759403,4.1344534816283565,-0.9474487928836888,-1.2709830376189482
249,0.7285213443895175,3.3931058694601397,0,0,-0.4247386068858196,-0.2096741459801217,-0.8381243751078348,2.715622,-1.4009094,-0.921402
250,0.7407679270055555,2.8818287836527414,0,0,0.038388866166346444,-0.07723982076606345,-0.39836498916832797,2.1409145591316747,-1.0318252370404226,-0.8137441988055406
251,0.7885310821997709,2.3692988055805504,0,0,0.615741787546706,0.05930068761892718,-0.36504670188083976,0.6789856,-0.09295654,-0.5398865
252,0.8684888639552325,1.893115815607966,0,0,0.6769507173467247,0.03862539049028989,-0.25848175373659693,0.6789856,-0.09295654,-0.5398865
253,0.9743843247836811,1.4847461055984081,0,0,0.884026308669362,-0.06406546869017268,-0.2235389503055187,0.7725588659142114,0.12221171621298133,-0.6435704029899726
254,1.097498037686148,1.1675718154640518,0,0,0.7406463513903606,-0.1324110022477381,-0.5210076963761936,1.0368347,0.7299042,-0.93640137
255,1.227411685239506,0.9562012983424123,0,0,0.942475787450421,-0.017108927966583705,-0.7688228128373975,1.1134291145802282,0.5636346641492402,-0.752425095751862
256,1.3529827234808804,0.8567745109503705,0,0,1.3147760005449087,-0.07802651085307967,-0.9615668737361247,1.3460693,0.058624268,-0.19363403
257,1.4634067836890088,0.8678330232429212,0,0,1.4534308673966985,-0.16932533300154395,-0.7799133970829032,1.3460693,0.058624268,-0.19363403
258,1.5492230279065784,0.9813379292234956,0,0,1.3459944942957263,-0.07170323580145173,-0.9215098009298518,1.3550851972369238,0.21240686229789557,-0.2643929348813005
259,1.6031313822186457,1.1835608615814777,0,0,1.2174901883570148,-0.16292577591416127,-1.0667198449709963,1.385788,0.73609924,-0.50535583
260,1.6205372098107722,1.4557707663090202,0,0,1.2368029927396258,-0.5010130031798887,-1.0312692179757856,0.8726190790382748,0.5177047085720956,-0.31994136624366415
261,1.5997974149909002,1.7748356772790426,0,0,1.4390690606139347,-0.3442180721304188,-0.8180263927440442,-1.0212402,-0.2882843,0.3643341
262,1.5421912476043325,2.1140062102994035,0,0,1.4254615844989686,-0.08912770313309795,-0.38846298564635995,-1.0212402,-0.2882843,0.3643341
263,1.4516730347440752,2.4441910310715196,0,0,1.053489328140614,-0.09029375639377918,-0.1608682519735882,-1.2535108291549326,0.10584086434102191,0.14716124268963873
264,1.3344819111028998,2.7359313340660125,0,0,1.090404999244044,-0.009075088010465483,0.06758598638338416,-2.2278442,1.7591248,-0.7638397
265,1.1986763678049819,2.9620402022566314,0,0,1.5276638884579234,0.4089874622786443,0.14628477140690604,-2.206995297837658,2.0370238015601116,-0.9045820619392538
266,1.0536227297228618,3.1005736310232477,0,0,1.1352006027192436,0.2737783349082297,0.042409580198731825,-2.1111755,3.3142242,-1.5514221
267,0.9094166147977986,3.137567546920177,0,0,1.1553094690092593,0.36522343324150763,0.07600354415200629,-2.1111755,3.3142242,-1.5514221
268,0.7761958979239739,3.068915247435277,0,0,0.8474859886739944,0.23842504152875943,0.010130763546114651,-2.0383594587075766,3.127820238490865,-1.5403437087182699
269,0.6633357761350699,2.900905911695008,0,0,0.5302287253865916,0.09760129186125986,0.0760745570241374,-1.6503296,2.134491,-1.481308
270,0.578584551993454,2.6492487861819076,0,0,0.36537500543696005,-0.07039094997670339,0.07569649592774441,-1.5891223983484957,1.8536873503429163,-1.3440472935995484
271,0.5272637564503974,2.336764955474585,0,0,0.08102664616226428,-0.20338444638835393,-0.25015472386587123,-1.2258911,0.18727112,-0.52948
272,0.5116850347491618,1.990221553570965,0,0,0.251625866543598,-0.0914443560764791,0.051057147506862174,-1.2258911,0.18727112,-0.52948
273,0.5309163709269462,1.6369250892360252,0,0,0.3270300832623051,-0.11236128980748768,-0.10294365604802284,-1.1879177633734486,0.1771054438160418,-0.48482188471724275
274,0.5809701936072719,1.3016557094853014,0,0,0.4041936326722056,-0.003793755034667668,-0.10750972315299738,-0.9184418,0.10496521,-0.16790771
275,0.6554045372732175,1.004355585233876,0,0,0.6554892221591379,0.15144156861890362,-0.0030631022815008945,-0.8833227313056364,0.10534188058591439,-0.1210382048778536
276,0.7462446750075322,0.7587667270278045,0,0,0.9365452335743497,0.31289713466233837,0.04614063035119132,-0.5983429,0.10839844,0.2592926
277,0.845064433381556,0.572020287177447,0,0,1.0179927845096204,0.4181714341777273,-0.024814193451873908,-0.5983429,0.10839844,0.2592926
278,0.9440323880537972,0.4450426098610835,0,0,1.0290180578996333,0.4230398653317695,-0.07805434585174421,-0.5835620300275282,0.11790644237573754,0.25359866501355216
279,1.0367412027281901,0.3735650079422177,0,0,1.0622702824384922,0.4552148190074872,-0.0503927235798614,-0.43229675,0.21520996,0.19532776
280,1.1186943862207122,0.3494990359589406,0,0,1.1061712347587573,0.48726024891696496,-0.01646592629154415,-0.39140130258149974,0.21028267328645003,0.16073001139118656
281,1.1874023391539648,0.36245818596562707,0,0,1.128529458674526,0.608126669818877,-0.004213209631173257,0.11138916,0.14970398,-0.26463318
282,1.2421152150898929,0.4012533812181915,0,0,1.1372901511999929,0.6527553390197108,-0.0064011721086039515,0.11138916,0.14970398,-0.26463318
283,1.283281802020125,0.45523929616538417,0,0,0.9853627045416,0.47976670965610146,0.059882984497484845,0.11958049026320076,0.16777049663738403,-0.2847063479307109
284,1.311868519866892,0.5154206047359001,0,0,0.9528122946174793,0.4304543890344223,0.05420758658622142,0.2616272,0.48106384,-0.63279724
285,1.3286957496396437,0.5752370613685124,0,0,1.1345053765126851,0.6387667563274101,-0.03053416944972202,0.2420167855889859,0.4612029982076387,-0.6394543909940561
286,1.3339409984575878,0.630950906857746,0,0,1.0895029170365826,0.4220665850438118,0.02018523693876015,-0.21990967,-0.0066223145,-0.79626465
287,1.3269186004174987,0.681586632628902,0,0,1.091590032287321,0.30920712989471816,0.23390552569918505,-0.21990967,-0.0066223145,-0.79626465
288,1.3061864371883847,0.7284345314706863,0,0,1.1131339014515829,0.14908934254966658,0.24871167770262304,-0.21590198134713123,-0.008763374909639498,-0.788746490207401
289,1.269966127831833,0.7742123170899913,0,0,1.1608866845097503,-0.00011798010384718867,0.34470968099335314,-0.019805908,-0.11352539,-0.42088318
290,1.216799970676454,0.8220548896011398,0,0,1.3087503003876524,0.058286262613213756,0.3429911362919316,-0.01707461825119859,-0.1148511065011535,-0.41473915651652005
291,1.1463098456224978,0.8745423253079945,0,0,1.3756865098108775,0.0991884770460772,0.2930153438783961,0.41828602408046295,-0.32616694647937244,0.5646025670931736
292,1.0598838071808263,0.9329609082001296,0,0,1.3251392786055964,0.06901476435155889,0.23799158325540842,0.4185791,-0.3263092,0.56526184
293,0.9611138244842556,0.9969236667586631,0,0,1.1963542882766742,0.13980335700081348,0.07036899848799594,0.4185791,-0.3263092,0.56526184
294,0.8558525854346762,1.0643821438722803,0,0,0.9497563001807032,0.20596646809512031,-0.03652107082967916,0.9804250972243291,-0.4892258838688717,0.6528277055129168
295,0.7518396480429023,1.1319722407865076,0,0,0.6634656784119337,0.1872424518215926,-0.02905933588751536,0.99269104,-0.4927826,0.6547394
296,0.6579429013125692,1.1955750587791527,0,0,0.5161310313492665,0.16390502347844496,0.036726612241421874,1.312252116072272,-0.1401847851801808,0.19893861648941483
297,0.5831411744786875,1.2509504678373744,0,0,0.45966479471334304,0.21831143245924559,0.03550526658152733,1.3238983,-0.1273346,0.18232727
298,0.5354173600831037,1.2943188994730581,0,0,0.25825009671689564,0.2484841637172086,-0.18245202484458078,1.3238983,-0.1273346,0.18232727
299,0.5207348716582259,1.3228121985017078,0,0,0.20668465580215037,0.2630062596732008,-0.22984867960110042,1.2505838917311884,-0.15776100468937498,0.39578753428170904
300,0.5422440943810388,1.3347649609918415,0,0,0.2418926287970025,0.23812481516841297,-0.14463064929775019,1.2462463,-0.15956116,0.40841675
301,0.5998228693175673,1.3298570646908277,0,0,0.4319897644673753,0.17652194136768765,-0.090621521745675,0.8979923363130983,0.019534398230376074,0.7719881121481255
302,0.6900036437461631,1.3091392734933707,0,0,0.659270491183505,0.13406095842134513,-0.039447503387546906,0.8719177,0.032943726,0.7992096
303,0.806284152176864,1.2749746288963488,0,0,0.8374157871486143,0.1212121368655375,-0.09384188810005174,0.8719177,0.032943726,0.7992096
304,0.9397658968589427,1.230909158248386,0,0,0.9591978080544787,0.09698648927801497,-0.254450298825981,1.35701335258342,0.4166174906645686,0.5558081342966535
305,1.0800263262932965,1.1814549210738279,0,0,1.1038528102694567,0.1123228782461835,-0.29800359831193557,1.4051971,0.45472717,0.53163147
306,1.2161141830880673,1.1317488227543748,0,0,1.1344687385280992,0.08659479515286274,-0.2634205991976489,0.959364269956209,0.21124487448152462,0.4409475711274622
307,1.3375608927528675,1.0870666661647683,0,0,1.2125196713294946,0.06351738871216411,-0.32582590563058156,0.90753174,0.18293762,0.43040466
308,1.4353130763090336,1.0522251328735588,0,0,1.5414303659360231,0.10538888917884891,-0.4912107533784763,0.90753174,0.18293762,0.43040466
309,1.50250141924691,1.0309647887110271,0,0,1.6442187813141746,0.04905590602175783,-0.4982777654438446,0.4718920071695335,-0.467831192999836,0.37562752804834443
310,1.534969704811481,1.0254392868692885,0,0,1.531167056714812,-0.07210301705294778,-0.31752026450942195,0.40974426,-0.56066895,0.3678131
311,1.5315069210218786,1.0359257602018985,0,0,1.6140127483859465,-0.037275142827851375,0.004945609588644098,-0.7134362698044763,-0.4810867255894089,0.4515880183454863
312,1.4937631449349893,1.0608254663195817,0,0,1.6281299420957827,0.04394571822417352,0.2826182422633653,-0.8942261,-0.46827698,0.46507263
313,1.4258792656613193,1.0969585448859411,0,0,1.2587714271631003,0.03209323714391398,0.2907627212731183,-0.8942261,-0.46827698,0.46507263
314,1.333907051385945,1.1400945407575933,0,0,0.9982391510034527,0.04978225660909195,0.24280456681952065,-0.703071875894207,0.07588780287607685,-0.6281826605691451
315,1.2251268879644939,1.185618021931666,0,0,1.0364238246371156,0.20555946154441943,0.27648124439183863,-0.6668396,0.17903137,-0.83540344
316,1.1073731786678103,1.2292042835818888,0,0,1.048186013070227,0.3472346388924929,0.33785780128205084,-0.8579475452307763,0.70485259221909,-1.3219482808878409
317,0.9884459075136024,1.2673638506316909,0,0,0.976856339614921,0.37749402847016006,0.40173031642771223,-0.8979645,0.81495667,-1.4238281
318,0.8756366116615115,1.2977171078015717,0,0,0.8529439565978459,0.3106255086432173,0.33480469284044967,-0.8979645,0.81495667,-1.4238281
319,0.7753589148310126,1.3189159024161639,0,0,0.678014991361867,0.2281496880378824,0.09534144715119393,-0.44190200557027287,0.2999351206889422,-0.7670858601409747
320,0.6928665905745756,1.3302515915174535,0,0,0.5405279642832,0.16182599843961923,-0.1389527347192292,-0.33224487,0.17610168,-0.60917664
321,0.6320567912870724,1.3311320008619998,0,0,0.46923614155314314,0.11964982301294812,-0.2984011893538609,-0.7492839459313655,0.22291626508299764,-0.3051841403424039
322,0.5953687276111503,1.3206863791651862,0,0,0.5003689282587898,0.09873892237630824,-0.3163298052284554,-0.8585663,0.23518372,-0.2255249
323,0.5837835572502045,1.2977120945847298,0,0,0.5945380677525617,0.06796421344817508,-0.19604931971157893,-0.8585663,0.23518372,-0.2255249
324,0.5969135064130764,1.2610285267630703,0,0,0.6610478772197498,0.024828537567365323,-0.08123859194912385,-1.5888355302068153,0.4807929716072586,-0.4145447626929585
325,0.6331521354294098,1.2101225859410305,0,0,0.644785704010086,0.05456315846672232,-0.10562444672129426,-1.8049164,0.5534668,-0.47047424
326,0.6898541531127944,1.145833756129092,0,0,0.6514465256492044,0.12429331955699399,-0.04086523858264117,-1.4103342425947558,0.333746969050908,-0.1959632327422625
327,0.7635221251579345,1.0707921990758986,0,0,0.7285149234938382,0.2499660767258062,0.09401533310979458,-1.2842712,0.2635498,-0.10826111
328,0.8499907696136881,0.9894054670428649,0,0,0.7502576764358438,0.4024621771563854,0.09070478518695613,-1.2842712,0.2635498,-0.10826111
329,0.9446094376587534,0.9073458567604948,0,0,0.7112757104352337,0.5287020686188928,-0.03437815024075812,-0.5879279968272154,-0.15504802025436998,0.051432375377098945
330,1.0424271959878924,0.8306528233109846,0,0,0.7653242212951313,0.642339648257841,-0.15147531714022341,-0.33966064,-0.30429077,0.10836792
331,1.1383835316656885,0.764679579728624,0,0,0.9738596097091602,0.6734909609855855,-0.0749092706472576,-0.37564406949498014,-0.1760197960015775,0.200412634011131
332,1.2275024422355085,0.7131520813573161,0,0,1.1202606415792409,0.6579231539537892,-0.0027246514945624373,-0.3894043,-0.12696838,0.23561096
333,1.3050817196192313,0.6775676891222815,0,0,1.1197445380925652,0.6498606839726467,-0.09814489730293399,-0.3894043,-0.12696838,0.23561096
334,1.3668682410070736,0.6570624087919691,0,0,1.228844840219766,0.5987542342316575,-0.05864348683107336,-0.4471747311711214,-0.06118857226973624,-0.24260344352976093
335,1.4092168422166123,0.6487574428149392,0,0,1.32575810518729,0.44487383767591937,0.11421754596441266,-0.47161865,-0.033355713,-0.4449463
336,1.4292407083819172,0.648488225266895,0,0,1.3059196592366769,0.25944355863632623,0.2962885123285168,-0.495574401496088,-0.2540450606561013,-0.6884666552096561
337,1.424967969116376,0.6517395615562728,0,0,1.2592211713622705,0.12321444736083757,0.36805865925078185,-0.50639343,-0.353714,-0.79844666
338,1.3955173692830227,0.6545732160412716,0,0,1.2712573991029827,-0.0010864232733731802,0.32125545817438333,-0.50639343,-0.353714,-0.79844666
339,1.3412931888417716,0.6543520212721665,0,0,1.3294028692801163,-0.033651796461011234,0.24848534200669847,-0.2002467163125652,-0.49702493496941674,-0.40872566963809775
340,1.2641767750196105,0.6501360800231945,0,0,1.3657466710667743,-0.011694393761622754,0.23858887348650237,-0.048217773,-0.5681915,-0.2151947
341,1.167666474975344,0.6427263872037186,0,0,1.3182406074250599,0.05244641421882766,0.18487115725002762,-0.030853549142754046,-0.401029652385848,0.23901108119042808
342,1.0569030179060304,0.6344186471969824,0,0,1.0428698195464252,0.07986512207004465,0.04349148152768843,-0.02168274,-0.31274414,0.4788971
343,0.938524377178066,0.6285746618353928,0,0,0.9789620242965393,0.13373549939938215,0.0534361090047917,-0.02168274,-0.31274414,0.4788971
344,0.8203211795494123,0.6291173885708702,0,0,0.9542035324359706,0.1986335898460504,0.06275594714217951,0.34722319804378887,-0.21508347058373467,0.4288097452437287
345,0.7106989163404347,0.6400276301194006,0,0,0.7223042978239613,0.22820106147754246,-0.02527437676380795,0.5604706,-0.15863037,0.39985657
346,0.6179873621368298,0.6648880250896728,0,0,0.4893400877607585,0.2286567838778989,-0.06438570240695346,0.6128630771948925,-0.12329215604078525,0.20727464845349436
347,0.5496691379952106,0.7064973677815871,0,0,0.3689257668306957,0.24707756832464875,-0.04120970123353251,0.644989,-0.101623535,0.08918762
348,0.511624787724437,0.7665680328865797,0,0,0.2438762022870363,0.20409325093071187,-0.008123649314289171,0.644989,-0.101623535,0.08918762
349,0.5075003165164917,0.8455154597820862,0,0,0.3725759462980193,0.20200433785755992,0.05609486480375494,0.8283525080033328,-0.05971187405901693,0.24291856887056296
350,0.5382863598119557,0.9423421567375712,0,0,0.5454249694313822,0.23932654497631184,0.05730928290222648,0.951004,-0.031677246,0.3457489
351,0.6021606471398149,1.0546065004689258,0,0,0.5358552490391235,0.2551593956656085,-0.0257438191552412,1.1411589682708252,0.16621326631138983,0.25029625054068105
352,0.694603636362244,1.1784566994417849,0,0,0.5303582319243848,0.2731361027770641,-0.1633702976497415,1.2758331,0.30636597,0.18269348
353,0.8087665894586303,1.3087149716141664,0,0,0.5659012616651299,0.31769114775890595,-0.2921326814064094,1.2758331,0.30636597,0.18269348
354,0.9360538581030363,1.4390209026571257,0,0,0.8097607204099749,0.3265968167052779,-0.25723849691343226,1.1322187265168817,-0.16971485193534078,0.40373746528287147
355,1.0668667855415752,1.5620761246759156,0,0,1.0636324723778376,0.3465498552882905,-0.286908537123647,1.0215149,-0.5366974,0.5741272
356,1.1914385642411478,1.6700526125052093,0,0,1.14525322752817,0.32225934780093524,-0.4511636664867349,0.7824774736136498,-0.7630246974480045,0.9916272853883431
357,1.3006733349908846,1.7552121358607338,0,0,1.2282976827967493,0.22194338493722565,-0.5399598404165742,0.58761597,-0.947525,1.3319702
358,1.3868998767112344,1.810730669898162,0,0,1.3271545273216914,0.05923220505939526,-0.5013396407834285,0.58761597,-0.947525,1.3319702
359,1.4444641050004916,1.8316480381715354,0,0,1.4484482081580465,-0.06817794927914599,-0.43787434953395904,0.5865884934791366,-1.0699077306799447,1.4069677624781918
360,1.4701091551832788,1.8157971200398308,0,0,1.6011462376968844,-0.12369444781963922,-0.3662306725625881,0.5856781,-1.1783447,1.4734192
361,1.4631201054306886,1.7645260093991821,0,0,1.4777243022552748,-0.18594040094209402,-0.2623810084527906,-0.19634614078044174,-1.328817657580742,1.4736398109833126
362,1.4252413044223138,1.6830170285042672,0,0,1.1738517772309143,-0.14545125087853436,-0.125140528691219,-0.92866516,-1.4697266,1.4738464
363,1.3604063492314147,1.580035466452516,0,0,1.0796989177127465,-0.06369476039243689,0.11233003380661884,-0.92866516,-1.4697266,1.4738464
364,1.2743414319895332,1.4670211681693546,0,0,1.2026862353850323,-0.03292836073733407,0.4619396731256063,-0.7275759699824131,-1.224781268380284,0.747247679095643
365,1.1740944189132951,1.3565748019088333,0,0,1.3685014239613393,0.0649619750175811,0.599264252930587,-0.52301025,-0.9756012,0.008087158
366,1.0675066922008536,1.2605653955763167,0,0,1.3865023525630222,0.2107547507919415,0.28809329979719006,-0.4024280005415114,-0.36271863264668014,-0.20534004559103847
367,0.9626152871426734,1.1882347060470853,0,0,0.8693734588568011,0.07305267952743802,-0.06756559598723799,-0.27279663,0.29615784,-0.43478394
368,0.8669850080743933,1.1447255191249475,0,0,0.6124474906812881,-0.016409332141205154,0.08772750149231354,-0.27279663,0.29615784,-0.43478394
369,0.78702235600453,1.1303826505822399,0,0,0.7497250957797892,-0.05434493173281621,-0.03409341849118463,-0.2849717982878079,0.5728226504052298,-0.18596717889726339
370,0.7273743801170569,1.1409926634379342,0,0,0.5156559350687092,-0.1653447391385405,-0.3173210541505366,-0.29919434,0.89601135,0.10469055
371,0.690528185138066,1.1689000819274962,0,0,0.41506962686398,-0.07447232833310789,-0.12794424979643032,-0.4286367696185364,1.3670288233166896,0.19087626179110886
372,0.6766980336511557,1.2047253672628002,0,0,0.36268347746373136,-0.2278214960474124,-0.19089956225010268,-0.588501,1.9487457,0.2973175
373,0.6840347034348637,1.239267751027508,0,0,0.5493215396328128,-0.278738424434992,-0.17569951636547662,-0.588501,1.9487457,0.2973175
374,0.7091283774614986,1.2651514125139065,0,0,0.8937033472379862,-0.09584162271277255,-0.18928271716654652,-0.4862145488523908,1.4523676927263194,0.35437626227132807
375,0.747711331463814,1.2778847529359587,0,0,0.9019836246505385,0.04945258384711901,-0.3343201684877661,-0.34880066,0.78552246,0.43103027
376,0.7954199426746755,1.2762080604538466,0,0,0.728750175116682,0.06481975742345407,-0.4110508685690091,-0.4707587730777402,0.8251796457584383,0.4889282431165379
377,0.8484678331331944,1.261810700616013,0,0,0.8106794457016421,0.11297780609306869,-0.21701612361583983,-0.6441498,0.8815613,0.5712433
378,0.904112993408719,1.2386206685695385,0,0,0.9985148074879564,0.1627529992958608,-0.05085336397511888,-0.6441498,0.8815613,0.5712433
379,0.9608493128878041,1.211890966890359,0,0,1.1192028836361858,0.20022395880534138,0.01182507407737161,-0.30881700132708,0.8816151534612284,0.4065843536776685
380,1.018296977503357,1.1872723459025352,0,0,1.2719811733331379,0.3502967055744312,0.14109022321192924,0.21078491,0.8816986,0.15144348
381,1.0768075627928215,1.1700140001383406,0,0,1.0991079943127264,0.3948671103455916,0.07745378437259687,0.6071489429260166,0.8223488170232632,0.11425602338230485
382,1.1368515433512287,1.1643824193414516,0,0,0.70373508349362,0.299370817099024,-0.20094551037422748,1.2581635,0.7248688,0.05317688
383,1.1983186355894986,1.17333060309743,0,0,0.7708467864606383,0.2891491140493573,-0.29114832815440506,1.2581635,0.7248688,0.05317688
384,1.259909388640062,1.1984010104081255,0,0,1.0779555151420512,0.2750665104349574,-0.23412795096201933,1.0214165847112775,0.5272385485024949,0.1364157566177171
385,1.318796625821981,1.2398328227663336,0,0,1.1969953302469833,0.23893568714574812,-0.3049535256350147,0.5963745,0.17242432,0.28585815
386,1.3706805851170185,1.2968658460921019,0,0,1.0690823890762746,0.12962049600729855,-0.2504740551891917,0.06346055417390109,-0.40423785815335644,-0.013451983640444759
387,1.410277472112378,1.3682421103660873,0,0,1.0073069600651972,0.029275230591839316,-0.044184296820767785,-0.95306396,-1.5042114,-0.5843811
388,1.43219416857094,1.452850018986441,0,0,1.2675483025481007,-0.2592010738521249,0.23352295529542622,-0.95306396,-1.5042114,-0.5843811
389,1.432054925096449,1.5503455006084044,0,0,1.6171518094714603,-0.7417749203165755,0.30516955056539397,-0.9022168333725717,-1.7300862951566793,-0.3826794474396447
390,1.4076574755422542,1.6615011786986462,0,0,1.8909958309478834,-0.9828121356946452,0.10783019935886257,-0.7957611,-2.2029877,0.039611816
391,1.3598733797803149,1.7880551436056034,0,0,1.786908832187884,-0.7185219453293729,0.022251680190334043,-0.5943210350029532,-2.0123415837900263,0.30509794850965655
392,1.2930201251420281,1.931961791095916,0,0,1.463328073781799,-0.4020896135877102,-0.234991620808254,-0.14479065,-1.5868988,0.8975525
393,1.214545790282741,2.0941350299813437,0,0,1.2086334810143748,0.0177935654965885,-0.2760740895040813,-0.14479065,-1.5868988,0.8975525
394,1.1340485619316791,2.2729503134294635,0,0,0.8778120654806866,0.2198347071480261,-0.34964886333165446,0.08335452907561348,-1.8293986116101704,0.7142908640423513
395,1.061832361737134,2.4628805748536418,0,0,0.643733627276582,0.1415364763252934,-0.3180748270080749,0.6453247,-2.4267273,0.26287842
396,1.0073148182521159,2.6536604115905122,0,0,0.47223963894756354,0.04251294509082055,-0.1438442122835135,0.6759848823876097,-2.09570392670965,0.20922729933104453
397,0.9776288362351185,2.830321048008068,0,0,0.31987806562147153,-0.002285730209287989,0.1664382140293068,0.75683594,-1.2227936,0.06774902
398,0.976696026487899,2.974337833830674,0,0,0.3368274419306763,0.029954564578871423,0.7329972220265023,0.75683594,-1.2227936,0.06774902
399,1.0049170805588357,3.0659602276591817,0,0,0.46227918593712375,-0.10406222507981368,1.3290093414358388,1.8244963180837455,-0.16293515085730023,-0.0264365645840378
400,1.059458671396291,3.087502581887268,0,0,0.5107636475588263,-0.40157531203451696,0.9805133617495844,4.956009,2.945694,-0.3026886
401,1.1349766486884314,3.026988291807538,0,0,0.7966310136794568,-0.37556494708403904,-0.4006967724026604,4.6512840769918,2.101396998742797,-0.34115896342777374
402,1.224548362448988,2.8812351129464244,0,0,0.6925131724674154,-0.16478628952033966,-1.797897730604751,3.688736,-0.56552124,-0.462677
403,1.3205958570983556,2.6574734492500363,0,0,0.4315211750906597,-0.1294417885219661,-1.5803657789124375,3.688736,-0.56552124,-0.462677
404,1.4156403054908264,2.372966825993984,0,0,0.858700599910287,-0.25631320312207695,-0.577195296373898,2.7928298285298454,-0.446627306752344,-0.4124482033093484
405,1.5028156836561524,2.052683755876165,0,0,1.2631304090431041,-0.25614416443733473,0.2245676411654346,-0.3880005,-0.024505615,-0.2341156
406,1.5761629939959019,1.7256022538879665,0,0,1.352188963187033,-0.5067120260627651,-0.11490313065367425,-0.21805971896249834,-0.145755850574085,-0.1511879939950054
407,1.630784248239192,1.4205360633095148,0,0,1.2829253175430815,-0.6570970351383549,-0.9887068207531692,0.43710327,-0.61320496,0.16851807
408,1.6629334038593095,1.1623800442865875,0,0,1.107961511634598,-0.5738795410259857,-1.3189482176833016,0.43710327,-0.61320496,0.16851807
409,1.6700836998513395,0.9694162726859823,0,0,1.2852261953554498,-0.47801528533143295,-0.46070861136546915,0.2624888486907808,-0.6343787416818828,0.2892990711284802
410,1.6509806270937346,0.8519461647805024,0,0,1.609695215777197,-0.3896548615047396,0.39235855600333697,-0.5054016,-0.7274933,0.8204498
411,1.605682686272588,0.8121806720573276,0,0,1.6655464875845403,-0.10472813571754237,0.4686950033482896,-0.47745056291264143,-0.4444298248704913,0.6951868673537813
412,1.535594631390866,0.8451151285630853,0,0,1.2190163806655558,0.21082928892635305,0.33885244520235613,-0.34239197,0.9233246,0.089920044
413,1.443496279845497,0.940038735388622,0,0,1.0280902361109896,0.3233128808480312,0.3718039166718549,-0.34239197,0.9233246,0.089920044
414,1.333559399764589,1.0823410343668198,0,0,1.4499825449394388,0.3150032276287748,0.3323532723048785,-0.2545090757519945,1.0209321213979112,-0.09813554807502181
415,1.2113208612651922,1.255329709537534,0,0,1.6079674713979675,0.14178511900067456,0.17253159215293362,0.24049377,1.5707092,-1.1573639
416,1.083547015460579,1.4418334922502283,0,0,1.3498715551810694,-0.10261475833321963,-0.021956294448834346,0.2152688074090066,1.5261323560613969,-1.1216719028590485
417,0.9579112633709703,1.6254343008881023,0,0,0.9450340838233423,-0.32322684403955465,-0.16117096296702837,0.05633545,1.2452698,-0.89678955
418,0.8424437985512654,1.7912749162413542,0,0,0.6330698702720037,-0.42748187272405097,-0.19372817725684935,0.05633545,1.2452698,-0.89678955
419,0.7447914465712844,1.9265147514928207,0,0,0.42604945475924394,-0.4041474100201131,-0.20953074717677858,-0.01975893623082618,1.254433838311955,-0.8716004038123523
420,0.6714042005756228,2.0206050219442147,0,0,0.30266676862504016,-0.23725339912185978,-0.2527513602286584,-0.5980835,1.3240814,-0.6801605
421,0.6268058428674181,2.065572576262239,0,0,0.26919255989129043,-0.068913210366199,-0.26187984985587437,-0.6866605257069134,1.3653355136214669,-0.6697429871094159
422,0.6130979200988167,2.0564294796714906,0,0,0.3227198050169918,-0.08787678308430476,-0.19291054763561946,-1.4624176,1.7266388,-0.57850647
423,0.629797159456935,1.9916988645028129,0,0,0.5044454618758001,-0.17826856737535496,-0.06906945566893963,-1.4624176,1.7266388,-0.57850647
424,0.6740309162977163,1.8739245162920866,0,0,0.7966226111968296,-0.1305494396321774,-0.10554614157290379,-1.464059861605871,1.6459147877969,-0.5228830626211144
425,0.7410334476387265,1.7099683913547084,0,0,0.9153216435443928,0.059124583420063576,-0.3043828886521262,-1.4824982,0.7395935,0.101623535
426,0.8248230755854878,1.5109214810551388,0,0,0.8801560183022312,0.166429845943646,-0.2483129407242168,-1.4687020689841757,0.7162565838331547,0.09260765891760078
427,0.9189179705176889,1.2915347090232112,0,0,0.8803191808647268,0.15254415137216068,-0.012357970811116567,-1.2795715,0.3963318,-0.0309906
428,1.0169685859033402,1.0691680035407043,0,0,1.0004754892605539,0.21931534874512512,-0.0038151084782621393,-1.2795715,0.3963318,-0.0309906
429,1.1132275805697305,0.8623272022776305,0,0,1.2070216968685756,0.42557339057895993,-0.06946796440433749,-1.2235144332182144,0.38525127945924104,-0.03049415580857432
430,1.202818863864348,0.6889164942764067,0,0,1.3187552930505844,0.5159742255356459,-0.05327241726078871,-0.09416199,0.16201782,-0.020492554
431,1.2817994523615566,0.5643955657350128,0,0,1.240515128383639,0.3550375370174992,-0.10654490317383819,-0.09306121058040263,0.15919739240101843,-0.028735623010994513
432,1.347041796867455,0.5000858233163827,0,0,1.1888819569248883,0.20617612612254646,-0.16957506885840293,-0.061294556,0.077804565,-0.26661682
433,1.3960057474735459,0.5018812598707912,0,0,1.1530361965277944,0.07203175416066165,0.24355131608165412,-0.061294556,0.077804565,-0.26661682
434,1.4265040856872104,0.5695623811894173,0,0,1.15779082234127,-0.24423286896210167,0.5581902428759684,-0.0619523018993822,0.0684180681882698,-0.26944479549309286
435,1.4365714737522748,0.6968050238942702,0,0,1.146092245234687,-0.5155303496595353,0.44265890417691933,-0.112701416,-0.6558075,-0.48764038
436,1.42451632321171,0.8718605181774901,0,0,1.0364011371194615,-0.5589002902201414,0.3849585103567885,-0.112701416,-0.6558075,-0.48764038
437,1.3891804347406416,1.078789150257088,0,0,1.1309419802654312,-0.525829304884578,0.2474967289422984,0.173592593012595,-1.3327433014152574,-0.3067083745558461
438,1.3303690617062018,1.299070446159298,0,0,1.3629649807302024,-0.42472300112639033,0.2341066976357673,0.1758728,-1.3381348,-0.30526733
439,1.249355418308732,1.5133982785203584,0,0,1.4865363555442803,-0.2536319263465072,0.2631406164404028,0.1758728,-1.3381348,-0.30526733
440,1.1493201507607473,1.703489620015487,0,0,1.4015215825407552,-0.13232393525697012,0.13049406287191018,0.2673567484147824,-1.403990789487806,0.42519609386794577
441,1.0355757267209251,1.8537682217035332,0,0,1.2131797847552839,-0.05470170321956473,0.0013398255873244861,0.27005005,-1.4059296,0.44670105
442,0.9154609102085799,1.9527963660216037,0,0,0.9953521103466478,0.008582674205625892,-0.06927743384811819,1.2446477155166733,-2.2176631839707843,0.637386067475011
443,0.7978637841289915,1.9943068672948803,0,0,0.7650697537662854,0.03118780634863477,-0.19608361330807747,1.287796,-2.253601,0.64582825
444,0.6924170005793939,1.9776658164215533,0,0,0.5827637586883654,0.027515726543084408,-0.23044142955818103,1.287796,-2.253601,0.64582825
445,0.6084787431063401,1.9076357267889466,0,0,0.5058026149282032,0.06569801604386945,-0.06228039208432364,1.05587082843055,-0.6862224159773166,0.7817982141355594
446,0.5540523154875547,1.7934384157485666,0,0,0.4689226822358687,0.12756691336620266,0.0419397894892009,1.0402527,-0.5806732,0.7909546
447,0.5348052305193194,1.6472876323722498,0,0,0.3736315156670266,0.1621881232228168,-0.021111171845019355,1.277579886095606,-0.2518181744429465,0.5612758399954004
448,0.5533322505554593,1.482678385111609,0,0,0.2554624501628076,0.17235856189802312,-0.13369570179966647,1.297348,-0.22442627,0.5421448
449,0.6087738270058486,1.3127307491243847,0,0,0.2844356647741491,0.09046951386876942,-0.3174573119623184,1.297348,-0.22442627,0.5421448
450,0.6968550269978758,1.1488198557316007,0,0,0.4418030044796059,-0.01898205856407557,-0.37527885768749397,0.6024309113407826,0.3446354644541947,0.07139892937985673
451,0.8103507733839445,0.9996427853269079,0,0,0.6210550106740105,-0.12361321227546876,-0.3922610620399298,0.5272827,0.4061737,0.020492554
452,0.9399157694548775,0.8708047355122814,0,0,0.8469983223158638,-0.233627853329152,-0.39341249133253514,0.08850712034507485,0.6793237043575406,-0.4314219023266451
453,1.0751534672482388,0.7649362338838864,0,0,1.1182485058766622,-0.39657600869447657,-0.3302217630456294,0.0335083,0.713562,-0.48806763
454,1.2057520439563105,0.6822679144841713,0,0,1.498130345633885,-0.4075470473469486,-0.19243252001949349,0.0335083,0.713562,-0.48806763
455,1.3224996409432073,0.621509683193739,0,0,1.4983678035905919,-0.435475339541429,-0.6137606900562022,0.46579483101018543,-0.05725673942850123,0.27405349684182734
456,1.4180172874554962,0.5808380238211632,0,0,1.3571196457320138,-0.364674828786999,-0.8640012943370416,0.5317688,-0.17489624,0.3903656
457,1.4871199621485445,0.5587949613660528,0,0,1.1161791107525008,-0.22834429019138133,-0.8522561350765486,-0.10991831965552566,-0.7375303142246672,0.31568992052116396
458,1.5268201206018963,0.5549274867082098,0,0,0.9316511765337454,-0.11481543983458066,-0.5581072785622169,-0.21980286,-0.83387756,0.30290222
459,1.5360873797189463,0.5700360433056203,0,0,1.0793171908731047,-0.06885513322351491,0.32855491993140157,-0.21980286,-0.83387756,0.30290222
460,1.515527919748914,0.6059630086604914,0,0,1.5309778989760152,-0.24227058897328638,0.4334823689858117,-0.35988967333209015,-0.5856747183882217,-0.05571751417458596
461,1.4671234052839417,0.6649451327343755,0,0,1.3996136149629392,-0.1610165689840486,0.386102741626933,-0.3879547,-0.5359497,-0.12756348
462,1.3940910561087276,0.7486640830471144,0,0,1.2535218574232159,0.10555898596648516,0.3765830945093804,-0.13169861384259607,0.0691987230386256,-0.2804820279989882
463,1.300842712051659,0.8572221089759252,0,0,1.3690279176531917,0.31028921064313514,0.23834788536839088,-0.07518005,0.20266724,-0.31420898
464,1.1929680097452777,0.9883071792769385,0,0,1.3373555174266252,0.23322817569543022,-0.11072702143968534,-0.07518005,0.20266724,-0.31420898
465,1.0771498297556963,1.13676974991406,0,0,1.2124055596958834,0.16406786715894403,-0.10081317469536713,0.09992863288440923,0.5911842874968907,-1.1910927853738225
466,0.9609304853336692,1.2947175638406831,0,0,1.082977744533507,0.11083004748591456,0.012257964220722155,0.14408875,0.6891632,-1.4122314
467,0.8522806752799124,1.4520906740961386,0,0,1.0155512002688596,-0.15823352087761075,-0.1504807248164213,-0.20909511059029295,1.3892918460808479,-0.7977731790588469
468,0.7589758109908367,1.5975725125464926,0,0,0.6717372860155558,-0.27708251671210754,-0.20421318435994767,-0.30593872,1.5812683,-0.6292877
469,0.6878456176106243,1.719665690203837,0,0,0.32941290149312064,-0.31312151564730933,-0.22622474643584572,-0.30593872,1.5812683,-0.6292877
470,0.6440183215355987,1.8078002997261724,0,0,0.17595533072164507,-0.2178661065646061,-0.21674369618886385,-0.5484070014748902,1.375445426164383,-0.5018857668347186
471,0.6303121807066928,1.8534000770386077,0,0,0.15630017928900108,-0.16177699520000519,-0.13757266541118118,-0.6232605,1.3119049,-0.46255493
472,0.6469163040362813,1.8508639921117171,0,0,0.4516716292412802,-0.26014704376249265,0.00032499757819236816,-1.2726612766287222,1.398984774494993,-0.10555736771676137
473,0.6914432654748182,1.7984081988378227,0,0,0.6804867127997366,-0.3147456709556306,-0.022176571015738354,-1.4887695,1.4279633,0.013244629
474,0.7593443083950014,1.698667631746167,0,0,0.8234938233036424,-0.18673301937035597,-0.36248058955647516,-1.4887695,1.4279633,0.013244629
475,0.8445888609671062,1.5589175077820294,0,0,0.9090699652438365,0.0684381226312764,-0.2866622346183928,-1.550624663558764,0.8506488778867516,0.27209870400158503
476,0.9404572122283896,1.3907840630768102,0,0,1.0030625637775692,0.26947978264124733,0.05733643148481664,-1.5735474,0.6367035,0.36802673
477,1.040290383724719,1.2093828526008559,0,0,1.1192523487153658,0.26068822780706696,0.025664398335555186,-1.0684366568203827,0.39518531792524453,0.17539763637025793
478,1.1380723905605303,1.0319293525497,0,0,1.2700344070083966,0.3133556661534647,-0.07271426825458105,-0.86790466,0.29930115,0.09892273
479,1.228767751091102,0.875973448579745,0,0,1.3354297121572343,0.43986813677518455,-0.12419537671529261,-0.86790466,0.29930115,0.09892273
480,1.3083905050630724,0.7574854596598705,0,0,1.2624927702488749,0.4561508777545072,-0.17354937254115607,-0.44860103333833146,0.1147871910078879,-0.12766796098144234
481,1.3738382914030596,0.6890524445286907,0,0,1.2034621995217807,0.325218657964902,-0.16922436079836162,-0.2646942,0.033859253,-0.22705078
482,1.422581807532497,0.6784314680572612,0,0,1.1476847313426608,0.19418161349450386,0.38785281593263027,-0.16567085892395625,-0.10180014308485337,-0.44812496173168276
483,1.452341907175129,0.7276573831445605,0,0,1.0877900214365162,-0.10437376339312358,0.6138773452632497,-0.11935425,-0.16525269,-0.55152893
484,1.4608960532498605,0.8328228297458792,0,0,1.050776238373301,-0.3408071188811322,0.5299099340047234,-0.11935425,-0.16525269,-0.55152893
485,1.446124871246217,0.9845509784673533,0,0,1.0524274951951103,-0.3491444008880852,0.3753745798019357,0.40584195155707753,-0.6291200755570926,-0.4969438537144746
486,1.4063441312607265,1.169084948223875,0,0,1.2946113754762376,-0.2846259527054753,-0.002199680873487811,0.6756439,-0.8674164,-0.4689026
487,1.340881620054833,1.3698341109940946,0,0,1.484180036545369,-0.26784640958006684,-0.10676817818812456,0.3367935339592209,-1.5600106956495552,-0.11768534219512031
488,1.250770696533219,1.5691559078600166,0,0,1.551612996985107,-0.27090028460625204,0.026873617319004207,0.15177917,-1.9381714,0.07408142
489,1.1393682890926207,1.7501266045837822,0,0,1.4679519933078788,-0.2477505099717124,0.13726875968041805,0.15177917,-1.9381714,0.07408142
490,1.0126915905533278,1.898078838484705,0,0,1.252661155385695,-0.17436421983901537,0.13272355488440188,0.3192704642264824,-1.8975764213987085,0.37631287212999887
491,0.8793167832817715,2.001754193531554,0,0,1.0073083831129808,-0.0621147714539436,0.08586214378796482,0.419281,-1.8733368,0.55677795
492,0.7497810861809702,2.0540093284292325,0,0,0.7812160244721158,0.046827531569113075,0.0402659139860064,1.3774445885919173,-1.093446632819587,0.47094883318732583
493,0.6355440533744067,2.0520894930936815,0,0,0.5507231598527195,0.10686407746436188,0.006216235414674898,1.9840546,-0.5997009,0.41661072
494,0.5476623434450153,1.9975212261847308,0,0,0.33126376812610164,0.10736704330708462,-0.022354032797011262,1.9840546,-0.5997009,0.41661072
495,0.49539277107919316,1.895679074414237,0,0,0.21312031434472736,0.09099549490826714,-0.10023869898322732,1.8933175220007639,-0.25094412197407034,0.654444571379084
496,0.4849531909843273,1.7550727053043336,0,0,0.21802661041211513,0.07641868049888799,-0.1891393223992579,1.8306885,-0.010223389,0.8186035
497,0.5186414008941405,1.5864073721445324,0,0,0.2986228204079282,0.04598987483151444,-0.16819876633521785,1.3213405545321906,-0.024110366800563394,0.639148484583795
498,0.5944488087687235,1.4015018726750261,0,0,0.40501356470691263,-0.01210594083788553,-0.12923777524760577,0.94921875,-0.03425598,0.5080414
499,0.7062239561765858,1.2121884702696564,0,0,0.5531960398568954,-0.049085250662005524,-0.17795707034660416,0.94921875,-0.03425598,0.5080414
500,0.8443565182435574,1.02933832077418,0,0,0.744565383525796,-0.12317795499336345,-0.3809241315376604,0.4985805220267744,0.5538741719088632,-0.056038522958809435
501,0.9968756591137873,0.8621318582715742,0,0,0.9686475749256422,-0.22746754763072244,-0.5604393468461356,0.14038086,1.0213623,-0.5044098
502,1.150796313942493,0.717633218007663,0,0,1.224255258715904,-0.27283285860373174,-0.4655723621551218,0.07949330881372418,0.46084696123163665,-0.4948919692251323
503,1.2935139355361243,0.6006628861201252,0,0,1.425435887446021,-0.3217882887343847,-0.32309280916824845,0.028320313,-0.010238647,-0.4868927
504,1.4140518502734187,0.513922360025066,0,0,1.4619190988470745,-0.43539938215126694,-0.5010758133118695,0.028320313,-0.010238647,-0.4868927
505,1.504005862415375,0.45831077864365305,0,0,1.3853315513537048,-0.44729706410628783,-0.7938143899798669,-0.012344129328617778,-0.2783576024113185,-0.09110223379412674
506,1.558097431156953,0.43336630705106494,0,0,1.2998281035201888,-0.29939136822799933,-0.7322934826544926,-0.049484253,-0.52323914,0.27038574
507,1.5743225270729515,0.43774938218483783,0,0,1.376854473315074,-0.22487154937630288,-0.13595620355343005,-0.11038081631838814,-0.6037719885251983,0.2725054395313877
508,1.5537490745450921,0.4696676523131376,0,0,1.562001564782118,-0.2283565476317708,0.5446839480760057,-0.16915894,-0.6815033,0.2745514
509,1.5000561623265918,0.5271454007686848,0,0,1.4242997628174556,-0.0905469813923031,0.6591027187021115,-0.16915894,-0.6815033,0.2745514
510,1.4189206648903132,0.6080796203975556,0,0,0.9984459732317668,0.17664624725506275,0.4488287662319893,-0.042315998456266705,0.05200181930196762,0.0405299328112249
511,1.3173528626376096,0.7100922803645268,0,0,0.9085130606483206,0.3921682467380728,0.31261252665064704,0.09068298,0.82110596,-0.20484924
512,1.2030686841841294,0.83024978104224,0,0,1.1732917723359726,0.4143683521265293,0.1814567446513175,0.17127929524936844,0.5607223235303767,-0.5733991349715871
513,1.083954662942039,0.9647446642483112,0,0,1.2611848257704485,0.2460863018988455,0.06775357605606683,0.2605896,0.27218628,-0.98179626
514,0.9676323002103625,1.1086238764942407,0,0,1.1421334707502415,0.0705576747484197,-0.07357939590313221,0.2605896,0.27218628,-0.98179626
515,0.8610865730744367,1.2556307710465728,0,0,0.9112291497343272,-0.0844027636941307,-0.22455306332764458,-0.16623952463358294,0.6635247642226112,-0.762781557990539
516,0.7703183045895255,1.3982208249419859,0,0,0.6447492577971341,-0.2611932771985625,-0.2118666905893943,-0.68026733,1.1348114,-0.49902344
517,0.7000131935598055,1.5278036590088537,0,0,0.5053974303026944,-0.32771539204733763,-0.061062121516877566,-0.9672825435039338,0.8996714168420549,-0.4622698076055919
518,0.6532646535251878,1.6352421208399022,0,0,0.42260797214001516,-0.25581440838683284,0.06575972054815876,-1.3327789,0.600235,-0.4154663
519,0.6314139793184017,1.7116029023853294,0,0,0.4094279549734659,-0.11497644909377727,0.04813549413949938,-1.3327789,0.600235,-0.4154663
520,0.6340658394758786,1.7491097406749816,0,0,0.5139325088259029,-0.03714405327778009,-0.12054326533992094,-1.3715896200524567,0.8728500613714216,-0.43439834649838055
521,0.6593015639477654,1.7422027265141649,0,0,0.6917425411413234,-0.05569416620501621,-0.239633646123431,-1.4253693,1.2506104,-0.46063232
522,0.7040599391569983,1.6885590247895874,0,0,0.8286191929833042,-0.06248975309584127,-0.24116560843830617,-1.5067942254480562,1.0615590636972065,-0.266144026401251
523,0.7646058259909733,1.5898954827276923,0,0,0.8838552063025786,0.025902195871046873,-0.20611240903683464,-1.626236,0.7842407,0.01914978
524,0.836982511421946,1.4523718765858407,0,0,0.90900414293183,0.1756898059325696,-0.13773304424669286,-1.626236,0.7842407,0.01914978
525,0.9173545918807096,1.2864545676311778,0,0,0.9099604266856488,0.2753911120590929,-0.08665968573119046,-1.4640583810569114,0.6070310149198301,0.06969894563796061
526,1.0021864972590608,1.1061790422468294,0,0,0.936008768607963,0.3287956595642674,-0.05779113533266496,-1.2046356,0.32356262,0.15055847
527,1.0882485376035622,0.9278537780607913,0,0,1.031953663380258,0.44681364009728086,0.018330154112184006,-0.8161621568310155,0.3174394877608261,0.07581895383424701
528,1.1724812879180493,0.7683591664969686,0,0,1.1323742742744407,0.5617759701349593,0.02761017207481465,-0.15718079,0.3070526,-0.050964355
529,1.2517751298088349,0.6432860655189522,0,0,1.160297622254085,0.4826235057292235,-0.12438004824241083,-0.15718079,0.3070526,-0.050964355
530,1.3227395244487756,0.5651972031234622,0,0,1.13246309542084,0.23294566540928288,-0.16074929842085303,-0.19595161918252582,0.24186460402528964,-0.15168515926661993
531,1.3815506095638548,0.5422645573006467,0,0,1.0977363222265002,-0.020916944448421876,0.13702797529541536,-0.26789856,0.120895386,-0.33859253
532,1.423970090024293,0.5774504125437174,0,0,1.1035794120015892,-0.1822833717221338,0.4911311642196878,-0.04029736456960873,-0.07352776873165345,-0.3831652636471952
533,1.44560863530844,0.6682941360034296,0,0,1.139597519819363,-0.19996892102015676,0.5866866120210179,0.40872192,-0.4570923,-0.47109985
534,1.4424547599039288,0.8072729882271845,0,0,1.2196968511172086,-0.17905031314551728,0.4656448254734643,0.40872192,-0.4570923,-0.47109985
535,1.4116142552896345,0.9826382810171757,0,0,1.4596360042154817,-0.2771518330637521,0.06218237131228363,0.4753642653125546,-0.6815326954185171,-0.49060363538004936
536,1.3521271111660098,1.1795894425569315,0,0,1.6730575120519695,-0.4046532167066195,-0.2027460795238497,0.6198273,-1.1680603,-0.5328827
537,1.265672628382533,1.381634312789096,0,0,1.61070553938275,-0.4336062887581804,-0.06710557126937025,0.27261979365480515,-1.335323339750681,-0.29278324412174367
538,1.1569617357720399,1.5719902833669201,0,0,1.3670776658739872,-0.3504452574658908,0.19889868975728497,-0.53030396,-1.7221222,0.26245117
539,1.0336631617661043,1.734906188218784,0,0,1.1093528976175715,-0.2146688486483953,0.274652621887542,-0.53030396,-1.7221222,0.26245117
540,0.9058103388099208,1.8568268692109928,0,0,0.8500879158255624,-0.07531626642445177,0.2658694144570474,-0.05659635148168927,-1.4994144934759053,0.31590771241540777
541,0.784756873025753,1.9273703268431692,0,0,0.6161391366222403,0.03015652958770596,0.21673364062475328,1.1543579,-0.9300995,0.45256042
542,0.6818504287589704,1.9401177669498373,0,0,0.44221426809424635,0.09314979718996141,0.1423985985965118,1.4648668168038106,-0.7390302720273354,0.4616997531588964
543,0.6070513770533859,1.8932031360362227,0,0,0.2959277168231663,0.1399898575324775,0.06376640738854307,2.3156128,-0.2155304,0.4867401
544,0.5677258941083893,1.7896294837226105,0,0,0.2180960115325613,0.167285444370144,-0.1065917526013259,2.3156128,-0.2155304,0.4867401
545,0.5677989009689896,1.6371788390589148,0,0,0.29747193478506456,0.16175449668570474,-0.317864487347698,2.0678758519004883,-0.26998035422912803,0.5357770594903571
546,0.6073738850108038,1.447785670006697,0,0,0.5109583077399946,0.07176766752032175,-0.3729866488839859,1.3113861,-0.43624878,0.68551636
547,0.6828349221773483,1.2363414236190415,0,0,0.6856284676258947,-0.08030999159950446,-0.2846503001606183,1.043105184423715,-0.26112149994469,0.584491231422195
548,0.7873660134285184,1.0190537236400334,0,0,0.7333062906130785,-0.23697291669920115,-0.2505061995749397,0.15945435,0.31570435,0.2517395
549,0.9117731594591192,0.8116242946309447,0,0,0.7947777677858577,-0.30855634547911664,-0.38415522856087103,0.15945435,0.31570435,0.2517395
550,1.04547828452694,0.6275714864971921,0,0,0.9856584670841749,-0.15751303384077603,-0.4896538809024649,0.16342079434159099,0.2969244428981819,0.18237364971582354
551,1.1775599043814091,0.4769857822357771,0,0,1.1963460909509187,0.09510655544020716,-0.3335035727623783,0.17814636,0.22720337,-0.075149536
552,1.2977306712186099,0.36589489503956113,0,0,1.346979797835212,0.042354950095977326,-0.2683939091439369,0.17910906739597546,0.1624901252739145,-0.08139804605888251
553,1.397161586409625,0.296278647870578,0,0,1.3826752129448243,-0.3714670729506256,-0.5612071572613517,0.18299866,-0.098968506,-0.10664368
554,1.4690878781002583,0.26665433103409564,0,0,1.3211447623801635,-0.5636008902589082,-0.7854769053962397,0.18299866,-0.098968506,-0.10664368
555,1.509164502294265,0.2730663136100602,0,0,1.181732312867963,-0.44471654328448273,-0.5331904965561753,0.1251716382683258,-0.24260870031830475,-0.03377284763045152
556,1.5155785762944758,0.31025774379967797,0,0,1.2076436918435935,-0.34554978127085495,0.1395014988861814,-0.14241028,-0.90727234,0.30342102
557,1.4889615171235697,0.3727774977868148,0,0,1.4660774693234175,-0.206279554411241,0.6595091714506144,-0.08415861730892203,-0.6638813806773076,0.28107675212665684
558,1.4321589372760846,0.4557947217228621,0,0,1.3860912152477083,0.12439000955242871,0.6036244100893585,0.21298218,0.577652,0.167099
559,1.3499065979869134,0.5554699388217486,0,0,1.0300070664591832,0.4517940194151077,0.3971440964732992,0.21298218,0.577652,0.167099
560,1.2484413817808366,0.6688544125640807,0,0,1.073340387798533,0.5185539766614123,0.12510604123696473,0.1907627347681088,0.517477246900399,0.07044834575476853
561,1.1350636049746472,0.793416727030755,0,0,1.210408866648828,0.25314532108324295,-0.12802996190852378,0.05783081,0.1574707,-0.507782
562,1.0176602051810246,0.926383069127396,0,0,1.15014574565469,-0.0121974356530636,-0.04656464015292768,-0.04121008041450178,0.23873142612361586,-0.49681650979115566
563,0.9041925549951243,1.0641033672446343,0,0,1.0026423534695381,-0.13402301095227712,0.07326123265254052,-0.70747375,0.78538513,-0.42304993
564,0.8021553510452046,1.2016219253611202,0,0,0.7549881844026922,-0.18658500523831864,0.03908976957163487,-0.70747375,0.78538513,-0.42304993
565,0.7180330585075924,1.3325613860045649,0,0,0.5231171936617363,-0.2563510785802819,-0.044547526527142556,-0.7360365464192116,0.7997959206018208,-0.43919426174711274
566,0.6568104024346074,1.4493555037929549,0,0,0.4084623252998997,-0.28201137321785036,-0.09857960685259534,-0.9701996,0.91793823,-0.57154846
567,0.6216130502522832,1.5438103686419486,0,0,0.41689487478273035,-0.15211163827132537,-0.05376774192851723,-0.9826091069209472,0.9264444202722848,-0.5619835225315255
568,0.6135473424664121,1.6079343371857935,0,0,0.4768484880603153,0.02301009522571713,-0.13516773277546426,-1.1009369,1.0075531,-0.47077942
569,0.631771735559038,1.634944659249612,0,0,0.6070112258681533,0.10989974714607524,-0.29425472112069423,-1.1009369,1.0075531,-0.47077942
570,0.6737796632589306,1.6203296475753055,0,0,0.7987063974349949,0.07274468830309948,-0.11757955415408969,-1.1337355548237866,1.0164255026235514,-0.44380886668750685
571,0.7358237542498541,1.5628194704313145,0,0,0.8594558280072988,0.1034971536226869,-0.10427032424510459,-1.5428314,1.1270905,-0.107406616
572,0.8133843522568013,1.4651002962170792,0,0,0.8856678739603954,0.14960994770883623,-0.16952939876825598,-1.521103219620555,1.099582210791107,-0.09459430935299128
573,0.9015908012940975,1.3341092006045692,0,0,0.9152616700916673,0.18680980225491484,-0.19008056271123727,-1.1832428,0.6718445,0.10462952
574,0.995536330586469,1.1807884517354004,0,0,0.9401391194921696,0.1715991849229692,-0.136370376280423,-1.1832428,0.6718445,0.10462952
575,1.0904699840717584,1.019258614134004,0,0,1.002595138783074,0.21028901638218253,0.025763556719133395,-1.1585609644953538,0.6615407497381973,0.10628507907316778
576,1.1818847295079766,0.8654687035367906,0,0,1.1155600267379715,0.40334760259203745,0.2670425474715801,-0.5619812,0.41249084,0.14630127
577,1.2655401277049114,0.7354741900693239,0,0,1.2168276919331473,0.41666685779715495,-0.016727864423017345,-0.5530730217583851,0.40681016525484726,0.14026844623290102
578,1.3374618196034183,0.6435671534350841,0,0,1.2254287724417696,0.25121939304127316,-0.2907123339974575,-0.21844482,0.19342041,-0.08634949
579,1.3939566838669681,0.600526023108863,0,0,1.2731104264600421,0.18491288096300207,-0.13236932305332216,-0.21844482,0.19342041,-0.08634949
580,1.4316776986184014,0.6122502879897626,0,0,1.2625315982288228,0.10816757940465345,0.6961006197666509,-0.2158080331558153,0.1924563942083578,-0.0877721920150963
581,1.4477648128830964,0.6789919587209254,0,0,1.2128385160574229,-0.06480535609426717,0.692543515894043,0.28447029067437707,0.009553401707381948,-0.3577018531827867
582,1.4400741512952528,0.7952997727078236,0,0,1.1183889698387108,-0.20077965490734698,0.5738731311116778,0.28530884,0.009246826,-0.3581543
583,1.407487924962272,0.9506736873591013,0,0,1.124908642514759,-0.39023954721383286,0.20304638996080662,0.8836390359996363,-0.9349244508033695,-0.12605121912747827
584,1.3502713652325047,1.1308094074568902,0,0,1.452551571609096,-0.321243756605502,-0.04233964823979422,0.8930359,-0.9497528,-0.122406006
585,1.2704089816277573,1.3192218016120383,0,0,1.599827746851131,-0.2696690400745278,0.08511404213332911,0.8930359,-0.9497528,-0.122406006
586,1.1718189256986005,1.4989958564079757,0,0,1.42855810047231,-0.2796847880469175,0.2596879764779887,0.1538008270693744,-1.8804148320179244,0.3920906469658483
587,1.0603363361658502,1.6544305012026705,0,0,1.1128726653494798,-0.23206355323293426,0.23550049983281543,0.12606812,-1.915329,0.4113922
588,0.9433961269537495,1.7724000022512527,0,0,0.8533887301523919,-0.15485150538272266,0.04883073913491441,1.0086882488619684,-1.101639725881864,0.5893948961176773
589,0.8294242996845497,1.843340057725916,0,0,0.7165525309531658,0.0015958577611801964,0.020240274898851843,1.0550995,-1.0588531,0.5987549
590,0.7270274480623838,1.8618486831309629,0,0,0.6115357297930378,0.13837390115611178,0.03475267872191491,1.0550995,-1.0588531,0.5987549
591,0.644117139940224,1.8269434643559526,0,0,0.49046167361340537,0.2171625141540362,-0.042251421723635864,1.802224208964859,-0.4953118204897598,0.6915250915080323
592,0.5871091975606021,1.7420154006415185,0,0,0.3984704532161117,0.17955789596961416,-0.09562888482453112,1.859024,-0.45246887,0.6985779
593,0.5603096068123641,1.614483352629154,0,0,0.44992055437117434,0.1607069722582891,-0.14860382310922715,1.3828507557148204,-0.3939617939384673,0.7946228098150986
594,0.5655557683454951,1.4551276752920168,0,0,0.5669027603361239,0.12136105983089535,-0.06686480080996056,1.3389282,-0.38856506,0.80348206
595,0.602136223389684,1.2770971212973854,0,0,0.5790908706218978,0.05659087748124745,-0.09100574785983594,1.3389282,-0.38856506,0.80348206
596,0.6669724815371019,1.0946344900557663,0,0,0.5277558478998666,-0.04371298327535608,-0.19769186041184544,0.9397291657851393,-0.060969502268643526,0.3121433416239164
597,0.7550183916054414,0.9216331345738707,0,0,0.6040769063569874,-0.13594697894162758,-0.4254100147334328,0.89282227,-0.022476196,0.2544098
598,0.8598141577884127,0.7702012098179808,0,0,0.7945981987523282,-0.2031873805936207,-0.5268891665730496,0.16135690975576564,0.051935402635407205,-0.15808724530442225
599,0.974118659387886,0.6494542301363043,0,0,0.9195334975374675,-0.2805688140412671,-0.29828394913868433,0.06260681,0.0619812,-0.21377563
600,1.0905355938454633,0.5647527969147839,0,0,1.1063421446369437,-0.3239493028059468,-0.06836149566634453,0.06260681,0.0619812,-0.21377563
601,1.202052127346226,0.517533422603105,0,0,1.350444681556918,-0.28783277503590965,-0.14577820424783372,0.30074919672245176,-0.30509151807020674,0.03409461263991194
602,1.3024268048934646,0.5057561909439073,0,0,1.393382979411128,-0.23941946351186927,-0.7335053595898455,0.33940125,-0.3646698,0.07432556
603,1.386396731148398,0.5248517659700734,0,0,1.2493158152298727,-0.12761054507549732,-0.6858974152274893,0.16121740366534665,-0.6636063333473987,0.5166591578511787
604,1.4497230686418852,0.5689383216858585,0,0,0.9477420532393662,-0.13764751284996632,-0.5066588931493021,0.12892151,-0.7177887,0.5968323
605,1.4891508670552482,0.6320292182825094,0,0,0.8231011374681089,-0.4024626797271616,-0.15139533958407406,0.12892151,-0.7177887,0.5968323
606,1.5023954209082218,0.7089759879649399,0,0,1.3270034122983296,-0.3376051443485823,0.47056029334869404,-0.01836697717653138,-0.7433701176260858,0.7100836059116543
607,1.4882476151732489,0.7959787835964158,0,0,1.6644879153045908,-0.2034979362481492,0.43523051260929635,-0.049423218,-0.74876404,0.733963
608,1.4468129374363512,0.8906218934821832,0,0,1.4319372173059732,0.1591300639034314,0.45569232485038746,-0.21234203439340513,0.27191959916545555,0.3322791681789212
609,1.3798084209668247,0.9915201426997843,0,0,1.4409965706256842,0.3303045598549187,0.3036082473985376,-0.25004578,0.50813293,0.23931885
610,1.2907923792024845,1.0977532054062416,0,0,1.4038954870718177,0.18562644162292158,0.09709980385777534,-0.25004578,0.50813293,0.23931885
611,1.185208585627059,1.2082830473133175,0,0,1.341471791513735,0.023575862411095154,0.10561399781260349,0.13356371914229428,0.8465444257899626,-1.1137112655291255
612,1.07016878004055,1.321487612111416,0,0,1.2028780703375863,-0.0379687016251474,0.1974490583900319,0.23469543,0.9357605,-1.4704132
613,0.953952565228939,1.4348434677558484,0,0,1.0121151544687688,-0.15815168682439132,0.08406707951615104,0.12669009904046488,1.1759398096617963,-1.1693793189038924
614,0.8452628624282507,1.5447219700147712,0,0,0.7702418326112008,-0.29652893619952536,-0.10135256161040325,0.09579468,1.2446442,-1.0832672
615,0.7523329631030479,1.6462721025237164,0,0,0.5096313135207546,-0.2492196023026599,-0.1937403330644777,0.09579468,1.2446442,-1.0832672
616,0.6820274090128072,1.7334329716542258,0,0,0.2867420610435255,-0.1258938962905834,-0.13535709348996142,-0.30452839889565564,0.6022655539668507,-0.7331245534655784
617,0.6390984625769388,1.7991910713815924,0,0,0.19609385333512028,-0.14685134661699606,-0.2602528099698269,-0.43312073,0.3959198,-0.62065125
618,0.6257394986459097,1.836207780143888,0,0,0.29105755294533386,-0.30382469510990046,-0.36547465904129806,-1.5081773407017829,1.0188324611247208,-0.45865859058204506
619,0.641514297064735,1.8378542472681307,0,0,0.5385750283038827,-0.34942897960861136,-0.09503294668358155,-1.8798828,1.2342072,-0.40264893
620,0.68365426890444,1.7995266055792078,0,0,0.7475989475787608,-0.2594291649236416,0.0495238608022159,-1.8798828,1.2342072,-0.40264893
621,0.7476353509227918,1.7199614837869146,0,0,0.821680191220664,0.019639285299598915,-0.06558199739185559,-1.6755998446156095,1.0141507636114326,-0.12869170170259842
622,0.8278987577850503,1.6022196135215048,0,0,0.8990640497170679,0.25438242561974256,-0.24374654757336686,-1.5970917,0.9295807,-0.023406982
623,0.9185717299876077,1.4540707356474047,0,0,0.9833191983857794,0.2718217269871546,-0.144436066720257,-1.548566843956678,0.48493205683160345,-0.031786379263222614
624,1.014066625394028,1.2876426324664234,0,0,1.0455916821042277,0.21811955499503546,-0.04234980019937399,-1.5286102,0.302063,-0.035232544
625,1.1094756936599124,1.11833241161366,0,0,1.1219579418685155,0.3788922451547171,0.005390715604603215,-1.5286102,0.302063,-0.035232544
626,1.2007237096913488,0.9630980170150787,0,0,1.2200053711883554,0.6389215128789231,0.06805488648625259,-0.6913397497639296,0.22410682064904178,-0.11762865868809286
627,1.2844849820933422,0.8383565938609204,0,0,1.2351859340218394,0.6726287631938583,-0.044868930987710214,-0.31144714,0.18873596,-0.15501404
628,1.357914660773981,0.757807629773541,0,0,1.189858445413637,0.4352002892452713,-0.1474685329298336,-0.019783454732109764,0.08606326716869507,-0.31231453176652574
629,1.4182883251677119,0.7305409540916592,0,0,1.152293846718384,0.24125339238010135,0.04052151736877062,0.12123108,0.03642273,-0.3883667
630,1.4626816171535784,0.7597512973161145,0,0,1.0452880705442185,-0.0658047909356764,0.46369582831515366,0.12123108,0.03642273,-0.3883667
631,1.4878340574790399,0.8422666637896642,0,0,1.027587704619177,-0.2851458946779645,0.5916852525789096,0.49317112396353213,-0.19427262705304968,-0.4339195306156016
632,1.4903096627191788,0.9689454237510029,0,0,1.0959314072547095,-0.3961460245052759,0.47530647141495136,0.69047546,-0.3166504,-0.4580841
633,1.4669903485874984,1.1258478042516162,0,0,1.2937836724200698,-0.5222409559855063,0.10862227031313587,0.7088817718895508,-1.0426163354970623,-0.4100383741270034
634,1.4158354065113108,1.2959688278731027,0,0,1.602147594553338,-0.5853001528566737,-0.1768235691344028,0.71925354,-1.4516907,-0.3829651
635,1.3367423404860093,1.4612505916167056,0,0,1.6591089908882404,-0.5179985332754222,-0.0213190920807975,0.71925354,-1.4516907,-0.3829651
636,1.2322846173771067,1.6045844738106343,0,0,1.4425716778321942,-0.3857254639295297,0.1535987927847659,-0.009738657686724973,-1.6650602715564267,0.15973245621727122
637,1.1081059362431716,1.7115646661615946,0,0,1.2454262288240001,-0.23472509084104282,0.182150457208833,-0.45863342,-1.7964478,0.49391174
638,0.9728202858424588,1.7718384895205288,0,0,1.1013635006952835,-0.07040406633358998,0.17784018944305882,0.4186497371132266,-1.487702075933617,0.5526619580205206
639,0.8373756948500778,1.7799834757729336,0,0,0.909190840195928,0.08399303181663278,0.0922125142966882,0.9911804,-1.2862091,0.5910034
640,0.7139504699288325,1.7359035051004374,0,0,0.6760914998780845,0.1799173431749426,-0.04726585923269441,0.9911804,-1.2862091,0.5910034
641,0.6145398146644393,1.6447684498985078,0,0,0.41836116173292687,0.20608599950365383,-0.10111653557306625,1.35105578273856,-0.8434742335801839,0.41988048415484946
642,0.549449603934723,1.5165278439053893,0,0,0.13890862148233446,0.19414661365072372,-0.06828563141680682,1.6069794,-0.5286255,0.29818726
643,0.5259383583145426,1.3650237574138757,0,0,-0.011208586910100416,0.18897744813656436,-0.10022070763675077,1.383180832181918,-0.2821196843488149,0.45247105753503736
644,0.5472317011167547,1.20673061026869,0,0,0.11657252275830447,0.17444533409544855,-0.2003654942931986,1.2147675,-0.09661865,0.568573
645,0.6120730044917072,1.0591731144138885,0,0,0.34649606944034234,0.06695411427031751,-0.29662352496266986,1.2147675,-0.09661865,0.568573
646,0.7148787725699032,0.9391192719663604,0,0,0.5298537454844848,-0.09703283120820119,-0.3677619182447401,0.7322203558920864,0.2993337998557248,0.3008091939586164
647,0.8464592265658923,0.8607054479016472,0,0,0.7631567848077248,-0.22077171751845262,-0.4014580448746223,0.337265,0.6234131,0.08164978
648,0.9951686461218822,0.8337098803930145,0,0,1.0761489278804917,-0.23677551767322746,-0.36762246369766277,0.20342515917053364,0.5465171458320558,-0.043371581343237806
649,1.148285221480953,0.862227730538197,0,0,1.3467844459774512,-0.19155718057650056,-0.31327482434987336,0.08761597,0.47998047,-0.1515503
650,1.293396495633702,0.9439938274606123,0,0,1.467711442795093,-0.27740975722726213,-0.39178577368305734,0.08761597,0.47998047,-0.1515503
651,1.4195864887059808,1.0705389441084934,0,0,1.4285964469843326,-0.4465348164527228,-0.6252573001666446,0.07479664551219319,-0.13433247409861757,0.12718738523083767
652,1.518279437620233,1.2282514094297476,0,0,1.3028384873953611,-0.4302528551714018,-0.9817217944400574,0.06274414,-0.7118988,0.3892517
653,1.5836797230598627,1.400249930037821,0,0,1.1055592328340293,-0.2912910016187887,-1.0595664940619862,-0.6971987241353141,-1.6219840490588664,0.5167992722950873
654,1.6128383291768205,1.5687741541715359,0,0,1.0611510261341304,-0.26725060787563265,-0.3124730915610593,-1.45224,-2.5261993,0.64352417
655,1.6054487311885606,1.7176320201898774,0,0,1.3597898991196467,-0.3323036524145706,0.5101216123054125,-1.45224,-2.5261993,0.64352417
656,1.5635046300670128,1.8342091271703158,0,0,1.5824513174713148,-0.2659683203016147,0.5167449103857268,-0.6629425540571586,-0.6941918128162707,0.6647831592651161
657,1.4909287242890334,1.9107001656399332,0,0,1.4407312704000803,-0.037514961755034104,0.20516956439446504,0.1889801,1.2831726,0.6877289
658,1.3932264953640576,1.9444908599361297,0,0,1.2522585701382254,0.14946458616159491,0.14332243188749288,0.043952024420129465,1.631227139234942,0.09630486801395492
659,1.2771682666546107,1.937836301395806,0,0,1.2596759265916353,0.25016556590868355,0.24120979751397972,-0.12149048,2.0282745,-0.57836914
660,1.1504742685035583,1.8970431697227657,0,0,1.2670725023171847,0.2687126413394085,0.2746528040766362,-0.12149048,2.0282745,-0.57836914
661,1.021464724652939,1.8313080413940905,0,0,1.145126269997274,0.15974941249215496,0.1647625536374578,-0.04026498871815007,1.9250124427920354,-0.8818543805613527
662,0.8986355015177493,1.7513025517923828,0,0,0.9935284036891192,-0.018326994268148544,-0.014685859088517524,0.060455322,1.7969666,-1.2581787
663,0.7901367510702547,1.6675994660169224,0,0,0.8060462397795717,-0.1835831141522928,-0.116003256256751,-0.16953074196747825,1.0340629524615166,-1.044821559981634
664,0.703169497335423,1.5891007907497117,0,0,0.647194656862451,-0.24480388758163174,-0.1187892360755612,-0.47114563,0.033554077,-0.76501465
665,0.6433611379349139,1.5217123735008327,0,0,0.5332886187545709,-0.10636435991375177,-0.055884455578531146,-0.47114563,0.033554077,-0.76501465
666,0.6142180385939832,1.467542525119441,0,0,0.284585593914077,0.06985052198590735,-0.07313620516271568,-0.4687508189014712,0.5482308998439566,-0.6480774979535182
667,0.616768149216225,1.4248347875842737,0,0,0.13110795299330114,-0.05833103583239565,-0.28889325360409157,-0.46533203,1.2829742,-0.48114014
668,0.6494887788357808,1.3886828247471932,0,0,0.39927451153335736,-0.28921054848694416,-0.3066615739475804,-0.8134084149757254,1.1139479459461619,-0.45435522005194917
669,0.7085605724480041,1.3523823378129338,0,0,0.7437597344543594,-0.29756313299092196,-0.06300250866893832,-1.3395996,0.85842896,-0.41386414
670,0.7884109888229005,1.3091269053696015,0,0,0.9261088084102232,-0.17616589233518354,-0.03054389396637256,-1.3395996,0.85842896,-0.41386414
671,0.8824394454112371,1.25369365136438,0,0,1.0058695717310848,-0.05384184670916609,-0.18370946596599372,-1.3768216573810392,0.6396522844374746,-0.1881821254111529
672,0.9837812856205463,1.1837897025552795,0,0,1.035347759089372,0.04697353732713178,-0.1324293485495761,-1.4382172,0.27879333,0.18406677
673,1.0859766989659103,1.1008163975495089,0,0,1.1063501069317376,0.2075238130824499,0.0119189458942591,-1.3146528669851347,0.20597755125311626,0.08552715081811965
674,1.1834486751142357,1.0099254164475937,0,0,1.2374496042412257,0.4445200401069314,-0.007071387625200773,-1.0984192,0.078552246,-0.08691406
675,1.2717399378235699,0.9193648353398408,0,0,1.3080134388665823,0.6407369662150512,-0.06189431958210506,-1.0984192,0.078552246,-0.08691406
676,1.3475021127252236,0.8392269616535878,0,0,1.2542175161267997,0.6711404551237845,-0.13718312305172986,-0.8689665587374366,0.05862009219568914,-0.14793502314972895
677,1.4082735918919105,0.7798044024323322,0,0,1.21794195078972,0.517672718881461,-0.13966095824860134,-0.4293518,0.020431519,-0.2648468
678,1.452128750831028,0.7498300598078589,0,0,1.2292854238033994,0.36265133401856975,0.12781761082033477,-0.3361013910497537,-0.029104152879608134,-0.26230045856494727
679,1.4773214717530825,0.7549103630478544,0,0,1.1400260933901993,0.16129506150087608,0.4716948703659486,-0.14604187,-0.13006592,-0.2571106
680,1.4820618226313425,0.796443373154,0,0,1.048045033988449,-0.13023378773869507,0.47207379592710647,-0.14604187,-0.13006592,-0.2571106
681,1.4645416791013073,0.8712345879446421,0,0,1.0434718112703374,-0.38890830110189706,0.4091864314444633,0.030656860538776167,-0.3680912475816929,-0.2724775467048081
682,1.423261295458459,0.9718903213271988,0,0,1.2032982747863654,-0.5495793191957777,0.3074615563729673,0.42681885,-0.90174866,-0.30693054
683,1.3576156753936084,1.087905872400138,0,0,1.4589467487189383,-0.6117403357734775,0.17670687361736126,0.38106272699642957,-1.178515424391486,-0.19470957233923428
684,1.2686012490463374,1.2072120976802705,0,0,1.5590855637535925,-0.5729095172998213,0.08643467793088574,0.27153015,-1.8410492,0.07392883
685,1.1594346987621242,1.3178460562150096,0,0,1.4763708851177,-0.41308049702911326,0.04605697723281512,0.27153015,-1.8410492,0.07392883
686,1.0358689735964803,1.4094065090139363,0,0,1.2507218467852412,-0.1955814702880236,0.034488747985462184,0.23991508512130888,-1.6886966127841345,0.15764625913337837
687,0.9060557946316793,1.4740499561413023,0,0,1.0019552045105773,-0.034399581678664574,0.019630282000733447,0.15612793,-1.2849274,0.3795166
688,0.7799171438316757,1.5069425900224807,0,0,0.76885184064775,0.06307409054721914,0.03779443281743028,0.41886992186687927,-1.0472778208312505,0.37333976103650074
689,0.6681100272015438,1.5062419378606011,0,0,0.5028275970481216,0.07874430151657755,0.024153988688142315,1.1660614,-0.3714447,0.35577393
690,0.5807628236924768,1.4727757749731885,0,0,0.29581049755425337,0.06986661056695573,0.04957583168673299,1.1660614,-0.3714447,0.35577393
691,0.5262076039723202,1.4095909460306661,0,0,0.2675708886370564,0.1117140519235977,0.0655962835860952,1.226211691164368,-0.30186738416882664,0.42602721349400086
692,0.5099262077047303,1.3214838406251206,0,0,0.32223574331303695,0.17863616667403015,-0.030996805183277774,1.4172516,-0.08088684,0.64915466
693,0.5338760680598457,1.2145441130726236,0,0,0.3233033435908892,0.19505082690241993,-0.1291449598474067,1.3304447230284313,-0.040117568480019614,0.587232885508954
694,0.5962827061575483,1.0956868517575684,0,0,0.4174092422150441,0.1617368650808702,-0.250569224206417,1.0325775,0.09977722,0.37475586
695,0.6919016434428561,0.9721390691471583,0,0,0.566800003013463,0.008710779707329268,-0.3838922847008286,1.0325775,0.09977722,0.37475586
696,0.8126799097316956,0.8508805830004094,0,0,0.7623116855935562,-0.1697249000511508,-0.47381944210467103,0.8628143069692885,0.10591971992891559,0.28119219473727697
697,0.9486947553824885,0.7380925832958769,0,0,0.9589777882430396,-0.2522441982629118,-0.39732370590711386,0.20433044,0.12974548,-0.081726074
698,1.08921919060776,0.6387105829416566,0,0,1.1475410021908912,-0.16632376096867196,-0.13085736862813802,0.2656284789241891,0.12132990882166472,-0.0942283759716858
699,1.223762958607151,0.5561880573444646,0,0,1.3090888043574203,-0.12350760405419206,-0.19598546331561514,0.52497864,0.08572388,-0.14712524
700,1.3429604064909193,0.4925381402101163,0,0,1.4412884251278801,-0.29042998040261797,-0.5400312329548113,0.52497864,0.08572388,-0.14712524
701,1.4392157565007095,0.4486426814569774,0,0,1.345517963895088,-0.4209388455103627,-0.7566273294674782,0.4605884152497273,-0.002277481074227659,-0.07152382438065771
702,1.507065744081111,0.42473772434466966,0,0,1.2179666198052401,-0.37378155287808584,-0.6852292173762292,0.14726257,-0.43049622,0.2963562
703,1.5432758789491925,0.42093732964320807,0,0,1.1000650587653555,-0.36317405276160275,-0.40177468002060296,0.08594909584034681,-0.44376920878663884,0.3104133307426746
704,1.5467383134064205,0.4376513357047774,0,0,1.3511033063432132,-0.25870577259133376,0.5670832334481598,-0.24407959,-0.515213,0.38607788
705,1.5182653461228597,0.47577666471125973,0,0,1.5222825453142246,-0.21631488265400467,0.5772516375577517,-0.24407959,-0.515213,0.38607788
706,1.460361009917297,0.536588145452584,0,0,1.2220154770523766,0.10877084240322392,0.4817111274839828,-0.24509834867212074,-0.3565336543852274,0.35867100673000935
707,1.3770174177862897,0.6213193705770542,0,0,0.962713827624088,0.3658212741514306,0.4395498679838807,-0.25157166,0.6517334,0.18452454
708,1.2735456120171644,0.730496952805056,0,0,1.247858748288601,0.4721332961025274,0.2817683336982263,-0.20233104629666626,0.59516598003432,0.0705283784677921
709,1.1564189522196608,0.8631561959264861,0,0,1.3166587241130574,0.2103264577535564,0.04002994059037724,0.15144348,0.18875122,-0.7484894
710,1.0330764511059034,1.0161081753878907,0,0,1.2876969866005472,-0.04611848470574626,0.007651148641604329,0.15144348,0.18875122,-0.7484894
711,0.911614170099795,1.183440023418325,0,0,1.1274822947258862,-0.15617966112094278,-0.06114277428735658,0.04586827081145244,0.21672529072558785,-0.7422194275451843
712,0.8003065479951352,1.3564080428496261,0,0,0.8418453586383883,-0.21969501774930764,-0.13206416811410343,-0.88887024,0.46440125,-0.68670654
713,0.7069530598713747,1.523824917794666,0,0,0.5793526124168673,-0.22517560670640385,-0.16177847926926245,-0.9320377126391225,0.5245865726343406,-0.6661885114455363
714,0.6381200251126742,1.6729528133033922,0,0,0.3838763261226758,-0.19623482967723582,-0.06724964701673876,-1.3811646,1.1507721,-0.452713
715,0.5984112733685396,1.7908123400161042,0,0,0.2562472819797038,-0.10064575417814917,0.026069575528105585,-1.3811646,1.1507721,-0.452713
716,0.589927459260108,1.8657312737441583,0,0,0.2678244830535659,-0.08537362485732841,0.046602999461024155,-1.3948025477834818,1.1702017376900793,-0.4357703341759903
717,0.6120486662850675,1.888908683292578,0,0,0.43722067441522655,-0.17780014747010778,-0.003969471305844421,-1.5847473,1.4408112,-0.19979858
718,0.6616030036244586,1.855764027017327,0,0,0.7172997240850681,-0.19566038515839382,-0.12931898938416383,-1.5850459837794308,1.4099524293681556,-0.17825182247386084
719,0.7333877868522315,1.7668680612577523,0,0,0.850161427206368,-0.03000150546803157,-0.42949781914800816,-1.5903625,0.860672,0.20527649
720,0.8209243913282414,1.6283045487879895,0,0,0.9436756156472149,0.1963861595421533,-0.2709599078473486,-1.5903625,0.860672,0.20527649
721,0.9172845822173736,1.4513824643799902,0,0,0.9725905860355792,0.24500904925595687,0.030698710815034284,-1.5788907274935828,0.8469426630138103,0.20463189675664611
722,1.0158355391957683,1.2516988646708136,0,0,0.971178547060221,0.1584034894342881,0.14007792707490221,-1.2373352,0.4381714,0.18544006
723,1.1107968689143612,1.0476365802811438,0,0,1.1136873471758926,0.2879671520220001,0.06376904214279377,-1.2169216603549062,0.4334838461263886,0.18311625460093262
724,1.1975569597228866,0.8584674422845271,0,0,1.3180460074626472,0.4210040950607305,-0.08714453897885772,-0.14556885,0.18746948,0.061157227
725,1.272738955207653,0.7023111502848793,0,0,1.3680833457746908,0.2970958822792162,-0.28334962975779593,-0.14556885,0.18746948,0.061157227
726,1.3340399999746932,0.5942422667661851,0,0,1.2831328522798306,0.23470108271115825,-0.27754112266342923,-0.14556885,0.18746948,0.061157227
727,1.379903402203195,0.5448094132491745,0,0,1.2269136234227154,0.16857588505366672,0.016746971442569144,-0.5815201732637619,0.17757902234883532,-0.3597013099209554
728,1.4091239352544378,0.5591301051386349,0,0,1.0126260451557056,-0.13292909648410034,0.6136671416227553,-0.58543396,0.17749023,-0.3634796
729,1.4205155503687135,0.6365983070776885,0,0,0.9358082166020457,-0.31003932909254117,0.6387661710388869,0.1398496386753511,-0.36082063346861126,-0.4503150091464228
730,1.4127673922897908,0.7711501312480998,0,0,0.966591339492953,-0.25370386981552334,0.6270572794448438,0.1566925,-0.37332153,-0.45233154
731,1.384569951883856,0.9519980172723781,0,0,1.1006029599397493,-0.1644210502584641,0.4534782511792943,0.1566925,-0.37332153,-0.45233154
732,1.3350170458247606,1.1647371065523116,0,0,1.3764626423230786,-0.18516986986160117,0.08666748834578272,0.8226806015569778,-1.1643155975017665,-0.32626001796452825
733,1.264200539445207,1.3927108004045217,0,0,1.5373932907794188,-0.22244010865368852,0.054191291425498216,0.85289,-1.2001953,-0.32054138
734,1.1738388388235532,1.6184901753133876,0,0,1.520044410363705,-0.19125062965987777,0.06114706207315038,0.46780172582088464,-1.8228275990378744,0.41923727666586297
735,1.067744768014861,1.8253032311743633,0,0,1.3147102794092647,-0.13802494412725486,0.0758221115861396,0.44444275,-1.8605957,0.46411133
736,0.9519621568502226,1.998272597241327,0,0,1.1010962272799008,-0.027262338741553614,0.06198533018331489,0.44444275,-1.8605957,0.46411133
737,0.8344789913746534,2.12538103751319,0,0,0.8554868119259456,0.0435453812118208,-0.027683380394326437,1.389842832726838,-1.3540212811166676,0.47396056490232075
738,0.7245302161209685,2.1981532865367464,0,0,0.6685001778646215,0.08750943882675069,-0.04466571058226155,1.469696,-1.3112335,0.47479248
739,0.6315997188427881,2.2120880474180957,0,0,0.44841971847365364,0.08212206722505777,0.024201927595758815,1.9082478605822895,-0.6301212554869136,0.5765650098879997
740,0.5642935933128896,2.166878886399806,0,0,0.3057128590284724,0.10422862851623851,0.1742540541613099,1.9525146,-0.56137085,0.58683777
741,0.5292761010678427,2.0664321800896803,0,0,0.31434388000156466,0.14536602828109096,0.14507449132026412,1.9525146,-0.56137085,0.58683777
742,0.5304383454027289,1.918644730057889,0,0,0.36250387916025534,0.11713831837953109,-0.09447343995841531,2.3152228794516345,-0.17806217530758456,0.6748872999737678
743,0.5684181377015972,1.7348709272058,0,0,0.4072245805961354,0.016464527903819387,-0.3401157023251787,2.361145,-0.12953186,0.68603516
744,0.640523841921152,1.5290196871177186,0,0,0.48525124846098144,-0.09027867391025046,-0.34453469555986965,1.2126272935358768,0.0012027265613035014,0.28877801768916705
745,0.7410514405172407,1.3162939396672872,0,0,0.5927747128068366,-0.171991454424398,-0.2687935671338807,1.0467834,0.020080566,0.2314148
746,0.861933257882573,1.111700993781105,0,0,0.7534821180936221,-0.2389103737955248,-0.3305697660953865,1.0467834,0.020080566,0.2314148
747,0.9936208736679965,0.9285606657717964,0,0,0.9171524725916206,-0.2998257257926581,-0.37440890519996306,0.05073746317422774,0.3804483435411963,-0.14993744642265558
748,1.1260809284203743,0.7772662954580088,0,0,1.1349291386371758,-0.404137718731904,-0.31066060553664687,-0.1207428,0.44248962,-0.21559143
749,1.2497699649038914,0.6645054272890645,0,0,1.4023329664102937,-0.4546004441839405,-0.2277654914688054,0.018278489935595655,-0.40189661269427013,0.1220810960403624
750,1.3564581331396177,0.593047919963289,0,0,1.464000771431214,-0.3404440279791906,-0.4778927243505407,0.044891357,-0.5635376,0.1867218
751,1.4397990125965763,0.5620888569616064,0,0,1.3071256485274256,-0.19228375395213482,-0.8407930575925061,0.044891357,-0.5635376,0.1867218
752,1.495596326908184,0.5680209685488032,0,0,1.1661142378071114,-0.11396000903864986,-0.8100302943761141,-0.17114595044533829,-0.7866075139672268,0.2749229732538072
753,1.521787814547955,0.6054347838155616,0,0,1.1918293055687155,-0.1383608670831319,-0.26394774396876963,-0.2190094,-0.83602905,0.2944641
754,1.5182284389244132,0.6681222864203968,0,0,1.377933813181494,-0.1316630930921518,0.49435993702028247,-0.0706821518809493,-0.6454067788515544,0.5950975785363322
755,1.4863838841269283,0.7498935737170113,0,0,1.3968499621727977,-0.094535837093374,0.5822902963735214,-0.034713745,-0.5991821,0.66799927
756,1.4290323335137753,0.8450930074298377,0,0,1.1852113021653703,0.02998222825116089,0.43108519311165744,-0.034713745,-0.5991821,0.66799927
757,1.3500332817343343,0.9487963268446479,0,0,1.12285633421179,0.1672435115466887,0.19532136946220638,0.2569683959579612,0.5020143035914736,0.10802648799008122
758,1.2541780705776608,1.0567524134993582,0,0,1.2805131885618068,0.21596636829896282,0.0011078448919164244,0.337265,0.8051605,-0.04612732
759,1.1470954467003889,1.1651760612578228,0,0,1.3734729695362353,0.15570562743686303,0.04171611213610299,0.1623824767740262,0.9619294675827889,-0.8582884898528215
760,1.0351476983296364,1.270490929542477,0,0,1.288665611162849,0.08448047696457013,0.12332156765790989,0.11024475,1.008667,-1.1004181
761,0.9252323990799398,1.3690839294569879,0,0,1.1194110218380504,-0.023527446763979772,0.04875957418918993,0.11024475,1.008667,-1.1004181
762,0.8244217904163829,1.4571039541082982,0,0,0.8662584686483923,-0.20033512968821074,-0.10877244224677135,-0.0790188795537098,0.9799674694822177,-0.8515248637545415
763,0.7394293241526723,1.530344819327818,0,0,0.553556411202549,-0.29882780566957506,-0.21143691858007282,-0.14222717,0.9703827,-0.7684021
764,0.6759685703305739,1.5842795706532393,0,0,0.3166107858624491,-0.2515323643752653,-0.20240942194916026,-0.4146545137313962,1.055716240572799,-0.7300244647186466
765,0.6381308753710765,1.61432157732651,0,0,0.20816587751089058,-0.20291959834690484,-0.13675310391531031,-0.5124512,1.0863495,-0.71624756
766,0.627929049308666,1.6163509498567128,0,0,0.24811296190723772,-0.2754726602363186,-0.06465444253219237,-0.5124512,1.0863495,-0.71624756
767,0.6451245735082751,1.5874678404992488,0,0,0.46775135856347266,-0.3356954239628126,-0.04511713920421227,-1.1155081203418475,1.3500887172984897,-0.4488090966289658
768,0.6873833989478475,1.5268439302324044,0,0,0.7522261681410234,-0.22303565990884222,-0.16049612145869668,-1.3557129,1.4551392,-0.34228516
769,0.7507160812025591,1.436474467931355,0,0,0.9272845461131639,0.011008217247185039,-0.21803725048228725,-1.292123081878162,0.9430066220603753,-0.027471596153673377
770,0.8300861281603436,1.3216177710387642,0,0,0.9706005689490106,0.17767156051452654,-0.12160492072079956,-1.2650452,0.7249298,0.10658264
771,0.9200420605781852,1.1907590643529653,0,0,0.9576125519265578,0.18801877537713613,-0.06096412154140554,-1.2650452,0.7249298,0.10658264
772,1.0152475092448345,1.055030379176873,0,0,1.008931995782241,0.2107344505806106,-0.07332990018535396,-1.1806593185478487,0.33630827732562035,0.06475841483381686
773,1.1108315445754224,0.9271238453187272,0,0,1.123210118484537,0.4071813238730297,-0.019522297877114955,-1.1410675,0.15397644,0.045135498
774,1.2025335498924745,0.8198335281525936,0,0,1.1821495469191732,0.6119772724864491,0.03083911595591829,-0.4167102305602893,0.1693413157696684,-0.1265848092857049
775,1.2866592979174118,0.7444457379624605,0,0,1.1810854787008513,0.5722595505224707,-0.05428569395345225,-0.054840088,0.17701721,-0.21237183
776,1.3598986881487576,0.709253364761616,0,0,1.2189493506902334,0.3828929081970658,-0.020420806009845888,-0.054840088,0.17701721,-0.21237183
777,1.4190857400106827,0.7184663809687869,0,0,1.2075008274246595,0.14049147995501898,0.3262313129749965,0.14977641177775433,0.12371615697156362,-0.4464685610319455
778,1.461003610178826,0.7717122085514921,0,0,1.159692597171745,-0.08956114907423668,0.6104471701477279,0.26182556,0.0945282,-0.57466125
779,1.4823395099106484,0.8641871932669937,0,0,1.1174920120719745,-0.22622019633615947,0.6031301551462172,0.7461415514653753,-0.2783892079288343,-0.5431280782046116
780,1.4798683206378245,0.9873812919943179,0,0,1.0876121088619135,-0.3735646795292536,0.32808356676696265,1.02771,-0.49519348,-0.52479553
781,1.4508911341534192,1.1301962302554558,0,0,1.2660464898067862,-0.4371433021318181,0.08786454342383498,1.02771,-0.49519348,-0.52479553
782,1.3938836030921007,1.2802351427316683,0,0,1.5134745246350754,-0.39541616498386056,0.03389677832843423,0.7412532633456881,-1.1533289866754235,-0.25522270886980164
783,1.3092316302330358,1.4250572467350833,0,0,1.5781537727728256,-0.3655981927716264,0.0889354035913101,0.5593872,-1.571167,-0.08407593
784,1.1998712066091808,1.5532448085219672,0,0,1.4721394600572353,-0.3524502293407835,0.14714204549553922,0.24263678444767822,-1.6052130398700928,0.1835759382502982
785,1.0716333007436334,1.6551984409490643,0,0,1.2987191789348795,-0.286009772326609,0.143743402994969,0.029586792,-1.6281128,0.36360168
786,0.9331386530262343,1.7236455539818465,0,0,1.0998548191826651,-0.14302700618813927,0.11436186569198802,0.029586792,-1.6281128,0.36360168
787,0.7951801515678375,1.7539053876747077,0,0,0.870771731404305,0.02964706329169722,0.08805634522222669,0.6822682250464973,-1.2073970318930878,0.3698545990081026
788,0.6696430704255729,1.7439895548918245,0,0,0.6087209775024576,0.12703928069868095,0.020563729549418625,1.1604156,-0.8991852,0.37443542
789,0.5681160024930034,1.6946160345411474,0,0,0.3473428500697908,0.1367395790327588,-0.028725736112329335,1.444577974296571,-0.6342529822470244,0.43944134631188153
790,0.5004165640219901,1.609173667277523,0,0,0.15619859406638498,0.13459187755661267,-0.04995950678170545,1.6648102,-0.42892456,0.4898224
791,0.47328304786048947,1.493609636214107,0,0,0.06457455426867781,0.14928085232233648,-0.04000877423181099,1.6648102,-0.42892456,0.4898224
792,0.48946056997911763,1.3561584485651361,0,0,0.1450012360555527,0.1516582130052327,-0.06809188091015715,1.5479876692957268,-0.2838983512484284,0.4749421755328725
793,0.5473414106607161,1.2068216338480053,0,0,0.3538485696075486,0.08953363309828802,-0.12325920259607644,1.4495392,-0.16168213,0.46240234
794,0.6412183381397466,1.056555348253512,0,0,0.5289558154022415,-0.02919494664447802,-0.20980842889899926,1.0061060169486327,0.010298729113994046,0.1687008988966185
795,0.7620985952113747,0.9162132478637693,0,0,0.7010939431936917,-0.14025669701661467,-0.43335346727363094,0.61109924,0.16349792,-0.092926025
796,0.8989281548002818,0.7953895415397654,0,0,0.9089639893805451,-0.24317832980323656,-0.5014667302134216,0.61109924,0.16349792,-0.092926025
797,1.0400094692087154,0.7013719491865952,0,0,1.1525581280157713,-0.32364155683411916,-0.3168483721395191,0.3105058807966423,0.16341262668437245,-0.061699674112873394
798,1.1743720537263715,0.6384196254431862,0,0,1.4158398514181423,-0.3223474734525031,-0.2870256052296572,0.019592285,0.16333008,-0.03147888
799,1.2928760863649298,0.6075246843315951,0,0,1.496986391583803,-0.31901800735365343,-0.5535620617415068,0.07057267687470105,-0.24402273425616247,0.2590972800727092
800,1.3888903730881241,0.6067129060081372,0,0,1.4241006516753847,-0.3370526996102669,-0.7354526366299584,0.12271118,-0.6606293,0.5562744
801,1.4584790699730468,0.6318138838813293,0,0,1.2317916893734462,-0.2553371035511936,-0.7016717828732475,0.12271118,-0.6606293,0.5562744
802,1.5001419720342415,0.6775203094370906,0,0,1.0070496937450841,-0.22488839902167618,-0.5740333174530493,0.014061308983875039,-0.7053627839783635,0.5211251021248242
803,1.5142548771636593,0.7385011735908379,0,0,1.0792393720669655,-0.24857892230837417,0.004644033337655644,-0.106658936,-0.7550659,0.48207092
804,1.5024147485847206,0.8103493998551474,0,0,1.3083682520873405,-0.27601589857280406,0.4747579918340835,-0.3654524765305194,0.04610708888848461,0.5137052186289884
805,1.4668850820388168,0.890206676229344,0,0,1.3168381011547026,-0.2612995051988802,0.38985934825996493,-0.6693878,0.98703,0.55085754
806,1.410268023409972,0.9769789988270878,0,0,1.153742186020563,-0.07552549116685776,0.3803604603456836,-0.6693878,0.98703,0.55085754
807,1.3354373013521466,1.0711192493729256,0,0,1.2101563545353582,0.06477250846799867,0.4064650604806513,-0.5651650782661427,0.8723930595880734,0.2703166530746903
808,1.2456836796045476,1.1740185466878121,0,0,1.4071023663926159,0.12863785764206212,0.3602905193837078,-0.43208313,0.7260132,-0.087905884
809,1.1449651823261169,1.287122107823477,0,0,1.3937172292417046,0.09594196166732272,0.22784666404847115,-0.3314202670300029,0.8254168056847216,-0.5846447743645304
