id,ASVM,GSVM,walking_nonwalking,normal_abnormal,ax,ay,az,gx,gy,gz
1,1.019847752660078,0.030245044199747453,0,0,1.0118392804342162,0.08211355388406015,0.043624424860333286,0.0875378872156548,-0.05082607484361828,0.009541178935826523
2,1.0293557178711616,0.04375129259475332,0,0,1.0182888517382023,0.07360917191575032,0.027221261742771258,0.11265476961046915,-0.007476034132911586,-0.03425652804067231
3,1.0395184866455642,0.07911736208800228,0,0,1.0317624205447442,0.07529848000654789,0.03221660140434419,0.17525469551190628,0.09133005647902478,-0.08469669097649114
4,1.0494369950293287,0.14224657408230088,0,0,1.0459336248489592,0.078801211778621,0.06097153259676948,0.12620745700783037,0.15977240054575848,-0.09772769287634757
5,1.0580807777924908,0.23768965043629706,0,0,1.05535595662257,0.10277947903756421,0.10734204066019049,-0.06965112864456975,0.19508882181687548,-0.10421289404414454
6,1.0643764243921943,0.3677778161055744,0,0,1.0668428875424645,0.13405389690005678,0.16033641878591515,-0.2401675924691822,0.12577427317022916,-0.10643633356582646
7,1.0673047755069396,0.5318601910301971,0,0,1.0398191586754093,0.14780348477821853,0.14328025866327923,-0.3145471624686108,0.034892396441645664,-0.07933652516888576
8,1.0659995926873649,0.7257913998899852,0,0,1.0322114944191478,0.07874014036767034,0.006939769578442255,-0.08675941145947837,-0.07523206664856245,0.011085603411500259
9,1.059842589856247,0.9418043271236732,0,0,1.045751441927789,0.0402233649325806,-0.1236529428797754,0.5663413596134397,0.6239439688052213,0.0917091823662718
10,1.0485509157569943,1.1688480313199958,0,0,1.029941212174533,0.11884739695089447,-0.06772200013335747,0.5953003575210535,1.2485990939435032,0.13863635000747296
11,1.0322514755901093,1.393378166050603,0,0,1.0392152067345521,0.1298630548979072,0.033359471502784024,0.14719450989576108,1.6139819032063163,0.18118542000427376
12,1.011532346111684,1.6004940471331675,0,0,0.9886623227134957,0.12157480630376023,0.06829426448569408,0.38478378115614054,1.9211625048585934,0.21619614716497926
13,0.9874574596747682,1.775271783695116,0,0,1.0070951078821924,0.17286592458623784,0.09256226159143593,0.5516387850147257,1.2776019693801377,0.25023232310645316
14,0.9615290204548894,1.9041630186713623,0,0,1.070134656448538,0.10511892463575341,-0.024800426184180054,0.4927939570429657,1.0574662161704897,0.2528659612214
15,0.9355846782837561,1.9763747405175196,0,0,0.9941318722553436,0.06808300806093902,-0.1349237870627627,0.8153640031223731,1.717915970530994,0.23972424400526457
16,0.9116261496957379,1.9851521259489606,0,0,0.8932973851900754,0.1078604835809177,-0.06057544848783515,0.37576002047516266,2.171556300954498,0.2513785041467871
17,0.8915944156696195,1.9288249156486204,0,0,0.8071189998118914,0.08256097160499735,0.12769169195868174,-0.36156743504694033,2.6449712364709472,0.2645520581660724
18,0.8771291713565617,1.811395216293461,0,0,0.692038576074282,0.031755718072105234,0.3194810570027346,-0.7294829600598929,2.8547347982799405,0.23597789487200846
19,0.8693655209624818,1.6424318009097743,0,0,0.6370894611014114,-0.02713875286024894,0.41585296215673867,-0.5664131135900473,1.809325782420181,0.13515878671409534
20,0.8688185583001412,1.4361521875446268,0,0,0.6798273626770628,-0.034790357075551684,0.4308734181029897,0.2648735828408064,0.7880398791952511,0.013895878210311992
21,0.8753845984648021,1.2097915833060977,0,0,0.7511587908622287,0.0844917576771166,0.4661773498858907,0.6107040040520538,0.5757015294211013,-0.0388464899677495
22,0.8884542405309416,0.9815714270859205,0,0,0.8550476719998282,0.1485349255726711,0.4734219569459158,-0.06287380773629359,0.5735658403555074,-0.07460049011651805
23,0.907100426173405,0.7686801951568976,0,0,0.867172234518351,0.14201538594031873,0.4132093101474431,0.04483299368499742,-0.05208465903174394,-0.047990332053627974
24,0.9302867483302555,0.5856318623179857,0,0,0.8697574650097937,0.06812137150888876,0.340784835558524,-0.11821002316210504,-0.5373830260798284,0.024520629126030043
25,0.957042772724677,0.44321969046487186,0,0,0.9955668906714366,-0.01276796986624911,0.26309644074367294,-0.1785856880148599,-0.6071358315239458,0.02919427817718421
26,0.9865695956706273,0.34810736162317085,0,0,1.0368858770115048,-0.004054998558770767,0.2312272758356209,0.013410416949376837,-0.37982544535388285,-0.02736625921688441
27,1.0182612614452646,0.30295655715763736,0,0,0.9470635654503539,0.030804746772096037,0.20597660485813316,0.03876169392473745,-0.3965928153127046,-0.11401568380748538
28,1.051649744974539,0.306914829786986,0,0,0.9480700912881381,0.0434203848237579,0.2028293280846049,-0.4057759680547731,-0.193132479806944,-0.11860911237381454
29,1.0862992109216265,0.35627900844870297,0,0,1.0483764343329405,-0.012693330357735741,0.19485134431147164,-0.5639413723899807,-0.13627851351447615,-0.11809458449233882
30,1.1216840985042476,0.44518200041857425,0,0,1.1205268303894547,-0.051779791772284436,0.2209271475091642,-0.2804936665837287,-0.22309705732888835,-0.1553450950643274
31,1.1570821490603893,0.56620169037876,0,0,1.108603902171016,-0.06456578065472561,0.2171654380451283,-0.1847284925337188,-0.4577353859114488,-0.20709959271559783
32,1.1915022248564378,0.710845276770317,0,0,1.1507273149155925,-0.04818946118642038,0.2004485100158769,-0.32622326763638865,-0.6292971835893006,-0.20270125005077913
33,1.2236557825782772,0.8699067683929842,0,0,1.2555337310470913,-0.025669428504137594,0.13867921499123625,-0.10289732955315439,-0.9555859653800839,-0.12117510354497144
34,1.2519740396564967,1.0337211372856638,0,0,1.2881794163341287,-0.0336176014963369,0.05114665474823388,0.4315206276513562,-1.1231680357765415,-0.006262334880647035
35,1.2746699172958804,1.1923536487906492,0,0,1.2667492098937987,-0.03961506153397643,-0.030071072150847613,0.8966021659347817,-1.074603008156322,0.09545219063742379
36,1.2898447414580365,1.3357844653495052,0,0,1.2124681088089206,-0.03978967818968046,-0.05912440652157736,0.861868823617063,-0.5452865992483756,0.2237561197045956
37,1.295643383873132,1.4541829832427895,0,0,1.1282240093250826,-0.04704320940850138,-0.04794030419109654,0.5683727920840208,-0.199279072626748,0.29630011600571726
38,1.290461614465548,1.5383917908378673,0,0,1.109536052152429,-0.009253025797446659,-0.021356063735639738,0.7415510376612497,-0.36971464345296756,0.19204214546758905
39,1.27319615826478,1.580710250651949,0,0,1.4483761425735786,0.10911956477246823,0.17170836732841382,0.3996778651989944,-1.0304107042006996,0.2122533898752716
40,1.2434990395063095,1.5759470020459048,0,0,1.8122755073560917,0.015805014418352737,0.4697846762019739,-0.8555890435541798,2.3988514094362077,0.1884229620617656
41,1.2019703204398902,1.5225251807648656,0,0,0.49617674630505926,0.3113769918531905,0.7693307153910734,-0.4478487957591607,2.91871321837191,-0.30479062833007736
42,1.1502270887113863,1.4232769744344818,0,0,0.5019099487123682,0.2808377306556819,0.8092894827918701,-1.139370195614438,-2.0478249848734396,-0.00025140092947284503
43,1.090830720317832,1.2855773490391442,0,0,0.9489124127374321,-0.14739686341523422,0.32380669876806134,0.4057711642281901,-0.44755383650641545,0.2278982797993481
44,1.0271068252434965,1.1206735540890393,0,0,0.8164640204411717,0.06748319443647777,0.429620975762969,0.25406445760058116,0.03989322617382406,0.10525219412310564
45,0.9629111274951974,0.9423542437498187,0,0,0.9722487017675827,-0.10445085497004775,0.39894829018445327,-0.9193699203839074,-0.06243387477065752,-0.10726034477629955
46,0.9023743432007996,0.7652927199740605,0,0,0.9369709643613403,-0.04947270573652576,0.5234765861220388,0.46131648031348527,0.2914139821018703,-0.27710290980414504
47,0.849628856818506,0.6034087355692629,0,0,0.8058663307492023,0.05337147573605134,0.42568863542826124,0.38775784078764386,-0.19038833722893972,-0.26626208320290506
48,0.8085083055152469,0.4684838911996532,0,0,0.6869489888538142,0.08817243898963739,0.2487816140474876,0.44568590006103853,0.11581136833241686,-0.12036020241106661
49,0.7822249947036376,0.3691454161211952,0,0,0.6270139015859855,0.1560850342498742,0.22983812746067642,0.1938716712962008,0.27788749448515393,0.006297524627798496
50,0.7730551884823494,0.31025477821668523,0,0,0.6791338939334297,0.11248401283671722,0.24075694523865557,-0.2540665157002783,0.2880786000073224,0.04819416385373257
51,0.7820775123819865,0.29269713113595147,0,0,0.7405696675464668,0.06495777905954603,0.23415239959916978,-0.025923741453453192,0.13722904704496122,0.013857554880401296
52,0.8090049617264059,0.3135481704535804,0,0,0.793903307371707,0.12498155652965842,0.18551580413899738,-0.0663387463606079,0.046813382753353436,-0.04708268598247953
53,0.8521334508130733,0.36658216549736267,0,0,0.7843674058545832,0.15318259850721078,0.13551836054786662,-0.3287466449105063,0.24020194308133447,-0.05096540413089317
54,0.9084125258225149,0.4430652599056924,0,0,0.8724488732975645,0.1496458175808356,0.1107641714075748,-0.5330311013323193,0.23367923663800133,-0.01084169274560521
55,0.9736329492938232,0.532748122014435,0,0,0.988601881412807,0.14710705043201622,0.1606860219503693,-0.5445013625084314,0.30806077582693975,-0.031271059655031866
56,1.0427195212071485,0.6249458722935353,0,0,0.9946915176630897,0.09862865667781867,0.1535348851048045,-0.5990953166256217,-0.08023691592237936,-0.0838826315579146
57,1.1101127541243796,0.7095883566677512,0,0,1.0200748564038593,0.07652852956916152,0.10448654779730875,-0.24740175960875438,-0.48478267812225156,-0.17024093474098714
58,1.1702185645434986,0.7781394911505553,0,0,1.0622032591232557,0.06719738348180293,0.2286583051306432,-0.6014680155001667,-0.897941676954348,-0.20713915386213835
59,1.2178982775639267,0.8243051664930038,0,0,1.2177605279273704,-0.018129569451515098,0.2918673021699639,-0.8432614798811173,-0.777930870150206,-0.14007490799635822
60,1.2489582229441325,0.8444697848106131,0,0,1.097453285878418,0.24522378199228184,0.48287505222748817,-0.3978056205073593,-0.23361968546560938,-0.0948371364192637
61,1.2605808747536869,0.8378325387431149,0,0,1.5382511604475628,0.19954804520583802,0.8392297890149101,-0.788320030547381,-0.5139069101550071,-0.32079060209524113
62,1.2516296739559953,0.8062574759570468,0,0,1.1171160267684797,-0.009163847172517742,0.6392858331721823,-0.14417344997035475,-0.6093866117506334,-0.30720323221876494
63,1.2227736401864506,0.7538871024440724,0,0,0.826092955835481,-0.08021107173037428,0.31602363057090593,-0.21511584450912893,-1.1686194428475727,-0.14792983151995964
64,1.1764192453488487,0.6865852354145808,0,0,1.041361016369303,-0.16528016803763879,0.23944207908029647,-0.07775532857162751,-0.053415426280659636,-0.1894926368795335
65,1.116482548252547,0.611282235072142,0,0,1.1284177073573443,-0.06354116238855094,0.3687312314366921,0.4485802330370321,0.23953374818372408,-0.23507872487133868
66,1.0480513102533209,0.5353040954530623,0,0,1.156362040118065,0.06079900652032959,0.5112353223710517,0.016850037623067048,0.4838649693164012,-0.14145966562309878
67,0.9769709258775303,0.46576362201433086,0,0,0.9273967795115597,0.05211197054124251,0.3691645410461453,0.16048813873513354,0.10723528721396462,-0.06182098191601296
68,0.9093702603940043,0.4090639764981772,0,0,0.8227245672528327,0.11236162411047708,0.2687353197288191,0.7961712354612714,-0.3452108130251665,-0.09264308106170532
69,0.8511496974200059,0.3705229808346557,0,0,0.6741156356515245,0.1250221576362385,0.18395365838567188,0.2960235272765516,0.10243245643974276,-0.11086026314173723
70,0.8074764603374953,0.3540967265138665,0,0,0.6758090242568322,0.04493659345636797,0.14579720516677044,-0.20558961552626295,0.15760245348838928,-0.07525378598283049
71,0.7823458880076468,0.3621798605685226,0,0,0.7439200762180795,-0.007177688839590498,0.1931307321266162,-0.21583403018930375,0.3410828010159308,0.023700191538411557
72,0.7782569020974913,0.3954802316131033,0,0,0.7484147184801618,-0.05331151310332881,0.18885033733031872,-0.010626004767761653,0.15985863372671677,0.05875498884182108
73,0.7960214119019243,0.45298326604584327,0,0,0.8628980736897379,-0.11776743136863115,0.14903329986717745,0.04585106351428161,-0.2437458325779745,0.07007228525873686
74,0.8346981806566683,0.5320175112116554,0,0,0.9212022005420125,-0.12803201823836735,0.03591863337187495,0.7221631151111324,-0.6636182062947504,0.08252090939715233
75,0.8916266856817756,0.6284092120778298,0,0,0.9679096991436363,-0.18157411196927778,-0.040853362541453234,0.7969835749290786,-0.6394631770497529,0.06023180050458938
76,0.9625414903427207,0.7366943773991349,0,0,0.908668957549653,-0.17569187296405392,-0.047881302916702666,0.32931147613708356,-0.14190452909774978,-0.025199117376468804
77,1.041768788572953,0.8503692304104508,0,0,0.9402394502090644,-0.08249025104088223,0.035324724318886204,0.30374679138325417,-0.18168927127362575,-0.08609762284918149
78,1.1225323307853285,0.9621994844049765,0,0,0.9192440911797176,0.10847071521729615,0.1275344166302325,1.0515486398848066,-0.4194535732327588,-0.24110264842249018
79,1.1974097446765812,1.0646309379595926,0,0,0.86509278588367,0.20860403439498043,0.3118564981748657,0.7431753140675812,-0.5817497834277,-0.4658899985436138
80,1.2589678278006071,1.1503176450134005,0,0,0.7525603783456524,-0.035096076201941766,0.17558396910758275,0.6182235493435991,-1.2119919157638162,-0.4630003380717803
81,1.3005592442842315,1.2127344577663066,0,0,1.7117424285170177,0.2217575380910268,0.678953246911961,0.7363444934676667,-0.2553926222895564,-0.001085760704842977
82,1.3171901974989606,1.2468121645978778,0,0,1.4827865129927216,0.6937382063878442,1.0500015957994162,-0.25278321960050776,1.5237403745724076,0.23472961110926097
83,1.3063015756449476,1.2495330939560312,0,0,0.5077672621303908,0.6187301931128223,0.5335067869974293,-0.10413764759705155,-0.666505381442737,0.3018775640949497
84,1.2682913673762881,1.2204267358413887,0,0,1.1798641616379257,0.44672506590182826,0.4499775568657962,-0.9272100975175867,0.06270629959648985,0.573777210358171
85,1.2066575516185434,1.1618871665401715,0,0,1.48307685810226,-0.0025357685849282515,0.49217235053896446,-2.1803844126600183,0.1904158645943463,0.3425148058078294
86,1.127719581456864,1.079203957078392,0,0,1.303847776983489,-0.4742197888678842,0.30628418787686856,-1.6651672325209288,0.4009307876031032,-0.05287355999186809
87,1.0399439999132323,0.9801967119015913,0,0,0.7249890273417636,-0.06932414169587292,0.24731296113668555,0.5241089977840693,0.35397652358841125,-0.02578998633966459
88,0.9529576119169731,0.8744169252845733,0,0,0.7416349845058524,0.048904904657556585,0.21330789705457517,-0.3047769736402031,-0.679695754042533,0.060593523213925304
89,0.8763879464409903,0.7720186318515851,0,0,0.7548826976228122,0.001488721940530884,0.10291158952972244,-0.18889268980843357,-0.053470787715356675,0.07473143906854435
90,0.8187043024664298,0.6825189667560799,0,0,0.7324262735723321,0.05650631036005277,0.1761023771484624,-0.3522732189262886,0.049299329599556685,0.10454444403429182
91,0.7862218261894104,0.6136942126153939,0,0,0.7103560233036715,0.06099460051635432,0.149711913446743,-0.6842341863441487,0.25203272873736043,0.02329696856206245
92,0.7823866218791249,0.5707843302477607,0,0,0.6803070913452536,0.08502261377746619,0.14940533062784714,-0.6457471951235084,0.3174306437080949,-0.11325602443157519
93,0.8074092847551694,0.5560687424220656,0,0,0.6927358058430835,0.1109083625067863,0.10857319061211664,-0.6252929574542542,0.22955909252386192,-0.1961814919200094
94,0.8582719795119592,0.5687932652225548,0,0,0.7290019932450326,0.25283443145134027,0.06588628292278652,-0.10911313352889097,0.2106781136917172,-0.17150797301657023
95,0.9290982618657692,0.6053995924658953,0,0,0.7952590086855169,0.32372448116209873,0.023813305547186248,-0.24839032572225608,-0.18133361246018026,-0.06569862888687802
96,1.0118396133105063,0.660012552700448,0,0,1.028114931555603,0.14434373370611966,-0.050274714876454824,-0.8848645637827712,-0.4123871389286734,-0.019932877525844758
97,1.0971977235937997,0.7251361896833677,0,0,1.1923305000039295,-0.060844548847946045,0.0044983623610555966,-0.6770990254657644,-0.2438441251475056,-0.07058250977951863
98,1.1756726973683358,0.792485076323394,0,0,1.1752143080338913,-0.12720409371735567,0.282459461556419,-0.7306969135871729,0.07796778399645224,-0.03695762527768905
99,1.2386123195781114,0.8538543591249543,0,0,1.031282481591295,0.016103680900366298,0.4639050430787593,-0.4439956553017268,-1.0569916426460453,0.08327716791726697
100,1.2791390942717265,0.9019322729395582,0,0,1.5485666037477592,0.1607152424374791,0.7368041376657493,-0.5170376667673178,-0.8212279509151003,-0.1524988389472029
101,1.2928471708781835,0.9309810116381869,0,0,1.4630710387529953,-0.023077080733437182,0.9435209439954348,-0.17704982374964742,-0.036681103176579306,-0.41453727767821463
102,1.2781924750307796,0.9373426817600187,0,0,0.7337689806580167,-0.07344492899067241,0.2699664622943467,0.44729188532021025,-1.2820276416672474,-0.21861904331796617
103,1.2365531608722236,0.9197518827868295,0,0,0.9436698180716941,-0.024029797778986266,-0.004866913724645093,0.2095659864569649,-0.6920818087039933,-0.2593057653605939
104,1.1720006338305606,0.8794451898949509,0,0,1.2904426186706226,-0.03890520767025809,0.18257000013060795,0.39670238189256035,0.4292125176039883,-0.42304115908199336
105,1.0908550755632187,0.8200554281628792,0,0,1.3360322472215345,0.14089347334985042,0.5165994546049669,0.9894779945752399,1.2320380550199281,-0.3838827351031339
106,1.001085848405277,0.7472816475781905,0,0,0.8392582336622662,0.22108384253462326,0.4676235495939382,0.171047878718321,0.4655814648765945,-0.16279581655998684
107,0.9115904890074576,0.6683487828485281,0,0,0.7501803945277871,0.08911548603649175,0.1735243743285459,0.3047949592041824,-0.33344768434449495,-0.02023728544247968
108,0.8313877515113929,0.5913162522277896,0,0,0.746411438799698,0.09749076578283256,0.08133592099841883,0.30800916684048896,0.1185637427299157,0.04376196808473528
109,0.7687860991014476,0.5243390547343765,0,0,0.7297923208974525,0.0811084256245901,0.06426810722723461,0.14759239522236794,-0.059889375034634866,0.02190981172688244
110,0.7306054264391629,0.4749885574285451,0,0,0.7346698787037956,0.07781831701472737,0.05328006769766302,0.38776172788659463,-0.4787245197936487,0.008485590604170678
111,0.7215212946607089,0.44968842293687505,0,0,0.7170601579941542,0.08237996070528647,0.05563282822703764,0.6417044501047203,-0.829834713583843,0.03863641181757072
112,0.7435801987788597,0.45324793339909797,0,0,0.7203646935937821,0.058121858738421926,0.01395782042826142,0.1688945573008136,-0.49098163166956743,0.07881104185720676
113,0.795917697010449,0.488436775603371,0,0,0.7802182580599845,-0.028771931330827557,-0.04939824969228496,0.20649342870261622,-0.3129244672995668,0.12398597296194776
114,0.8747028041513731,0.5555722469177564,0,0,0.8682878067391098,-0.12032556642687008,-0.05621671021526982,0.6389780384074871,-0.26820672850632293,0.061101978861137225
115,0.973327871507109,0.6521597058889408,0,0,0.96526652286557,-0.19989127840452503,-0.06155804488579769,0.4912974786837325,-0.1735463833061394,-0.05434179827669138
116,1.082859436057345,0.7726915905811048,0,0,0.8542565262631265,-0.022049798092821392,-0.06550079845892645,0.4056788566955146,0.028939712270571214,-0.25069451775788093
117,1.192759362756214,0.908739288587779,0,0,0.8539862551141657,0.1956041476047856,0.040329627599171705,0.3391656069894616,-0.19553372087648654,-0.28727959938738923
118,1.2918688327401415,1.0494584384693724,0,0,0.7855468093298171,0.14693145907138447,0.21915991249924704,0.4285664263761078,-0.2587480676027007,-0.196875100025314
119,1.3696050886386726,1.1825668502644193,0,0,1.4837343997783163,0.2879772794036398,0.4515627385038233,0.9468976056897311,-0.7369017242254872,0.11838773854377974
120,1.4172457570174275,1.2957453919732111,0,0,2.203167615776756,0.9231544910253496,1.0547739396710964,0.5059223354430256,1.4762437703401965,0.508058558540367
121,1.4290964838359088,1.378282910875156,0,0,0.6697815813021923,0.6509560161547516,0.7919707101143083,-1.1277690559889548,0.9996827062408641,0.4998145707394339
122,1.4033146364221745,1.4226878215074055,0,0,1.0493277036380673,0.3746881647719538,0.3583892155136038,-0.781426605195155,-0.6231763883136396,0.8157579000189087
123,1.3422278701604635,1.425960017412876,0,0,1.6977507323709056,0.14937395039466891,0.41822447742215146,-1.8763006949976495,0.6170241566340299,0.7619339774116112
124,1.252100683716488,1.3902552600610336,0,0,1.48228135761057,-0.6324378391035772,0.20998126923389615,-2.0879313360755214,1.017375050508749,0.123289419820306
125,1.1423994704938292,1.3227616317153768,0,0,0.7883653578338126,-0.20934884292757813,0.18263209338904018,0.8666374049568363,1.3861043682183867,0.0009159502601208372
126,1.024672640968196,1.2347453402807635,0,0,0.6992093319767964,0.03698506481003251,0.1790554295544109,0.49290228248052065,-0.24158567457007538,0.17048278707670114
127,0.9112143768760121,1.1399072189225887,0,0,0.7790356446741287,-0.07806908009415078,0.07672406211635976,0.43804010668657556,0.4134337277668635,0.24823163602209206
128,0.8137078447943284,1.0523622369606562,0,0,0.6753434055469363,-0.017233650890136242,0.24351158147047344,0.4150986646988106,0.8494920661086095,0.21983969472944126
129,0.7420221756956765,0.9846262199468779,0,0,0.6656672893033596,0.06296103154793715,0.22830193331139703,0.4731414164430714,0.21753091215215814,0.11584680711898608
130,0.7032766441210845,0.945941017713933,0,0,0.6735344373047991,0.19044410934129283,0.11251641119248112,1.1210032704960566,0.0859216938764862,0.02508505671732695
131,0.7012205649276173,0.9411467558185993,0,0,0.7419299424694662,0.2665008037003992,0.08927041657363763,1.013726172454829,-0.20007313269036178,-0.015101319161660387
132,0.7359331794636501,0.9701907208328151,0,0,0.7173460295722384,0.3380194221100402,0.01879845033487749,0.6800276158221085,-0.14286975569581584,-0.049021511697154824
133,0.8038289186592265,1.0282831946953903,0,0,0.6070284292371684,0.3956930100695721,-0.026578810958174146,-0.015781982232533378,-0.2385626786087515,0.021161084536422733
134,0.897954200725869,1.1066612158770994,0,0,0.7101096872825424,0.28266805088891656,-0.08011841100289638,-1.1856272803470576,-0.6988430335115855,0.15067364967775027
135,1.0085702419613873,1.1938644870723387,0,0,0.8805864493736331,0.1805867943887965,0.0663022450348025,-0.9971519136362698,-0.8036624931436674,0.26743384311564755
136,1.1240162206313302,1.2773439553854935,0,0,0.893974976230215,0.14801024163304793,0.39169214937295815,-1.6318276834881587,-0.26742034188068875,0.23554466063224228
137,1.2318268502781076,1.3451455041664768,0,0,0.5875218765139081,0.11570905808682565,0.4072855525635324,-1.5481363769107745,-0.9910742349991067,0.16045585613952917
138,1.3200351376795563,1.3873943193380287,0,0,1.516231122696892,-0.044146190021795643,0.6705150852811477,-1.4158981918479434,-1.0657380498464555,-0.25060028293725256
139,1.378530536186272,1.3973723875835657,0,0,2.0697825150959437,-0.5723969572534824,1.1104610702629167,-0.44017218444706785,0.1606611073680862,-0.7912436282696519
140,1.4002883234953738,1.3721049581691454,0,0,0.5866335747407148,-0.3375015493881232,0.4382907127483661,0.6280314304355176,-0.9082230682165703,-0.38593509989092056
141,1.3822786543858219,1.312492711418313,0,0,1.1394047008785542,-0.34833520437140497,0.08371849283404192,-0.43896321371045144,-0.9455511503189944,-0.2956156049224376
142,1.3259182645930176,1.2230864271492967,0,0,1.8841096179585601,0.01942082923310725,0.39224374858551797,1.1858716090473729,0.5632584526723895,-0.34639603792350393
143,1.237003137983354,1.1115836996528343,0,0,1.5001152083723472,0.5141259386920587,0.5026965950816482,1.5900883966840982,0.035947328993695564,-0.09931940489158012
144,1.1251155763033918,0.9880743539906851,0,0,0.9984200449267123,0.14650897143618075,0.16134499398297056,0.44061651812240865,-1.1985217087404731,0.0750134524514275
145,1.0025506408601572,0.8640374292794007,0,0,0.8606248822520053,0.09581966252885117,0.021752454458263005,0.9136925033119486,-0.23925426832840144,-0.06366606690645583
146,0.8828825091071444,0.7511326353803889,0,0,0.6395626647735057,0.19113090537071029,0.0470113259126101,0.1779331226299709,0.18006786795994453,-0.062088068360212
147,0.7793666109514148,0.6599119696797521,0,0,0.6251883705674401,0.07399246779450361,-0.0018297392552597258,-0.39376289917029456,-0.08330102570347005,-0.02246942433039345
148,0.7034022092576464,0.5986429974292429,0,0,0.6118099694641548,-0.06449552595776127,0.022017824255351256,-0.0019367668169324934,0.18943822298391397,0.018100773691598578
149,0.6632524894958738,0.5724331120713414,0,0,0.5579354957358109,-0.09021547829511069,0.03023573083496548,0.6831635835200003,0.4568404507867342,0.01789335539458826
150,0.6631609565238298,0.5827717684606667,0,0,0.5280580958610164,-0.04641419107705511,0.05892154510045196,0.7094477094711285,0.13329261552424693,0.0049148188784403
151,0.7029407913802178,0.6275104910830371,0,0,0.597960334448721,-0.1256460818683731,0.04161047053423,0.26838933805676063,-0.07846229456825739,-0.05617084149108085
152,0.778058481198947,0.7012290730309483,0,0,0.7147493275858217,-0.1806858623451217,-0.016750796089705297,0.40571797948256294,-0.4247004547188211,-0.13234884873502586
153,0.880184127722575,0.7959036083264731,0,0,0.875824995190033,-0.11242990143004332,-0.016185006200444777,0.6671612198317727,-0.8738479691190835,-0.21329616227938658
154,0.9981377192085554,0.9017755680855353,0,0,0.9917529938020347,-0.04479277753383183,-0.004000063860616641,0.5219864427728902,-0.9701414804504578,-0.31968168920926454
155,1.1191265299590827,1.0083086044158052,0,0,1.07401530561274,0.05459590644702275,0.01982545109787599,0.39011020839286914,-0.96037950064037,-0.3307677885817305
156,1.2301462338875206,1.1051278904566164,0,0,1.0901858616886888,0.1394537711513666,0.020712577787720503,0.5242227084074782,-0.4476197831454063,-0.18146025822150774
157,1.3194038666474917,1.1828752483462788,0,0,1.3518626375353926,0.23920164789063916,0.15312884117967415,1.208238205123401,-0.6372592478749317,0.060887326119425114
158,1.377608433733105,1.233956639068898,0,0,2.0364071232730843,0.4072096822613176,0.5552107637224514,0.8408452505114862,0.5432502038911582,0.28274034834458084
159,1.3989697391471583,1.253174675337824,0,0,1.2673135879058122,0.6038692055393396,0.579867772682606,0.6331323252691595,1.325474375223384,0.4009185064270838
160,1.3817702682353044,1.2382267795388073,0,0,0.7776042862972014,0.39749823094355774,0.33835569709888136,-0.5132125001891531,-0.500034325641246,0.6130833412163791
161,1.3284431663385388,1.1900313572808943,0,0,1.4214847548307596,0.18099393122911858,0.20029488398661244,-0.6849003652025767,-0.03448936176152923,0.7033193190393796
162,1.2451754659113512,1.112831248352229,0,0,1.6205812058415865,-0.15841176756486613,0.3298807401303645,-1.5599270997842258,0.8450410728392869,0.3329203306269115
163,1.1411152967839124,1.0140123477339797,0,0,1.063810444064588,-0.35818240192226514,0.15022863176309714,-0.9671696606413941,0.7252740505289652,-0.15138318863660544
164,1.0272889469115363,0.9035748383570045,0,0,0.7389779486598262,0.08063875122298945,0.0987367290989097,1.1541392587309156,-0.00880465967095599,-0.22239004922691505
165,0.915357543247121,0.7932321766241991,0,0,0.7044292545569639,0.23447538932534925,0.040535057503407836,0.4898589969403908,-0.11627770910962243,-0.14148659876150688
166,0.8163698761427031,0.6951955648189587,0,0,0.6474798458348383,0.14629950958005855,-0.03247153120570496,-0.1586550633443484,0.3333944848744893,-0.1075851643202769
167,0.7396695239900737,0.6207901089263459,0,0,0.6348733055647521,0.11533365756057097,0.08672661270732929,-0.44935123753956613,0.5842361732815312,-0.07365400655131767
168,0.6920752604282239,0.5790930244644978,0,0,0.6377760455735646,0.09846950114721581,0.2004607967113482,-0.536756500952643,0.4974535850438425,-0.12010889073196009
169,0.6773915264732621,0.5757744129150524,0,0,0.6439544953063905,0.10805836515104238,0.15432144758331137,-0.26067590024541865,0.111059517511335,-0.1964416652285447
170,0.6962477051980672,0.6122898582145319,0,0,0.7025330431924728,0.19690981142872907,0.03111947328497036,0.13303447650580702,-0.19167089981245394,-0.18585071820927726
171,0.7462255569736228,0.6855485597692303,0,0,0.7945557054510938,0.30519423146369784,-0.004795898509023229,0.09107171011290947,-0.09714095076035385,-0.13606743707093422
172,0.822215679685443,0.7881484837482617,0,0,0.7815157536754092,0.32482520667404957,-0.0826240306518334,-0.5822423632808283,-0.06385093215719258,-0.05693602506053433
173,0.916943509403866,0.9092008653290112,0,0,0.8271316766793851,0.2576532295386927,-0.1624797351838426,-0.927360111207457,-0.3289696629221249,0.04770681407911742
174,1.0216176267399086,1.0356571983918037,0,0,0.903780888422045,0.16346740090899223,-0.1011860907844623,-1.0780713338455987,-0.45540685275400355,0.21666056542092307
175,1.1266681107827177,1.1539381249604768,0,0,1.0116799909040282,0.037662197705194876,0.07953733413449914,-1.3894327445281038,0.010687582294257753,0.236334165239908
176,1.222547621109982,1.251591716359611,0,0,0.8526131408315327,-0.024928082549369696,0.34106690067062406,-1.7905397411669661,0.04573418510543076,0.11967758816646867
177,1.3005535133582342,1.3187053973059217,0,0,1.5919370957704402,-0.22786412045260707,0.8490087228991203,-1.711227957938279,-0.301469429897733,-0.417659813164852
178,1.3535993653810503,1.348862670696011,0,0,1.6540355575121803,-0.3769741691054389,1.1270425434273939,0.6174981421683184,-0.1908247592759974,-0.7985569294215906
179,1.376843727630667,1.3395541791364887,0,0,0.5399000733696055,-0.0957168242625154,0.27428787978919533,0.32491669026145703,-1.1953232317987297,-0.3872477185666607
180,1.3681035297628936,1.2920823654449243,0,0,0.991115308399881,-0.14683099159614138,-0.19929669495087768,-0.4827939270429867,-1.1638708977584455,-0.2896126132576992
181,1.328031906833987,1.2110904524790986,0,0,1.7551429750634717,0.09945637919080524,0.17019653001049043,0.7136590085295542,-0.26159838622231996,-0.37550038501288757
182,1.2600733155549053,1.1038749599591133,0,0,1.6891668136645517,0.40513154334387386,0.39638516349453234,1.3830224092758474,0.3347806047597279,-0.20911571336388676
183,1.1701976155836156,0.9796216298508023,0,0,0.9366197815062791,0.2600057368565774,0.2278712269923692,0.5890661050194834,-0.15031634476362454,0.02338164264386223
184,1.0664035191033414,0.8486675498846337,0,0,0.9058614986089015,0.1358780280195963,0.16810418499895582,-0.3145669141735382,-0.5641537317376484,-0.031055029966529517
185,0.9580152118863127,0.7218535623196249,0,0,0.8049096885446081,0.150281582632211,0.08340101788600814,-0.21225406602886132,-0.5505101573986362,-0.0702791066277369
186,0.8548509948649307,0.6099876830564341,0,0,0.7945173478924942,0.1508785667346811,0.03280418129448117,-0.1502526008933619,-0.9025683835319461,-0.0827415502424323
187,0.7663677415306364,0.5233884617832872,0,0,0.7808640192285325,0.06897123093254878,0.006094029416376687,-0.11856956170278106,-0.8616889692391023,-0.044835346505063024
188,0.7008674457913538,0.4714347054264319,0,0,0.712015128798267,-0.016354992519295893,-0.0419901320322337,0.09263591413171769,-0.41400908338369186,-0.029293270343867316
189,0.6648185066582165,0.4620450663467499,0,0,0.6488180437631111,-0.027348122691826713,-0.07333426120904044,0.3456815759381144,-0.3235966197503597,-0.047844387028161336
190,0.6623196400994938,0.5010541202465811,0,0,0.659001986942485,-0.05336943987607537,-0.13916075853479035,0.39683001092793646,-0.5021794776527334,-0.040756559706567434
191,0.6947241625129339,0.5915132071355599,0,0,0.7080057724294462,-0.16545423284028155,-0.23105992477634615,0.593380032245175,-0.4842996147319418,-0.038866475609739236
192,0.7604418453533961,0.7329966420811744,0,0,0.7223721321105319,-0.19433675777954365,-0.24823360999953709,0.7276392474054423,-0.35670031644585676,-0.1052549736394667
193,0.8549402156697887,0.9210351731267591,0,0,0.7120370974281947,-0.08373537486448378,-0.17322749419895986,0.3707759886581831,-0.26805999593083824,-0.31785401830962545
194,0.9709745373328883,1.1468360869802623,0,0,0.7575575164960672,0.032155086542499114,-0.10235164592172541,0.2680051164463253,-0.7304449945990273,-0.4210462748874778
195,1.0990787453965738,1.3974714430245085,0,0,0.8726533899456371,0.17768315074644642,0.005951825699754697,0.04366060339925081,-0.9597177025345142,-0.4531303462128759
196,1.2283354526559955,1.6566969831946838,0,0,1.0500768328788623,0.3489817904333195,0.005520086516420952,0.4894880331019251,-1.431467059854292,-0.35714487956985924
197,1.3474024060779282,1.9064924605134337,0,0,1.0283572516410493,0.42099370524828084,-0.02507536671725143,-0.21211543270414163,-0.498134230116235,-0.13116016135211137
198,1.4457087220307367,2.1292942098628975,0,0,1.5349031433713094,0.07185622711662691,-0.09633085365129411,-0.25364102361163277,-0.9356374853561634,0.2633276400558034
199,1.5146629288984588,2.310716965269526,0,0,2.478437906274631,0.7690381477221042,0.5166197931346427,0.9854247957637476,2.9968044373371594,0.4159829165541453
200,1.548665222181246,2.442327177373331,0,0,0.40746233989215314,1.1965284074573503,1.0709853432130167,-2.1723159732735975,4.230518368714279,0.12748868873373165
201,1.545727516134801,2.523801741450908,0,0,0.7012130242541798,0.37149417312586547,0.701647574957405,-3.128189102792124,-3.033076628763668,0.660747934721051
202,1.5075940877136917,2.5637518212225534,0,0,1.8164807958119031,0.030255920272975353,0.1424607916613272,-2.9928585898058087,0.22584970297617554,0.6494820139440927
203,1.4393810965288163,2.5787475653913785,0,0,1.3717989772314743,-0.2704600754499213,-0.024726048356598154,-3.1219004620807262,0.2310292497582385,0.29950132986146355
204,1.348845463387559,2.590589913818129,0,0,1.1509000084311514,-0.03821568682910305,-0.05011639343576431,-0.6556463442264059,-0.7935478647867701,0.0452952653452443
205,1.2454269555742385,2.6224103423781937,0,0,1.0603445211384581,0.4899842958736207,0.14834384399384945,-0.22660845432164292,-0.10926590497088737,-0.03641552626574186
206,1.1392047419847047,2.694496630556936,0,0,0.8793303079245648,0.5537514094407221,0.018723451671084898,-2.8837876792941137,0.49860107154147865,-0.020592300019210624
207,1.039891040671683,2.82072298413061,0,0,0.905794134144835,0.33868619163654085,-0.04479406578009357,-3.244910430899242,0.020951795409421912,-0.03521907288433257
208,0.9559527872935191,3.006167020027604,0,0,1.0314928672588997,0.2141002953832675,0.10422075047812664,-2.9504801993709204,0.24954314827061,-0.15840348353949385
209,0.8939144711736662,3.2461329745575505,0,0,0.97993571106679,0.08775008472923598,0.11674447073640364,-2.928788125368475,0.004514953732477318,-0.34852869384166385
210,0.8578659329698796,3.526562780289766,0,0,0.7605719062776627,0.22263988314352992,0.05359098560985799,-2.6939183725399904,-0.0737253503376128,-0.4360341918391886
211,0.849187893577756,3.82572407523558,0,0,0.6295395050162584,0.3898211670036628,-0.05972161360410165,-3.446921469675526,-0.5163323274971225,-0.4348520802289948
212,0.8665120672935087,4.1170034534786675,0,0,0.6021733658847858,0.44515543248470724,-0.19347511718842964,-3.8845828028547795,-0.8322908516717832,-0.4228577304355608
213,0.9059366806741479,4.3725170706435685,0,0,0.5864610713600681,0.4753505541889923,-0.2636805990931758,-4.115453329096749,-0.39121467224449713,-0.35047489296401196
214,0.961506845581626,4.567088799443629,0,0,0.6008136386640125,0.3254749317247258,-0.2008559261598667,-4.8575135521761,0.007630655047965522,-0.2859233308351864
215,1.025937967056054,4.68199927842061,0,0,0.9180011652164715,0.012437475812779444,-0.0005883451738650978,-6.375199282394689,0.012887846229938235,-0.21831888608682368
216,1.0915132675892594,4.707839872996417,0,0,1.3722327706799307,-0.25630009084660316,0.08451697650785599,-6.46770633782437,0.6732631743428213,-0.7706863526384105
217,1.1510337208051848,4.645878003318297,0,0,1.5680839623444567,-0.2976787666737834,0.22438280030424712,-4.607559012832777,-0.24100657442013165,-1.6648828877965853
218,1.1986625171279484,4.507603699591469,0,0,1.2278613783641608,-0.17986619500703555,0.16288206667197244,-4.117766275867822,-0.3717147337307418,-1.55173383303696
219,1.2305153436157903,4.312543142741101,0,0,1.2266166568563397,-0.34184697908657696,-0.050476689851050305,-3.806034337781231,-0.19994171680676764,-1.006836626533151
220,1.2449095818446176,4.08484286583338,0,0,1.3175196263627011,-0.23865990461392625,-0.002074640618470459,-3.0466721689147516,0.06144058711634015,-0.6890572363664882
221,1.242271570891143,3.849385203779476,0,0,1.0415267999553346,-0.0018025364583705561,-0.046622899476553376,-2.5885468795712443,0.1634717227385417,-0.6140854347697255
222,1.2247719641087451,3.628223514071232,0,0,1.1618925776360365,0.06733732083155335,0.0383497187644126,-3.0269104388776946,-0.6611082149999411,-0.6443113554499946
223,1.1957951977735681,3.4379533138487997,0,0,1.2374002502507728,0.11789227788863539,0.0468968350150148,-3.1262441150196167,0.012744411553436768,-0.5293417132455277
224,1.1593523841639088,3.288340358762412,0,0,1.0053796154368742,0.08985436631336512,-0.04545462625888095,-3.0050799147582663,0.3385987093512883,-0.37057910399789856
225,1.1195295088757269,3.1822070718397986,0,0,0.9915457716210455,-0.05875062503167447,-0.11072015444536121,-3.7938155007894188,-0.13390988012749386,-0.2835992267703571
226,1.0800368980277262,3.1163247413132953,0,0,1.0792518056174198,-0.2040663730870042,-0.131418529035112,-3.693569972765316,-0.1928197712679569,-0.3175552105883332
227,1.0438973925322328,3.0829239316855737,0,0,1.0488126460231477,-0.22060282634689707,-0.06702620108733956,-3.2328594112602786,-0.023389838142297642,-0.4172565794339869
228,1.0132814085287645,3.0714314792768542,0,0,0.9861923431755442,-0.18765019077732512,-0.047378223979447624,-2.91077963020169,-0.04536972956216999,-0.5665002856752542
229,0.9894727440116903,3.0701390773717367,0,0,0.9634911491262222,-0.051775230595096144,0.015514234615142146,-2.8015613232014953,-0.21421427437210638,-0.6826006753531282
230,0.9729358984646211,3.0676365817819353,0,0,0.9940015342634685,0.004548562269633382,0.042246996839666325,-3.2225071060403168,-0.262015012128911,-0.6748363740368682
231,0.9634523892104283,3.0539346415167334,0,0,1.0066085071894375,-0.031642658696446564,-0.018603497398884578,-3.1574663532742866,-0.23452807211589186,-0.6173592305917079
232,0.9602941823763176,3.021239866065066,0,0,1.001248519316375,-0.06897931241186257,-0.050334664687597896,-3.08111324619894,-0.24771410836916122,-0.5536834501506135
233,0.9624050860800195,2.9643648389803228,0,0,0.936354057722411,-0.1519634274825182,-0.09048625468038254,-2.9560393641169176,-0.053189465590494873,-0.5344498869677701
234,0.9685674943502579,2.880788000958819,0,0,0.8391066566202621,-0.20350366806762987,-0.10656465463611749,-2.6928802134331553,0.09251466368990345,-0.5592512392185297
235,0.9775406030959787,2.7704238540542097,0,0,0.9208230869074897,-0.1790735941233247,0.023847524375752608,-2.327784255599005,-0.011553292037723836,-0.5580628066199476
236,0.9881610053838221,2.6351968905720526,0,0,1.2671933198946534,0.01592369080684012,0.42359712723224613,-2.597345871335823,0.907318465127228,-0.5244195576366941
237,0.9993956957293089,2.478513131629428,0,0,0.9898613298316379,0.04172447190613232,0.5245089621130878,-3.056660470418369,0.776559854500392,-0.5879820121386068
238,1.0103417619479425,2.3047004187169606,0,0,0.6545861699360352,0.11125679821093906,0.27766576305448054,-1.4916025781202757,-0.834508305024585,-0.5333966622396319
239,1.0201884472521452,2.118477361737285,0,0,0.752333383763004,0.1973925222568456,0.09177630369874368,-1.1759756032750557,-0.7720703599646993,-0.3827424696466716
240,1.0281853927861264,1.9245259743937395,0,0,0.9071899186686049,0.08847087770659523,0.06341408890475209,-1.8746612302436834,-0.7543974070217542,-0.3290891106555737
241,1.0336651665362853,1.727247876364483,0,0,1.1987450133146422,-0.0017022947562268856,0.08769160157474438,-1.7031640270720887,-0.9623770526514522,-0.3886585173100289
242,1.0361345994561177,1.5307400810365783,0,0,1.2120024978402004,-0.05755358401134067,-0.06223661795415724,-0.9953717534410348,-1.0727644027162437,-0.5830449144713711
243,1.035402177427993,1.3389571291589226,0,0,1.0476471487344325,0.03739188486191236,-0.1601141049562683,-0.4114197847167804,0.035771444453848736,-0.6640732548520913
244,1.0316849829919652,1.1559826668081434,0,0,0.9379607753924084,0.18145446427196102,-0.032914638902111305,-0.9181282695940809,0.6927696869178456,-0.5762571601907245
245,1.0256504139629103,0.9863199437022934,0,0,1.0578173511167612,0.16300246016873385,0.12584987075595033,-1.3860751721936966,0.5848116425285085,-0.43823931456390064
246,1.01837652580013,0.835098508325582,0,0,1.074086660821426,0.07980092735907911,0.17866205122677775,-0.820007483718412,0.5368960954671871,-0.3587178488268918
247,1.0112378123632904,0.7080881305872958,0,0,0.9731895066512254,0.050659840304379464,0.10743934983718013,-0.502086229135255,0.015195210117857556,-0.32901119205200186
248,1.005735510807183,0.6114441657474766,0,0,0.9426849535962066,0.02177623433945022,-0.009961453757680483,-0.5070589040527649,-0.09322586828211157,-0.2847968798074364
249,1.0032992219566925,0.5511812060572524,0,0,0.951883936570161,0.007417253083074992,-0.053179709149801094,-0.3745896123072493,0.15650750169984387,-0.3006835585490031
250,1.0050909123165355,0.5324411229668758,0,0,1.0149210083318467,0.058439994331830364,0.021575132550999104,-0.5221062079794585,0.3159563169935168,-0.3267732339180907
251,1.0118389258998937,0.5586561711119672,0,0,1.0352825740157963,0.09231212513011429,0.053133615789750795,-0.5369205522733518,0.1539469080488998,-0.32401031810368675
252,1.0237192242791953,0.6307172654680848,0,0,1.0176665370310736,0.2193966638629938,0.08867224873711,-0.16514260689722127,-0.14692592254773928,-0.33329480766740927
253,1.0402912426915651,0.7462648023801832,0,0,0.9760343659334424,0.31736610743493987,0.07763048100963647,-0.2734957313825005,-0.4111744332630696,-0.314446003007219
254,1.060492589806259,0.8992273352486762,0,0,1.0076898223870618,0.25371293304989334,0.032748853861876565,-0.7392405086850767,-0.5739504841114927,-0.2542393385728401
255,1.0826992677740077,1.079727377648129,0,0,1.0074601984811264,0.17239491509191224,0.018964061281020246,-0.8175472812347928,-0.5724619166586099,-0.2522615994172474
256,1.104860161647908,1.2744475996960773,0,0,0.9959015857662185,0.1548871194773424,0.03468161443170784,-0.8736206672510813,-0.5698302505335598,-0.2378868798297128
257,1.12471023422613,1.4675154031851658,0,0,1.0259462141143092,0.10593310634665712,-0.018589109653104268,-0.6922531841139089,-0.5997720794376247,-0.2568152841301565
258,1.1400525853340593,1.6419233406378648,0,0,1.0587902131038103,0.12395718604342165,-0.061200727093013246,0.21519638974533659,-0.7998634197732359,-0.29885399690039116
259,1.1490752133815514,1.7814358369099688,0,0,1.3389700565570721,0.28833843197986986,0.037306755033273506,1.1814820473882317,-0.6902857821288766,-0.31249718119577713
260,1.1506405836293292,1.8728089335304114,0,0,1.5291783645702302,0.3453818029004215,0.2449118591917823,0.5854586916200673,1.0859863227509625,-0.10625621760717383
261,1.144471806002055,1.9079679469148696,0,0,0.9891714529262441,0.28508522754407434,0.498448637284635,-2.174521242416188,4.6183472818685045,0.08181497022082493
262,1.1311782865935693,1.885613739070897,0,0,0.4282035961400684,0.014775638526984507,0.7849954040252,-3.2682183127018023,2.5705682263589233,0.00014510822965414338
263,1.1121171130829712,1.811703890353225,0,0,0.7095763766911726,-0.07076805936057257,0.7957611751279763,-0.8967472252776207,-0.2998823286989115,0.020098697969816642
264,1.089144126233096,1.698506858054644,0,0,0.8580537831579904,0.05379964786527018,0.4494433194125284,0.7310502395237308,-0.2308126752734865,-0.07217347014586016
265,1.064334037046778,1.5623939914983331,0,0,1.0214078277929861,0.1787565226148975,0.37224181274436424,0.2903834465301008,-1.025440750319179,-0.2319780233638257
266,1.0397348191790956,1.4209510916615147,0,0,1.0950676301700775,0.2085282026834058,0.3556108087832476,-0.6294155791488623,-0.5027143031587505,-0.16452193131673667
267,1.0171911710148327,1.2901315384284506,0,0,0.8208708247167149,0.17156469596793666,0.19806818111096305,-0.19575853358172546,-0.5691337555517944,-0.04626038978430329
268,0.9982495719554167,1.1820429621177007,0,0,0.7524282806414156,0.11613877294474814,0.13040641950724477,-0.22077668348276533,-0.5612783491080173,0.0414717499018237
269,0.9841468258755736,1.1037050044580579,0,0,0.9343987147722623,0.07316745797375551,0.12697199478664886,-1.013160070424636,-0.7455331157959487,-0.0673360352546234
270,0.9758702463965181,1.05684935617467,0,0,1.1655176251709478,0.11121652281842505,0.13449745038459163,-1.2572721551281976,-0.8150024617482837,-0.10559085412711094
271,0.9742505664293153,1.0386096909599192,0,0,1.1495602483350107,0.17681559561521573,0.10505720201139418,-0.8707048615350228,-0.5626670907412172,0.025631330505345586
272,0.9800214899426516,1.0428101155302993,0,0,1.065824468527057,0.252689467351573,0.07885114257211209,-0.8626933647203273,-0.27229421671332166,0.16374450890631226
273,0.9937783871002052,1.0615229060070837,0,0,1.0691436130448742,0.11307923421061555,0.03277290307508926,-1.3818226953124788,-0.4836220890001435,0.22725663192340134
274,1.0158027705876171,1.086597519649221,0,0,1.05933695132085,-0.1711118710956473,-0.10877824737430859,-1.41874347064682,-0.15736260092919316,0.17853906283430168
275,1.0457740420384396,1.110918260434783,0,0,1.0028799772907921,-0.2938709797613416,-0.13173740513504034,-1.0035814597964574,0.5752261070824823,0.03253294073046897
276,1.0824434255105662,1.1292158512807848,0,0,0.8170901148575942,-0.37007077280090295,-0.04467050998340841,-1.3343558343099244,1.0169913938978772,-0.18231111454125012
277,1.1233822415003958,1.1383489630347001,0,0,0.6638492569616863,-0.36078015323626283,0.07253754074925642,-0.5833550099362449,1.083960262968422,-0.37266167346125034
278,1.1649270963684961,1.1370841293807363,0,0,0.5947084456325565,-0.3234564889101568,0.2620837124004414,0.3559712237997426,0.36091504072954345,-0.4570699590692888
279,1.2024152104200316,1.1255174585827752,0,0,0.8835718792532508,-0.10383982614003648,0.5136091621839388,1.055826756720065,-0.46831824056725624,-0.3455913666146407
280,1.2307271423728867,1.1043693405741901,0,0,1.5922098522626738,0.3034905390602853,1.0951529766700776,-0.1626847545571189,0.056246492456869364,-0.11601549152847301
281,1.245051343330366,1.074410269860691,0,0,0.9803375430033064,0.5744067508647316,0.6752596721658074,0.2561643716073065,-0.5972968864947643,-0.1442795266863945
282,1.2417056325049454,1.0362202945499204,0,0,0.7923941315136945,0.5864168205622731,0.35618394052008107,0.06777502195848471,-0.2575378613629089,0.29731884694069277
283,1.2188382005285354,0.9903495203945528,0,0,1.2065893361071982,0.3284754139426126,0.6005734697660647,-1.6449465974807818,0.7939673119242356,0.5538450974686738
284,1.1768765844175737,0.9377696240187252,0,0,1.3043422736821737,-0.1844269827250565,0.746399775284637,-2.2513811056099877,0.7402437970238118,0.19663503267930368
285,1.1186524555153803,0.8803672833636199,0,0,1.0667446002020322,-0.3106480127973779,0.46885152510803046,0.014580883742179748,0.0021943788602742246,-0.09619070853377285
286,1.049180389281683,0.8212187520862582,0,0,0.8872573473153225,0.07253508812439455,0.36413856323786514,1.0457620589283039,-0.2079312574803429,0.1314926072558828
287,0.9751201578077534,0.7645087138436619,0,0,0.8854435499766815,0.09162537708560368,0.22737863888164642,0.37176788248869436,-0.3780243969628875,0.2875170629824005
288,0.9040062410011931,0.7151180389774058,0,0,0.8218399746619153,0.0013175413216240553,0.18978297180465314,0.12151016860207088,0.4855627879422999,0.36781541398836903
289,0.8433653917821181,0.6780017994650123,0,0,0.6868346768183305,0.0036604412837019876,0.28188581489553,-0.1438081737603721,0.8431259380177112,0.24326029097128582
290,0.7998494040532186,0.6574976994733516,0,0,0.6090523661910181,0.09335231272780438,0.31539448271209053,-0.18288314804830905,0.41076550411159013,0.06103833341428859
291,0.7784914773869135,0.6566913017727194,0,0,0.6288434695466258,0.18087091076768272,0.21427309954385945,0.38476705728892696,-0.007559579528232757,0.003525398596306568
292,0.7821627528365442,0.6769479359149517,0,0,0.7409843311377485,0.3056522912178597,0.2023841280819069,0.6655311615716217,-0.10103236453660258,-0.00934433478857321
293,0.8112691514395767,0.7176978963055846,0,0,0.7670493492101538,0.3747470201103431,0.1356411423914464,0.21914114577142993,-0.10015135277241043,-0.051362645628877476
294,0.8636956599879797,0.7765171381881878,0,0,0.7602566891804838,0.3527155527733573,0.014575817862306798,-0.5879597136200218,-0.282342494793835,-0.0637785362994566
295,0.9349841626211132,0.8494770081918241,0,0,0.8195360242074456,0.20987930747069564,0.04007357490253587,-1.442304470418962,-0.3929792546313942,-0.108492195672416
296,1.0187233725336824,0.9316597405827555,0,0,0.952230208300937,0.08649319041460549,0.09292940621356095,-0.976320715029977,-0.8438723946157728,-0.25577669509448026
297,1.1071264920851085,1.0176879391507743,0,0,1.0523245453749375,0.08852673248293426,0.11526785988659041,-0.4405321864933466,-0.9965748359057949,-0.24768518680890236
298,1.1917627957860935,1.1021346715196958,0,0,1.1003762625228264,-0.04968521056010498,0.17232542990528527,-0.5430150944811626,-0.8651689508053689,-0.23815733998000205
299,1.264389663349378,1.1797661621799742,0,0,0.9357459112191094,0.11460980363587978,0.35072662564088375,-0.2630136608821026,-0.7595858620712685,-0.18851644489360436
300,1.317804789635567,1.2456695704113665,0,0,1.4964554534872416,0.1841593669217748,1.3187334160605366,-0.898295604072725,0.7201594203771708,-0.4357607265359901
301,1.3466127158167889,1.295374014991694,0,0,1.2150128388322887,-0.15860114977013634,1.3496370104678863,-0.06505581578546306,-0.370016886621302,-0.7546958561499535
302,1.3477955169468692,1.325062965733633,0,0,0.5588776025435543,-0.21354330394003132,0.14496866689277257,0.3342260220388823,-1.7011742637909353,-0.40353782788076337
303,1.32101507784278,1.3319199506279498,0,0,1.1119784777845902,-0.057159570106442674,0.08691126338100835,-0.0930918118874685,0.12457973842578031,-0.3713019214000278
304,1.2686374285407023,1.314579103176698,0,0,1.6391004533785674,0.16630903722146623,0.6176890949762996,0.8872979882760959,2.1382039574702802,-0.36761494759165453
305,1.1955071544595899,1.2735907245281726,0,0,1.2022136517657596,0.48005162284212294,0.9110824761324299,1.2784609625715246,0.2977833421884743,-0.1313039612228027
306,1.1084957385938243,1.2117775510316244,0,0,0.7458136370662445,0.15776099760561715,0.41283997034695585,0.19035242859147702,-1.1456457623732654,0.2067459689906425
307,1.015846798555184,1.1343678926012466,0,0,0.8210454725014661,-0.0014427773783858423,0.16132226207475245,0.908382188890579,-0.6938180291804491,0.15093292276356043
308,0.9263768124679757,1.0488457348630478,0,0,0.794085442431207,0.14079696704576047,0.170249369366706,0.6102809191656606,-0.6305059433321112,-0.025249384699622
309,0.848632171164548,0.9645197662254504,0,0,0.7630997626916745,0.1399155152886137,0.12633452016812577,0.005749486522818123,-0.8783477832259248,-0.1306753043731971
310,0.7901083049122813,0.8918449913843894,0,0,0.7879638578797508,0.1376443655295087,0.1470586178609357,0.11819267957051982,-1.1656674991225198,-0.14453941610884022
311,0.7566037333133697,0.8415287825151445,0,0,0.7503464698208563,0.18027369499865542,0.05216454698091643,0.35628172144768205,-1.0720293861837276,0.08420483776119483
312,0.7517414429002098,0.8234460825567559,0,0,0.7404385901060713,0.17045016993132886,0.004245995943202968,0.42687458133251943,-0.8920986993200262,0.37532949761855133
313,0.7766639847142147,0.8454088675444825,0,0,0.7610063675021963,-0.07217342921280273,-0.06832659234597474,0.21619397497553375,-0.7555840955023897,0.43656828948261156
314,0.8298995086723877,0.9118951508829755,0,0,0.8612526162718872,-0.29492429474226844,-0.10575475208181581,0.38105587049306056,-0.5055174824666657,0.23079593996730324
315,0.9073971151890363,1.0229220700101747,0,0,0.9221936651984071,-0.243134310411022,-0.010385126107631896,0.14403374749369455,-0.41256637864717144,0.021449590682150476
316,1.0027365035912459,1.1733026840878238,0,0,0.9253222187740893,-0.09511055503116378,0.02123241850679928,0.33314894272834894,-0.8178308938106992,-0.2588106319276421
317,1.1075271209681479,1.3525180537149009,0,0,0.9463263451257601,0.19713073081793914,-0.023301380112655888,0.7705351949429721,-0.8894072010999694,-0.3931161644499397
318,1.2120209118892562,1.5453565026162626,0,0,0.8078291337617824,0.3690795084092734,-0.19464949801804587,0.5224302998556322,-1.237625855901343,-0.18600050808245286
319,1.305957370838875,1.7333481950887843,0,0,0.693468775854865,0.14022207456514552,-0.11923711563891903,-0.006354897191726957,-0.608228362952861,-0.06251679563104501
320,1.3796221260807087,1.8968872686553246,0,0,1.16013239091394,-0.15088137880201224,0.1056365115510604,0.5696188178993838,-1.3070366635498183,0.14290095665070787
321,1.4250205957721132,2.0177862186353277,0,0,2.722697253741319,0.5502125405161069,1.0295904983493482,1.6385271144814924,3.4396170688188925,0.4458645167510258
322,1.4369690315248553,2.0818471885557406,0,0,0.6378030334356,1.1143327880806906,1.373260983369586,-0.9951942967202179,3.4454455238047106,0.2305980870201282
323,1.4138557825875169,2.0809330617754935,0,0,0.456467554771,0.4093296465174452,0.3377718862185213,-0.8026931573052335,-1.5586490447047479,0.7176857313453275
324,1.3578888733989611,2.0140916385721273,0,0,1.5317920612558842,0.4043278782241246,0.356775253028461,-0.360253669531864,0.8735657746393062,0.8146066038199536
325,1.2747938416270355,1.8875368284974143,0,0,1.4610595083791496,-0.39524054519982005,0.31517510606201166,-3.2351771746851745,0.3021296859241348,0.3569417514340494
326,1.1730587572463917,1.7135784384723254,0,0,0.9019432956875787,-0.4471364244884544,0.037868210154625374,-0.3604729163196541,1.0597970569711022,-0.10768738563174217
327,1.0628870918213067,1.508782355942859,0,0,0.5149886924498474,0.25520290968111514,0.1406950558217608,1.255093176665901,-0.03543220652018098,-0.17583753505131458
328,0.9550362951753624,1.2917312765742808,0,0,0.7592912777188172,0.3036087732348637,0.13518350708764884,-0.31760298871296755,-0.29104548069976144,-0.04133173844388481
329,0.8597120793548539,1.0807832091333183,0,0,0.8432496783989147,0.21049766831697786,0.12438057858592703,-0.5334339696242993,0.40356567885556677,0.0702181984749434
330,0.7856463845471883,0.8921792682179804,0,0,0.76887643577477,0.20358871885101165,0.18159828255000238,-0.6827030645769604,0.6452430886608799,0.12028619526093173
331,0.739417700729038,0.7387185342305775,0,0,0.760263295055727,0.10427405583095546,0.1402212227180321,-1.009321011576004,0.3136565811762042,0.04240794851666306
332,0.7250107812533537,0.6290451207526532,0,0,0.7912471567344252,0.07919890921656429,0.09482621026521822,-0.6552066046215174,0.4041864374490441,-0.07429174713321748
333,0.7435837530860232,0.567462990249683,0,0,0.7583389535264713,0.19227530448291777,0.0717613162561247,-0.2129611241831738,-0.052290464110359224,-0.12136826066159828
334,0.7934113664925642,0.554148063650413,0,0,0.791929824594866,0.16637117584663788,-0.009631597814750587,-0.3067521797137173,-0.4253899312835645,-0.10449686880069424
335,0.8699890835971447,0.5856379754847849,0,0,0.8337538113655093,0.14505947813168882,-0.09274598358600647,-0.5449337328516337,-0.6163723008708896,-0.06369667253994873
336,0.9663022107752643,0.6554960243746171,0,0,0.9865312259625663,0.0341880979505985,-0.08292896068430966,-0.7549775765043969,-0.4445108722004621,-0.02391513541769731
337,1.0732800148963253,0.7550496228837735,0,0,0.8953753629906743,-0.07329010050505232,0.03297328287227833,-0.6292106944904302,0.08673648820972375,0.0023201193138411695
338,1.1804614699166933,0.8741152306800873,0,0,0.7596961328249875,-0.05786373677253809,0.3037612351458679,-1.342571869149531,0.0018981121264640662,-0.0035748764763794114
339,1.2768893704335915,1.0016587020867254,0,0,0.4536931206731411,0.05654338772179116,0.4181491650111912,-0.7270336770016244,-0.7191631782260202,0.02426288199309439
340,1.3522090890343668,1.126396143851376,0,0,1.5321657091416185,0.2178919626173829,1.0524085931917717,0.5034614392619422,-0.07829558618446304,-0.37977524277142904
341,1.3978701734021481,1.2373978583535752,0,0,2.029153747690869,-0.36350766317688055,1.3901708669543071,-0.2660630145427216,0.002559219121164687,-0.8588973949200585
342,1.4082440494189805,1.3247900645252344,0,0,0.6756237381385787,-0.5855317877497501,0.36276214656778416,0.20258072844905792,-0.5127473287588024,-0.4929432037237571
343,1.381444496338494,1.380621892755435,0,0,1.077406753737051,-0.12118971517254783,0.09891643457524378,1.0799043729766629,0.004935900860930255,-0.3720996202967627
344,1.3196986325009505,1.399864007477942,0,0,1.786194771665533,0.35475209297755245,0.3938295274037151,1.6013469918685284,0.524005956656064,-0.46750438035063474
345,1.229213535804236,1.3813613226328805,0,0,1.4334539565669133,0.6284264718914206,0.45475311117515377,2.831988962582483,-0.7317067897089329,-0.077605196121575
346,1.1195549229844162,1.3284507073123182,0,0,0.8118606698505811,0.33993636358177126,0.2347628374607463,1.5266690904613462,-1.1898555619711082,0.20342883986948324
347,1.0026041933160472,1.248962170144279,0,0,0.7933305350524389,0.14627969423365378,0.08983586222360772,0.29072072451797687,-0.6313617374204944,0.03917558434764331
348,0.8912187542245743,1.1544807461676134,0,0,0.7667346599557913,0.1572166355702012,0.0747509514594347,-0.42435463817492797,-0.7111752395701081,-0.01896614165921275
349,0.7977729674965087,1.058977657474726,0,0,0.7348325638518209,0.030255703861125364,0.004486676063443211,-0.3438250393901924,-0.39133329818567386,0.08349900711233002
350,0.7327676965454933,0.9770818097775806,0,0,0.6644365374743392,-0.0062903687947866846,-0.023614901873021493,0.8361280302918795,-0.38530589527890435,0.28960883686215527
351,0.7036648522531663,0.9222781894466229,0,0,0.6290128048700421,-0.02893375839766374,-0.046192003561212225,1.2209198168892654,-0.13983640552689505,0.41447585252860764
352,0.7140574800468059,0.9052314113686126,0,0,0.6534015015107804,-0.06967536205189377,-0.09035810141678331,1.3663759650879428,-0.11640036148916576,0.35296969547163665
353,0.7632453898639461,0.9323443046680813,0,0,0.7092132033920716,-0.11962145400780147,-0.11487900327315738,1.0600211193632303,-0.07810726704746564,0.21652003972435177
354,0.846253360687167,1.004647917354097,0,0,0.6864850351322336,-0.1527794556784216,-0.08824251561134956,0.3001817887423349,0.13648064124370063,0.049372894816153444
355,0.9542996653302794,1.117178978136621,0,0,0.8054594331659249,-0.08147836236695566,0.017418210574450702,0.043423897905310906,-0.05233688226422763,-0.10455627425748354
356,1.0756923322835041,1.259058478989232,0,0,0.8171054722139174,0.1593230258907199,0.14605577748849738,0.1978658860170747,-0.3806074088254615,-0.2574738751511517
357,1.197092669672808,1.4144463173701254,0,0,0.9598323804355334,0.44322240084677705,0.27312754347013857,0.41129651082855123,-1.5653266428389898,-0.28584607706661946
358,1.3050343255071888,1.5643789557519756,0,0,1.0276169334570704,0.4127590666161837,0.08062645356187177,0.5158974432080935,-1.8365297623071168,-0.22368513758821662
359,1.3875234694320753,1.6892652617515846,0,0,2.218360623292594,0.6030459944586074,0.28692432202138163,0.48372519263420866,-0.9197992359584722,0.19302212336743732
360,1.435490291619899,1.7716294513976294,0,0,1.8310519279152724,0.917119349642672,0.689642060297854,-0.5168597589892088,3.5018991431978477,0.44934583537711237
361,1.4438528648284379,1.7986154304102158,0,0,0.3139084729127041,0.3081736848864538,0.6173671688476918,-1.7053373023861358,1.033341731492297,0.5845879639708501
362,1.412023996579997,1.763810536247211,0,0,1.4214464186555302,0.18665401739666168,0.43727705888453233,-0.9762083603195731,-0.8528631025949251,1.0106993049689028
363,1.343817643548835,1.668092403279293,0,0,1.7926438579341517,-0.2823825994957704,0.34471774708033426,-1.8966165290651231,0.9600191201688288,0.7499915319051373
364,1.2468242017703928,1.519410060255636,0,0,1.0865867108456455,-0.5005615841365666,0.08574094908963746,-1.0862481795882153,0.902092736718326,0.11150842788061419
365,1.1313855926745413,1.3316110734144349,0,0,0.6909089615528266,0.156932561560056,0.10274609621340991,1.392006040398225,-0.024621983446589016,-0.02621694943804969
366,1.0093336340070311,1.1225710382078737,0,0,0.7559222755056094,0.3040133856078654,0.10610891830192028,0.1836352367691061,-0.17292253469383576,0.07333406907537511
367,0.8926757418372381,0.9119602460108537,0,0,0.7453153987375286,0.2175026278491082,0.024316130931926694,-0.4553149695175215,0.6017033861810364,0.17974373469835825
368,0.7923999079839567,0.7189905804308278,0,0,0.7556136891847106,0.18137785043383706,0.18474943322190285,-0.5459367502781937,0.6670094098792465,0.23440522326898122
369,0.7175159159264677,0.5604219718490098,0,0,0.6872876651676663,0.07196263047031201,0.11922807177512819,-0.4323689514602633,0.3372527614062617,0.17048693689562847
370,0.6743795997364325,0.44900580620919006,0,0,0.7234601085903191,0.016911045156498602,0.023716566832836686,-0.05417849668507522,-0.005669374486448263,-0.02580443313919623
371,0.6662947970002525,0.3924561459631438,0,0,0.7560347865800278,0.05911395944673549,0.01425841717134941,-0.007435728582653249,0.008048795085248039,-0.23271519065498336
372,0.6933640841994052,0.39298607745805364,0,0,0.6920964955942119,0.15816457591944816,-0.03912999910591247,-0.13528643503144855,-0.040430990845313576,-0.3432592432244993
373,0.7525585523254046,0.44740065271212054,0,0,0.668025412691985,0.25030582205040164,-0.1007898143319889,-0.23105723820835897,-0.5122119970247158,-0.26026219931295413
374,0.8379891061794151,0.5476824781758293,0,0,0.7436818546632391,0.21343882588121937,-0.11237376025168698,-0.34360065403445134,-0.4999775610486336,-0.12876609589916807
375,0.9413761985892853,0.6819580254183153,0,0,0.799546124587984,0.151534904543814,0.049809573646949525,-0.34470731608233585,-0.27109189758859675,-0.00382893568159652
376,1.0527204448481389,0.8357136585163928,0,0,0.8721119877189436,0.017402209474571547,0.3001959828565758,-1.3012560300338665,-0.08843873760051989,0.06173546211365439
377,1.1611654262100402,0.9931379804334203,0,0,0.7268501292611391,-0.07271433505518221,0.3794649456435613,-1.0017170202899865,-0.40022192705158727,0.0615729549715327
378,1.2560130027513026,1.1384885997638907,0,0,1.2400368675916733,0.03147697222538842,0.7342196860690156,-0.6186745041362173,-0.3186984431989602,-0.27398296761704694
379,1.3278037508675362,1.2574111127595073,0,0,1.7952406256301587,-0.3438321521744016,0.8852033845439039,-0.2948928061386798,-0.4105871575103278,-0.9215503007482702
380,1.3693289468292282,1.3381644160941653,0,0,0.9966392219623458,-0.3168340087355866,0.41218917186144566,1.0418330363838355,-0.5680466694125799,-0.7276678031616783
381,1.376427956749096,1.3727045512269203,0,0,1.0582794632328472,-0.05730724223434125,0.12777060012668873,0.7391778457449986,-0.6860328223130271,-0.5076983556132831
382,1.3484598375805743,1.3575393212363864,0,0,1.8483808749870396,0.3444667553357923,0.265934368770291,1.6304789019218309,-0.439606861054009,-0.3688128468315816
383,1.288392749811897,1.2942135021508465,0,0,1.4309956677868725,0.5169948957721644,0.2775154405209227,2.4656829871168515,-0.7863900368748687,-0.15807176277870938
384,1.2024979209695494,1.1892666878419134,0,0,1.0335269628526778,0.22995844651019814,0.01084566942153407,0.6358386241132294,-1.323713588456968,-0.05407709914468278
385,1.0996740262857652,1.0535686385113177,0,0,1.0258550000063729,0.07734019927776982,-0.07787174797425385,-0.34527486741896535,-0.0913742176261857,-0.06292197221602577
386,0.9904804417289234,0.9010883363158086,0,0,0.9086033393782394,0.053063923865896284,-0.0026730581977085126,-0.049452687807298466,0.36693952829471,-0.03442119989002405
387,0.8860074509310043,0.7473229565625372,0,0,0.7774657728217027,0.06484890928167945,0.0761652513422823,0.25065576149007546,0.4360462189592231,0.0230664863286486
388,0.7967292419994401,0.6076921305112885,0,0,0.6838873693033011,0.040523092887922954,0.09682855669091817,0.35840378493006003,0.10951919229956031,0.08094947934382984
389,0.7314685389177409,0.4961472459800425,0,0,0.7088048577148605,0.0400633808561812,0.07871080847994118,0.6024650948549909,-0.04543766248120528,0.10721445768261853
390,0.6965672865561195,0.4241122871074597,0,0,0.6883641285549922,0.043897309217676435,0.03215814044059332,0.54273071866695,-0.1211912311602653,0.07562077541658059
391,0.6953212504531949,0.39974914409452106,0,0,0.6844988873966653,0.011439896260398062,-0.07103231456907434,0.44745082777470924,-0.41897726717222356,-0.0146383720137
392,0.7277062193508558,0.427475468198545,0,0,0.6937092847421422,-0.0018568625156204623,-0.11125789852890733,0.42072357608363153,-0.5963088166154982,-0.10268665031542233
393,0.7904034092861804,0.5076630871569233,0,0,0.7019182323775385,0.035382698461041015,-0.13148484815664271,0.32207640121986364,-0.23006357263335056,-0.17686126867264595
394,0.8771194337916522,0.6364931009048789,0,0,0.808982219907609,0.12551427142501517,-0.05570017683180337,0.18513236544431436,-0.5674641971278404,-0.203556256650395
395,0.9791852509787007,0.8060119854389092,0,0,0.9277892390193144,0.23837778881014554,0.004120743060296014,-0.2180218168998527,-0.5238018483476847,-0.2676016417246674
396,1.0864032255000635,1.0044893991706985,0,0,0.8643334339364149,0.3107857885436956,0.0037713069656383222,0.4294242446975247,-0.4998459506461185,-0.3002655485744943
397,1.1880896662522424,1.2171977436665011,0,0,0.80899695039045,0.14879238797906738,-0.024576744916844046,-0.3059966460874436,-0.2435173386211986,-0.30800768110735366
398,1.2742290156622906,1.4277016355937233,0,0,1.2493886246141157,0.03148342271716571,0.021629740496546788,0.485065245765758,-0.7528218641723067,-0.09075364106668223
399,1.3366110812197471,1.6196529726008975,0,0,2.3942876951413288,0.5375264634512171,0.830691657098082,-0.14655886975565724,1.054769105969126,0.47782991184287904
400,1.369776693066904,1.7789330684225364,0,0,0.7799874035807484,0.8347234575379285,0.778011989390965,-0.6089993157695001,2.4760201435572955,0.4583917220364682
401,1.3715925008006786,1.895797716244479,0,0,0.6227260223882832,0.5591253607385308,0.4253542827898901,-1.4397201623823317,-2.460497542915797,0.714653352104391
402,1.3433466487412218,1.9665422522912392,0,0,1.808731326761222,-0.06449903523197002,0.04281028721753144,-3.489548429466138,-0.4324725421206413,0.6739154875395627
403,1.2893748241332181,1.99421117269108,0,0,1.2727566992407182,-0.228036325806353,0.046482344123870215,-1.976482868890329,1.4606984075849134,0.1678421589824756
404,1.2163240526324774,1.9880827728960404,0,0,0.8302580769580382,0.026353752580668514,0.048200143134985544,-1.0065917846887618,-0.9429769536926034,-0.14978832517630436
405,1.132210729613414,1.9620071958321281,0,0,0.9285246637431552,0.3189733508251835,-0.022533104788656468,-0.3029548808052147,-0.7070107695471606,-0.23935708127359392
406,1.0454415810024253,1.9320088322507434,0,0,0.7935767599252815,0.4312173566496202,-0.012682002355317695,-1.2973239957369567,0.5715934481662129,-0.14147837024942087
407,0.963946576299801,1.9137189221986999,0,0,0.8533989599716628,0.29301996647466855,0.027044762642433818,-1.8698506270641828,-0.08858368573931631,-0.0007561406820163092
408,0.8945204229605147,1.9201331308856338,0,0,0.8958982753414555,0.1714710436893193,0.06668075347690934,-2.1044498567779257,0.24374730503608316,0.02890454302777497
409,0.8424024761958697,1.9599861112038595,0,0,0.8558395193218482,0.12947963284176614,0.044232832397396504,-1.8089726863715017,-0.1249851550383397,-0.1033996582981415
410,0.811070194479507,2.0368426261598733,0,0,0.891645266497657,0.15481693392070456,0.016009439396617458,-1.8744719432442865,-0.48083681963068237,-0.17644081537896847
411,0.8021916730125127,2.148896336792849,0,0,0.8656545202778816,0.18668774259523047,-0.07512476040832818,-1.9426531641331737,-0.4241846759175471,-0.148051046909079
412,0.8156778161343803,2.28942428833705,0,0,0.8412744877053048,0.25036398084380823,-0.10892049810258936,-2.078719426409462,-0.46520812143719226,-0.1054925247585709
413,0.8497889117158918,2.4478167782143,0,0,0.829049892421714,0.28499705436298634,-0.12181389289820868,-2.4067048294690996,-0.41453375625356903,-0.10254969177579179
414,0.9012764715171204,2.6110619074401726,0,0,0.811571838893121,0.24842874077222513,-0.11270210047685096,-2.525946215686609,-0.4149402104060115,-0.10536912568241975
415,0.9655700993598902,2.7655151706946572,0,0,0.8405859771849835,0.16732143154284043,-0.07454935847641085,-2.6257544727419786,-0.5630873114970214,-0.1046072669844033
416,1.037040532959393,2.898739776709335,0,0,0.8434047097055125,0.10129149484731227,-0.0022723025206388445,-2.8035567393639846,-0.45586690487123704,-0.11165445829824319
417,1.1093741279544005,3.0011698500546817,0,0,0.9026616062083211,-0.021508562325595344,0.10799051446198778,-3.493336101516784,-0.24646805074347441,-0.21878971183334542
418,1.176074466006646,3.0673306320101053,0,0,1.1852692694664397,-0.18817429644675507,0.21253406566078173,-3.99023270400368,0.21608370603899607,-0.4168706254612417
419,1.2310652499799937,3.0963667314550154,0,0,1.5021572495936528,-0.18437947202921234,0.4653968014774665,-3.6521358641934434,0.2584305754475523,-1.0109637573861792
420,1.2693212567048737,3.091719037463121,0,0,1.2813543063716932,-0.10090538767454585,0.4566633768665089,-3.14661340747343,0.21056602859139245,-1.190470977473351
421,1.2874279119353138,3.0599739756215256,0,0,1.0760048713776738,-0.1790371890675027,0.1841831136048871,-2.403376140438312,-0.28097424111384633,-0.7775547342208854
422,1.2839816071426937,3.0091455166593146,0,0,1.2831509176701903,-0.06522442703459232,0.14087695399323344,-1.9837089682950912,-1.056561483148998,-0.5832476803574363
423,1.2597784152779656,2.9468441497532654,0,0,1.3400837712352824,0.31547698553018555,0.10446738889458884,-1.018878865247156,-1.406557807537073,-0.4926838960046879
424,1.2177686413583966,2.8788418886649376,0,0,1.3323183528577198,0.32841933397305645,-0.06333140959793916,-0.9664853693735111,-1.8153431165472027,-0.42065392915569505
425,1.162768475826569,2.808419643502841,0,0,1.2686621734699501,0.15056798764694818,-0.30890612535276385,-2.222424500158779,-0.7992232861510592,-0.3164242609532064
426,1.100934682504256,2.7366187360630545,0,0,1.0832181524586775,0.11631036877422857,-0.3749065396414063,-3.7509355307763297,0.35190051307918035,-0.15523305178479763
427,1.0390402804611447,2.6632091797184825,0,0,0.8933940643395563,-0.025214992391036587,-0.29869211020866687,-3.6056156837371485,0.36408284082400566,-0.03241347846966751
428,0.9836340642832793,2.5879616630579005,0,0,0.85703581529628,-0.05702646615964386,-0.09422532245570948,-2.674087802962676,0.2381507253528019,-0.05345136189719897
429,0.9402048699245126,2.511765310098252,0,0,0.8151163062245875,-0.13687566284450062,-0.05275794472645107,-2.73853715342101,0.3645976829768834,-0.1544184526128637
430,0.9124848241161295,2.4372656528154257,0,0,0.7215628271090704,-0.20091083063167056,-0.11374993609673387,-2.412937370352007,0.2765566917881792,-0.32603889680326387
431,0.9020090083147555,2.3689050438570494,0,0,0.6558797698602715,-0.12147140767624608,-0.10143429931567262,-2.2556923822887107,-0.008320453144977195,-0.4586435823639248
432,0.9080076531761038,2.3124225346014375,0,0,0.7413993003697431,-0.12668580478394312,-0.05606393151357487,-2.4126656154299955,-0.32158736218249395,-0.5023216867864566
433,0.927649246837658,2.273972149303303,0,0,0.945065744127852,-0.003398080371761041,0.11609667659600424,-1.9955290312721103,0.0377978243053513,-0.5777762633945747
434,0.9565865171464812,2.259063827702008,0,0,1.0291384241927017,0.2338483068378837,0.30334675472380995,-1.850155612634612,0.18784076891164592,-0.5327946463794995
435,0.9896955129610117,2.2715424116738827,0,0,1.2900746596355532,0.23599450777873188,0.3170615807065675,-2.0088700224443965,-0.523379443564917,-0.02723652704969757
436,1.0218620335613398,2.312800380970636,0,0,1.0852448797991445,0.238568165984671,0.2469153397061189,-1.7773891500328673,0.5329519375567897,0.25580337764653305
437,1.0486768291662358,2.381362369350276,0,0,0.7535091906133274,0.32169048797620114,0.10615224538053929,-2.208635925031102,0.2296382222604337,0.051787048280999004
438,1.0669476808576277,2.4728861447982693,0,0,1.0459869949728298,0.24593061148771372,0.052971764966192394,-3.0351075587232335,-0.8835065515447691,-0.04492537906740502
439,1.0749940556613578,2.580520947255375,0,0,1.229260041336735,0.10116368528848642,0.04111487184140249,-3.0098205372481077,-0.2369819168913944,-0.1395291264483669
440,1.0727275433726384,2.695496055694076,0,0,1.0907343883443559,0.2368187022981515,0.023594933462666553,-2.2556359241080965,-0.16979650152829226,-0.1708659221854246
441,1.0615342781934969,2.8078179969210204,0,0,0.9526489525653247,0.319757354237935,-0.05094163317306493,-2.50464706258258,-0.5041156294794877,-0.11415372726873448
442,1.0439828423310893,2.907017810891851,0,0,1.0518887499876484,0.18404415224578127,-0.14261462472162748,-2.9691020503563506,-0.5957925122240861,-0.06253675022137306
443,1.0233950806451784,2.9829442890478535,0,0,1.1040372409772963,0.05349656247253235,-0.12472282439458494,-2.720010609506222,0.19704824656315037,-0.058019804362353926
444,1.003333163581568,3.0265986176800035,0,0,0.9781857277321644,0.028086082342192828,0.021449309966068503,-2.8704972524637085,0.8426517309584424,-0.0744304023363383
445,0.9870683913261578,3.0309638533353724,0,0,0.864655273593424,0.0033077653156656996,0.17830708914593227,-3.260770491781209,0.9134172360121982,-0.11407867355391403
446,0.9771060297745422,2.9917379936472352,0,0,0.7484166570723759,0.029202663523469796,0.26131230701701397,-3.0201858398164863,0.8045946658079266,-0.12210962152692374
447,0.9748424790529869,2.907858480923791,0,0,0.7503821143551617,0.10751673177381342,0.33563195573156807,-2.8063601271134666,0.019671087078330894,-0.13406804359277216
448,0.980416376120283,2.7817193056219045,0,0,0.8942575329161697,0.04543900132489971,0.3083362371998565,-3.014772542721715,-0.3799308699292831,-0.12844317954886209
449,0.9927790949618347,2.619023577210229,0,0,0.9799927855895605,-0.04728492671146744,0.16042812590034206,-2.681702518386536,-0.6255236740411928,-0.28357404748455245
450,1.0099615987161614,2.4282663914268325,0,0,1.0669942986672782,-0.0488512398927367,0.1721058367393396,-2.24767670126635,-0.7500827777592113,-0.5593000741420515
451,1.0294712732297193,2.2198940546218493,0,0,1.096943855196963,-0.10032502559946546,0.0961582445409997,-2.3340792590038943,-0.5525745927611087,-0.4711036798832254
452,1.0487284794613396,2.005237261185104,0,0,1.2155008089638166,-0.19981047437482855,-0.00561781385714484,-1.7416306660377598,-0.08605801860621057,-0.19920298465500585
453,1.0654530069647064,1.7953641844214987,0,0,1.1178277902734568,-0.09013595823124604,0.06500392607926737,-0.9476894444023708,0.4545706053683064,-0.07656848589456006
454,1.0779328243879438,1.6000260844967893,0,0,1.047491847815721,-0.0783272992696996,0.14432799567292282,-1.7060931220992097,0.288913768788162,-0.11377584903342168
455,1.0851438798380986,1.4268480711993607,0,0,1.0760120623853873,-0.14325435959080454,0.14896431110629554,-1.4751814247512587,0.24302721497425828,-0.18565636970251093
456,1.0867281231214274,1.2808467334784783,0,0,1.058792377504937,-0.04382947602385902,0.24295290554489948,-1.2043022122812685,0.31870959672946264,-0.2407958965918235
457,1.0828654749528457,1.1642694705034426,0,0,1.017441649706292,-0.01828498993217487,0.20977469979988334,-1.3818163306389937,-0.07647439171498743,-0.2152301687700348
458,1.0740894944751644,1.076695348461274,0,0,0.9971805144444595,-0.06659695472525128,0.11653625849143573,-0.973153787609485,-0.30765311589391564,-0.11392896007354175
459,1.0610984327662099,1.0153300876368334,0,0,0.9896726471247929,-0.12505471770398813,0.06654564245865381,-0.7980994316036055,-0.04733922103981995,-0.08062171019223673
460,1.044606175670586,0.9754476649397685,0,0,1.0071219882142304,-0.1386192882980025,0.09970833552288283,-0.9570987279306022,0.13850240845112896,-0.11092994531438807
461,1.02526259459784,0.9509482638112995,0,0,0.9956879015429673,-0.13801314548071822,0.1603705785405801,-1.0176521203681923,0.3581104383274806,-0.1354315740213402
462,1.0036530270850115,0.9350012187658144,0,0,0.9565127976309522,-0.09735915805368221,0.21533032768038615,-0.8900942854895268,0.314752759780823,-0.14718815410531344
463,0.9803673992940793,0.9207291993480414,0,0,0.9554937205674594,-0.06110966559943598,0.22292903057909985,-0.9704526952285957,0.1085634497451045,-0.15874199642921719
464,0.9561151381651078,0.9018848541203685,0,0,0.9566120503668286,-0.05563001030554166,0.1709787922812862,-0.779524262082318,-0.006026461937701616,-0.15326860611849802
465,0.9318534157419377,0.8734804720152319,0,0,0.943464880088699,-0.0723007050639826,0.11581315621041154,-0.6368865725281059,0.062323549155239875,-0.11156192831207334
466,0.9088926474796928,0.8323422432055366,0,0,0.9313237749869014,-0.11261314201643043,0.09138334599414917,-0.735276280821132,0.3246110891757812,-0.07513779006707363
467,0.8889442058720264,0.7775559600711726,0,0,0.9206298104351764,-0.12614232998642655,0.13691997629576216,-0.9075995912375251,0.45648130422265126,-0.07642064382588983
468,0.8740812305988427,0.7107481568723901,0,0,0.9149994594748129,-0.13096812584034756,0.18788427406091798,-0.9241733514614296,0.3934205110064883,-0.10410691087711244
469,0.8665944537145389,0.6361262880413895,0,0,0.8983137503637003,-0.1355433840699281,0.18318943336338855,-0.6935381813640913,0.1720082334617156,-0.13875973329325683
470,0.8687413112265684,0.5602117978310415,0,0,0.8988097994226857,-0.1042852880290332,0.14709204797344527,-0.47276286204263307,-0.1545341338893921,-0.16199095526307572
471,0.8824078589233059,0.4912480185514772,0,0,0.8978448967756563,-0.08930255884430231,0.12009759780818471,-0.43651760058345274,-0.09213974494507776,-0.15268599265944427
472,0.9087269794909977,0.4383275336955202,0,0,0.843612499607859,-0.10988540859361466,0.06607204435882864,-0.3793075693882264,0.0709708955383081,-0.13922100605218007
473,0.947718589146439,0.4103303527016956,0,0,0.8032641729889874,-0.1090672598636285,0.07420644790345703,-0.350331410968391,0.12809545107976364,-0.15123144132369148
474,0.9980312959871387,0.41478352956642833,0,0,0.7825282238862981,-0.13408430377081015,0.09071471419522928,-0.5203687462706816,0.07560687525868937,-0.1485427200271669
475,1.0568620285547465,0.4567545324257939,0,0,0.8770347342579068,-0.193485217865614,0.0552562270214831,-0.3389573329733494,-0.1274920530236517,-0.18339327284017298
476,1.1201042236569025,0.5378900179590093,0,0,1.0602368806333557,-0.16022116323839714,0.05760670767496777,0.16044822823207133,-0.23393526235658443,-0.2828729052561679
477,1.1827277110255776,0.6557154038606942,0,0,1.2603980882841885,-0.14322388493905364,0.003143153922183907,0.44335595468263156,-0.5821382358911862,-0.3616798757542756
478,1.2393374914193396,0.8033146308811787,0,0,1.4254537713686541,-0.1506540706165523,-0.04287793750908954,0.41485336526636807,-0.38986514634672575,-0.398385792085696
479,1.2848149598260177,0.9695073022620179,0,0,1.3159031702408313,-0.08010575105647535,-0.033800550420842644,0.15929398254233115,0.12378131941850713,-0.3723456908627093
480,1.3149306610516245,1.139626267130251,0,0,1.267646125431365,0.02989536113917593,-0.0051699366887452075,0.17281037024794324,-0.1880571174906253,-0.25782276189236897
481,1.3268331288681987,1.296954438433753,0,0,1.372830387761169,0.09380396137262113,-0.0347321879281245,0.3922004421398404,-0.18866860534338914,-0.12130672644058892
482,1.3193482314602942,1.4247704412165965,0,0,1.6648421865604253,0.21370840346179013,0.18258889693034464,0.27167640304438945,0.9210472648299959,0.011611121731543472
483,1.2930530530845499,1.508760609226128,0,0,1.2447898302348732,0.1706406737534629,0.36516682011596524,-1.7956806974496635,3.340050193985979,-0.1202339735248202
484,1.2501193394211547,1.5393324439206122,0,0,0.7346723530791588,-0.09275399304426066,0.6465186166352428,-3.18760057285769,1.63079535338985,-0.27906369617361276
485,1.193961096004551,1.5132512118986523,0,0,0.9973596474599775,-0.26784670572100555,0.8757333761901824,-0.9199241174343529,-0.4255785586933025,-0.3593454810658782
486,1.1287601004304586,1.4341534627982218,0,0,0.9070634686691186,0.02193100217828038,0.5069110224209822,0.5600723310506216,-0.5250865155213171,-0.47704578180620016
487,1.058963051971963,1.3118445733841038,0,0,0.7654741664509629,0.20379305876298232,0.28982366509953444,-0.08282519081582554,-0.7215254570799862,-0.4539451365426244
488,0.9888395763118516,1.1606520623048127,0,0,0.753547906475999,0.1628374163122073,0.3232168485513026,-0.9318670146926671,0.20627182680215164,-0.41820994645510284
489,0.9221682441105535,0.9972824206879399,0,0,0.7707153641360813,0.11750690695958485,0.5019362112240893,-0.8395160824787643,0.49111689042229434,-0.44693004229712874
490,0.8620817760682687,0.8386030561488927,0,0,0.8057307772072992,0.10026473408208764,0.4527047844282828,-0.2373109700969643,-0.05394918724798767,-0.46905449244016284
491,0.8110578126945823,0.6996614904247043,0,0,0.8070295707922145,0.1103417189452943,0.3209576420523255,0.031969046647727484,-0.22452775786562768,-0.42877890377341754
492,0.7710039232456021,0.5921546207791059,0,0,0.7907750934035856,0.13500971701444542,0.242037829217462,0.009349705392653585,-0.17277465786985402,-0.3117722930380862
493,0.7433704497306292,0.5234827855438168,0,0,0.7812932027816065,0.13867146668728855,0.20013502526183377,-0.1276749800676399,0.014083573789599178,-0.17911425387720697
494,0.7292336632163657,0.49644228190974676,0,0,0.7592904156132683,0.08696240197386997,0.21835047346689074,-0.2608703355647368,0.26623695121230545,-0.14957733331218934
495,0.7293152451314155,0.5095155717750592,0,0,0.7498589801219001,-0.016522276684051002,0.22558503298366567,-0.703005691762967,0.41220719016488566,-0.2525737507622337
496,0.7439330110361461,0.5576250497841228,0,0,0.6502636575393989,-0.10440920804884143,0.20146725261829462,-0.6925816224038412,0.5349312922092327,-0.27951906023354656
497,0.772905702647494,0.6331540565059329,0,0,0.5403445673500188,-0.032058944006337464,0.26063320888292646,-0.6198662737978258,0.3520068460898206,-0.33846656287283966
498,0.8154543617196921,0.7270358307162815,0,0,0.5956015973696454,0.220296282203285,0.29184326429851354,-0.4463056383181586,-0.2669805337693251,-0.3933980263975764
499,0.8701451839412179,0.8297672328143757,0,0,0.8301464062315259,0.3517151810277707,0.2162598127948794,-0.29125955970377015,-0.5924372733558055,-0.22303734684778428
500,0.9349000543283262,0.9322818637262902,0,0,0.9841951703475738,0.3769734263501983,0.12762912033410748,-0.20281373992164664,-0.4635441868672674,-0.12431268631736488
501,1.0070713049372744,1.0266672566135076,0,0,0.9734097636940491,0.3623986984612341,0.07411524891597474,-1.0681051329170452,-0.12027676021731468,-0.13911681576500254
502,1.083556395090894,1.106708407621331,0,0,1.0161665707796128,0.16774471606581048,0.06079436934456285,-1.967394343944924,0.1352356721083721,-0.20829602056637028
503,1.160928001153428,1.1682047238150777,0,0,1.134757207348358,0.05590444224263507,0.12794305024106462,-1.3879270145034248,-0.12012648167461192,-0.2981751064689165
504,1.2355685064116577,1.2089949315636737,0,0,1.238212708876429,0.07158394132852611,0.09883553900358018,-0.6057596436051433,-0.7293318182865,-0.3010741619166257
505,1.3038096707362223,1.228679063998251,0,0,1.368075760107864,0.014706212571937473,-0.04424401767666363,-0.5141798839842393,-0.8338321325614977,-0.24144049211101506
506,1.3620816664659265,1.2281282905235726,0,0,1.3466826471098476,-0.07467427463844284,-0.09611413720783456,-0.05233917360426979,-0.6304448410505461,-0.3055366272258333
507,1.4070757914625098,1.20894835122466,0,0,1.3394857058729137,-0.15638023895991932,-0.16022259823400484,0.824834279687627,-0.645102354620295,-0.43534623902512415
508,1.4359273298400348,1.1730568218047863,0,0,1.120782725474827,0.10653693614244482,0.01166989676127856,1.6314173022849658,-0.05170669218886092,-0.43858495426264077
509,1.446424489663001,1.1224620171858883,0,0,1.1742745282244564,0.5262342012793539,0.50031250205707,0.0007629880960847932,0.08812502106984427,-0.3378747939909719
510,1.4372346588719382,1.05924818623066,0,0,1.442350343568192,0.5185061591856778,1.3056833000087222,-0.5767966046006712,1.5738262498441609,-0.3269150934070179
511,1.4081102769577944,0.9857184921675866,0,0,0.8722071087802622,0.28215838552187206,1.3211643138427782,-0.3607532849696429,-0.07902575305538019,-0.28289234671795493
512,1.3600181758227003,0.9046230314748427,0,0,0.9159260368267512,-0.1770028269787126,0.3216553098820546,-0.4353331249727802,-0.9649101513682009,-0.20111699928285487
513,1.295155911105447,0.8193844652617036,0,0,0.9349745437667915,0.010974759362870817,0.30604663150537387,0.30530980580567757,0.9517765704729015,-0.19077864254377414
514,1.2168641151274358,0.7342219695865033,0,0,1.1385867586338165,0.19670519724302915,0.6914136545048086,-0.11343927744119528,1.2202775065345997,-0.20355455813492093
515,1.129467777368016,0.6540772339401228,0,0,1.188985201135096,0.16144253912753206,0.783225295863312,-0.11377058735167221,0.7573256737763544,-0.19650312249271001
516,1.0380601857127498,0.5842845747728012,0,0,0.943382042565626,0.19614541495133647,0.5547834324713009,0.5499796310809753,-0.18569804988403574,-0.0840427421942859
517,0.9482147479604809,0.530006949772424,0,0,0.7855744779164355,0.1584752719886547,0.388549769541596,0.27142869811860676,0.12023940077338727,0.0513566495915718
518,0.8656132107012805,0.49555350453959357,0,0,0.7298606843239925,0.12092898444815744,0.24956585428863867,-0.004233135837466878,-0.12751436800930907,0.06428213844379359
519,0.7956118043808208,0.48375556940662207,0,0,0.7449492427831337,0.08931617715553597,0.22125073967987632,-0.012280399742055663,-0.088635368310791,0.06312529703585305
520,0.7427969853292743,0.4955743541490061,0,0,0.6741055582342527,0.07345131624643306,0.2287839234184891,-0.01297206778748669,-0.2793895745671431,0.07857858640636504
521,0.7105893679506965,0.5300441081692929,0,0,0.6268439254628378,0.08300334771575783,0.24516047815465564,-0.2624156056432356,-0.5086891526772902,0.04765176271469957
522,0.7009432273405741,0.5845457786307747,0,0,0.5782626725066043,0.12551347620511036,0.17053880539084704,-0.23229162948325766,-0.715270868240533,0.008151691826788566
523,0.7141722032491971,0.6552997962372076,0,0,0.6469838454579219,0.1465805681851412,0.13864454702159915,-0.17841103443307446,-1.059191441176076,-0.005373506575219169
524,0.7489145300567045,0.7379033433028652,0,0,0.7717304362975104,0.08555319551801902,0.0923667146380987,-0.3143134672454135,-1.0992638040745768,0.010505430655327015
525,0.8022330292774893,0.8277421366289515,0,0,0.9084415117475532,-0.0004265899785828569,0.06499823848325911,-0.0006195985335256548,-1.0514052803240987,0.03352076303514021
526,0.8698294720479354,0.9201796208568812,0,0,0.9246864691478138,-0.10127400667600149,0.0538013938057176,0.17455098014046488,-0.7295663312781206,0.03211903966159453
527,0.9463473829974896,1.0105404564795306,0,0,0.8480879569741839,-0.15599062355741808,0.03953135002307813,0.24473718117765003,-0.3823373882093437,-0.08607744806811087
528,1.0257453202886926,1.0940099512585941,0,0,0.8140714758248706,-0.050736745575687345,0.09023620613154482,0.5254743135505907,-0.45219578053695153,-0.25139338411214673
529,1.1017352250732424,1.1656130956118484,0,0,1.02752169032012,0.1109924252627943,0.1945629477373105,0.9352247246451684,-0.880253883099356,-0.23915371627026485
530,1.1682805668822724,1.2203947494004177,0,0,1.059077405019363,0.1259285056213833,0.1826266088856891,1.0947138556616063,-0.5023799655494678,-0.0012997995362672673
531,1.2201270935964936,1.253827761335168,0,0,1.3220445268329304,0.2654684044758348,0.306578449794941,1.1999493052490458,-0.42360159237273265,0.26726887446152703
532,1.2533043942081072,1.2623871283852195,0,0,1.502245578763642,0.6683276174763404,0.770266613528161,-0.208092381749813,1.0485589045936106,0.2614427763089597
533,1.2655141490999446,1.2441804392390508,0,0,0.6366569204408573,0.5527971623034753,0.5701564373749074,-1.3281455563003632,0.4988858930302517,0.21279687295853775
534,1.2563341777380097,1.199510483829488,0,0,0.8666422287546794,0.3638269410544959,0.5961523144210992,-1.0500379482098436,-0.1365415247249693,0.5365365283665124
535,1.2272144425595268,1.1312447260259484,0,0,1.0512436190706829,0.23148006358253465,0.5551253585541905,-1.1079434527919665,0.4923823123166374,0.6703898660883311
536,1.1812896115614038,1.0448747381052963,0,0,1.268871763174857,-0.07705235242771816,0.48410410857413605,-1.8374962186044408,0.15680240211905966,0.42231659522782555
537,1.123052140673496,0.9481811572226231,0,0,1.1551218393188516,-0.30103576496113416,0.31284445374394515,-0.6315170612603928,0.2563724122168099,0.06512975830319492
538,1.057926235042908,0.8504922098215456,0,0,0.9013191642820046,-0.022240331749426242,0.27872267109768,0.6950262246367938,0.1725527309383586,0.13884859467899685
539,0.9917841430700063,0.7616288871827371,0,0,0.7950876382092287,0.057507201403537295,0.20652972075935971,0.23478455753994187,-0.11166739983968932,0.3001250760662794
540,0.9304598106294575,0.6907232218703286,0,0,0.8012684746606898,0.01230500278023826,0.08062610928825642,0.12857285715406108,0.21639588401506304,0.3837981727323577
541,0.8793215198229333,0.645126786692572,0,0,0.7853416540275291,0.08277904056494223,0.1568560034945528,0.37057140593001375,0.5891945672565716,0.35122377669950366
542,0.842946674961951,0.6295853338695017,0,0,0.8524180346640001,0.10423624681206173,0.17771228370186445,0.10671000967159841,0.3859056351953605,0.20427359160615982
543,0.8249027473975494,0.6457796045195472,0,0,0.9358060551290414,0.16100939958121246,0.147613544802179,0.48116963668778323,0.4454031816554588,0.10569492205208379
544,0.8275993955803814,0.6922641840109871,0,0,0.9634311065453476,0.25983481873434244,0.17734085872982347,0.3923378688444248,0.26640261730735765,0.022817636323200195
545,0.8521585512173393,0.7647897211614332,0,0,0.8608448028617335,0.437798192941881,0.07786831452413392,0.5238405313138846,-0.008721404943538905,-0.04874447983574028
546,0.8982615939267878,0.8569557390710378,0,0,0.7799271536209808,0.4661528893670216,0.020990501280134542,-0.3359514717635142,-0.6200161171900553,-0.02066743659334617
547,0.9639710811772303,0.9610942923881451,0,0,0.853241137608745,0.19456567317790494,-0.1327352695202904,-1.1051843051368515,-1.0085111147392627,-0.05812654610972464
548,1.0455718523930897,1.0692298554934134,0,0,0.9657283497144874,0.09627083201192028,-0.13930742356447168,-0.7145845343735158,-1.2895918807542879,-0.1771880656508639
549,1.1375121974802387,1.1739265183750942,0,0,1.1378028297923002,0.03287518211518582,-0.04070826767048725,-1.1710714583925146,-0.800705521178897,-0.1385564600445868
550,1.2325381030336664,1.2688575168282743,0,0,0.874665126632529,-0.0630566048284214,0.04156273268125874,-1.323195874391448,0.17011551832054775,0.06925899925512734
551,1.3221011424697842,1.3490220857813768,0,0,0.5068794086371126,0.20581600553901908,0.431184790083689,-1.132667244412301,0.006352581750249911,0.18035178267864846
552,1.3970808339761478,1.4106525202262268,0,0,0.7801493303729692,0.34584294783686365,0.7516061610947347,-1.129043299936219,-1.0488962810864384,-0.08277180267954243
553,1.4487853394577128,1.4509480858582458,0,0,2.155649691053242,-0.13078238171788667,1.3825162895938279,-0.9714994992175401,0.4717379715775175,-0.754603989894467
554,1.4700889522655174,1.4678165330646415,0,0,1.3020131197275246,-0.6498491214059127,1.2422304132910826,0.302704959035164,-0.03931099895215117,-0.6759517739427024
555,1.456486586779804,1.4598000657815784,0,0,0.5549022967198327,-0.5510948363623102,0.24864675659945637,0.34156280526231414,-0.7325132044141364,-0.2312143632676343
556,1.4068569233554686,1.4263087271330406,0,0,1.3085272533133538,-0.1863151121531122,0.2731027823974123,0.8297725415803815,0.832238237392531,-0.09004797402556294
557,1.323814171797933,1.3681680254666277,0,0,1.7852704587982575,0.38327261094749915,0.691853138797682,1.336757299851334,1.3406026125073152,-0.16687885927158677
558,1.2136142030699921,1.2883250464475986,0,0,1.275102666634111,0.4938327170596469,0.5212693059373861,1.9492300869544625,-0.6390270605287705,0.15911068044586787
559,1.0856246769313924,1.1924194181298076,0,0,0.8269605516723957,0.208652828596225,0.17377474313187502,2.0405093847580775,-0.9244955677077922,0.229010395148368
560,0.9514070306521022,1.0889020635854996,0,0,0.7914987970627946,0.15090956676084238,0.09947359998616918,1.1174342343588375,-0.3531294854280439,0.10359434808335703
561,0.8235185645785144,0.9885129939720112,0,0,0.7270433051137933,0.12049210893216815,0.0362167395652081,-0.2301241082264609,-0.5660036403488975,0.0481263259662189
562,0.714195040452102,0.9031557868160133,0,0,0.6632556785198708,0.05345783454105254,0.006231317418403647,0.11505385739610186,-0.1246770854090813,0.10474154505569945
563,0.6340825194203923,0.844413680831027,0,0,0.5386937621902349,0.006726282853957275,0.06036619328551137,0.6686671834765072,0.2680420752627889,0.25599906075049433
564,0.591157660731943,0.8220390103095928,0,0,0.49267905450988947,-0.03244603518111294,0.1492732172725469,0.467033481983337,0.40303275943018796,0.3164069346101523
565,0.5899350478404968,0.8426985630164557,0,0,0.5001398905420826,-0.08743016789444528,0.128298737231094,0.4522644543325521,0.07690038843170857,0.27983640020879913
566,0.6310225409378061,0.9091367131504845,0,0,0.5709806161191823,-0.10003392286693236,0.08690498295236479,1.034669455544382,-0.5427457626749034,0.165212714464797
567,0.7110517146357992,1.0198004423670455,0,0,0.6750228314272549,-0.11901365393828657,0.0489055632491661,0.905487968409177,-0.8260838739289802,0.05611626769121825
568,0.8229791513139942,1.168892763106661,0,0,0.7445342066162565,-0.10178935042634392,0.002855802241967452,0.6056918870681643,-0.634660969291814,-0.07024004259358627
569,0.9567267873721764,1.3467893547200316,0,0,0.8921361257680104,0.022058340615056887,0.024690102093518223,0.6444441703311586,-1.2699481085493036,-0.15175337620945542
570,1.1001058653192692,1.5407555726378204,0,0,1.178751844293711,0.248322181300421,0.13338883902962803,0.6680490754271053,-1.6221994454385043,-0.21191769008762626
571,1.2399486272834292,1.7359153093944497,0,0,1.1582395837135744,0.4074343755836022,0.08412774752049587,0.7414501485373209,-1.6923987026440572,-0.21497860006154812
572,1.3633560013397228,1.916436440503302,0,0,0.9254604623892494,0.4159639008673444,-0.19591716197778725,0.19965584675113796,-0.9407200418513023,-0.01877113569818064
573,1.4589581618235397,2.0669064615318695,0,0,1.151852717333859,-0.013922556181451268,-0.2782025850295822,0.17406027051923625,-1.0902769679926312,0.2895551442443734
574,1.5180694310309149,2.173850610751126,0,0,2.546527579201783,0.39114990580303755,0.6846407993215775,0.9626098963259416,2.4871604665366815,0.5599187116419968
575,1.5355955350178325,2.227255363353184,0,0,1.0639278412986737,0.8118588222381303,1.3420675055594542,-2.0666000511982006,4.026718687483592,0.321550091234838
576,1.5105475312960088,2.2218350122189947,0,0,0.4764335363568158,0.20429013110478048,0.6021466631876138,-0.8921109142476165,-1.5691353915153028,0.5223091021370432
577,1.446072227469935,2.1577415588508133,0,0,1.4760095474444712,0.370914027567992,0.34420256227783197,-0.23798261002332233,-0.10555930983763696,0.7869323726743205
578,1.349009244366663,2.040544039465663,0,0,1.694737766884186,-0.34065829713399887,0.31500371275386324,-3.4169491822966904,0.25256512370282136,0.36908435292864744
579,1.2290648338654289,1.8805032209689687,0,0,1.170972482669111,-0.6161140145654275,0.059101347818247496,-1.5841183547038669,0.907418523898381,-0.1425571816324485
580,1.0977237265264097,1.6913021431325714,0,0,0.6266385249753349,0.07477739693264113,0.12028919177805296,1.3718156144333817,-0.22401479533187324,-0.29518475107713743
581,0.9670352864447787,1.4884465610431659,0,0,0.6957628970118943,0.2984325916889371,0.017727918499132158,0.5328316925497143,-0.7033209025848632,-0.2677777786626425
582,0.8484274154360897,1.2875808623715805,0,0,0.7265244498349662,0.26620025510879763,-0.06665018747789875,-0.6873586097989601,0.13187350931781538,-0.1637797003543393
583,0.7516936325691929,1.1029690651354327,0,0,0.7327245332426903,0.18153159389630263,0.08390334059406399,-1.1053200559908127,0.7358616515621992,-0.08717569999587173
584,0.6842486493763079,0.946322753516361,0,0,0.6653742769620126,0.09183263633123047,0.21398644574473372,-1.3293233462963634,0.5215205404002276,-0.11582505713652559
585,0.6506815553009998,0.8260389006312875,0,0,0.6373543583306651,-0.01334240739925571,0.16422121470047366,-0.7846933085935766,0.23114021181275832,-0.21162646694842008
586,0.6525879025053243,0.7468194439480054,0,0,0.6429596533849122,0.051819328581277226,0.06561516131310587,-0.2843678382119818,-0.02249364858809451,-0.23194845464310748
587,0.68864173426255,0.7096276592715794,0,0,0.6751789856772501,0.1742728995350619,0.011132304214930031,-0.3034339803327847,-0.05099352897524492,-0.19581847497088986
588,0.7548652756663773,0.7119604440074373,0,0,0.6891588638095321,0.2579805327927632,-0.01405253501004167,-0.6125325286272035,-0.2357664533055746,-0.18415099409437158
589,0.8450556989281826,0.7484137104839724,0,0,0.7782913247602113,0.2569603823279241,-0.09363060254824628,-0.7331865192577618,-0.6349875283936874,-0.07152459882470862
590,0.9513293650285468,0.8114676647307444,0,0,0.9881137764779043,0.1943714033749749,-0.10302395855779922,-0.7319126762545178,-0.7276017499219237,0.08069015734531414
591,1.0647435229853839,0.892359251937319,0,0,1.1902107425397053,-0.04166588339765477,-0.0733376858597993,-1.2606943134890924,-0.33834219352043504,0.20625637520262968
592,1.1759567232794295,0.9818931528203878,0,0,1.132498734707987,-0.25142220382013136,-0.05521436095767403,-1.0717437243655679,0.09710833546793685,0.08339030071978702
593,1.2758965100425095,1.0710887582702238,0,0,0.7731083072618512,-0.10592627665963124,0.14817528092083707,-0.6390427431696388,-0.21750865359514282,-0.09568408314194236
594,1.356412623095521,1.1516446265058369,0,0,1.108151326914902,0.12919335556658704,0.5795095840541419,-0.6975190772393935,-0.9913663290667217,-0.18776915342753975
595,1.4108896883243471,1.21627724076479,0,0,2.097889943511816,-0.2169739714364207,1.1025102330270258,-0.1504124159607066,0.2511256796955973,-0.6927789779882528
596,1.4347683344837094,1.2590186556431238,0,0,1.1296645170081743,-0.2474404564582155,0.8761049840405136,1.4422430246347182,-0.48902715563594834,-0.5786910141169194
597,1.4259071092884354,1.2755337167730443,0,0,0.7110772016919921,-0.17659348054710935,0.109463314041469,0.8552760746979754,-0.8858531362936318,-0.17734439453295983
598,1.3847452059855774,1.2634709139094478,0,0,1.125180621892362,-0.2361086822365635,0.054303417875274686,0.6400002516581802,0.2949498675073454,-0.16326292170118364
599,1.3142771068759824,1.2228216263000309,0,0,1.7432746442487952,0.11355482084839963,0.46811426068178397,0.8234071265351031,0.935584388530513,-0.2508368979667846
600,1.2198645784856559,1.1562320654925,0,0,1.4945412590997338,0.3535913237023517,0.470690487878574,1.251595271727799,0.23673798576344485,-0.20601685657942284
601,1.1088808737439728,1.0691750281688754,0,0,0.952011070578882,0.32617382262212785,0.21854181940145478,1.8447031753174303,-0.588399726718708,-0.06620258442377618
602,0.9901663901052952,0.9698548987100636,0,0,0.7952288979528954,0.27506276818189956,0.10115736412708808,1.1267587119165698,-0.3996117940598879,-0.008249039850942939
603,0.8733128480933801,0.8687337084794433,0,0,0.7075082407155646,0.17189610861143312,-0.009397448457759434,-0.07811889787291104,-0.6662759355971428,0.04839555577876109
604,0.7678511374523358,0.7776541521853126,0,0,0.7498789759488552,0.06023793848658847,-0.04590501847370668,-0.1956860232008595,-0.5051481116357873,0.07797753754287462
605,0.682444697933461,0.708658821536575,0,0,0.6961494493006387,0.011571308459315064,-0.010658739176608796,0.44745914766130024,-0.06113175599994323,0.10858534543700966
606,0.6241757158376662,0.6726902301307156,0,0,0.5926784535213095,0.0029840226679548596,0.032221241878495094,0.6636702423421753,0.1675759111054887,0.09890695341217412
607,0.5979807562015678,0.678364289277312,0,0,0.5392028240355045,-0.0170106703751583,-0.00016828881009340598,0.5268872223577308,0.06003982075869376,0.06439068173356097
608,0.6062680225760804,0.7309607999622044,0,0,0.5822900402395423,-0.015099866928812154,-0.03616950703787922,0.7072353248636367,-0.21458956659820233,-0.010358027473658611
609,0.6487332923838129,0.8317120082321111,0,0,0.6439770857691351,-0.05720731313484709,-0.08491012515456148,0.747750628101576,-0.4907835248210231,-0.09882027618338038
610,0.7223794393520043,0.977422435650928,0,0,0.7326802290247881,-0.10232901632583852,-0.13128370476369045,0.8975107471097625,-0.6646876586015367,-0.22264251617444816
611,0.8217328837037573,1.1604281942811936,0,0,0.82962492128247,-0.09387268673255515,-0.14078549815389735,0.8465387428667278,-0.7273148561239007,-0.2864688724451903
612,0.9392424211326135,1.3689020077646394,0,0,0.8493239931493639,-0.048111601917976296,-0.15867092296318394,0.8657618979637943,-0.6266523383236638,-0.33301538921310947
613,1.0658436495420427,1.5875240837991258,0,0,0.9569393742179777,0.1149041480183191,-0.0841302346418897,1.2045973029737722,-0.998330997200653,-0.4004888406264518
614,1.1916712340854996,1.798550906312841,0,0,0.9640549254560286,0.2905698552860561,-0.0736393664342258,0.7420116269913145,-1.3613636889754377,-0.4429755028386348
615,1.306892032547206,1.9833054286629477,0,0,1.1112429528520715,0.35337273666095304,-0.1384007465377644,0.03679614679756001,-1.4510304941693908,-0.2949648360326035
616,1.402606202027892,2.124073807226899,0,0,1.190121077150706,0.22799819374703045,-0.3371536246913743,-0.295839688154688,-0.7351857547113176,-0.0777722600632292
617,1.4717208643517572,2.2063118310424246,0,0,2.340631504722531,0.35368046635213474,0.036927335883334314,1.4415503178974454,-0.11491556569611662,0.27651705885465144
618,1.5096588384197673,2.2209139284340003,0,0,1.5438983405050863,0.9015754526166639,0.7233463569957174,-0.5065255717202475,6.045874504249133,0.005470370692453359
619,1.5147595471163058,2.1661038950703997,0,0,0.15711995514499902,0.35095955649404215,0.827456482727377,-2.617555602289453,0.11484561100329918,0.13044163602903477
620,1.4882883997897767,2.0484076954841135,0,0,1.5844732439877045,0.10850706672043992,0.5869737744254444,-0.4759977446587765,-1.5670115941068383,0.6616848254050887
621,1.434071940537856,1.8823174902651623,0,0,1.426315251705107,0.14529103502959856,0.29763252359154135,-1.2747177614794463,1.4720189829646493,0.6991890523201563
622,1.3578574962421546,1.688616965389509,0,0,1.3470281791036245,-0.11678197689811101,0.15972450735766325,-1.4753961201085353,-0.5338423282669149,0.1545644051885845
623,1.26652636201259,1.491695192559728,0,0,1.083394743574884,0.07494998348417645,0.2229899170157609,-0.2817238786872637,0.8331261221638901,-0.2912586184516232
624,1.1672889385350331,1.3163669527894668,0,0,0.8051246296399203,0.26900426918643267,0.34688108523317757,-0.8119283542268495,0.36645691816807474,-0.2613080236977263
625,1.0669807674577392,1.1847428172158938,0,0,0.8492630036282465,0.2849093037116382,0.19598993153427074,-0.7179741691808051,-0.12204319749733142,-0.16356930681067902
626,0.9715542684613566,1.1136145258024581,0,0,0.9004814497207984,0.330151255361458,0.1490309230909349,-0.49611194902745837,-0.2936458672273716,-0.06629777093949873
627,0.8858133471551987,1.1126797326351086,0,0,0.8706553834900642,0.2578364310088184,0.06261606671942474,-1.1085029399611501,-0.1258310651596776,-0.0001360933318990882
628,0.8133784134942045,1.1837545777937177,0,0,0.8205650740091874,0.22693161478004029,0.03643282242269091,-1.2298497174923446,-0.07346921030196389,-0.042211794573670816
629,0.7568205044484952,1.3209502767868844,0,0,0.7967546628326614,0.241921380895716,0.09895935648927284,-1.394040301561595,-0.19501289343026426,-0.16800276383352933
630,0.7178794287893286,1.511658765532131,0,0,0.7524934532896567,0.22089671956960663,0.08334759649811496,-1.7426836831222712,-0.28469279801138353,-0.24692945136644334
631,0.6976814890359334,1.73812586226881,0,0,0.7151637061191836,0.1990558451160126,0.035024333057152676,-1.6714539466996738,-0.4525835901650215,-0.25856255737665984
632,0.6968891606776468,1.9793863561411482,0,0,0.7210549710252964,0.26601980055011065,0.007015736563863351,-1.6943871608290357,-0.5319928484353611,-0.22120535790098175
633,0.7157402215753129,2.2133684460882126,0,0,0.7408406671338849,0.323724892348107,-0.055396269466890455,-2.0260088711151796,-0.6093045147268635,-0.15744354129326849
634,0.7539621831831366,2.419010119756442,0,0,0.7235640802023092,0.31842108772198957,-0.14690779003183685,-2.4192689093362856,-0.7703527223031589,-0.13183013889014772
635,0.8105774240491778,2.57824252196753,0,0,0.7360751826848443,0.3056360416121682,-0.2134852887197838,-2.4709506987770107,-1.10627705809933,-0.10218178033813827
636,0.8836442555889393,2.677687204466286,0,0,0.7478993763255615,0.32349870295818856,-0.1828995255528108,-2.6022833968947157,-1.0791729243237973,-0.050846139607999524
637,0.9700058999037652,2.7099101047943557,0,0,0.7872247419314443,0.24947241666369313,-0.14806734654831277,-2.9482502838281612,-1.0815269913716945,-0.001595005581263875
638,1.0651360364628484,2.6740983741291973,0,0,0.8898214244811401,0.14776698133351485,-0.17892735722783204,-2.4558549291933893,-1.1141553589746707,-0.04032623401179548
639,1.1631686147572708,2.576081913424478,0,0,1.0679429985521476,0.02867035167582527,-0.10892971721426241,-2.0365268337818687,-1.0331391928451554,-0.1776270866216557
640,1.2571771630620763,2.4276950021520856,0,0,0.9154588737261108,-0.09009131277294449,-0.06502290157018682,-2.204928941225801,-0.1465466476780172,-0.3247869555796228
641,1.3397258065285722,2.2455341983797834,0,0,1.0901812710707848,-0.1347512416308101,0.24302118776050252,-2.617264180117613,0.07432294065021822,-0.3950709559129563
642,1.4036537433383007,2.049193203539898,0,0,1.5821538028803634,-0.44156640169284783,0.5671699377011554,-3.2429130036113762,1.0098716622712411,-0.5219867459394794
643,1.4429844398878513,1.8590657628603227,0,0,1.552512889564243,-0.47907355115727507,0.7441040647930254,-1.4765916345421786,0.39959922533102743,-0.7094953051203605
644,1.4537924126818638,1.6938679311987639,0,0,1.480645555642243,-0.5200370176200102,0.6279130499749952,-1.338899745556622,-0.17577196987312713,-0.4445694119308856
645,1.4348475187324885,1.5681707012262784,0,0,1.321075807278449,-0.4093164140906162,0.21515602059387873,-0.3725888819957648,0.4838855032988382,-0.18637954566446788
646,1.3879037486217698,1.4903846045493265,0,0,1.4779250010574236,0.12605408535357365,0.22139775232468006,0.15579407857021435,0.04419469947087964,-0.07790372747550449
647,1.3175823757143899,1.4616772646375211,0,0,1.3675504433904824,0.25446184078439776,0.19838556845157962,-0.09324424316383614,-0.6410564674589498,-0.11013786511002378
648,1.2308780369730163,1.4761609795263257,0,0,1.1302126558559222,0.1455514139354371,0.053468329941834127,0.19165589188855953,-1.4085775463102934,-0.37916736776416166
649,1.136370236340801,1.5223899148528586,0,0,0.9937825644975311,0.22736099899155304,-0.03568967840834731,-0.8083015610586716,-1.115032668002849,-0.5540654467727365
650,1.043252601667129,1.5858632497016354,0,0,0.9699772402416713,0.2997595358288236,-0.25595994586863474,-2.6556233303422383,-0.7051097104327005,-0.2769236336744814
651,0.9603018148339959,1.6519691752619625,0,0,0.9537424665756874,0.05913590152758833,-0.45899617781235097,-2.5791215291100777,0.12901287221374053,0.0756175274703918
652,0.8949011398498703,1.7087142781894085,0,0,0.8186067016440367,0.011925684514949702,-0.1530451979941651,-1.4678523243328283,0.9148430769837118,0.11118050687121915
653,0.8522202829172328,1.7486811100480986,0,0,0.6867214811822944,0.012244159104355905,0.11207456684597802,-2.323443015684204,1.0449661795547058,-0.019066608197714694
654,0.8346436633483715,1.7698885620153257,0,0,0.6599200778445939,-0.15915930276687726,0.10260611716954308,-2.42827304699566,0.18749598112886753,-0.20033130346664307
655,0.8415288430293582,1.7755064027631309,0,0,0.6470126477476164,-0.2013366609078734,0.015537310272024879,-1.1959434466077765,-0.43103201570766664,-0.3839921299698267
656,0.8693520801620734,1.7726305694428084,0,0,0.5986503028405218,-0.11526930592980397,-0.07755516059383287,-0.5334648306854842,-0.30526323620951396,-0.5301943434148901
657,0.9122509118471015,1.7705181189716874,0,0,0.69121441664363,-0.022342560571148796,-0.08308307161337382,-0.8953655311450716,-0.5098751852040223,-0.5786179401485259
658,0.9629072379824497,1.778758717655035,0,0,1.137459286515792,0.15242262441468318,0.17112058763063695,-1.4769861662420058,-0.5693382474852734,-0.6130459176080837
659,1.0136395703757128,1.805786765066096,0,0,1.4693366379914399,0.5506473898357173,0.34789521226628867,-1.1752787737544919,0.5142636595496431,-0.3861783367723405
660,1.057513363396471,1.857952172935796,0,0,1.0218413362532377,0.6397401098187927,0.3333593096683457,-1.6986497741976625,0.4422450757569429,0.12532541384100976
661,1.0892674470043953,1.9391593539288539,0,0,0.8791081500624518,0.25388766563227283,0.24401082048684758,-2.7790735314148582,0.11615628221043646,0.3838468335386778
662,1.1059084491755222,2.0509247794723207,0,0,1.1301878340236358,0.21376500416655236,0.16974638740078515,-1.5958103660575627,0.3142442597310894,0.17874618398278425
663,1.1069158828256558,2.1926234944434224,0,0,1.1617042801127224,0.2493290226433908,0.2851080820706994,-2.875111073036087,0.02946254514696607,-0.03392790423450458
664,1.0940792569962843,2.3616996955719967,0,0,1.0943993471686755,0.10615768269921042,0.10423601883377406,-3.4521447095537394,-0.36944888412396487,-0.1363575415990567
665,1.0710329730771937,2.5536954746703446,0,0,1.0196614367445644,0.26091866285449195,0.12033218760439648,-1.7586622516151393,-0.26063930000710833,-0.12627303625804245
666,1.0425774067440852,2.76208502361501,0,0,0.9067092180604744,0.2820128156557239,0.05718912451584301,-2.430059421413827,-0.14602707640783363,-0.03608862623925696
667,1.0138901044980746,2.978051419941376,0,0,0.9480792504483921,0.11614612168662886,-0.10102073109007136,-2.642843724213231,-0.3766580787380366,0.01185562184853117
668,0.9897383613898091,3.1904412181401214,0,0,0.9929237307237332,0.11920873974111128,-0.034188286257960304,-2.5792635504466577,0.24508334104543225,-0.056214263196181995
669,0.9737986277852277,3.3861202564926134,0,0,0.8552353009827367,0.18605441744046164,0.08925759763481021,-3.348571701399343,0.6491580372866192,-0.15739950929051194
670,0.9681717166287742,3.550842432853533,0,0,0.7306890284089251,0.22883286945325546,0.17664877494319312,-3.5834128380154273,0.19714416627050957,-0.22721657920321775
671,0.9731605420386897,3.670594827666887,0,0,0.6474973705712266,0.3192712412962566,0.2024356683761582,-3.367828649817298,-0.09053729342849332,-0.21203425596575098
672,0.9873469761225188,3.733254623295438,0,0,0.7381712909095333,0.30999537141770855,0.184970030431146,-3.672193941650412,-0.4730238984303195,-0.10924103732617664
673,1.0079588880874135,3.7303072846593137,0,0,1.015788536667914,0.1710613145232525,0.1908372354362343,-4.225709318295739,-0.23880463312927935,-0.0802383998253801
674,1.0314574244392405,3.658327213523555,0,0,1.3014077780013917,0.05861571149959245,0.1808186680426044,-4.235077170610466,-0.15016596051058742,-0.4074907631852509
675,1.0542151507512227,3.519914070719737,0,0,1.4747113944345516,-0.12218106991512183,0.2492505290731564,-3.9560432189868493,-0.6123380538829551,-0.9770269111951321
676,1.0731274952096397,3.323834951777238,0,0,1.1870821761747694,-0.2029925652135088,0.17157869145141572,-3.641405460606428,-0.1384896633839043,-0.8586887831899025
677,1.086026365034863,3.084261973165853,0,0,0.8957824559104047,-0.24716106576408606,-0.04196900444453957,-3.1134364954466913,0.13514812133662785,-0.3687562798054647
678,1.0918403713043727,2.819191837243756,0,0,0.9139942606293497,-0.21938712849722555,-0.08342670961077622,-2.364321867479886,-0.1901686798192307,-0.19123541356561055
679,1.090532216313153,2.5483267691969242,0,0,1.01552884932977,-0.12599665843551341,-0.04789236033710448,-1.7904604085145375,-0.4158382114855839,-0.2569311647173102
680,1.0828959299865868,2.290816238822233,0,0,1.0704005524138454,-0.18966645059006781,-0.05825200403335144,-1.6511008425273457,-0.39355375970399303,-0.46641470582528943
681,1.0702998364011174,2.063260517112665,0,0,1.058285144042817,-0.13436863593025922,-0.025298971467305236,-1.7391529982561027,0.06863500212573774,-0.5835551615638711
682,1.0544350825213709,1.8782615732030237,0,0,0.9948881857155286,-0.038482838544209176,0.035025957627077935,-1.9359655330817602,0.20127990728841805,-0.5317665509485202
683,1.0371015500050724,1.7436275309204432,0,0,0.9913934358436328,-0.004010546149029278,0.037126742647798174,-2.0275956387975684,-0.0703316417980505,-0.4252990795962494
684,1.0200442051290548,1.6621731829021325,0,0,1.0381571012495756,-0.05995827215715285,0.0018635552480074956,-1.825914316260309,0.03169290793989016,-0.3569820286896479
685,1.0048399638206285,1.6319716502207802,0,0,1.053531575194319,-0.10913787851910017,0.023242137186639367,-1.5964896797126757,0.2094805191789884,-0.35658926635465843
686,0.9928241398093278,1.646912642514098,0,0,1.0053751623425644,-0.10513197746051398,0.0497291435147651,-1.4605771826048426,0.22201470319334993,-0.3994937746625608
687,0.9850390179769534,1.6974753255590027,0,0,0.9842583574341661,-0.0525361448218817,0.07851675284779877,-1.3825928613036702,0.015337713919363513,-0.41635546146745733
688,0.9821886276836398,1.771675484235472,0,0,1.007845234223311,-0.018626145451543202,0.07584624346894801,-1.6321305932873031,-0.026032748455093006,-0.37800362463367637
689,0.984591914878867,1.856160788432574,0,0,0.9994221411203693,-0.04045132651573274,0.05578764417239645,-1.8280605871269353,0.1639906335431868,-0.32979474240750073
690,0.9921364624660178,1.9374006546042408,0,0,0.9700034232263017,-0.0662088078340754,0.06881874690602494,-1.9748153046186572,0.3640248246878622,-0.32306219591201896
691,1.0042435066370206,2.002871656462028,0,0,0.9628890044742834,-0.11281545459255522,0.1229282550627989,-2.1742243515021555,0.5525832056216405,-0.3408251199426349
692,1.0198609973479105,2.0421074815010076,0,0,0.9405038064082126,-0.14017224573136966,0.1927631242855533,-2.2443885692515457,0.5733861817020066,-0.40589540988282846
693,1.037503084080787,2.0474870510863115,0,0,0.9417505050042492,-0.13033296326458882,0.21699763157314722,-2.0722400176808873,-0.005275107586891684,-0.5283032384177689
694,1.0553494281384153,2.0146810233790764,0,0,1.008139271120138,-0.0912803808454117,0.13583263433054713,-1.5857537256739007,-0.7826876844272801,-0.6425053760880652
695,1.0714056205021123,1.9427503397734467,0,0,1.1051388811391316,-0.06219825138133547,0.012971565710572987,-1.3229073560933131,-0.9367194858421247,-0.6394525344640101
696,1.0837094777943488,1.833958347900274,0,0,1.1316623049940313,-0.06772661335962074,-0.08323157052678747,-1.3999122040839473,-0.1614840492265968,-0.5541394625872347
697,1.0905530904017242,1.6933868779148926,0,0,1.0980206752234776,-0.05596752259518472,0.005239953003186467,-1.7068519029055544,0.3575633094457302,-0.5075965216530889
698,1.0906836568177911,1.5284254701874307,0,0,1.1194799011800278,-0.13065405426421442,0.14887350656880335,-1.83868645376782,0.523087559109549,-0.43074653645763816
699,1.0834497974179302,1.3481556360937488,0,0,1.118719383801076,-0.21553673128842202,0.25114463896743067,-1.2743824232272598,0.8233727692301218,-0.3598027936588915
700,1.0688717751327137,1.1626244398153482,0,0,1.0336643386695312,-0.2522510294106809,0.2819820441311334,-0.7583574192096234,0.6250789762877279,-0.41566287932060686
701,1.0476305237935286,0.9820245484194525,0,0,0.9647189735363315,-0.20673101685558862,0.24818025236904828,-0.2384960268711678,0.21307892759481956,-0.5188053149410036
702,1.0209891961316322,0.8158547690562071,0,0,0.9322366218667499,-0.08467735333394101,0.2661857452787675,0.364680804926943,0.13645602731557585,-0.589174953681166
703,0.9906776324811216,0.6721755747875768,0,0,0.7888476396829337,0.08816477542521722,0.25975070429061203,0.5787137505303015,0.14667542969060146,-0.5503248556276218
704,0.958776933289691,0.5570652363428047,0,0,0.7426772620546721,0.19037558465053192,0.22092244451701393,0.1465394289022361,-0.10261834672346364,-0.39688387046867646
705,0.9276309826697128,0.4743377844684647,0,0,0.9132362665067398,0.2730410221227947,0.22127654870257776,0.045963241305078555,-0.08072695934379519,-0.2896320329781193
706,0.8997837707655297,0.4255380684094516,0,0,1.1090374297642966,0.2831161224430579,0.26761645123911687,-0.03265449271759017,-0.006151194859570158,-0.24882110372227348
707,0.8779076015564524,0.410193362616388,0,0,1.0536249884512037,0.12777071103722545,0.1712787078608191,-0.1358613556940698,0.15178843775998346,-0.2251250326931538
708,0.8646708141946634,0.4262627305520269,0,0,0.8401037585609252,0.07105875685326586,0.11507469218345774,0.023783953259745846,0.6816650388528707,-0.24210673195803134
709,0.862512109806968,0.47067952540888686,0,0,0.7209201355965776,0.1574348869016815,0.16858959916328234,-0.013661751754406133,0.7195092879571178,-0.2897629612941386
710,0.8733343143399758,0.539849137504752,0,0,0.7187271828292934,0.25177570071627403,0.22610657385618488,-0.2701491051976237,0.8155284603504263,-0.29571199488932476
711,0.898173897595248,0.6299735039771281,0,0,0.7484437094057291,0.29217216632016657,0.22747670164614517,-0.3440846324276369,0.537164493674816,-0.21371131813440333
712,0.9369190708514382,0.737136906476334,0,0,0.8355288385224874,0.3628755026452552,0.19502326024719766,-0.3912772449238772,0.17501746579812869,-0.04390207957088775
713,0.9881376327773836,0.8571799396224187,0,0,0.8920648040680067,0.32804987416712716,0.11503840279235143,-0.6422979138243391,0.1294823030752109,0.10387419177151198
714,1.049051240507031,0.9854629836381406,0,0,0.9505933107702763,0.24371489218067321,0.043602295135915584,-0.9690921490955895,0.07557888371548051,0.048203512802712484
715,1.115669250389388,1.1166414479002542,0,0,1.0739571901530185,0.22997815001840705,0.01711573107131074,-1.243909864078637,0.22364668967514695,-0.1054535454167352
716,1.1830764903538575,1.2445471808933326,0,0,1.1596379796385188,0.2045263409522319,0.02978588368627387,-1.2968562808991666,0.09590769394711726,-0.15882285409054675
717,1.2458531304143527,1.36223126705069,0,0,1.2075121547619092,0.21215337117196376,0.04555538624302962,-1.1973153528654474,-0.013193943809095563,-0.05973146172911407
718,1.298590058006561,1.4622042807431515,0,0,1.2545829203656396,0.1870943723625015,0.052279070314749196,-1.065571799042343,-0.2539223073605335,-0.021581633890860867
719,1.3364508507566233,1.5369067402441718,0,0,1.2711206596952145,0.11473600108127001,0.05916798574848495,-1.1915263875996815,-0.6980673436978111,-0.07311799192093132
720,1.3557212613635627,1.5794251740253684,0,0,1.3453045526616414,0.027254804691198065,0.01306832218708363,-1.0520808393753305,-1.0117703836202692,-0.10584237717039094
721,1.3542769091526146,1.5844167108251994,0,0,1.5449133755436275,-0.05751709457431975,0.013231496379854431,-0.2666897723758956,-1.1955705705007698,0.016042279596702857
722,1.331891188231436,1.5491232854901187,0,0,1.775786912832961,0.15927918226795088,0.5526199924179672,-0.05064589385678839,1.4071889621613713,0.0242289846706321
723,1.2903102106393656,1.4742677528387027,0,0,0.9143238366177318,0.029853234313881608,0.8994983236352303,-2.0611023569620435,3.0995645164848185,0.027649265232556123
724,1.2330573518723347,1.3645637196275784,0,0,0.412967252494225,-0.19892957465909725,0.8175577164595617,-1.1110650740052719,-0.43796707490366704,0.12833839847541678
725,1.1649968975834022,1.2285969823341798,0,0,0.7889866372200816,0.07515440334265162,0.6140665048708293,1.031374618147888,-0.9493254190512279,0.05376488045602592
726,1.0917516644523444,1.0779898747579475,0,0,0.8626437434734411,0.12999413370411336,0.4466133913363449,0.6130905360600365,-0.30181801602307085,0.021571534978129043
727,1.0190917965795148,0.9259881327453744,0,0,0.9748980718199292,0.08005897775206407,0.49755706130448346,0.19103888116082554,0.046822785949176875,0.08514728243037661
728,0.9523837453431921,0.7857860988871258,0,0,0.8949848019710567,0.061902954389799564,0.6151666178598321,0.08582910237144303,0.7031076703832752,0.20108222298183204
729,0.8961417571086762,0.6689445827731203,0,0,0.7149447795606252,0.03928230694294189,0.5727869916324935,0.40231576115110423,0.23783951260698438,0.22654103837911954
