id,ASVM,GSVM,walking_nonwalking,normal_abnormal,ax,ay,az,gx,gy,gz
1,0.9895000492432505,0.04639768065783561,0,0,0.9663010733459617,0.07556061274179393,0.19586684584438166,-0.005817539972872508,-0.015564185822384832,-0.012579680260603257
2,0.9893350918617614,0.055919893544696085,0,0,0.9659551547077637,0.08347820580425819,0.1962052707491858,-0.01853028224080887,-0.0408775302390456,-0.007718362758216587
3,0.9901940954823696,0.06449088565984137,0,0,0.9583820722236213,0.07676080873370927,0.1861170708807521,-0.050480045247854474,-0.07634646585581419,-0.001053933676023711
4,0.9921474920413272,0.07151736342491016,0,0,0.9540466230582918,0.06537262921760435,0.16755589693686063,-0.06356824867225677,-0.08592257263731944,-0.006498204031621105
5,0.995148804899279,0.07664998376452639,0,0,0.9789433436047067,0.06150689624015867,0.15383409107461396,-0.06475579704222127,-0.09299919520030786,-0.015541114927306214
6,0.9990279535556916,0.07986734302325844,0,0,1.0025288099297078,0.05936615382986868,0.14557919200486222,-0.06076580246957515,-0.0871687747911119,-0.011948391308146018
7,1.0034985682212665,0.08151454679619133,0,0,1.002153627140501,0.06490710428128448,0.14369978091343294,-0.053467912640222354,-0.053415590782415596,-0.006170097330911626
8,1.008176612512052,0.08229140435874703,0,0,0.9965687373254998,0.04713144502665714,0.145916165747313,-0.0507806865870423,-0.036860086018742855,-0.02345800986869992
9,1.0126067894269686,0.08319667860748976,0,0,1.0004737785808033,0.04717686920728053,0.14277912558694206,-0.027196095895799924,-0.025730430224528276,-0.04949990622049807
10,1.0162947724115274,0.08544231886663858,0,0,0.9955701313888498,0.04858577219931097,0.1448537439611921,-0.004957999307959791,-0.0017864388743467105,-0.06724559597893144
11,1.0187455891240949,0.09035314398979497,0,0,0.9961692219503836,0.03010987920895404,0.14706832400876418,0.016843411504602966,0.03479712154426462,-0.06502126742087153
12,1.0195095813285315,0.09926377061570808,0,0,1.0022656870579,0.031142955701591597,0.1516478822000666,0.03027430837293095,0.0796770489336515,-0.0595855222601752
13,1.0182364780769595,0.11341827128426119,0,0,0.9937586678096617,0.04261141475448592,0.14679776341692574,0.03531882695602162,0.11723263336255015,-0.06222351127417283
14,1.0147355259443998,0.13387215821815798,0,0,0.9883217563706796,0.045815452366353156,0.14886263889914764,0.024353472579282668,0.1448747313454208,-0.07468561737527217
15,1.0090359791535184,0.16139355181808426,0,0,1.0056954294278209,0.04793939570025428,0.15422481036166205,0.019139320496098025,0.15529216213649405,-0.0785506818848126
16,1.0014382316575288,0.19636241257638165,0,0,1.0046929987261244,0.041978284691282286,0.15095123942283847,0.014006634419918342,0.1992511532694834,-0.07488572229064706
17,0.9925424209683213,0.2386730230728159,0,0,1.0033036745449597,0.025420964088603157,0.15439105753682403,-0.004828794812465334,0.2161352200203865,-0.0519413742340735
18,0.9832399568858764,0.28765290531485127,0,0,0.998759798255014,0.04796388053293518,0.14594637082252696,-0.015614673897037135,0.23528247236269617,-0.024536885347347735
19,0.974655562616535,0.34201735103308656,0,0,0.9967949416794701,0.06294784178962999,0.15555340454249553,-0.02880454772599918,0.2868566738000224,-0.016757894334900377
20,0.9680335366281857,0.3998791584415917,0,0,1.0023791467548475,0.0615956965879136,0.16358792387558854,-0.034858984542092894,0.375778284178487,-0.02594221573477477
21,0.9645717085093701,0.4588261577296595,0,0,0.9684196127589073,0.060649292785715944,0.2103466436851998,-0.006777106972748668,0.49389286807391425,-0.035409638487424344
22,0.9652193831822202,0.5160665833122459,0,0,0.9256783462733577,0.037029916066191854,0.23808461057973723,0.04008027249289462,0.5065827020289158,0.0029840836790115902
23,0.9704700760120636,0.5686297962412038,0,0,0.8865947538662461,0.011532970616250804,0.24333952175312076,0.10726741323184573,0.5078066774876456,0.10402063729439417
24,0.9801925655070727,0.6136018575968741,0,0,0.8258562107249754,0.03971693228638113,0.2143193561060736,0.19311328453434717,0.4794123993774296,0.2414956291918813
25,0.9935488971609363,0.648371255198632,0,0,0.7965582537942825,0.10393488599162726,0.1918238474435468,0.24162670280429532,0.5619606644448611,0.37103173465857753
26,1.0090389676008011,0.6708560138109643,0,0,0.8899968366529909,0.09655913515584036,0.23135541772373217,0.19694924610817888,0.6577974580143544,0.4412996767133465
27,1.0246847310399128,0.6796803912194769,0,0,1.0945115646841799,0.06872280653887172,0.2514067523565768,0.16459197876815493,0.566801362083977,0.42433197817185553
28,1.038327717654171,0.6742746018893438,0,0,1.158686234983069,0.058790499975446824,0.27813596488995995,0.20892239023390785,0.49644340422839844,0.32443503023188264
29,1.0479769910646823,0.6548888550088126,0,0,1.1037118859680166,0.018510644296448185,0.2776888653669466,0.3226394705086168,0.4416089998395918,0.19134974550847694
30,1.0521296799619764,0.6225360335462963,0,0,1.0371507457593663,0.06257332932837413,0.24319619753822408,0.4305320108992238,0.3945098302335494,0.09762020208708473
31,1.0500000136829395,0.5788914173021603,0,0,1.026483467640129,0.1313281461790138,0.2063593284254382,0.4458227302631394,0.35274824383247544,0.041654313169094966
32,1.0416246340198139,0.5261759077660972,0,0,1.0301774570776687,0.17123217221089054,0.1809374963147215,0.4508418858283128,0.30258898843567883,-0.003844962952552853
33,1.0278436702057863,0.46703679975491225,0,0,0.9934065900864981,0.2105916137738997,0.16932399168098966,0.3982145032172999,0.2781000746266343,-0.0325475773306298
34,1.0101779990180118,0.4044279051591547,0,0,0.9371004773207284,0.2293198835331631,0.14934361309444033,0.3237644796425894,0.2328217686318857,-0.05705623959326165
35,0.9906333341332216,0.34148504614933456,0,0,0.9126080862294154,0.22049904130361156,0.15968548489923587,0.2283048657732541,0.2036283588247615,-0.08086422718809441
36,0.9714647458002341,0.2813929951904077,0,0,0.9261290809490519,0.1666360108081137,0.1623416913037915,0.16799635965372026,0.1766171727365973,-0.130495845016871
37,0.9549323970911162,0.22724163402376107,0,0,0.9371017093097656,0.14689390391932425,0.148641415787507,0.11813517538622494,0.181418106051409,-0.15487053699290368
38,0.9430718220776803,0.18186945072186336,0,0,0.9471835329801679,0.1490560471680178,0.1411336561081595,0.07155115879083757,0.18414354240900785,-0.14242263295534377
39,0.9374934140994603,0.1476928329486093,0,0,0.9339102960457382,0.15724331518183776,0.13297311949845222,0.048619000552891437,0.14179609542600197,-0.12567694082024916
40,0.9392204457692646,0.12652426723229782,0,0,0.9223313916712608,0.14239250125266575,0.11147255390788406,-0.003777679533204395,0.06367080013997659,-0.08261954890148754
41,0.9485750209832956,0.11939360431312486,0,0,0.8931992340978362,0.11934766830694016,0.08017734666144871,-0.03905752506289621,-0.004997053088989963,-0.024397005051597958
42,0.965124821627805,0.12639985575481077,0,0,0.8905519256701071,0.11377711907340105,0.09399380835264506,-0.060146003744957724,-0.04093680410800888,0.025242549043744213
43,0.9877053148803588,0.14662815467707135,0,0,0.9364295811539903,0.12916862657234443,0.10197627557439072,-0.06292232798802572,-0.04599558363143543,0.024210295060821556
44,1.0145274234273685,0.17816148712662383,0,0,0.9730236030639076,0.18389571960092574,0.11594270261912364,-0.11873329722454952,-0.07289383385613653,-0.015212521772291232
45,1.0433684015655316,0.2182004163993284,0,0,0.9808177241299517,0.23880946314720977,0.09451582217644512,-0.19931740850988888,-0.12838279527262783,-0.06555015961634318
46,1.0718271254537526,0.2632827377367905,0,0,1.012988430855667,0.2451774975794163,0.23125496545898605,-0.30686598756485833,-0.05867087139599578,-0.11204959665750695
47,1.097609268850526,0.30957698927274846,0,0,1.1874472747688434,0.043208229966852245,0.3821574287523598,-0.24268182202596822,-0.06378099022910037,-0.21658898798614418
48,1.1187974041820565,0.3532155138140139,0,0,1.091431086896393,-0.053831911266798774,0.2761618614605408,0.005761543806622734,-0.2074603939155045,-0.21335845788255633
49,1.134059953685853,0.3906352857662498,0,0,1.0228592193108232,0.13930203374821076,0.30004060422103307,-0.12657370589818054,-0.23678626877438877,-0.10555749953623385
50,1.142762592441028,0.4189011540927635,0,0,1.221300414180484,0.15708083246871604,0.29172662488490386,-0.38029486542261604,-0.30762118741735206,-0.14685128657770116
51,1.144961910672188,0.43598731913057165,0,0,1.2380444026800188,0.1565483498572079,0.33953487330035864,-0.41816889126513196,-0.32378589619328707,-0.16547905837092788
52,1.1412786889190056,0.44098801707975804,0,0,1.1007662747838431,0.14584289291322727,0.4297537578254107,-0.33177948572026145,-0.2834371302168957,-0.05735656206888891
53,1.1326689257212175,0.43422723085691806,0,0,0.9551771733007629,0.03678363377041281,0.5102553409992306,-0.33192074439716807,-0.22211184173994153,-0.06248300046048567
54,1.1201384517443673,0.41724732995813374,0,0,0.7908722365900811,-0.0004797460974900311,0.4390488488835486,-0.320458177099496,-0.1789025429089761,-0.20520065429219103
55,1.1044736999396028,0.39267293731209135,0,0,0.7704842264436221,0.00980248157901632,0.4061839920889769,-0.3924017438260502,0.08195725758026319,-0.25502924421870504
56,1.086068315282229,0.36395932219049526,0,0,0.9766577698140808,0.04289029378507498,0.4224224906484266,-0.3925518217586188,0.12228231824051329,-0.1908185654650412
57,1.0649002600843533,0.3350433488540218,0,0,1.0947526650672244,0.06515835486081852,0.39964466134094273,-0.29934675609259315,0.04663008412822367,-0.09243424643946536
58,1.0406650475920605,0.3099263958663785,0,0,1.0050944483632271,0.035220317248380664,0.38334984683308776,-0.2710056563686987,0.0024425619447374022,-0.01502717354115874
59,1.0130229039236904,0.29223497672360826,0,0,0.9491097550488001,-0.01989617971811529,0.3439035684027912,-0.1668280232620568,-0.09301391388194076,0.014174590387294019
60,0.981892769735396,0.28481826291257606,0,0,0.9700158883143652,-0.08727910889166555,0.2858486144424526,-0.038243698763615684,-0.15054087735973853,0.015054478042781943
61,0.9477258424647881,0.28944166504948843,0,0,0.9561892740931015,-0.11242653966500443,0.22453630979880965,0.12085474359515402,-0.20199481253045112,0.06315585910001896
62,0.9117030656095869,0.3066179126399717,0,0,0.9472951526540973,-0.044729628425955535,0.19559247506765357,0.24428525324635553,-0.24641061868841255,0.12883136428944736
63,0.8758145430490348,0.3355875159156212,0,0,0.9223371824634805,-0.002914476635867039,0.16934707676549177,0.2656349163009906,-0.20747445872599696,0.181922614188503
64,0.8427934991361293,0.374432164285401,0,0,0.8801697563724304,-0.018250927128952668,0.16638771950780687,0.2804868598298904,-0.2039839125526924,0.21844992475650762
65,0.8158956330002791,0.42028991675834554,0,0,0.861474953761336,-0.022185712756626518,0.12165569615452704,0.3040790601356279,-0.1984035486756114,0.22548815642963715
66,0.7985368718079352,0.4696428832177946,0,0,0.8443393517217093,-0.03182548121798841,0.11774805343243293,0.3068894229957599,-0.047481474382558814,0.21968314088367358
67,0.7938268568098827,0.5186582503583167,0,0,0.813541120248274,-0.029532713319817043,0.0933830944926403,0.3225354700697614,-0.01397297506304672,0.18963537752597404
68,0.8040597521603574,0.5635688981612875,0,0,0.7173712880239925,-0.05712512066736064,0.06874678206996263,0.4420468990649138,-0.09854132766786126,0.13368925916624702
69,0.8302449209289497,0.6010704439469932,0,0,0.639281677212887,-0.0773977339531208,-0.0009091795300238662,0.6346322447189908,-0.357744881940557,0.041259483820053136
70,0.8717712569811867,0.6286874067399003,0,0,0.6966330032824293,-0.10896851555860704,-0.04592167478335382,0.8143710373353715,-0.32873315285026283,-0.053734176833219946
71,0.926291238988563,0.6450370917740421,0,0,0.7450910961339349,-0.013106727025224809,0.03876061345556653,0.9370793723978041,-0.24841596748090308,-0.10594290865590432
72,0.9898778479608059,0.6499198662242613,0,0,0.9224360794402294,0.10772009559687508,0.1556271317920359,0.6915959595067543,-0.013245601459119431,-0.03970151144245082
73,1.0574531588188703,0.6442039853853652,0,0,1.0942938947828575,0.11737560268668411,0.24598100538142742,0.32004010637373465,-0.11251198968329755,0.14287097527457374
74,1.1234262810263465,0.6295402530109473,0,0,1.129069894672142,0.13840997202979669,0.034675688196046495,0.0274930157414215,-0.30708111773584224,0.31807195114421083
75,1.1824288669532663,0.6079995984600653,0,0,1.2830036895530246,-0.08179150933218564,0.08948883186104298,0.06651354063558418,-0.3503756710111136,0.32799101937385994
76,1.2300117445004153,0.5817402879706588,0,0,1.6178392685973333,0.1700794573706669,0.0024313318869437412,0.2094507307064952,-0.2789487660175855,0.4439485583457298
77,1.2631709915893612,0.5527773695959577,0,0,1.3180915677328575,0.16338094263048988,0.1831841921772259,-0.22961130428821336,0.3374512503105034,0.5406453996021663
78,1.2806062535999043,0.5228728694258982,0,0,1.1472290960625535,-0.060680742161935974,0.5216501932982346,-0.06219765525186869,0.32180814066958136,0.3833771596094827
79,1.2826738615922624,0.4935234140868041,0,0,1.2967461850003035,0.3365836589900747,0.5844690698344084,0.0565313873482696,0.1508841725758925,0.36292232134176533
80,1.2710671391006059,0.4660049180579386,0,0,1.0597945291668007,0.3092906784928812,0.468291771569922,-0.2632477016829541,0.08034729230694568,0.4920555240545097
81,1.2483156624392842,0.44143343213238123,0,0,0.8319305156352934,0.10093736499599237,0.3792327907600887,-0.2292276393527435,0.03765787523752392,0.49463026909368624
82,1.2172305543065847,0.4208052777674079,0,0,0.856289133650618,-0.08951406459271194,0.46237093615203984,-0.3088742069810278,0.11794592044262663,0.3867370777975181
83,1.1804259940471553,0.4049875544394631,0,0,1.0590564332077088,0.008098473640108052,0.4906601091660404,-0.2996703379913403,-0.04345197370146528,0.2314309200182753
84,1.1400126160722732,0.3946478451749518,0,0,1.1163170472229007,0.1329101315403273,0.405891837534417,-0.43787567511290076,-0.06378668350435937,0.07206845035707744
85,1.0974963587810411,0.39013785855601835,0,0,1.0313372198461876,0.05366720239156329,0.4386840034869987,-0.3727845288885519,0.012214148122618961,0.028385528006254556
86,1.053855412263956,0.3913700215161602,0,0,1.021810621437567,0.10152509574378056,0.40315613563602254,-0.20061607246830682,0.03891659089092767,0.04007001114024696
87,1.0097332923967908,0.39773976309784653,0,0,0.9604162305808366,0.12201032353344095,0.4001175449187615,-0.2231369175837344,0.11223525612323768,0.022160031582637647
88,0.9656804255478356,0.40814363952783106,0,0,0.9066754976876845,0.10900983409657804,0.36304161221281994,-0.2767571891336095,0.10411905993713537,-0.09908756273789923
89,0.92238741002588,0.4211204198790876,0,0,0.8537856796930884,0.11857447361130416,0.3292164783581387,-0.317944379542364,0.06411019068730042,-0.24409804829458873
90,0.8808682883000006,0.43510146572787595,0,0,0.8504791509226267,0.13019130997720985,0.2879480371088377,-0.3795279751549863,-0.05903714436754062,-0.38334430007031195
91,0.8425656970354838,0.44871232501698927,0,0,0.8273118995117724,0.07808980023436206,0.22710793086334596,-0.40604517451711497,-0.16928491799005363,-0.4992860059449057
92,0.8093600766087818,0.4610392323839674,0,0,0.816023678560969,0.06009343651666364,0.1882750983225287,-0.2848526129215732,-0.21503152481530236,-0.533037068120615
93,0.7834734979429685,0.4717770005997246,0,0,0.8393956699546054,0.08777312479041187,0.13368019468063963,-0.15434935403521033,-0.2006849474622452,-0.5226112979320714
94,0.7672678713822795,0.4812110162133226,0,0,0.8355284113677699,0.06885171711710054,0.12395674702446365,-0.05328048110473142,-0.13117320506126753,-0.43494356611762164
95,0.7629502232134828,0.4900432770875192,0,0,0.8140219127902012,0.02473078341584905,0.10637811834779747,-0.046669468801099095,-0.06791508052684316,-0.29675748585844625
96,0.7722163180679344,0.499127194043674,0,0,0.7448163661437279,0.009950877860277214,0.08696303409334862,-0.1018215014906803,-0.007342595888907835,-0.17532813119111057
97,0.7958870238368325,0.5092034319629333,0,0,0.6183783356198398,0.07779810549826219,0.057922183140706476,-0.23446236353490157,-0.2786609642134121,-0.10514916318730136
98,0.8336122693424513,0.5207148921930567,0,0,0.5718370146151476,0.16044188209288568,0.05629017737505837,-0.5317969512444916,-0.35690498317971825,-0.02871781814831038
99,0.8837223335067962,0.5337291010841992,0,0,0.6959806331702578,0.1931775105439204,0.1908697146259025,-0.7455430565231008,0.046705113108560285,0.06084153722803839
100,0.9432839879352638,0.5479391670990846,0,0,0.8925452610439547,0.19746657599033302,0.3147797345093904,-0.5908356555999997,0.3761348244659464,0.1725998388009022
101,1.0083706608821192,0.5626854967694949,0,0,1.0822352833245108,-0.10842010520424109,0.343900182009675,-0.505929429851893,0.5305225238873597,0.15513203200732437
102,1.0744995451643764,0.5769570818231475,0,0,1.0877133635340732,-0.2303519515637905,0.1190752237994547,-0.2235490610348014,0.09953983301993263,-0.09360564912502618
103,1.1371493144986218,0.589379942964942,0,0,1.0747903384373805,0.19475161270834218,0.01794505234136283,-0.22779923246944261,0.002980530864978504,-0.2508136807688415
104,1.1922621773640445,0.5982456307275382,0,0,1.2191508115835907,0.3594243850612637,0.05556187634907822,-0.43013937177022976,-0.015794240918894566,-0.3549275296233049
105,1.236645889642908,0.6016407476605874,0,0,1.4688386105853304,-0.03778398786381712,0.2678946206016923,-0.16382724165282828,0.024286306022368687,-0.499408428542373
106,1.2682120243578014,0.5977023988248364,0,0,1.3898545116908363,-0.14349938944323956,0.4571408061166067,0.42795504413787955,0.002874990021262427,-0.5438329992107392
107,1.2860154082661874,0.5849684669033932,0,0,1.0940752223171883,0.05541711992088753,0.5824113984213274,0.4316263042610901,-0.0017915016047186367,-0.42838963501994587
108,1.2901033233543981,0.5627471525270105,0,0,1.0433157477596786,0.12533535415129343,0.40783005260295035,0.12658617941781708,-0.19231542914827476,-0.573849908674444
109,1.2812359724610072,0.5314122713139872,0,0,0.9371146844916489,0.04292174615380595,0.41097079970792266,-0.2271311624937768,-0.0916939789851084,-0.7740204814526148
110,1.2605767680169402,0.49253825561235154,0,0,0.9927283795465284,0.10049560908824315,0.479540319692132,-0.23832232236915862,0.20254365269232327,-0.6506222966834655
111,1.2294483054523235,0.44881856594395686,0,0,1.2004823977750665,0.005373519360578735,0.5465772421811527,0.0015364123628348204,0.16930572827574522,-0.3660702102379399
112,1.1892077174103963,0.4037618276803461,0,0,1.186883639217466,-0.04322617865814994,0.46305040440907863,0.2533566055350593,0.05593663207129772,-0.18755368242622672
113,1.1412391957825967,0.3612211253040038,0,0,1.0877234430612306,0.12937450279671395,0.42758604529783295,0.2271081713469442,-0.036873841625091705,-0.08168300377233122
114,1.0870225788952497,0.3248602373937241,0,0,1.025002905256831,0.02103677468080004,0.34784568521312925,0.10334770757817473,-0.05842636622306788,-0.05065484496890802
115,1.0282278981492967,0.29767520582832424,0,0,0.9862221584251938,-0.05931978588838655,0.32298818894285575,0.157813013370168,0.01090479333426965,-0.0789432542049585
116,0.9667970862625175,0.28166728559852183,0,0,0.9825535665306061,-0.0724277280532719,0.26622925101945755,0.2056222245098658,-0.06965034916741121,-0.04423439428797897
117,0.904989311496023,0.27771619803388586,0,0,0.8376468653147904,-0.0420608988866515,0.23622306312614963,0.26377351573563024,0.005335669000727127,0.05090455347472522
118,0.8453776849669888,0.2856479567760132,0,0,0.7916918816145199,0.02671767074983511,0.22759434211890267,0.3140483667533577,-0.15183468589376276,0.14664208800772224
119,0.790792473684387,0.30444569648482867,0,0,0.8017318241533433,0.053164686137664716,0.16506080923603628,0.34623864653352315,-0.21633018689736191,0.20619499896516272
120,0.7442101660470328,0.33252720110959033,0,0,0.7299394240576851,0.00675391003026897,0.2043602259221936,0.3262045850094193,-0.0888989694383313,0.19709183976414993
121,0.7085890893325184,0.36801441069396784,0,0,0.7404770669342877,-0.04759372290035581,0.1734785615741276,0.3175819430021633,-0.1378374933843789,0.17803664426975388
122,0.6866535847280831,0.40894387166983165,0,0,0.7260393782979812,-0.052831510318465225,0.14984183440624754,0.3388539662059789,-0.10836317265456705,0.16905696331723138
123,0.6806343007230022,0.453400015864466,0,0,0.7424234532891401,0.01761478182311658,0.10505305708705252,0.3538998526339523,-0.1379005704526483,0.16182254755499326
124,0.6919843312447163,0.49958032145566855,0,0,0.6843825841118546,0.03532115518456814,0.07232577387566982,0.3794334680001422,-0.03359888452370782,0.12371636573984893
125,0.7211086212018231,0.5458137165120753,0,0,0.5880393493438736,0.01997634019811247,0.03053784432827055,0.5050973576447098,-0.16959324246753185,0.06259214152780618
126,0.7671617458289063,0.5905502922647564,0,0,0.5213873959065486,-0.15228343662649843,0.08038004443347853,0.6728812321557526,-0.28443623209333135,0.002605468731693515
127,0.827975970388882,0.6323282527633735,0,0,0.6137581004368501,-0.13580788211416248,0.14581099774570377,0.831503313073402,-0.21602434403981405,-0.050909738435961166
128,0.9001653980066348,0.669716584472523,0,0,0.9178753226649397,0.09929615147593755,0.284738131703228,0.5886645495956865,0.11795189204990442,-0.01847846324709952
129,0.9794107512479423,0.7012423966373956,0,0,1.126516103741878,0.28732452557497623,0.2794720990457793,0.1867587413956968,-0.339615462652116,0.1831418549893902
130,1.0608788153120787,0.7253376046989327,0,0,0.9767036747041988,0.30733995948760234,-0.07148052810647326,0.015018666988412454,-0.46085779226540013,0.3218557873132099
131,1.139696765749901,0.7403568523619269,0,0,1.015057873144021,-0.19237481894663372,-0.0392885681690259,0.3214948820992005,-0.4364688114267115,0.34430644904003554
132,1.2113976321118474,0.7447032628002701,0,0,1.4162125615211292,0.043405697094856796,0.12449743744141323,0.5954808402605339,-0.38611158557007197,0.6087570564906941
133,1.272268918515694,0.7370536027893007,0,0,1.4899722333835006,0.4316768336930017,0.49415168071412463,-0.0794219596511075,-0.14451581993709695,0.8544600307216033
134,1.3195584076134224,0.7166293447146455,0,0,1.0012256785328364,0.14805056264568037,0.5978535541738094,-0.3531479420876954,-0.22772341112387853,0.6124021584138087
135,1.3515217942019364,0.6834433603981944,0,0,1.0334341099558217,0.1462695045406048,0.42886904064720566,0.052547976857733374,-0.34585755065564305,0.3457383666830616
136,1.3673384917675693,0.6384655603115543,0,0,1.3463671551577618,0.11463810451813834,0.23094611703900958,0.20989603718199215,-0.34767430004295957,0.5907220516465647
137,1.3669559141314145,0.5836729583305428,0,0,1.262042459202471,-0.11010578913096038,0.38865440154410535,0.18279977936322092,0.2230972837765603,0.7973408089491446
138,1.3509262533792132,0.5219626461552094,0,0,1.2025129328400341,0.008400499806106014,0.5868090316112201,0.0323211369616073,0.17105770943585646,0.672981456723128
139,1.320276624422544,0.45691720456465656,0,0,1.211408789985672,0.2029252776019526,0.5298895529526592,-0.10488707063159647,0.02251675682228409,0.3637341658890307
140,1.2764257514208044,0.3924393831239675,0,0,1.1909935178551438,0.1180679392626365,0.4296609950911303,0.00602282000179724,-0.00702858385944261,0.19571397060156343
141,1.2211427563149768,0.33231449914891165,0,0,1.1629905564017209,0.14532536993218162,0.34690517215436784,0.1751129851920482,0.006593476200409608,0.1840687262784879
142,1.1565361979161335,0.2797889788283002,0,0,1.1043134010959714,0.11687465196371445,0.3075194442882354,0.1389398344165208,0.0872716997490614,0.18045246269437815
143,1.0850594773577198,0.2372509270652851,0,0,1.015528800534703,0.12768930108282242,0.2855505144214904,0.10430263747791749,0.09733536011226702,0.10661088944905996
144,1.0095182510084406,0.20606881640593439,0,0,0.9738612368560824,0.1467409025106297,0.2811458940113077,0.05144759311310884,0.12427057463109761,0.00627483941530528
145,0.9330645146079735,0.18660706795355148,0,0,0.9327542357266112,0.11824157748085154,0.23984704122379577,-0.014369017720495092,0.07925412288202299,-0.12017209971264912
146,0.8591606436286552,0.1784049129001069,0,0,0.8314417889062112,0.11303401417758976,0.19954485600365654,0.038582135344911804,0.027356442630996434,-0.19289660459956526
147,0.7914968718599108,0.18047870068391594,0,0,0.7837398550711707,0.1261096393336518,0.16352173566129966,0.08508587915353863,-0.07687082774877191,-0.19661559213412183
148,0.7338492943780018,0.19168762764006197,0,0,0.7895042062780697,0.08208166689907892,0.11277933213372543,0.08585022983034546,-0.12934480588634137,-0.15747567097750473
149,0.68987266367163,0.2110918603848653,0,0,0.750296974426797,0.04744718794327891,0.0765372269423146,0.12526193788218482,-0.1629768001853663,-0.03405895219804477
150,0.6628328467735293,0.23823228864034637,0,0,0.6678818435911721,0.04687146395399217,0.011494676333139298,0.10276311368703384,-0.352815188499078,0.12459879768627376
151,0.6552983666104599,0.27327092768204464,0,0,0.5929829644374555,0.11197155500097347,-0.0008885186593774552,0.06243348997321754,-0.3457255810064165,0.29291005516607543
152,0.6688272735538965,0.31694939661655064,0,0,0.557361378067126,0.15103228087342643,0.06097789935879066,0.009232542932165353,-0.20154375787253795,0.3915751940571756
153,0.7036981391212177,0.3703535659027614,0,0,0.6146619431164727,0.04712923150849904,0.13582213229251666,-0.02988210324986098,-0.11588510134652821,0.41342684588555756
154,0.7587344625644122,0.4345176248943258,0,0,0.7440871998238113,-0.08222292223573242,0.20921281138396627,-0.006275136425569859,-0.14466024808900674,0.35376154576472246
155,0.8312584453275126,0.5099525245434813,0,0,0.8463131227325784,-0.17146779136621038,0.1990472964294402,0.04760283015784865,-0.11852884704869875,0.3052719476143474
156,0.9171900206103176,0.5962246281593586,0,0,0.8474973782242663,-0.14520488836974788,0.003824205704105427,0.010079072024419534,-0.041926830025031565,0.27686525821267166
157,1.0112905010305901,0.6917221336503658,0,0,0.8081336254448047,0.029061850380536814,-0.013442670619192895,0.1851468577984902,0.2243398477802125,0.2392594142017577
158,1.1075399486295838,0.7937171846444385,0,0,1.0244900948841609,0.03618068063990578,0.18750192949818514,0.48359033521258915,0.10623489699604267,-0.03334633032159179
159,1.199624660431287,0.8987589980739564,0,0,1.1621748001867787,0.04331280405130245,0.48095269645559513,0.8933585708725523,0.07419491915364221,-0.4578846215290161
160,1.2814875231210836,1.0033320506129795,0,0,1.2030541253503626,-0.18466909746626362,1.0211015879293954,1.2179563877467667,0.36111446076581666,-0.48479953730160674
161,1.3478673025176262,1.104616271403158,0,0,1.2629313837277758,-0.44420241454030823,0.5777101863470121,1.5972345854393073,-0.009053478256166356,-0.39051329112207317
162,1.3947450355877913,1.2011368799166386,0,0,1.1585891841724738,0.1313510327312398,0.14916294528791446,1.5175195519049065,0.06825139664618313,-0.28861908815962023
163,1.4196385113135404,1.2931212594346881,0,0,1.365336292891893,0.5406495368695922,0.34902791209690853,1.0413760727687638,0.047749528679049705,-0.23780495298299992
164,1.421724684353642,1.382481325059681,0,0,1.442150768906652,0.17923313268146132,0.4883324083026319,1.098609338267886,0.05535833611083272,-0.11499936879634484
165,1.401799658146724,1.4724606491227024,0,0,1.3077474152638344,-0.3021686338312105,0.4629478547404552,1.4517917062996062,0.1544425139215691,-0.018948578967864612
166,1.3620999461000336,1.56706391418707,0,0,1.2057439893579893,-0.15963934405602578,0.34027446339877054,1.6576490191079514,0.2491689108989727,0.09510133280239165
167,1.3060183747284644,1.6703980892897663,0,0,1.2138926941475805,0.03362931663127912,0.3174918893185941,1.5702783044964912,0.3770313994758552,0.16825376228344954
168,1.23775798860783,1.786027308670795,0,0,1.2065440265584704,0.008484618136139094,0.2850622604131006,1.5655079535835643,0.37984649681836596,0.29285748088829683
169,1.161969788832848,1.9164159663669562,0,0,1.13621356636373,-0.08062491424702575,0.23906509135177112,1.6983637758129508,0.3845739027188737,0.45810205313275865
170,1.083411124241027,2.0625173946311466,0,0,0.9981309874047233,-0.14119983507092518,0.22338559988316697,1.9071615607628236,0.4059377510869324,0.5943544765646499
171,1.0066477382624293,2.2235452908946316,0,0,0.9639874882761739,-0.13496110748087614,0.19329287193364728,2.1077296580721785,0.37088596987426015,0.6983800032249385
172,0.935810807840609,2.396934992902935,0,0,0.9186252007593182,-0.11526069883066693,0.1579857411946549,2.300063555635659,0.40183916398559555,0.7658464305122097
173,0.8744113014654864,2.5784721015988996,0,0,0.8948714215088971,-0.07258937412876904,0.13946151110449062,2.481910553750499,0.43238136574623603,0.8150490462610075
174,0.8252064412936743,2.7625505473758616,0,0,0.8439937076731735,-0.04329723524201947,0.14442584608179893,2.605720206973444,0.482067009613199,0.8403218142242506
175,0.7901088381943934,2.9425248808144073,0,0,0.7983074385874713,-0.015687408363885803,0.13449870218300947,2.7246382909854496,0.5497738237705593,0.8395055417729359
176,0.770130604457417,3.1111355910754175,0,0,0.7446795365690346,-0.007114429162039358,0.13813858869708298,2.8515706252968664,0.5976108388891571,0.8028770864307209
177,0.7653617561317346,3.2609998551762973,0,0,0.7220452202193677,-0.011212794743860813,0.1434752380330013,3.0043219696777084,0.5441667361261215,0.7394608697720032
178,0.7749902446913972,3.3851623990295896,0,0,0.7419899928226623,-0.011445841381137318,0.11073953905613777,3.193734863551766,0.5699794782489063,0.7139699899468637
179,0.7973751118338231,3.4776869531650645,0,0,0.7413309800004363,-0.03200892329631941,0.10262892945178223,3.4028808371716575,0.5202192993584406,0.7195948487718534
180,0.8301818410824088,3.534241960606702,0,0,0.7680804238313795,-0.04147380682167215,0.08176411177370954,3.5907230049316867,0.45256728165622234,0.763891697949306
181,0.8705799912630815,3.552607555789262,0,0,0.8304336841315352,-0.09471063381221333,0.10529152793429221,3.6109976579467356,0.380691967063973,0.8454982677754261
182,0.9154892256172749,3.533020883052446,0,0,0.9681058172125586,-0.11474280475439409,0.16925401945064802,3.4308479372886453,0.29730881398341696,0.9259992215873555
183,0.9618442526774883,3.4782934268027463,0,0,1.0830198016465988,0.027324344293234194,0.1663093828738417,3.2787250508138372,0.40559981456544436,1.0059228223044923
184,1.0068387286808507,3.393671644331084,0,0,1.0648781377239114,0.09782780258171207,0.12345918697689318,3.184624707401895,0.5020726757094489,1.061722723725239
185,1.0481111211100889,3.2864527256664355,0,0,0.9871376685393959,-0.030808433245334298,0.12015750528943457,3.0698720328878077,0.4781288170512037,1.0110034840844715
186,1.0838540667264596,3.165394527221618,0,0,1.001390425272292,-0.031643922251797935,0.12363895963634138,3.0378351914646364,0.4605915917405852,0.9515291252517771
187,1.112853273938964,3.0399700227353392,0,0,1.011108688244212,0.082915939998717,0.19225820847643546,3.0071399799607343,0.44687025579118433,0.9826940269876916
188,1.134476891278596,2.9195215604260305,0,0,1.0546802705404634,0.2687684805993181,0.3425345860849049,2.750198047820197,0.4706716785346235,1.096605430690942
189,1.1486332363111549,2.8123810216240654,0,0,1.1145740068867225,0.4558187702845932,0.45267108819798413,2.3776500484088365,0.5192144078215221,1.190090923583087
190,1.155700388363378,2.7250433552990168,0,0,1.0613250754591903,0.4508030097247524,0.4760072521805322,2.1236309469434222,0.5919945171733323,1.1996704181666948
191,1.1564213355190618,2.661503208996372,0,0,1.076172929264706,0.33952215031390287,0.3597914336981565,2.04449778986439,0.4840834675787593,1.1817186317543094
192,1.1517651976688725,2.622866957351161,0,0,0.9995344246278808,0.048708409182882405,0.1557243640408087,2.178848232939144,0.35253106360296016,1.0861176194476683
193,1.1427756626356582,2.6073199385614374,0,0,0.9672134988484562,-0.03872214934575164,0.06656549215184077,2.3736276700839984,0.343526829775763,0.9098732850446436
194,1.130445112263217,2.6104651072237344,0,0,1.0991931775237158,0.15688911517338106,0.08722366315821109,2.4798364988137105,0.31659578611767425,0.8798792336345601
195,1.1156498033278754,2.62597635243805,0,0,1.1289396457704592,0.2430840598735961,0.0726358035479138,2.510433638121145,0.30227314178308834,1.028294300111501
196,1.099156472220462,2.6464526802635047,0,0,1.0982965894877532,0.2242239649301709,0.06071423273963518,2.4827662892411397,0.31366278533578906,1.162254259330481
197,1.081679648632514,2.66433353410174,0,0,1.131810199296915,0.16693486267974,0.02815933831853222,2.4927977349332964,0.32724859146960744,1.1652086852970784
198,1.0639499493392615,2.6727417624750376,0,0,1.1224474947392948,0.2230827591803513,0.059529841678978374,2.512154550114214,0.3302882603635589,1.1194853418746205
199,1.046753294243995,2.6661503620066727,0,0,1.0484609320093563,0.24337430540839236,0.110336816348641,2.4752417169657943,0.26138262955351094,1.101861377908921
200,1.0309151452474428,2.6408103157368163,0,0,0.9969314498712135,0.2671459860795384,0.1272317338557461,2.433811996535155,0.19984620976778567,1.0748702783487336
201,1.0172252788131484,2.594919294265672,0,0,0.975964028758818,0.2594766542402624,0.1409220704797865,2.3841836815961592,0.2154011982754977,1.0239521498548967
202,1.0063203689509417,2.528547513226808,0,0,0.9136718826952804,0.21276103323027798,0.1604147627535122,2.352772016035276,0.22024311264065666,1.0375130572393068
203,0.9985576020495979,2.4433643667714824,0,0,0.8593875498779965,0.2318813152237557,0.20550476872558457,2.2413458840910967,0.21223724526600168,1.045421499844271
204,0.9939183520266454,2.342228585352319,0,0,0.8835099076109935,0.3064764257143151,0.1907113594828001,2.028533557175194,0.213167653337356,0.966932502454018
205,0.9919750096225923,2.2287182684409146,0,0,0.8941997093431773,0.34996860003463326,0.2056466048301506,1.8531001822603757,0.2642743946130691,0.8608047350047212
206,0.991938279111569,2.106683720363924,0,0,0.9061041298314029,0.37430108350321506,0.23827583470906466,1.7577895026244832,0.27088265857477445,0.798553865168831
207,0.9927826089189217,1.9798979116173754,0,0,0.8868296056077618,0.31298486384368085,0.26574879493691295,1.7161958889035325,0.24442025409573206,0.8232346030316754
208,0.9934311448053231,1.8518504617892868,0,0,0.8820741173740865,0.225401917901942,0.2491602010863077,1.666181093156342,0.21634459135367753,0.8446339828735354
209,0.9929717749855217,1.7256868038732887,0,0,0.9361596641336479,0.2209401591501007,0.26574500461229916,1.5707388427271858,0.24245949620820723,0.8459060199063781
210,0.990869927728064,1.604251432808927,0,0,0.9909482886801518,0.23949062356356618,0.2430615938753652,1.4263833332130462,0.23258476341914802,0.8368860221820142
211,0.9871387007257416,1.490169362830996,0,0,1.0127620366322638,0.2910021810974853,0.25017568552751446,1.318780074570953,0.20578876849945657,0.7822238740509123
212,0.98242475134725,1.3858987721263643,0,0,1.0338447397018578,0.2483947133485644,0.24666517925343495,1.307853914423926,0.07952202805525965,0.6882505130020987
213,0.9779755002705486,1.2937051277909437,0,0,0.9779033802948588,0.21372824833508136,0.1811854975774185,1.3163904536084825,0.029265774445379665,0.5533755397625413
214,0.9754733929625549,1.2155349798854482,0,0,0.9190064064842904,0.2563670722222897,0.1579050542501953,1.193142951776393,-0.031663410823313975,0.45027035142653254
215,0.9767524003239562,1.1528015834050966,0,0,0.9204855851958225,0.27819223417201927,0.2000199619832437,0.9940473688073044,-0.09203447261320687,0.40370795251787195
216,0.9834410470547091,1.1061307745644922,0,0,0.9001301708750226,0.20778382876320245,0.3232569822596702,0.8661254705109686,-0.08591768367361806,0.33653164697145926
217,0.9965965043493847,1.0751444995371207,0,0,0.8234491589277143,0.0725373309573189,0.3422332593853994,0.8122873493819074,-0.1299943953820724,0.2338731744681228
218,1.016402468649807,1.0583661707482108,0,0,0.7689411917818456,-0.005789119223979166,0.33124218339935324,0.8346960526514862,-0.17569599204961564,0.20554529511575628
219,1.0419988071778452,1.05330621228782,0,0,0.8282161749847748,-0.04041389115231846,0.37642842223147344,0.9257289531118418,-0.17814140541098572,0.3190519880472392
220,1.0714905491348548,1.056731451473755,0,0,0.9562164428533576,-0.05137876105925517,0.42541907191406586,1.0781581005592142,-0.1210424221397152,0.5422293664569068
221,1.102146787150073,1.0650575099867536,0,0,1.053823079558704,-0.007407412089673729,0.4976666695978143,1.1692659067603146,-0.05110639671828586,0.733575378684967
222,1.1307548481343463,1.0747570113632585,0,0,1.0791816269018868,0.013807807828997189,0.5367097290370558,1.1354135222750543,-0.054512312048786773,0.7691210793017792
223,1.1540583067844847,1.0826733829625939,0,0,1.111408928463887,0.05644222282681068,0.5524670978690013,0.9660844888058441,-0.07245826517332989,0.6829500215161485
224,1.1691926710703444,1.086178068427466,0,0,1.151441798171747,0.10933249496537338,0.5175419273962526,0.7513372641035829,-0.06523107227353682,0.5553579076648009
225,1.1740420109279461,1.0831889680046192,0,0,1.1283088122569658,0.09497996982666902,0.4784644298724246,0.5983026388584801,-0.06717033308734442,0.4822156564475984
226,1.1674660827354995,1.0721398357866605,0,0,1.0703671112840574,0.008132649032264985,0.41496693198283724,0.5817998844395893,-0.04461848647044443,0.4591604044658662
227,1.1493802752436726,1.0520148046892088,0,0,1.0847779847795975,-0.11620699370013411,0.36207015935015224,0.6882142304872768,-0.028531458351768187,0.4694091458973186
228,1.1207003937888182,1.0225233871109753,0,0,1.071392280690133,-0.18151773565458693,0.30883648465825625,0.8705744061820824,-0.013577713797418017,0.5371986726350602
229,1.0831843606770775,0.9844054292422424,0,0,1.0062530344025697,-0.14144695640698707,0.2825741602794592,1.0470026902832916,0.031048873315954663,0.622616229540741
230,1.0392120897375343,0.9397615733515569,0,0,0.9561658656174078,-0.05916235891813961,0.25113996675434924,1.156505174874323,0.057189142118893116,0.6505188469155901
231,0.9915458222076682,0.8922459843290923,0,0,0.8939726782248347,0.008704065699297565,0.24300457587859817,1.0768689302330117,0.0798250666779923,0.6190045810213687
232,0.9431081629149584,0.8469632189981283,0,0,0.8835324235854057,0.027787189353206575,0.24150173373067133,0.8731152044979089,0.05716764886073006,0.5494339196915344
233,0.8968038614370122,0.8099820751729044,0,0,0.8331872765253638,0.048952396987399324,0.25185480467722793,0.6563847353175911,0.022066422582153276,0.4860191165623192
234,0.8553949376333413,0.7874899325039563,0,0,0.8115524311079397,0.0034837629048627694,0.2583094146173898,0.4765369968631517,0.018886311077938152,0.4608406747247426
235,0.8214208585687217,0.7847202450401483,0,0,0.8326253328631742,-0.0512736671829806,0.21879495178564734,0.4775520663602236,-0.08745725634277014,0.4164649957564603
236,0.7971410846883725,0.8048578714452755,0,0,0.8496306068879915,-0.05545853370400967,0.18580075185332423,0.48582438429522196,-0.05058452534491301,0.36176678627417985
237,0.784470468234721,0.848146680092784,0,0,0.8202157304960498,-0.05678191909554611,0.18276327634872339,0.4820367084773848,-0.02854544345641734,0.32208036859419215
238,0.7848813267399392,0.9113958624670507,0,0,0.813685979051883,-0.049533049046774795,0.1520821061785699,0.5285952714956667,-0.10945516319473808,0.27947528028312413
239,0.7992597759308063,0.9880178012292793,0,0,0.8194080319531422,-0.018858957788129696,0.12774075131412407,0.7081910568273472,-0.19353017502496297,0.19150795823424283
240,0.8277247783394502,1.0686416817003206,0,0,0.8333436079908277,-0.04418705434789368,0.11496448479175,0.8776444082997946,-0.4252297294369302,0.14831495728670405
241,0.8694406745047076,1.1422438831578585,0,0,0.8417177046513399,-0.03154907101276997,0.035022953371310075,1.0500094430878242,-0.5949824769420947,0.12273361289660077
242,0.9224724422402344,1.1976353910381994,0,0,0.8185679099976326,0.027630588120803067,0.012665900208721543,1.2161193147811271,-0.5286299590784542,0.1059931463377008
243,0.9837433658209184,1.2250699973792467,0,0,0.8220182826638608,-0.03233494424331978,0.033249459652303345,1.3354503968626112,-0.5250637079484516,0.05597595844189011
244,1.0491524234806213,1.2177025403507007,0,0,0.8462169402680108,-0.057366953855675334,0.06284425490108562,1.4970956520563488,-0.55186017448755,-0.012393254923791234
245,1.1138880191777263,1.1726406543098413,0,0,0.9534619259543108,-0.002217356495780038,-0.015641926829067326,1.5547927268914619,-0.6425382817735035,-0.06732547625895184
246,1.1729328146953744,1.0913959058681375,0,0,1.1283250322410414,0.03126780386409348,0.1487271775162162,1.3661791860880248,-0.1833261142362146,-0.10055497422324501
247,1.221696289704625,0.979647352241082,0,0,1.4416408151393647,0.35005895844902507,0.5092134856662425,0.9655528974602853,0.2649604025395075,0.0027046292478044133
248,1.2566542743232691,0.8463692001978904,0,0,1.399526547243112,0.620633384768372,0.6859981126030983,0.34080355461237233,0.34138478745141015,0.1802285293257224
249,1.2758458523749339,0.702510590392818,0,0,1.0825792731030277,0.465263874728909,0.6894731159951453,-0.20136535268186354,0.04662549039898004,0.14461192892826544
250,1.2791018650344856,0.559502559120589,0,0,1.2736333935693258,0.01841034425367839,0.14743714361693697,-0.25253163479829477,-0.4189090679476964,0.0681634992012351
251,1.2679531839387057,0.4278730606576768,0,0,1.1672708146426272,-0.34096994882912274,0.12225705618509712,-0.03682187086325611,-0.1000274683278562,-0.02970667680982892
252,1.2452564302707387,0.3161824165073239,0,0,0.9928009924548801,-0.08875973500107777,0.5083287540410353,0.1659827719282275,0.009337765542711728,-0.1366980322372968
253,1.2146395672811405,0.23038638882101833,0,0,0.8901092389813459,0.2823846201661683,0.6730246688678795,-0.02910178176259147,0.16910714105111113,-0.18779157737418184
254,1.179892653297766,0.1736309064701192,0,0,0.8329727036012907,0.2845500204240167,0.6121751944037377,-0.29954507259993973,0.10016780984715414,-0.175293596327928
255,1.1444174235745275,0.14640447176530372,0,0,0.9441770910085047,-0.02590986153157792,0.4474801980969336,-0.2612477471925377,0.011437923907470943,-0.015230597469237127
256,1.1108185298428228,0.1469338163964162,0,0,0.9814110831312973,-0.16763698356820086,0.40781352528556003,-0.05555406173709779,0.06065031143539009,0.1310507314429529
257,1.0806810291145958,0.17170825691801278,0,0,0.9386379069527878,-0.07854607374555299,0.477644016415526,-0.04125754104925913,0.09005503879797137,0.08802848062337859
258,1.0545406131402686,0.21604519412217657,0,0,0.9206632881692245,0.14142113656396954,0.5021449252199452,-0.14512551330768175,0.11372338918529182,-0.046715030997617264
259,1.0320208317188657,0.27463968412300194,0,0,0.9247064952213007,0.2523445052348688,0.4889746014314491,-0.324084273365434,0.16938662066190885,-0.12606347265228854
260,1.0120896254782843,0.34205932891271856,0,0,0.955996134988547,0.18478977378768674,0.45660405772353646,-0.39986603423032074,0.17327234815513956,-0.11864681913425276
261,0.9933780134882281,0.4131546024949349,0,0,0.9442853103662772,0.05241056149051502,0.4038568043901602,-0.3818689302812474,0.19694915480800623,-0.12675062121049144
262,0.9745064535113962,0.4833667744429931,0,0,0.9042059548461846,0.03251403559722671,0.3765029215591828,-0.32769534739012296,0.12460904902472679,-0.18929786249543382
263,0.9543762513336574,0.5489362875604625,0,0,0.8517119807321974,0.11413593490763685,0.34905867258092804,-0.3462183646450734,0.11497480806510778,-0.23457820504345359
264,0.932398619237296,0.6070345544802148,0,0,0.8711217158808907,0.1845591669223274,0.3210947945127752,-0.39688678667846505,0.0007666571359726342,-0.3063962943511736
265,0.9086461298993894,0.6558467628389532,0,0,0.8764338769835958,0.18172280065553195,0.26479704420247346,-0.47885988197473733,-0.12178858240988971,-0.4251842199286273
266,0.8839176073256417,0.6946167864325546,0,0,0.8676384261336616,0.13598312694777046,0.23866632508121868,-0.5574194730025531,-0.2192050630863908,-0.5102571374038833
267,0.8597104573230088,0.7236372729550817,0,0,0.8627946042342959,0.11545896090353754,0.20126051635017914,-0.6276396221027332,-0.2667803887742012,-0.5679849335899266
268,0.8380986206965079,0.7441469396973946,0,0,0.8217307832187705,0.07855776166149736,0.18878647437865625,-0.6455377746586934,-0.2556008148700431,-0.5916510534119889
269,0.8215220006700641,0.7580990964782014,0,0,0.8470966284321064,0.031499595406707805,0.1445448629598515,-0.6004107259586827,-0.2573126982078031,-0.5578535439492114
270,0.8125034929064153,0.7677950702021425,0,0,0.8198311420267976,-0.020423969892465237,0.1047940346965659,-0.49054856092766147,-0.21042895720946594,-0.48443377925386955
271,0.8133207205993552,0.7754239481593468,0,0,0.7856024751979557,-0.02014651577366252,0.06729488197720675,-0.35549898022885645,-0.21308900557267843,-0.4008994706869551
272,0.8256697011096478,0.7825954209738997,0,0,0.7945904396120986,0.09278801704720722,0.08097216170827026,-0.36723112191862367,-0.2674333207246349,-0.2551374840458825
273,0.8503651132216933,0.7899725713811134,0,0,0.7785149711185971,0.19350884839228588,0.06366870270514235,-0.5688363733364385,-0.44006932940965166,-0.08484869841927956
274,0.8871240074082907,0.7970930117721073,0,0,0.7315815475453938,0.2597867323773844,0.12182898715337102,-0.7284463228504583,-0.3033745521312323,0.0029461937195901493
275,0.9344743021165808,0.8024165616399502,0,0,0.798007652204672,0.12761664579111115,0.22937782679121638,-0.8767974589776847,-0.3165807559959131,0.006750343582995598
276,0.9898148925433635,0.8035804579236223,0,0,1.0168990265089777,-0.03321719746544061,0.16923794790308272,-0.8037010384568275,-0.16261755921647322,-0.1578528488596903
277,1.049631460790528,0.7978048693445063,0,0,0.9943851076023829,-0.02630076017011389,0.14214282190787708,-0.5907671639513048,-0.04110470214670792,-0.28091928862649335
278,1.1098457087018967,0.7823805287781088,0,0,0.9744726712114935,0.14378258507954403,-0.026905606030713423,-0.6523471307193495,-0.14831177405671164,-0.2853683492851384
279,1.166251785110311,0.7551737063595575,0,0,1.1016759733858437,0.36482170748018405,0.23189915109772907,-0.7524060726563137,-0.13462257495192598,-0.3903897636232632
280,1.214974196506075,0.7150837803102458,0,0,1.4623601869531755,-0.0788732169983294,0.5277855302424627,-0.6915872616172154,-0.15694006055325913,-0.652534258164081
281,1.2528678334951209,0.6623836358223897,0,0,1.3386574926353854,-0.25656705251450024,0.6809478562155734,-0.16470241776536979,-0.09390264150753734,-0.6755782574971174
282,1.2777836865282168,0.5988784967619384,0,0,1.0274818074973737,-0.08043101858555714,0.5526160914065563,-0.12621684466401334,-0.2778065540143596,-0.43265077886942305
283,1.2886570331328808,0.52784527979938,0,0,1.118155930904352,0.05208885012373726,0.2942626768037911,-0.2970125917866554,-0.3673521415165134,-0.4249914184914393
284,1.2854310344689799,0.4537527455973751,0,0,1.0817059563796134,0.06339110711643846,0.3813230494107661,-0.27010923315311414,-0.23254248586442938,-0.4648962561499971
285,1.2688754696345907,0.38179623505444665,0,0,1.170197147420657,-0.030237151648531257,0.4600218170071861,0.03794299517250033,-0.09773510115122025,-0.3204615114472483
286,1.2403707873139682,0.3173059921111236,0,0,1.19134389551066,-0.0473198051892876,0.537800802986682,0.22493616436132705,-0.00666579776130037,-0.1317572358212352
287,1.2017060074325046,0.2651098794609681,0,0,1.0855264643519666,0.07725322481716584,0.5229873252255107,0.15789073469096476,0.03651237316994715,-0.059494989168542275
288,1.1549106885918778,0.22894690123918876,0,0,1.0316309554609948,0.1277177780869262,0.46536938905561576,-0.020893348742025575,0.026391623372772885,-0.05506162905778562
289,1.1021255274761184,0.21102727448053932,0,0,0.9922636969594116,0.06377817910433727,0.3901117927144962,-0.0946744328347226,0.025694887581936752,-0.08640522372185108
290,1.045513877941134,0.21181283131549195,0,0,0.9656788905686403,-0.006709630642772344,0.3451188019463946,-0.013529448676774906,0.030783536580546004,-0.07319657457105484
291,0.9872175309979881,0.23005240293500673,0,0,0.8911445834006884,-0.06069361403714627,0.31826227022343867,0.12940062312268963,0.03246173140044574,0.05505805082904626
292,0.9293566860452404,0.2630589234329552,0,0,0.8376061413958186,-0.101291041507864,0.2960269818502551,0.24083005494409157,-0.06461693439131065,0.15216637690732396
293,0.8740651524044138,0.3071672418753424,0,0,0.8451655315029847,-0.03979755818362272,0.25798155077762713,0.37366253575448294,-0.2849994316186909,0.19508198748937824
294,0.8235401378872453,0.35827438838820697,0,0,0.8594857640465252,0.06225767767465053,0.21019629030158118,0.4014310278275869,-0.34566487099642706,0.231660563523968
295,0.7800754069036374,0.4123501967426197,0,0,0.8256168832157984,0.03898979639032531,0.1774022372285027,0.3529444701391244,-0.25245671986525364,0.23335801322492225
296,0.7460421641095183,0.46582526369290467,0,0,0.820656294481831,0.005945928370729185,0.1398658010212218,0.4040914904343485,-0.17557407877207382,0.2398754571703829
297,0.72378833760233,0.5158106143424127,0,0,0.7672259261898026,-0.009341418130387831,0.12393956974595353,0.42098362327866734,-0.024916562462561007,0.2238264114438949
298,0.7154449018646437,0.560159145205717,0,0,0.736041369446702,-0.029070743620994526,0.11168856033842445,0.4106853357347849,-0.0009542284214280889,0.17787441915814875
299,0.7226536849980696,0.5974203395667032,0,0,0.763353675647865,-0.031779835880715104,0.061265694172359046,0.4345487949205092,0.08726807642326302,0.10887111503204472
300,0.7462585050810111,0.6267542704800431,0,0,0.6616621782700349,-0.041799767384243985,0.0664434009682926,0.5173807909963489,0.11520587419713868,0.007762546462451201
301,0.786024200682498,0.6478578368238729,0,0,0.565546050406657,-0.05732338542031874,0.03920990932814026,0.6410792341897904,-0.24308123308875954,-0.08370702243286453
302,0.8404592418905595,0.6609241032550532,0,0,0.6069990501183398,-0.1455799312923871,0.06042508613068524,0.7678701712372679,-0.17976463155870234,-0.09947981383256181
303,0.90680817197688,0.6666208396970056,0,0,0.77246387701053,0.04181038023762218,0.14283034574863732,0.8580569008904068,-0.0400641790657145,-0.04384242147350576
304,0.9812439118035869,0.6660558244603746,0,0,1.1141352417281878,0.21624337223064485,0.2860656765888253,0.4564804168338496,0.03901064785727568,0.16149622230881835
305,1.0592343142109246,0.660703724900342,0,0,1.178701086373451,0.2908158125242879,0.10883641937603115,0.12190090481848946,-0.3970291405942245,0.4584019222443533
306,1.1360062798179638,0.6522924745621019,0,0,1.0614700232269938,-0.015148065804104747,0.01427410074996412,0.011921637419750405,-0.3234984079038722,0.4430649217867384
307,1.2070090809611849,0.6426635558139695,0,0,1.380076499807414,-0.05879637410403867,0.13249211327898347,0.350549376656585,-0.5468976414735658,0.49955400655088844
308,1.2682912565870235,0.6336180285632858,0,0,1.4721326327710964,0.17053206481770902,0.026934052000440398,-0.11695838553191132,-0.24798038484527488,0.7529216301902825
309,1.3167386744900815,0.6267495969736105,0,0,1.0866378818725575,-0.0854466448736754,0.444869009638384,-0.24610715898162017,0.2207833172209659,0.5383518255295726
310,1.3501614480275803,0.623268489977843,0,0,1.215871819517729,0.25028837565787243,0.5575393226936393,0.06959800858582887,0.11955019843854402,0.3527027936759845
311,1.3672567700553324,0.6238402752212794,0,0,1.1064226767571772,0.4968246764502707,0.5065864724902761,-0.1479313489550817,0.14371943314278515,0.45821182032735963
312,1.3675033221470774,0.6284825284136023,0,0,1.028422872389305,0.2535314795782247,0.3988791915941646,-0.21436270617899023,0.09167212985303265,0.6208441575334228
313,1.3510499669319869,0.636557180714754,0,0,1.1803353570296513,0.018277447459092024,0.540647626110253,-0.2843461481613451,0.38924397553311385,0.5271360603050143
314,1.3186446846962685,0.6468680934168237,0,0,1.3073891818280992,0.11876372185782304,0.6176631790702988,-0.4115697450100792,0.22202136032401237,0.28274553155632
315,1.271616927974644,0.6578432949283848,0,0,1.1699926183190335,0.23772324525646574,0.52416058592465,-0.6737505042985608,0.12528876785679782,0.07781143631245081
316,1.2118931980268572,0.6677652910603644,0,0,1.1252706997340918,0.11845932839051311,0.48642172931295585,-0.7155069489400058,0.163934791433539,0.015625225767549843
317,1.1420082498658526,0.6750091416003595,0,0,1.0974892890371295,0.14106554672339303,0.39574972421456045,-0.6662178709310533,0.26128160553802404,0.02161185769122538
318,1.0650777628077122,0.6782499398826861,0,0,1.0415573841697525,0.09469854023787176,0.3537200679766691,-0.662745490027823,0.3108058273198314,-0.015474439447722164
319,0.9847133947530812,0.6766087694946677,0,0,0.9488647503198643,0.04874604365964855,0.2868677076619666,-0.5923007523286143,0.29110849041314085,-0.1565604538039528
320,0.9048772888598536,0.6697203897133478,0,0,0.8352808210750394,0.04948747686177622,0.2509933979539839,-0.5344533895618165,0.2540799002143159,-0.2881618240229513
321,0.8296862171900656,0.6577229450249059,0,0,0.7986880863788454,0.018228744639189946,0.21233249027212395,-0.4694881614143437,0.09387284848321174,-0.43936347363752437
322,0.7631843447989802,0.6411836926109068,0,0,0.6962605855214591,0.03763086596641606,0.17913870444049354,-0.3795935117591222,0.038225735041377454,-0.5421947793291707
323,0.7091064726893928,0.6209820247627356,0,0,0.664066520773417,0.07760776189252373,0.16517240529761004,-0.2719082609179171,-0.025318885059815853,-0.5559631727569193
324,0.6706502750009653,0.5981734072252096,0,0,0.6735740758144774,0.06922785824325961,0.1315134236971936,-0.23438187605586383,-0.08337815807671348,-0.5329659674169756
325,0.6502687072052884,0.5738584936749236,0,0,0.6970000810695719,0.05821602452622137,0.1266074467959436,-0.2182630278537222,-0.08441658364500818,-0.4653673313292954
326,0.6494866880130349,0.549081542290409,0,0,0.7018256554603977,0.059786230749407566,0.115496907609845,-0.23376211080026874,-0.12543147196937873,-0.3470519388687184
327,0.6687446435129506,0.5247782476874068,0,0,0.696637154170586,0.07301203164976312,0.0843388065176448,-0.2990139698051064,-0.15923954352611575,-0.17068726891540767
328,0.7072791269907649,0.5017799902385541,0,0,0.634485738965223,0.09298898376470545,0.059359302025355117,-0.41258657049143227,-0.3638620290917905,-0.003920123114429988
329,0.7630653536995706,0.4808572830015763,0,0,0.5894488853459022,0.0653866189690031,0.030465002406750482,-0.5559960437343356,-0.5418220083724961,0.11044476294827622
330,0.8328587092138348,0.4627585532887527,0,0,0.6359350027336187,0.02498412877884961,0.12984468359095294,-0.5851852660746889,-0.3688235454610999,0.22378918608858012
331,0.9123692518115065,0.4481921480297013,0,0,0.8904736740875533,-0.08079888960571227,0.2434827714133496,-0.3312840650009067,-0.17099226575254073,0.2723827896228978
332,0.9965780314927527,0.4377273869571085,0,0,1.1443246838554169,-0.2003307024892195,0.24847044624726666,0.011739455222578622,-0.025001250534628188,0.2116994279381069
333,1.0801652399309927,0.4316466261719252,0,0,1.0490556171231313,-0.1859169766630032,0.03865134963051531,0.12807286274812021,-0.03992479697733644,0.06407132503576164
334,1.1579890071877537,0.42982851299086194,0,0,1.0075239567940242,0.25056862023908716,0.021684894781427495,-0.049550417966747536,0.06288465419228036,-0.13009625285485998
335,1.2255448365660107,0.43174582113944415,0,0,1.1643600206292446,0.5388677232434184,0.17214563152513732,-0.33086106852195796,-0.025237124361006096,-0.34643662703448624
336,1.2793432268591913,0.4366120029015236,0,0,1.445227657897368,0.09501550268402555,0.46457614948780707,-0.158716405550681,-0.07624534152108181,-0.6096741365239833
337,1.3171533497463135,0.44363707089180776,0,0,1.341158219725162,-0.1978094236002144,0.7121580975017042,0.2785063963083055,-0.07406595638353244,-0.6073518515832735
338,1.3380753384081114,0.4522990656600661,0,0,1.0617217371740455,-0.18301281818917658,0.60731807661725,0.37853939962814875,-0.02833453526137352,-0.38779183921291116
339,1.3424350649944188,0.46253105900860564,0,0,1.1422032045675135,-0.014765284829442204,0.36409468867989786,0.2659703077606003,-0.12451918334439992,-0.4256285881354663
340,1.3315398266675103,0.47476243783638183,0,0,1.1467019311295295,0.1504086161163276,0.36330143651743935,0.022125294708424684,-0.08481864853581184,-0.5239420457663351
341,1.3073663790770544,0.4898107891675088,0,0,1.1977226364489308,0.1428927973421094,0.4740008758557006,0.06018240422707919,0.026536582216052127,-0.34492654748950674
342,1.272253956619667,0.5086700413328796,0,0,1.2197490425270001,-0.059493746020953676,0.5083771178327825,0.3184015545703032,-0.07940764263205298,-0.0797300918774056
343,1.2286497969638557,0.532266508018211,0,0,1.1277123621714038,-0.1387215971351848,0.4330462142097729,0.518433603136006,-0.09548090117807882,0.05405851054297276
344,1.178925495625183,0.5612527087468329,0,0,1.0485358035580048,-0.04092051499701949,0.3999002260229431,0.5472735974780915,-0.0761592459643252,0.05830644289826029
345,1.1252648356242332,0.5958846281085098,0,0,1.0437906112034618,-0.02947347919037692,0.3648540839454011,0.5354048251519973,-0.031185124545721733,0.05126066025231382
346,1.0696165901961847,0.6359958252058321,0,0,1.059810043566146,-0.014161251080832674,0.34365326602610036,0.6091119365620853,-0.03629748531564727,0.07972851646278581
347,1.0137009745406673,0.6810551998030807,0,0,1.0067616168259486,-0.045809197448133096,0.306187307686552,0.6807971260149802,-0.05788269978088563,0.1688992938506612
348,0.9590532715607408,0.7302779514163791,0,0,0.9055993540905367,-0.0659218373587332,0.290398913577193,0.8028614989324678,-0.07459511008809185,0.2415315622385739
349,0.9070865212895863,0.7827497592632983,0,0,0.8031890132270253,0.002073693106368063,0.2845617177003394,0.8385677544405289,-0.04429848549627055,0.23761852282813523
350,0.859158719645508,0.8375245073774074,0,0,0.8000436688249887,0.01931843512806014,0.2530138659281478,0.8471421171191067,-0.05677406661313617,0.23781229135562845
351,0.8166339612867414,0.8936697110455043,0,0,0.8027906822057466,0.007100425317959089,0.24433890397265134,0.839790805000017,-0.06294048888929968,0.2444470135819721
352,0.7809260096900733,0.9502585591623295,0,0,0.8037973749122936,-0.0023491549084629277,0.23583507890684852,0.8554513268164946,-0.09488628450106104,0.23846515087201298
353,0.7535080694141567,1.0063327749318964,0,0,0.7899061383760649,0.009523129029293868,0.21297258684000522,0.900532994913612,-0.0242489374598252,0.21561157469832237
354,0.7358710028519737,1.0608747736046849,0,0,0.7317780953792246,-0.0004554454351121426,0.20400856221454258,0.9500160367296885,0.028069076513940912,0.18491437733709135
355,0.7294194532241873,1.112824938705703,0,0,0.7245257185202361,-0.014441808786979173,0.17532263748197735,1.0298844201973356,0.059587195106160146,0.1627999888266256
356,0.735310480596818,1.1611614265089536,0,0,0.7060070741924909,-0.013001435771852261,0.14458595841351712,1.1464330340495377,0.049168209098224225,0.11921855093536254
357,0.7542564146442144,1.2050320168521977,0,0,0.7047464129102401,-0.023037920238066546,0.10291868142050829,1.2881435171242719,-0.04374651148706254,0.048431709406136614
358,0.7863261806353493,1.2438997431943384,0,0,0.7381668338118353,-0.04978170600169117,0.06733522860573465,1.4156102774160502,-0.08096558656374023,-0.0356678249252714
359,0.8307835614548958,1.2776480264411585,0,0,0.8028172535431461,-0.025757312777295555,0.06474441495131122,1.488440616870436,-0.03415001143421385,-0.09860100894400209
360,0.8859962423589263,1.306597628068393,0,0,0.8556895722456422,-0.037246613047943675,0.17281323352071395,1.3630052859080009,-0.06371758685939784,-0.07907852039532462
361,0.9494385221173738,1.3314208292533647,0,0,0.9268691275619605,0.0393328193428942,0.19592721665939855,1.1461962460230153,-0.23773456378329505,0.01760438633410578
362,1.0177976096010348,1.3529877092663443,0,0,0.9886620870045865,0.12685000544804229,0.08907892200495447,1.0155913473674412,-0.14028252328657417,0.2029891278924179
363,1.0871822258899586,1.3722200444285055,0,0,1.001721990140647,-0.004232798362947985,-0.04145662261152319,1.0270292401144407,-0.26532179081842033,0.35579998944235536
364,1.1534232237914144,1.3900320578186691,0,0,1.0462686456267516,-0.1481131469455473,-0.07074938440132852,1.276192256528686,-0.27004365421048054,0.4296694085854595
365,1.212445396704994,1.407393917984984,0,0,1.1377449677040008,0.037570194434827286,0.09337699463589226,1.4547257642464155,0.24725307719793282,0.4958014381612498
366,1.2606727267181113,1.4254835826961998,0,0,1.2650138585491257,0.382823459833723,0.46888433630771564,1.3486740167527203,0.8698325844520124,0.7412809396565165
367,1.2954069413823095,1.445835580107106,0,0,1.3314980931434954,0.6113051865560816,0.8319205590831934,0.9965072017997113,0.8063568112528154,1.1645239402642995
368,1.315104133292813,1.470386410655492,0,0,1.162979852162389,0.3897227987046015,0.6506302502711273,0.5461099885409981,0.3528411628716252,1.192740779049472
369,1.3194856143786517,1.5013614459248392,0,0,1.0705546912672095,-0.037930064873347116,0.3027422255028052,0.7607781679823706,0.3534592520433499,0.850912978616762
370,1.3094627999291855,1.5410183417922811,0,0,1.2860415409977841,-0.08912730640074244,0.3170895941332414,1.251395382078089,0.6276011171615906,0.7587586781254626
371,1.2869099898351142,1.5913122673513707,0,0,1.199942763892487,-0.03434062553010796,0.3855221901973979,1.393685502310924,0.6466817575671039,0.7824636738287902
372,1.254352066129847,1.6535557999957484,0,0,1.0667729138234219,0.19713624264744228,0.4210800470354267,1.4221015650572941,0.5170544827444108,0.7239259118112835
373,1.2146360922871222,1.7281284594926183,0,0,1.0582290026023715,0.2672363035076733,0.35121405279468787,1.3934788092874923,0.3679788670865641,0.6272650762554416
374,1.170639086954384,1.8142779074992126,0,0,1.1123717716624324,0.10836586155169096,0.31093718243144625,1.5113927070192397,0.33109481899725773,0.5580831382200554
375,1.1250421183545252,1.910052202284792,0,0,1.1507266247315173,-0.0017647263777363733,0.2938112218584103,1.7122534581371376,0.33262677961125614,0.5061450920511161
376,1.080179014659441,2.012391507261982,0,0,1.0606733151978376,0.009046543514040117,0.3034453035016468,1.8989554416866818,0.3754072545983014,0.5294968635760166
377,1.0379516179454717,2.1173763677568225,0,0,0.9361515258958871,0.09607378921656312,0.3108720077089502,2.081322146667624,0.44642232042400515,0.6220043165883512
378,0.9997973382348188,2.2205888168505616,0,0,0.9182017307200809,0.1192750832442008,0.33055820881504744,2.2187882315875225,0.47975416062623166,0.6573471095928692
379,0.9666965393651932,2.3175138631117425,0,0,0.9440984664238044,0.11253929983341525,0.3033687016573911,2.2948924815631324,0.4269960401354944,0.6335507174983174
380,0.9392096976372447,2.40390688415817,0,0,0.9124895384006614,0.10725207343021395,0.2862618797373065,2.33096900493285,0.38718936461793246,0.6102290480757787
381,0.9175338373718153,2.476076383476312,0,0,0.8833183756094226,0.1100570858914518,0.2564123849498323,2.334435673095491,0.32306712372200275,0.6184390184893872
382,0.9015674163390401,2.531068111820608,0,0,0.8526401114490866,0.13156653382163366,0.23554080880602496,2.363403473941649,0.3007562200442208,0.6362669501788394
383,0.8909757755859972,2.5667682696235112,0,0,0.8466748790470554,0.15994674373697873,0.2239777519827821,2.3840399255668676,0.29004542070956646,0.6568100464453791
384,0.8852542548666715,2.581958106800544,0,0,0.8423881037926902,0.19371856238754487,0.2137705567255985,2.420623362400466,0.29906069494012527,0.7308175719158682
385,0.883789933440511,2.5763474587841264,0,0,0.8261323828137922,0.15535013274637405,0.18473482414140927,2.4353202064033823,0.26892029151498714,0.8366640031454914
386,0.8859242840167798,2.5505973247179052,0,0,0.8223006803113656,0.16716240656754172,0.1690713493396197,2.440167462463555,0.2528392517240136,0.9160909338812109
387,0.8910179870452245,2.5063226330135824,0,0,0.8440718576385259,0.22328859342109258,0.1581831429770221,2.3572696811192175,0.16481484346075045,0.9468850488596551
388,0.8985157652287719,2.4460558656905267,0,0,0.8587570493336185,0.2785005530067369,0.15690467695348276,2.271385895031466,0.07401853250635375,0.939340411984688
389,0.9080038069019629,2.3731542443946756,0,0,0.8647720460687153,0.29073697999100645,0.15883845963976986,2.1743938407506054,-0.06048621050080475,0.8721248686561626
390,0.9192474059156277,2.291643925813151,0,0,0.8609808790318119,0.281209893434296,0.18404237542362456,2.1345543824325004,-0.13079031722466655,0.8281870363538464
391,0.93219471610426,2.206006041152903,0,0,0.8756176224325136,0.26566842178331035,0.23755205553462513,2.0626809182480557,-0.1986345028723248,0.8130910949236693
392,0.9469348924982591,2.120915895576604,0,0,0.9417379077979524,0.2428321274742699,0.3174352441895407,2.0571748402539853,-0.1612171498714587,0.703268110041905
393,0.9636045834055299,2.0409492736158312,0,0,0.9652598057201097,0.21659902006806356,0.3723039544041492,2.0347999029738837,-0.2105610307371058,0.460762203490848
394,0.9822463213280127,1.9702740776534864,0,0,0.9422347664545401,0.24560320449268674,0.34133362221730623,1.9393906898879192,-0.28658505387171246,0.27733806471179673
395,1.002638197587877,1.912355384473172,0,0,0.8389634551071636,0.1753161895205287,0.31896665538539204,1.7417633048764887,-0.17966616558035833,0.2483881740715689
396,1.0241353651194804,1.8697145690082457,0,0,0.765465776179189,-0.004992882301900599,0.2685102419163735,1.6675843880654369,-0.10976238875462864,0.2950449033055806
397,1.0455808336514263,1.8437880596426155,0,0,0.8219790739413324,-0.13505295625915673,0.2282415464541653,1.7061660805550294,0.020941270434912663,0.33868837200019347
398,1.0653405040844497,1.8349171384830247,0,0,0.9974656972273528,-0.17698777485659378,0.23779481019262944,1.8305899309478382,0.11438306495881863,0.29229730559506334
399,1.0814870568030186,1.8424656427646822,0,0,1.127315199095544,-0.10873729621127332,0.220406473630273,1.9752172841850344,0.10150189658350106,0.34498071224149013
400,1.0921084694629448,1.865021950202146,0,0,1.1372142876119535,-0.005838484979901961,0.2668335171003833,1.9647788377551056,0.12431644876849661,0.5080170691503083
401,1.095672607531462,1.9006178544750902,0,0,1.165006422136636,0.02673384741158643,0.28660293337203363,1.8867962197428934,0.044069550542994204,0.5765007801618843
402,1.0913593218281405,1.9469044250259975,0,0,1.1763963612212625,-0.00761928907948872,0.25482771929464043,1.8349133819485643,0.014472471824419587,0.558149486044739
403,1.0792801592690286,2.0012591782052733,0,0,1.1283404671393795,-0.04766061441471383,0.24947142251220267,1.8462792678986903,0.05803288752831623,0.5370964501881281
404,1.0605350017948074,2.060839581000749,0,0,1.0720378331941316,-0.055654859693325245,0.24511751376110125,1.8977935444413363,0.10201508248442842,0.5487175178996506
405,1.0370934943586931,2.1226236753077132,0,0,1.00625870053248,-0.04284653496713941,0.2284047087300769,1.9690397523225385,0.09494630090843852,0.5871634514372335
406,1.0115272901980328,2.1834801374589157,0,0,0.9344637781343301,-0.03613558227490926,0.20710607038625486,2.0407771915221766,0.10643073728174053,0.6172009547445958
407,0.9866488501089306,2.24029190658673,0,0,0.883780858386743,-0.07005449214481951,0.1765178306498295,2.1461722982871354,0.09369374455915315,0.6087403408705936
408,0.9651278377346895,2.2901307811807343,0,0,0.8586279074235479,-0.08538191563573122,0.1580434230579106,2.2616959147823734,0.09511298214913308,0.5910267770628531
409,0.9491544853497169,2.3304557798613112,0,0,0.8714913071058022,-0.0718851801323546,0.16187988674315773,2.3294939095415326,0.11927681291743404,0.5828877126401012
410,0.940202236736527,2.3592932966493865,0,0,0.8949390458173389,-0.04897527178345369,0.17812550556721127,2.3690095935685003,0.1513927515161506,0.5656082983875259
411,0.9389151047041062,2.3753565420163163,0,0,0.9161897934355988,-0.03885937381712807,0.21347010724227697,2.3527489741222682,0.19767190267422505,0.5206730926334748
412,0.9451165789537521,2.378075471973102,0,0,0.9481662632749066,-0.019656920908332317,0.26905194886754125,2.319812853734341,0.28192057161676043,0.4916283430559218
413,0.9579143345551794,2.367531286303348,0,0,0.9758056208338295,0.04443611947436243,0.28895843505345603,2.263409529983076,0.3212358843868574,0.5048294389292116
414,0.9758634612293157,2.3443132564102114,0,0,0.9549940783216744,0.09712686930145947,0.29620721656528504,2.22652961966276,0.3318523673208169,0.5845717590020255
415,0.9971517424005755,2.3093324369917476,0,0,0.9510272835601897,0.13646191285364728,0.2991860940080803,2.109232509971424,0.38865089696634436,0.6981045707251866
416,1.0197809572808831,2.263632990401907,0,0,0.9548911133471213,0.17401172560406464,0.2749526774720373,2.05973796864732,0.4250603913548692,0.7430698806883309
417,1.041732336407888,2.2082379954782567,0,0,0.9280430188041391,0.2852059226883094,0.2672929424578892,2.0048092391018555,0.49653961854741324,0.7475710952571172
418,1.0611156011988667,2.144055776023594,0,0,0.9664739573117287,0.28861922247877264,0.2277885389373361,1.8488293929705417,0.5543461336912001,0.7563680993443632
419,1.0763053381613201,2.071858396610597,0,0,1.036547467518441,0.18084438772750605,0.18105683816210508,1.7849597288779098,0.5331006363146833,0.8261703851303074
420,1.0860654777823127,1.9923283842748494,0,0,1.0653728678299146,0.13847538582260885,0.1480597204404007,1.8050946551114941,0.5489433079442317,0.8490687067017846
421,1.0896551822550706,1.9061546573991923,0,0,1.064068806536386,0.20962487132556865,0.1936069092917921,1.7300155915864899,0.5453241086822718,0.7891425681957264
422,1.08690177049661,1.8141477737947858,0,0,1.142629016254149,0.25663022095889937,0.18865623063733833,1.592741911117718,0.41282735714413243,0.730224131565095
423,1.078222666245944,1.7173431571511477,0,0,1.0930917385969627,0.2459563328152906,0.14523580026697383,1.524848822254925,0.3500912952888982,0.6562677452551303
424,1.0645822351841676,1.6170694313835747,0,0,1.0147196720424179,0.2406065834361638,0.14367677421788158,1.4895497201475856,0.3393255722645578,0.5653047835168712
425,1.047381899487008,1.5149704798944965,0,0,0.972204377644676,0.27107879897676646,0.1484704646771232,1.4153586026629874,0.3033626586515557,0.518569714425893
426,1.0282990490667003,1.4129772264468816,0,0,0.9317185535540664,0.25454049396759726,0.15077327911487273,1.303563247996628,0.23547483977109065,0.5022248154950353
427,1.0091035878913486,1.313228121769151,0,0,0.9105312673252892,0.22777880435233958,0.16471453766007332,1.226856365428413,0.18456292359830395,0.48328267276095105
428,0.9914836351870828,1.217939905354962,0,0,0.9352429635122873,0.24831073914844162,0.18013546798961694,1.150198096090755,0.14245904439835166,0.4598498038509064
429,0.9769035342986527,1.1292347787558592,0,0,0.9436226607973576,0.26378889555090196,0.18959271149793708,1.0504626675583395,0.11356638751635174,0.4722849061703141
430,0.9665031933419111,1.0489367234254146,0,0,0.9385598761954034,0.23954305710692178,0.18066669444070813,0.9525336737902366,0.10170927163407678,0.4917185824809354
431,0.9610351262406109,0.9783581186919673,0,0,0.9414310519517163,0.23420212358306813,0.17695238949074113,0.8407374355914142,0.10248959372879911,0.4526643041307454
432,0.9608296529841048,0.9181074240064317,0,0,0.9368083647631081,0.2370996204385048,0.18026722583971183,0.7558663173644786,0.07146935591449206,0.37179088859272746
433,0.9657804847474132,0.8679566396352417,0,0,0.9303834641957659,0.22026183614037234,0.17865089375143348,0.7145068814078334,0.04197031910426807,0.3063479495552271
434,0.9753496623488525,0.8268083812150944,0,0,0.9105200579930857,0.18269235046447607,0.15757939698297138,0.6928766630432783,0.034030506948840376,0.2704503576424997
435,0.9885985006997121,0.7927918839289563,0,0,0.8873415732662828,0.1468501575673857,0.1681146030637212,0.6483650712025084,0.02337305698660497,0.24461782308476476
436,1.0042555175528758,0.7634940830282498,0,0,0.9195456291251808,0.1681230416266549,0.2324391372720319,0.68760166914508,0.06233097976405281,0.2120566329176509
437,1.0208294349324667,0.7362999642126405,0,0,0.9726079062834442,0.14907263953808195,0.32063331580596166,0.8001073112386777,0.07746456944528801,0.15241213721721827
438,1.036764438524576,0.7087834259246786,0,0,1.0278753064510908,0.15809352393826576,0.325353434152838,0.8894806649038415,0.0249329999304828,0.1409398193635851
439,1.050620662253254,0.6790671837118214,0,0,1.0002460640349333,0.19183070289931267,0.2557018355805922,0.8456046953815335,-0.06565417994120497,0.2156893611916049
440,1.0612530020612345,0.6460703650412638,0,0,0.9551757636739403,0.2930822511939962,0.21808347950535245,0.6821906262087455,-0.13692996660949877,0.20576621012039537
441,1.0679596565752227,0.6095916885905657,0,0,1.011309303641472,0.2967255426423266,0.27633857329000844,0.47183867596240414,-0.17336988689870214,0.09641472725966967
442,1.0705750810396197,0.5702257728459869,0,0,1.0982630590686515,0.18263152944287764,0.3394617881749131,0.41751180299307394,-0.18925537727092137,0.019495738366914393
443,1.069485869646022,0.529157728799185,0,0,1.0677765313635854,0.12012349528181711,0.3974128927818,0.48921391286367283,-0.136333423963401,0.00051463030113263
444,1.065553891472326,0.48790531708106216,0,0,1.0349758421948225,0.11895449728550213,0.4237504458925233,0.4650114576242712,-0.06771107181625766,0.01614630165734799
445,1.0599443887781097,0.44807383600367184,0,0,0.9902687340465005,0.14095194864693703,0.42052637409646076,0.35634531758345384,-0.030902910559716196,0.033918868145969006
446,1.0538791839569632,0.41116828624012725,0,0,0.9348577711354162,0.11267684911365204,0.37812405126201737,0.3348069515163844,0.005056033279150469,0.024023360368343613
447,1.0483604384984968,0.378483311345016,0,0,0.8495063952846319,0.036855085912052214,0.3481183171864198,0.37651542111534786,0.05230841837088899,0.029509051706001238
448,1.0439283786250793,0.3510681790593686,0,0,0.7873939884360074,-0.049143717775247835,0.36136860666531423,0.3900243442887292,0.15055967833029213,-0.0025639234908141286
449,1.0405175401392959,0.3297424976916504,0,0,0.8620373750582249,-0.04152668914124524,0.398082871090453,0.38255153774205564,0.19358312485583426,-0.054449705211191114
450,1.0374553357918939,0.31512418547051696,0,0,1.0220785150899865,0.038838404548925065,0.3792636609178134,0.4025140840186037,0.07952522714648992,-0.0004861588665253146
451,1.033608372752939,0.3076325015715017,0,0,1.0542008666394669,0.14062212489482662,0.350009843207613,0.3237407600200616,0.0232153572602638,0.10328801334941724
452,1.027641176439021,0.307447525503736,0,0,1.003929689191633,0.12343020059166772,0.3225668426560502,0.1679939644558605,-0.032289718900783755,0.15436110855399574
453,1.0183266886633462,0.314435237900081,0,0,0.9727959733605158,0.024682878742916654,0.2789753555164514,0.13837825374152604,-0.04980934106403947,0.14003884727978008
454,1.0048451660430984,0.3280700947536773,0,0,0.998122240842229,-0.03835069549952496,0.2623585028847683,0.20994750799287787,-0.12354826399807836,0.12717815312203795
455,0.9870203422330776,0.3473926216860873,0,0,1.0235259688256773,-0.026310490480615713,0.24518641619410006,0.29601316667124744,-0.16706055933131259,0.15420745135092048
456,0.9654571796036636,0.3710264256934734,0,0,0.9826331939599123,0.002848778828148053,0.24766653182254245,0.32694021498504394,-0.10412522571226263,0.20228583274123574
457,0.941559640437999,0.3972573576358121,0,0,0.9360004690155511,-0.00980561556614358,0.24062229035413607,0.31874839614068595,-0.09069186912215285,0.23230641438180977
458,0.9174218930221079,0.4241608935281558,0,0,0.9003259962397566,-0.044533169134461925,0.21966560359940293,0.3314822033105383,-0.058577415485465356,0.2364013815154869
459,0.8956035961085035,0.44975813367643386,0,0,0.8758493001133204,-0.03087690621166301,0.20187410657475713,0.3724461426190925,-0.09489797599334081,0.2476123396814393
460,0.8788166071519778,0.47218260593769856,0,0,0.86710827819667,0.022426959669660226,0.16148365968448758,0.38654208908713705,-0.08482962784238622,0.2630184300331237
461,0.8695630709866182,0.4898431264894347,0,0,0.8463278143184956,0.04502448162969865,0.14910504250702003,0.40953529070348654,-0.05122141325239467,0.2616282983593974
462,0.8697722429540609,0.5015695218160572,0,0,0.8208666337745586,0.033133951660720626,0.15049930831773933,0.41617832201573957,-0.042827289055103586,0.18462391028302697
463,0.8804862049536524,0.506728038029192,0,0,0.810501294214907,0.040642895010068174,0.14044008586568732,0.46416211216221814,-0.07972539496423134,0.10926403402224641
464,0.9016428706595655,0.5052914275790745,0,0,0.8272796019294881,0.060100858037419026,0.08229065128903511,0.565726889226637,-0.15751840875452164,0.10070441498581481
465,0.9319969776247254,0.497845090840585,0,0,0.8313640172070111,0.049762778474410366,0.10257788332758491,0.6028937515018589,-0.19539745615471002,0.12254979433239255
466,0.969204531316949,0.48550978759605723,0,0,0.8941993049455973,0.051777167535532284,0.13376995201868164,0.5544956581397209,-0.2261297959702989,0.13791943726433473
467,1.0100732823154943,0.4697721237472902,0,0,1.0055582899207123,0.03692955277279959,0.180050499618122,0.39959476239016833,-0.10605211200545635,0.14816454692849304
468,1.0509539841626574,0.4522407400104073,0,0,1.0377607715390178,0.036416098126955225,0.16293976563373355,0.1875517628623695,-0.08533915883699121,0.1690996070419518
469,1.0882201429451719,0.4343795759689219,0,0,1.0696373830497128,0.06198297596464875,0.14424276572331418,0.0526674651292513,-0.03361047358675554,0.21888272694309133
470,1.1187641031298732,0.41728881623280534,0,0,1.1979838015389312,0.05528245119870309,0.14833872905742973,-0.024492801697174632,-0.14288850946937864,0.31745203598455257
471,1.1404281468703505,0.40159233972186503,0,0,1.2920211422614643,0.041070777414916895,0.11615022036814826,0.007046023707796029,-0.2214304996710029,0.4440843807357895
472,1.1522921000707111,0.3874510508546189,0,0,1.2770851520943387,-0.0287048400586665,0.16511624618553206,-0.013151069369926887,-0.06741774221581534,0.4491436973263906
473,1.1547562175800825,0.37467732229121586,0,0,1.2047321195646523,-0.06749056445959051,0.3117370667771645,-0.08009279577352206,0.15570835754432844,0.34078626034574433
474,1.1493920639952366,0.3629005642415082,0,0,1.1694746849841033,0.051409974750378847,0.42119588421016896,-0.14926826752853628,0.24117776337179309,0.3010900130914234
475,1.1385809958397621,0.35173376645562043,0,0,1.0487549874114424,0.1359841572989416,0.3149788626490749,-0.16402581033028552,0.0863021090172391,0.31713132095076885
476,1.125009042102782,0.34090531817657227,0,0,0.8714912924174417,0.08018323787102867,0.260070736201312,-0.06596067308725649,0.13367599825383383,0.29795227367455185
477,1.1111247472947334,0.33033703280541876,0,0,0.8239245872703802,0.07967861960323723,0.3610536807475041,0.018952119295556513,0.2663225987625282,0.2349643300259654
478,1.0986791880312852,0.3201625093518196,0,0,0.8412361303600693,0.1453263021571083,0.47818076868849707,-0.08285527665494126,0.36155258028949516,0.15917965955109875
479,1.0884462642665695,0.3106900148469309,0,0,0.9145002315401791,0.1462563115709791,0.5183846562668143,-0.19085039840221266,0.21756286845016323,0.08052940100108351
480,1.0801713706372364,0.30232367572434016,0,0,0.9887316586799038,0.08301196563274549,0.4515536329108764,-0.188318758899867,0.10363832636237655,0.04651042975611051
481,1.0727370475960216,0.2954669601968004,0,0,1.020342552326063,0.025989703770706397,0.45441122392230565,-0.12099891159994508,0.1462662883985376,0.027153335164926483
482,1.0644868868407789,0.29043859242319686,0,0,1.0304325288039164,0.08368285045482524,0.49122531757464355,-0.1402506670275122,0.25767414663583765,0.035396445028441484
483,1.0536250443938557,0.28742609597347457,0,0,1.0322447893380196,0.101812355959899,0.4992925415720964,-0.18441357577272305,0.27158700883402453,0.012649357751754345
484,1.03860784364896,0.2864862171746412,0,0,0.9784189994522058,0.08348057090977154,0.46897091734143553,-0.19405398204530305,0.27472869469268935,-0.055027515030456935
485,1.018460433049918,0.2875846075626851,0,0,0.962719597809243,0.046181396660799026,0.4383226270625372,-0.11220034588816209,0.1970949518872648,-0.13856478602937242
486,0.9929781110472253,0.29065982228665627,0,0,0.8998561677687595,0.04820492752820678,0.36846658090946316,-0.015349254908181963,0.1152505427723631,-0.1934089280238917
487,0.962800606496313,0.29569921172229713,0,0,0.878639239966503,0.08896402663872803,0.3517233838763577,0.02320933049669229,0.04351845878153621,-0.22865299975946485
488,0.929370669848628,0.30281748504324096,0,0,0.8663689031738004,0.09539487426310807,0.3002522024387433,0.04559011377014519,-0.1417762522387672,-0.2938488124659037
489,0.894801471224241,0.3123243805996607,0,0,0.8059834775836219,0.08226823417484826,0.2836948630297866,0.0645805522948039,-0.18844784800681427,-0.33314735006990576
490,0.8616807303233597,0.32475753914574573,0,0,0.8054988826827785,0.09519292068083042,0.2587314465030304,0.06312292010158206,-0.28165299124600884,-0.3484088827154437
491,0.8328363091602468,0.3408507778749088,0,0,0.8150736208170526,0.09245558373134215,0.22268725004653495,0.032987839244524704,-0.29214233358628505,-0.3293517260766892
492,0.8110817836663631,0.3614169429220177,0,0,0.8074041762432904,0.08791236696027324,0.19780608336044686,-0.01157097318439986,-0.27164191708359586,-0.28285135624085567
493,0.7989547497712612,0.38715024833575074,0,0,0.815431341309723,0.09109591479492546,0.1631556437576304,-0.05680793156425706,-0.21285503664743413,-0.22979909268909424
494,0.7984586910328406,0.41838657251972156,0,0,0.8130403438336695,0.08429662890268566,0.1360560327961612,-0.10778643000222345,-0.14309439131963014,-0.15627969391993896
495,0.8108231378106714,0.45488581583186405,0,0,0.8003373690945698,0.110458434034379,0.1347915568851292,-0.1736342971169762,-0.14563241346285632,-0.09105299327950159
496,0.8363056891145777,0.49570286601032754,0,0,0.72705238154292,0.1435271773739394,0.10806214172910568,-0.29875882469323567,-0.3721139302478252,-0.014208425392140282
497,0.8740690322551077,0.5391870522364376,0,0,0.6837605497284507,0.19373382264291777,0.11781468470251247,-0.43567125148935565,-0.49833037943260144,0.03881958751016798
498,0.9221691075338203,0.5831047338267978,0,0,0.7829665960334226,0.1263552474603304,0.17235293810399363,-0.6882146851768957,-0.41072451580087355,0.0660722186490166
499,0.9776792529377428,0.6248408160089849,0,0,1.0546374747822176,0.0023592275020536467,0.1785619462032151,-0.6749276019165713,-0.1646306677191286,-0.01940758308637735
500,1.0369482102926315,0.6616259125443413,0,0,1.098466539039816,-0.049393632374960805,0.18664280874914163,-0.430500520789313,-0.009714458375733719,-0.14369865053910094
501,1.0959579344458799,0.6907582969845415,0,0,1.010251159992575,0.03519086060124305,0.04183459238202057,-0.48187058257352217,-0.060332403940166986,-0.2795621610988382
502,1.1507260257403324,0.7098198426824214,0,0,1.0932682871838575,0.2766949302599607,0.09137020696943889,-0.6297438623803759,0.00346762966706782,-0.4030325828991062
503,1.1976928273130325,0.7168948841646348,0,0,1.304294718716454,0.08003874638489226,0.31811852694560055,-0.6275207036034967,-0.08794213617059181,-0.5569062885330115
504,1.2340373545387173,0.7107857520608274,0,0,1.3541259857851153,-0.14961427077041142,0.4771777819241745,-0.23768694299299056,-0.02011768179474888,-0.688522987022942
505,1.257874711308657,0.6911990892616557,0,0,1.1159652530350763,-0.05146318656724692,0.7607266245701579,-0.0997284529608092,-0.004171382192532904,-0.5699450458761525
506,1.268307833537443,0.6588717585670307,0,0,1.0757763653663512,-0.02949733211180869,0.4560791835732313,-0.1299886212769937,-0.25859536243566655,-0.5565123928967105
507,1.2653431249930254,0.6156113006603291,0,0,0.9978176255638652,0.16199424024689996,0.336023749864219,-0.3236975946496515,-0.265821577374847,-0.6562828638242098
508,1.24971901146575,0.5642302734313815,0,0,1.0220887123125884,0.11885052592044992,0.44454804235231227,-0.4161500246613462,-0.08715510588754315,-0.6617324283688782
509,1.2227140502691647,0.5083563006629699,0,0,1.1910108834107012,0.047513593838895946,0.5100135374127238,-0.18349929737088777,0.009215362373081626,-0.48586011626172515
510,1.1859857342584812,0.45211433815422364,0,0,1.1507643731353527,-0.05113753834772009,0.5137621285962222,-0.0739822543064725,0.002653681523749409,-0.34138597051016795
511,1.141456617600513,0.39971027462586656,0,0,1.029794635858362,0.03913230999303204,0.47543502159960743,-0.0945468418911483,0.07231644417697436,-0.2799381932687423
512,1.0912365542745186,0.35497982495477065,0,0,0.9968861621904799,0.002208871523560579,0.40797895246940574,-0.18186739628327062,0.08858996104713847,-0.25532338586077363
513,1.037562103949388,0.32098194353102005,0,0,0.9967020085525896,-0.04010710421106617,0.3555048071264272,-0.058594980563039176,0.12041375396765785,-0.2358700978271008
514,0.9827403786663947,0.2997058298276718,0,0,0.966800537000102,-0.0225069122387435,0.33640422344987264,0.07155819971089215,0.08721210707985873,-0.10065068507441757
515,0.9290928135782544,0.29193516761253446,0,0,0.8218184134431356,-0.07044209201448637,0.3004744926573225,0.17139637844013944,0.0795801838466683,0.057947544287998316
516,0.8788997742174098,0.2972823083557222,0,0,0.7655588988559663,-0.03339412587730896,0.2832210728104267,0.26384730027500747,-0.015450640198955642,0.17769965089085094
517,0.8343496662858225,0.31437137323419845,0,0,0.7938672700195187,0.02800542525486469,0.23261326450768355,0.32172361117976067,-0.19200950362824837,0.2790444989938004
518,0.7974945756496603,0.34111732392645877,0,0,0.785673020441633,0.03684179533081721,0.200473280969212,0.2741120569041681,-0.18862969532543425,0.3267689747971098
519,0.770206944341118,0.37503031871886827,0,0,0.8042744143361109,-0.001781047893038276,0.17555231010661396,0.25219443187673557,-0.15866264364413374,0.31466092931491485
520,0.7541223710114692,0.4134819667845238,0,0,0.8156307325774561,0.012750985229257637,0.14991979470643174,0.2822437246659597,-0.14284631039710038,0.2857207667285435
521,0.7505500097773077,0.4538993648781043,0,0,0.8155445920422421,0.030452208578983887,0.12432534768438049,0.3038173409977418,-0.07947384078093972,0.23700113922117824
522,0.7603394817357154,0.49388798461172634,0,0,0.8012762451616032,0.03812719022250996,0.10650428618483927,0.3638490968777319,-0.012582688191306025,0.17686435965325767
523,0.7837115586424679,0.5313084521883513,0,0,0.7624370908307396,0.0004753744274772081,0.09069737214178249,0.43564000096129524,0.00551501367159304,0.08663960060204257
524,0.8200841012236983,0.5643363911752789,0,0,0.6729402569383145,-0.022905231288875616,0.03880377120689879,0.5626509331392698,-0.16169489702539347,-0.03675108112848632
525,0.8679457907711057,0.5915206223030712,0,0,0.6864318134932895,-0.09909020215299377,0.032535159469963486,0.639329377100492,-0.08066678429770492,-0.13951858304462755
526,0.9248366047836847,0.6118336031886759,0,0,0.7573816117486609,-0.05215657573694956,0.14282977061852087,0.7622731761012829,0.09240930499141285,-0.18366853493693683
527,0.9874767329864388,0.6246939065771246,0,0,0.9674281737621863,0.07753883863889766,0.25915584139079434,0.6343354088024094,0.09409121445107702,-0.09388094034580842
528,1.0520458212620292,0.6299449894626254,0,0,1.1951344871324263,0.20615950788516152,0.2733783111122181,0.4447261062355158,-0.1108965877592899,0.19432500484043622
529,1.114567422472418,0.6277958961369154,0,0,1.0985568989671346,0.20622320224207225,0.0610958427162104,0.257689445024629,-0.14275102041793947,0.40170864996019895
530,1.1713215515010218,0.618751553769761,0,0,1.1184530578012437,0.013690677514945356,0.1558335817248458,0.32098068623140286,-0.0879256879720474,0.40883334144374267
531,1.2192036388759888,0.6035636964395724,0,0,1.4487883205633723,0.1326799877066649,0.20114966541058563,0.2185920073568575,-0.2687949434832296,0.6216428595780398
532,1.2559652981990779,0.5832138644558045,0,0,1.3464366389129867,0.10663475071259906,0.33348088188929276,-0.2750370182827321,-0.2554942170854254,0.6699282123563196
533,1.2803000564733904,0.5589136130356587,0,0,1.1438571882329625,0.10391646120515426,0.4933829275471869,-0.34955180066481506,-0.10441635429284622,0.34980625563155515
534,1.2917724970239726,0.5320960155077237,0,0,1.1425241514186788,0.20264930168845252,0.4304965216484242,-0.2809677176718644,-0.2503723683645408,0.2241335790268079
535,1.2906295176001783,0.5043826486350168,0,0,1.1186343673045183,0.10068796731975199,0.27949341379668574,-0.04245669606898043,-0.16615966881487318,0.3575025872504525
536,1.277564047159092,0.47752570394167343,0,0,1.0346201651346099,0.1084046710716257,0.37060392170156803,0.12148780522473089,0.16369102831217144,0.493269317602867
537,1.2535083973283525,0.4533268704914427,0,0,1.0535213826892182,0.043439347235991355,0.5433940648182838,-0.07735215362625648,0.39837597705046457,0.5316217278757871
538,1.219512484945356,0.43352366957273025,0,0,1.1373794717109362,0.1804157797323989,0.6011855268285934,-0.18433682408416024,0.31386678720320554,0.42359513072415395
539,1.1767222436380296,0.4196294199223072,0,0,1.1012663770410793,0.195033763358219,0.5192835336646195,-0.2956749070416704,0.18345391012710185,0.20203413619924282
540,1.126434523731153,0.41273105097539203,0,0,1.0760109385639243,0.07077193773214888,0.464742065215511,-0.1669985393526361,0.17270800653186724,0.0869503864048035
541,1.0701834725504127,0.41328314436388824,0,0,1.0222747421828335,0.1485393286932248,0.4039046166916298,-0.1261095403167714,0.18308817875403333,0.07194924222300426
542,1.0098145175732396,0.4209620764632042,0,0,0.930904615709239,0.2053447210563412,0.35948361369816134,-0.2397965986481486,0.22787543040226588,0.04051236049395137
543,0.9475175165105079,0.43463994981316306,0,0,0.8339551459108839,0.22823586133437362,0.3066900109349374,-0.3498737274641194,0.21941742621705668,-0.0670526669470143
544,0.885808532757218,0.4525041619266655,0,0,0.815978320580639,0.17873715330071194,0.2758919466084341,-0.4270136837533114,0.1391059694466886,-0.20048012455385045
545,0.8274622741478477,0.47230355695291565,0,0,0.7939514927311168,0.1262950031084251,0.23513518037317574,-0.4527285406143988,-0.011714027492554246,-0.33246618587591525
546,0.7754023096547409,0.49166772066582504,0,0,0.7352277871271179,0.08084700082386927,0.19642493797566143,-0.4353249182856734,-0.08154226501163515,-0.3861698594576388
547,0.7325558070099124,0.5084339424693883,0,0,0.710555177944487,0.08686156604985433,0.15654795099862506,-0.3710754349124696,-0.10488707308542736,-0.3502836488344824
548,0.7016774935875709,0.5209261198270949,0,0,0.7355501253090512,0.10519073363987412,0.11934535424198499,-0.3747031512421097,-0.11143644499475973,-0.29650883454288873
549,0.6851467563732752,0.528151910062915,0,0,0.7423168001805822,0.08022163821815076,0.0972100719564252,-0.39798024642359037,-0.1218631229202277,-0.23744384210559466
550,0.684744407528198,0.5299055587953759,0,0,0.7312859777493456,0.05542889451933338,0.06953308550386533,-0.45559588369541193,-0.15882237931484428,-0.14421956876440808
551,0.7014240668179751,0.526774018549228,0,0,0.6850144774815304,0.06375566159295082,0.041148777173021456,-0.49426754196414996,-0.2558378290592096,-0.04046841793975199
552,0.735107825973559,0.5200422585373131,0,0,0.6038202288097628,0.06935630476341303,-0.024460640268797063,-0.5450480930909276,-0.5124919911841914,0.03331153852891321
553,0.7845514171445711,0.5114893075724174,0,0,0.56464639619844,0.10838556581346823,0.024988393131551993,-0.5405520354355882,-0.44649556647474264,0.10868033067613168
554,0.8473290278870736,0.503074572238101,0,0,0.6950936809410465,0.0925890303860147,0.13208881699445682,-0.4765967727097799,-0.20898772146182015,0.20800677710643145
555,0.9199711981864815,0.496545116784473,0,0,1.0177352514035718,-0.04182710179395412,0.2929739089395068,-0.2538500441770308,0.03018186524017706,0.20443851385597248
556,0.9982512203368561,0.4930428581152361,0,0,1.1239789868189043,-0.2034959680634931,0.23740343539543388,0.03171115409118911,-0.009557041823623422,0.06068485464777064
557,1.0775735462216638,0.4928292549707493,0,0,0.9909043424160751,-0.05885850219274057,0.04547772342017887,0.06379588011438424,-0.0462731036763443,-0.12463441404050692
558,1.1533951745876827,0.4952406606884658,0,0,1.0029681045363184,0.4114614701249241,0.1232520412737368,-0.18277181399964612,0.05923638242883484,-0.2979070011648634
559,1.2216146335230926,0.4989250504990091,0,0,1.2058717647521295,0.3213065887434767,0.33447759058033616,-0.19285737958956037,-0.19936079284471422,-0.5783721420540499
560,1.2788780708546177,0.5023100731405944,0,0,1.4590071973673637,-0.08306940074605919,0.5864377257674372,0.32613792107482426,-0.26447334144219964,-0.8085356864764344
561,1.3227644420409395,0.5041606792558199,0,0,1.2016543298304916,-0.16576582797985742,0.6864896555567837,0.5050071106026659,-0.044297334175186685,-0.6533770424019816
562,1.3518280672382381,0.5040489948913967,0,0,1.097889016957593,-0.04079537050001578,0.4958399227998797,0.2992403430128472,-0.11044919782143911,-0.46113294714650255
563,1.3655081257508948,0.502596424238433,0,0,1.217640483573568,0.12516871589523507,0.2916527264370211,-0.09322905100230194,-0.20402172306090385,-0.48830563406277433
564,1.3639520401835685,0.5014345937068664,0,0,1.183421106976552,0.1823700508320079,0.41291955728506985,-0.3107477854545367,0.03962910913602324,-0.38476001812198973
565,1.3478189347963188,0.5029225415319296,0,0,1.27410558772241,-0.030520206437950722,0.5127180772395461,0.05464893661747279,-0.022646810903379593,-0.15959143567953815
566,1.3181188441094798,0.5097164935638632,0,0,1.2408834396244899,-0.21454651594600216,0.45353205782498024,0.485450322696376,-0.09593502883810653,-0.013932993677797035
567,1.2761154664430205,0.5243033114247923,0,0,1.1420124294911658,-0.002989294382444345,0.42586626300762204,0.6024039573604602,-0.05356516372899316,0.0031066755346071426
568,1.2232947641021903,0.5485871482052295,0,0,1.103942120048952,0.04668773180102457,0.40409917640862547,0.5013126518835506,0.020170158918052666,0.026336599168618732
569,1.1613867617678224,0.583582254341703,0,0,1.1552211554316358,-0.0015945077870827393,0.3717355249544581,0.4872143626909798,0.01339043335621611,0.04423293058487633
570,1.092419346065591,0.6292349949450354,0,0,1.1288416266746297,-0.021656077792957033,0.3118859318786103,0.5892202291899439,0.010427266064659081,0.11430010984955667
571,1.0187766269877225,0.6843807020955448,0,0,0.9719074001336954,-0.03290129902702551,0.2972053195754262,0.668839998147853,0.028493278267385628,0.22453925668190558
572,0.9432331660454432,0.7468275478348507,0,0,0.8731906904448333,-0.026460321223014623,0.26875607332755735,0.7510622471531636,0.011924719140685864,0.2677980730692146
573,0.8689419626858285,0.813545704114074,0,0,0.8434050610765514,0.01348520205432011,0.2384206239750074,0.8076392665561442,-0.04901282495860392,0.2854733575936593
574,0.7993643633387275,0.8809313093323841,0,0,0.7968408483504368,-0.006660366816158336,0.21261280433172156,0.815241644354838,-0.03894782546046191,0.2915571750504473
575,0.7381373413229854,0.9451163568830444,0,0,0.7763826285035796,-0.016963028440257242,0.18414649478874995,0.856116050677388,-0.009385846558806279,0.32214110291154247
576,0.6888772621207518,1.0023043525030106,0,0,0.7169328474519416,0.006513488380881377,0.16604617005396954,0.9106959811074862,0.11261025720870278,0.35117228364655334
577,0.6549245471464965,1.0491192655080508,0,0,0.6508057085157603,0.023521768714397328,0.17267628477512967,0.9327917951279157,0.18846001565799528,0.3175171887741625
578,0.6390446566687255,1.0829559182801778,0,0,0.6258408238432928,0.03795251172898597,0.13793396730607735,0.9725530102655618,0.12839089234727757,0.2005451411603488
579,0.6431161254886307,1.1023123412267342,0,0,0.578778445374752,0.018995738269144736,0.13190668258779054,1.054366495894818,-0.008544071482482596,0.03172673985771917
580,0.6678504679320955,1.1070702450047116,0,0,0.5539224034626461,-0.05372181162245903,0.08104996960266786,1.1621994068114325,-0.35186404226759355,-0.13924850190173899
581,0.7125952042249059,1.098672278151834,0,0,0.5879599106337375,-0.10137430997432408,0.029129471073057654,1.2547131566879481,-0.4110729022255661,-0.2737543031836647
582,0.7752649561379182,1.0801337480346127,0,0,0.7241005239474707,-0.01683953955395801,0.07067114500210057,1.2828611099856642,-0.26870014731960845,-0.2992621887834282
583,0.8524248878984413,1.0558374585076435,0,0,0.8641014272428947,0.050434162662725386,0.2157216516681204,1.0757250939726766,-0.27804790424124703,-0.18083220586609322
584,0.9395206389541668,1.031103357634107,0,0,1.038364976696975,0.23518559843755144,0.19157500895101634,0.7973855702488141,-0.4131225681422422,0.04114928622841355
585,1.0312213971509165,1.0115899201487792,0,0,1.048575752203954,0.21522941626368297,0.05192256268815631,0.4969975942389118,-0.24132572427755086,0.25340958632731947
586,1.1218308888384707,1.002640396437225,0,0,0.9496086607005773,0.026680766853465633,-0.018313887115669232,0.6824579692536996,-0.30875991647674866,0.34272110887686846
587,1.2057272912886128,1.0087002201176105,0,0,1.037119244226683,0.010886826020144461,0.07974421399303894,0.9372038271512523,-0.03991760471766642,0.5569304288938193
588,1.2778037641930795,1.0328924167570444,0,0,1.3242539962737434,0.24174257072570002,0.45650316280963527,0.8203518400017782,0.41380360275715544,0.9466360428277226
589,1.3338787980205997,1.0767735809581072,0,0,1.4148441044352558,0.39738156334519426,0.6176764860554637,0.42244812838449386,0.3315164197247473,1.0595668107097131
590,1.371030411875374,1.1402495566785165,0,0,1.2348898119738214,0.18990172193115,0.5961904764967558,0.33609186024755117,0.34431641513501016,0.7252620111867933
591,1.3878021792237214,1.2216301096088844,0,0,1.3125604213735707,0.12095785345859321,0.42591152261628057,0.6394295424583756,0.2517516889069167,0.5478770176410788
592,1.3842489668207434,1.3178232715184193,0,0,1.3215434089023597,-0.061495855581018985,0.33487269851162416,1.1118770130386684,0.43846118057079086,0.557336360606186
593,1.3618266817340905,1.4246698633233554,0,0,1.2076145494992045,-0.07787879562984232,0.5125123385412566,1.4752401255514347,0.7072100189013553,0.6247190533487346
594,1.3231600889084087,1.5373826514420275,0,0,1.1979970235457211,0.2293916544020776,0.5534912660273782,1.4533272898282357,0.5977140091834469,0.6685992635795279
595,1.2717341650105494,1.6510140907284434,0,0,1.1230555761823786,0.19081465281393142,0.48234535481171553,1.4006538806343474,0.5101945022816657,0.6287159379984746
596,1.2115519336774325,1.760871715109269,0,0,1.1033634846590101,-0.02414478208542215,0.4098139544587142,1.5452954559985617,0.4589087674167947,0.5059336772569588
597,1.1467939211615692,1.8628340195415374,0,0,1.1031932511537372,0.0452364864645181,0.36391921573040925,1.7193236620313885,0.43882540539764997,0.41120430760141313
598,1.0815058613808137,1.9535600794848413,0,0,1.0134880855238448,0.15959437778714455,0.35510538691658144,1.839104518372529,0.49794989033841924,0.4318117629886584
599,1.0193334336612996,2.0306052918745086,0,0,0.9179174252083905,0.17630226316777522,0.34910142840715785,1.9313315975421161,0.5446163706353501,0.5102954647349525
600,0.9633166858589112,2.092453175519281,0,0,0.8587903788803338,0.12466017814345669,0.32437091948230745,2.0097878984193556,0.5631328518057251,0.5575756839951508
601,0.9157525922060437,2.13846548509745,0,0,0.8288745891554276,0.13615269734479576,0.2905891332474835,2.089046323424586,0.5361825154921851,0.5312119674538305
602,0.8781298128545447,2.1687536097510383,0,0,0.812907242984675,0.1940010549357394,0.2788915377024063,2.072668706783438,0.492811401975614,0.4709563934457402
603,0.8511328813032663,2.1839868134206424,0,0,0.8150812254781958,0.23092950067020734,0.27123737678606036,2.011822241448717,0.3965700357760548,0.4500038064453449
604,0.8347048469414156,2.1851717981290206,0,0,0.792497721567732,0.1980041528729465,0.265894807775648,1.9762269480787669,0.3239840544386581,0.4944870554733272
605,0.8281520093637327,2.173452054874305,0,0,0.7734770263138022,0.13726981810348773,0.2561037654742491,1.9884378364625985,0.2936176309902907,0.5692455920104619
606,0.8302748864571822,2.1499735464876766,0,0,0.7595293477291853,0.12578625822009132,0.24286674146585946,2.0036464454317717,0.2639190522874186,0.6529536513357469
607,0.8395146218218682,2.1158427663759936,0,0,0.7799484035197544,0.14340587775120284,0.21359081992789816,2.015018867125968,0.18072196041565694,0.7053604717811501
608,0.854108926521175,2.0721727227386477,0,0,0.8072179297053654,0.19575578978661962,0.20496039186815582,2.000862648218563,0.14126252205939097,0.7426119578461516
609,0.8722525692938925,2.0201859740573935,0,0,0.8246073895075579,0.2352203392801595,0.20609130804275688,1.9192227034851261,0.057627841920588514,0.8000669310609552
610,0.8922545782295529,1.9613319394405104,0,0,0.8266861308215748,0.2853429214022659,0.18942573585310837,1.8032691449068077,-0.01845545660327019,0.8170118854577388
611,0.9126807737022348,1.8973801457007842,0,0,0.8344793785812303,0.2875189465128763,0.20238509632669846,1.721920151885397,-0.11614268171272554,0.768627424014033
612,0.9324684761794512,1.8304658801013698,0,0,0.8457875303826956,0.2847787061093351,0.22308334210570122,1.6717844254527747,-0.1647625582770914,0.7285152560256105
613,0.9510000620156531,1.7630808256690034,0,0,0.8769041522981554,0.2623736671694673,0.25747681742602735,1.6010233438831074,-0.19606067362441243,0.6856727125469486
614,0.9681218992144011,1.6980121147136846,0,0,0.9755829881702796,0.2269448563467036,0.31205474437742087,1.579227346315032,-0.2693364288696028,0.5926737173289924
615,0.9840951593364989,1.638237721934947,0,0,1.0384900543257671,0.1959299249685672,0.36104176270820076,1.599373131592845,-0.21488306298317164,0.42983138503990276
616,0.9994689780932633,1.5867872124223232,0,0,0.9925354269410752,0.23096012360677753,0.3460103879431808,1.56412094087706,-0.26110967982554684,0.2561691524028447
617,1.014880337418396,1.5465783842917813,0,0,0.8899385107370593,0.20664161910222478,0.3023726187422314,1.486140239026442,-0.22930947083936656,0.20933158944100289
618,1.0308100338066994,1.5202440772197123,0,0,0.8250271564589575,0.07886334784878662,0.26774593618046255,1.433845895414743,-0.13065574734332683,0.19268418814959082
619,1.047350609889264,1.509967283679143,0,0,0.8664501283416588,-0.04767000775235561,0.26907408215462253,1.4502389536040456,-0.027582457200251858,0.1545928536160167
620,1.0640534656088634,1.5173417857135,0,0,0.9673943120462625,-0.14237063914158588,0.22626038696968076,1.5327921803323472,0.06545717117410813,0.12721996976474312
621,1.0799076743321985,1.5432669427672536,0,0,1.0158840492306447,-0.12109420352388146,0.19255527353436788,1.5872564843754462,0.20472046996788573,0.22047452942878437
622,1.0934669046577261,1.5878727984305432,0,0,1.0814710947561739,-0.06556939004924132,0.2353215378147419,1.5928959291583877,0.2887825547098573,0.3938307953202106
623,1.103099349059529,1.6504645605926191,0,0,1.1522213100890237,-0.04749982630815672,0.24482974066006258,1.6011453660614507,0.22527455315310663,0.48074801335069356
624,1.1073041940198793,1.7294808674288709,0,0,1.1599687638809788,-0.039726358793967485,0.2356398662591048,1.5902303070961668,0.19829713427542178,0.5067582015441519
625,1.10502470090073,1.822476381688801,0,0,1.130223255599189,-0.07324861573621279,0.22634734368601497,1.6373608614948931,0.16999946000846194,0.5005081444890793
626,1.095892845341345,1.9261557773051232,0,0,1.1223722588745524,-0.11860255776526703,0.20766576407382673,1.741866548298387,0.22116156050455055,0.5045301624141246
627,1.0803590922614166,2.036490836960491,0,0,1.1039181077211881,-0.12044309279874849,0.20284771190319997,1.8995762208836542,0.27123683641661256,0.5276927240264583
628,1.0596860443662979,2.148939343292952,0,0,1.0618302360076848,-0.07671523925578025,0.2018107113693975,2.052902354502114,0.31288574303924743,0.5707954563058747
629,1.0358100461002775,2.2587582620608755,0,0,1.0108663378414766,-0.06499341709680297,0.1891115334757724,2.182214866898143,0.31833551394277765,0.6202333613275541
630,1.0110967436273195,2.3613759632676765,0,0,0.9549480726147396,-0.08320966339445625,0.18772949233406813,2.284003305101479,0.32685283049294933,0.6410634400485611
631,0.9880328066928439,2.4527697278863663,0,0,0.9196692187150891,-0.08452087907417906,0.168175939287443,2.379947121040281,0.32061255084968326,0.6545056574746944
632,0.9689041120547978,2.529789844691733,0,0,0.9145803194404785,-0.08035794947781648,0.14965398173285394,2.493860124533363,0.32581592796535996,0.6743606112160649
633,0.9555092144139993,2.590378412383749,0,0,0.9258622410771293,-0.07825883284179012,0.1664976349591237,2.571922409590465,0.36305377467561106,0.6856119856430858
634,0.9489471903102671,2.6336462609467395,0,0,0.9063000888546584,-0.07126785790135169,0.16916959177465724,2.5853781082905525,0.34164038122523527,0.6776110432059709
635,0.9495049016141016,2.6597935345893764,0,0,0.88756965575778,-0.09563247258116732,0.17761849717976982,2.5593930421804276,0.31037706607421356,0.6599813298125359
636,0.9566544663335603,2.669886583817178,0,0,0.8937034489515778,-0.09695364874911443,0.16111184130819362,2.5364222531352496,0.26534577294291123,0.6214571233966534
637,0.9691586098343896,2.6655305479029594,0,0,0.9096353985577577,-0.08771038688785684,0.1718526817676021,2.5605330674291165,0.2999962169791062,0.5724564466976764
638,0.9852682952696789,2.6484956855229487,0,0,0.9748202858324101,-0.046253236651612385,0.21951367817184583,2.563849891707265,0.3182454290308301,0.5575633967798491
639,1.0029827810590681,2.620361681311353,0,0,1.0418935112669976,0.026151990407499354,0.2661569157435056,2.466039007992478,0.3381263554776686,0.6313423416383108
640,1.0203296475515438,2.5822396532598155,0,0,1.0236292327466336,0.11909873113017601,0.3113421089690525,2.354881451699957,0.3508267886220614,0.7360178155361027
641,1.035616906573535,2.534620657237348,0,0,1.0211394146420718,0.2741822476843499,0.2981506339619535,2.269630153300876,0.38634146452368223,0.7559919062739369
642,1.0476154359830885,2.4773829315933376,0,0,1.0078564034052706,0.3248131430689824,0.28299961280198005,2.1745342147171614,0.49945950356582,0.718932340675429
643,1.0556470542548346,2.4099650053516233,0,0,0.9928923104526125,0.24699890359918528,0.242379459708211,2.1724089123066643,0.5809972926246935,0.6761877079813422
644,1.059576152534969,2.3316767806320726,0,0,1.0027390850674105,0.14453692790237718,0.20753325856891913,2.2841826568478862,0.6211933831210292,0.7185866650706518
645,1.0597238547710988,2.242081793632665,0,0,0.9655617726032156,0.1769838206202094,0.21316371227381453,2.287939794034691,0.6297561970554382,0.767172906783303
646,1.0567370691773215,2.14135611303668,0,0,0.9324720671145408,0.2785304956321854,0.2127577522785856,2.081000740010206,0.6292295407107995,0.7446491915248581
647,1.0514469689404744,2.0305303696982824,0,0,0.963394523789317,0.3511787942347248,0.1783144137612689,1.8286493360306593,0.5603871216609287,0.689089803141225
648,1.0447428262414624,1.9115568808806702,0,0,1.0318840358197712,0.36481185300750024,0.1341390556858367,1.687222119315684,0.43191048687030836,0.6207284902680219
649,1.0374728123961974,1.7871981459553454,0,0,0.9963174992618402,0.3301968988828282,0.12770433963647643,1.621469088570139,0.2835501788777532,0.5533526450556503
650,1.0303713476630478,1.6607792060133972,0,0,0.9569006469205336,0.30537648447969806,0.1397582660360442,1.5177665713544222,0.1932399434040707,0.5170478393891956
651,1.0240086449805126,1.5358669659199646,0,0,0.9415989488242377,0.28035079359789405,0.1768278407035785,1.3957573873329836,0.1244533877603045,0.5524907289318296
652,1.0187611381149793,1.4159359664433018,0,0,0.9536101402389373,0.258480176678557,0.20572040998627233,1.2725094074299788,0.10197724295014327,0.6047481598276339
653,1.0148051354617773,1.3040645086122182,0,0,0.951723109084932,0.24486839117346823,0.22412622861682513,1.1689119071089047,0.11365281960242436,0.5795453700309436
654,1.012135480246172,1.2026886799701169,0,0,0.9429987700711179,0.25685538195162155,0.2399535360663095,1.0844927493361334,0.13804694775329804,0.4884396953869306
655,1.0106066542640224,1.113430168067149,0,0,0.9361567347920153,0.291457337891482,0.2466855272422499,0.9976295913279282,0.12723803862859773,0.4054994131782094
656,1.0099887212403098,1.037007165386469,0,0,0.953061479575413,0.29148220961418997,0.2456509917975195,0.9185251095794982,0.1252035754988276,0.35476589939443104
657,1.0100269711939718,0.9732332498281285,0,0,0.9483691502839262,0.26852001603536063,0.25865297702529644,0.8900103607232934,0.16495528687179634,0.32116838157552746
658,1.010492908268748,0.9211031448419875,0,0,0.9631116759260201,0.24920912098612671,0.28395343213019486,0.8514471182285537,0.17438806485279412,0.2966137131366593
659,1.0112156498910387,0.8789553284818092,0,0,0.9707364021614788,0.24517603929538836,0.2935810378333492,0.8082838097970276,0.16289644536343958,0.3109788829660296
660,1.0120870079990039,0.8446916377376279,0,0,0.9549803826109537,0.22495461787556575,0.2866542412461348,0.7706339119453215,0.18087942233649035,0.33781124551937664
661,1.0130402341056794,0.8160266934714132,0,0,0.9395796539199315,0.20437743052767549,0.274708895671249,0.7356700013060093,0.1586603938740242,0.36477696388910585
662,1.0140104558771459,0.790737091550502,0,0,0.9226209637440712,0.18910984463586097,0.2588837127027596,0.7055664835503495,0.12726096743409146,0.35985139795732163
663,1.0148915879082552,0.7668817380997366,0,0,0.9318635005103478,0.19806246012314715,0.2463352698301151,0.6808205901733622,0.0880339228341944,0.3438089777191357
664,1.0155066710795728,0.7429691134826595,0,0,0.9563792769221956,0.1941704836554375,0.24835515288633359,0.6815471895226747,0.08564340877227226,0.35037787078129123
665,1.0156046115816737,0.7180530281066839,0,0,0.9595967318320656,0.1955911611931032,0.24916168169318376,0.6813577567262451,0.08847602431648967,0.3663284620998603
666,1.0148878953528775,0.6917450719448063,0,0,0.9593510448192739,0.2112417056985835,0.2379233757987952,0.6534619176144392,0.07095193378237896,0.37065871031660874
667,1.0130668298812333,0.6641411003658538,0,0,0.9666680230819646,0.2366445865687495,0.2221412424972336,0.6052765952808046,0.04512885821552963,0.34877264550844583
668,1.009929224911178,0.6356730043546261,0,0,0.974205003136631,0.2666117817606935,0.21772418329465423,0.5336396021438322,0.013490766046180032,0.28991666768193136
669,1.0054111767000806,0.6069148305963192,0,0,0.959048559621003,0.2764867960502349,0.2194073104727405,0.44468588194041925,-0.03392265251104278,0.2580725934560137
670,0.9996547148982986,0.5783880566874721,0,0,0.9397402396336607,0.2435836528263442,0.2178780497634264,0.39280181839891226,-0.0941612683995585,0.2378520749863837
671,0.9930410614709826,0.5504158226023517,0,0,0.9264201660693109,0.22634536879480832,0.21560657089847532,0.4114947442053152,-0.10387098370402158,0.19748639953114933
672,0.9861926419555284,0.5230643815556751,0,0,0.927260350872562,0.2147353927596503,0.24113446183587067,0.45912728457083246,-0.1263548609762702,0.13899958127056253
673,0.9799403352436861,0.49618363951784267,0,0,0.9499906878786291,0.21395151495592837,0.25125651675736477,0.4850838643318232,-0.2002552604914685,0.08301562473645413
674,0.9752534600811767,0.46952666800902293,0,0,0.9667047852963246,0.2204100416089976,0.26874107494904453,0.5019124946360667,-0.2475732815104138,0.020437978362381797
675,0.9731304483186239,0.4429028980785095,0,0,0.9496193795274409,0.2069772486370287,0.29284328162615253,0.4946917556214576,-0.22632272282357643,-0.04928506384666206
676,0.9744518851103777,0.41631109156848334,0,0,0.924571255011307,0.23213125372436638,0.3145208736325971,0.4206320124906193,-0.25805505479326113,-0.11779116187862809
677,0.9798070926925382,0.3900093531868447,0,0,0.8809105256390733,0.2035470881197993,0.3298526973844229,0.2617125542789031,-0.25164983403794877,-0.15596055590161578
678,0.989319127260007,0.36450582927642927,0,0,0.8590495405035908,0.11290787023453959,0.34062259408966206,0.11177513253631347,-0.13421066793991598,-0.1861303379215027
679,1.0025055977773052,0.3404839820513513,0,0,0.8591624847530569,0.050782103239564294,0.38386402418254356,0.07297458159400659,-0.015365765289708563,-0.22129476044119956
680,1.0182177192017932,0.31869614215757514,0,0,0.805514620139299,-0.10501741902989539,0.3815978409804537,0.10580760445672177,0.06970146146490334,-0.2704587632542717
681,1.0346930181601819,0.2998589698192483,0,0,0.8284972665271754,-0.09683799417802903,0.3845529352490534,0.19543233215044434,0.18191344344627716,-0.3267430930401059
682,1.0497369442452495,0.2845679990642013,0,0,1.0090290659963654,0.07385404309092695,0.3599186344813305,0.2575023309568219,0.05523375333273246,-0.25701244490210196
683,1.0610181509119287,0.27323137993694224,0,0,1.103608579883026,0.20023824000460963,0.3634710258235704,0.18511750573132776,0.07208658587590079,-0.06848192289897923
684,1.0664300142914613,0.2660198706608454,0,0,1.069306730612472,0.20371437332857356,0.37916080776819727,-0.0018390257527643131,0.13641621252686495,0.10129193846023701
685,1.064450429222858,0.2628400599833222,0,0,1.0081894218755039,0.1144338377924598,0.3475708262826712,-0.11912604428529648,0.09104138089827842,0.17148845778922214
686,1.0544325941434536,0.26334591590892753,0,0,1.0514466056101164,0.04618460448657692,0.2698926033470914,-0.1413421530673373,-0.045973660321290695,0.19572310996090056
687,1.0367782234930127,0.26699830698655724,0,0,1.0470680216367292,0.019205041901839432,0.2199618977472811,-0.1196028884471273,-0.027698165546051923,0.22545985180690492
688,1.0129690467268906,0.27316553678739486,0,0,1.0240191819196973,0.05287783263146934,0.2237258645800563,-0.11486817870330349,0.006362687402997743,0.2865843229405358
689,0.9854531591369783,0.2812408990180574,0,0,0.9672059464532209,0.037008992835421806,0.22642147752092623,-0.16439996530180365,0.05759083039398177,0.32334013937055656
690,0.9573986556582058,0.29074424157117273,0,0,0.9465629744756231,0.013547828608488768,0.19111156757464648,-0.17476831537412527,0.034568821016987786,0.2924032589504545
691,0.9323402136531428,0.3013768639198114,0,0,0.9489268412370482,-0.007822156373823115,0.1644001713810538,-0.16461534960433563,0.12235606656264042,0.2620048684828674
692,0.9137556490591628,0.3130123301982013,0,0,0.9464068369914687,-0.008146652416054157,0.14501481278660544,-0.11515724943039801,0.16795458172006286,0.23075691598123912
693,0.9046191125775827,0.3256255307775148,0,0,0.8738977077264651,-0.0025020135793604853,0.09771814149955396,-0.030132454986553262,0.24497089078721285,0.17903886456868934
694,0.906986396050703,0.3391810849428095,0,0,0.7895664806583834,-0.02302841838612166,0.09050075938359338,0.1143912231703557,0.22673472160064842,0.06316862965843727
695,0.9216746404617979,0.3535130895507956,0,0,0.774321816621587,-0.040513263226493006,0.07176374310928477,0.2698014832241376,0.10675765804657145,-0.06896707311389909
696,0.9480974994949523,0.36822796062609336,0,0,0.8037060896350741,-0.02103231174705551,0.11598114634582987,0.4073929457618636,0.03273648866256883,-0.1442254423331314
697,0.984299616150069,0.3826521640470695,0,0,0.9117341652528488,0.002343581350931839,0.10591409541492378,0.42809305977879003,-0.03533135704196994,-0.09242221354477341
698,1.0271990511139628,0.39583376446149904,0,0,1.0403823537727948,-0.007719524780026606,0.16371561395429643,0.28610085933760565,-0.08169673841181221,0.0549040703363413
699,1.0730010589273205,0.40659907394968203,0,0,1.1225159677005032,0.028532998278918607,0.13330094165237785,0.12895147866611756,-0.2624040554773817,0.195891796471058
700,1.1177059696932827,0.4136641765846711,0,0,1.215958001792962,0.15102378732730576,0.3567316028253229,0.05736358492270256,-0.1267685175916785,0.2666821331995208
701,1.1576118180258994,0.41579741672097176,0,0,1.2711339343178396,0.33741118965546885,0.42393450606225486,-0.2929509116192428,-0.12859309864838026,0.43080178387409884
702,1.1897166664719265,0.41201636388075635,0,0,1.0485967268469643,-0.05607764403406749,0.43611771007662375,-0.4154158611488975,-0.16429076983844204,0.3081504857546904
703,1.2119557405668124,0.4017869903178529,0,0,1.1655758871539807,-0.08020060139311695,0.5153830633980223,0.10557890881635673,-0.25898618868404216,0.08421547668088346
704,1.2232542255083807,0.38518660913054326,0,0,1.2719020617530297,0.08193047753678413,0.32839315221385657,0.27953782227022383,-0.20778308675833568,0.10511169684407956
705,1.2234218137748112,0.36299917432416773,0,0,1.0068289770173942,-0.00637247220030939,0.39868188230842455,0.32173641532242536,-0.026442542246649728,0.2259454305321264
706,1.212947901021575,0.33672182089214453,0,0,0.8858630985163618,0.03481707862755174,0.48918718670278205,0.3191553280490509,-0.008372506259346695,0.34323997874517254
707,1.1927717019006312,0.30846668510419334,0,0,0.9307505544368594,0.16573228539257698,0.5454337346662488,0.2516183194224819,0.07716505906831324,0.3769092763515853
708,1.1640951607366068,0.28074831437248726,0,0,1.0263526451193594,0.2657409760465814,0.5296129811368614,0.10034940421580993,0.09025018046408162,0.30907613916200083
709,1.128277021823479,0.2561663648063092,0,0,1.074658961004838,0.1523907994939259,0.5107490479113203,0.041008360611479396,0.01358515816782769,0.1556838644722321
710,1.08680562459215,0.23702628024289776,0,0,1.0582366674754173,0.12890172997928684,0.4608916655090487,0.11398542052836079,-0.03579168284335194,0.030899800230238594
711,1.0413170678055577,0.22497230561512668,0,0,0.9651347644888807,0.1871846114933783,0.44025120465795897,0.10028964696727329,-0.025828089948317916,-0.0017132072395969152
712,0.9936174907324109,0.22071899390150596,0,0,0.8428149897157625,0.23674841569882546,0.4084822128548941,-0.005826436703371487,0.05375125964922175,-0.009164284474989076
713,0.9456797070122183,0.22395101900415412,0,0,0.8402838592980977,0.2247465292418052,0.3746332457841259,-0.10120979026485334,-0.008541406318337663,-0.07429417889271166
714,0.8996020947524427,0.23342162539801645,0,0,0.8620203880398042,0.16834322656640938,0.3169781031564236,-0.13984592633108717,-0.13791934572783524,-0.18831223785396248
715,0.857530849274632,0.24722999414692362,0,0,0.8131790463040005,0.09784673635258904,0.2810660302112263,-0.11865687707824811,-0.1751815849244655,-0.2615642740273766
716,0.8215534433170651,0.263212441288504,0,0,0.7614994956164161,0.0707942093613455,0.24662626812355357,-0.060418740752339016,-0.21048076297070362,-0.3127402330609761
717,0.7935749910677699,0.27935633234324525,0,0,0.72396110255806,0.07496610529199652,0.2205335872122797,-0.025704114797473844,-0.22244327814637632,-0.3080067791334836
718,0.7751922478018198,0.2941468416963064,0,0,0.72006233595912,0.07646096657481734,0.1805167200301152,0.017241674358245824,-0.2637558575106563,-0.29139557970494545
719,0.7675802997867173,0.30678215890231986,0,0,0.7336234998511696,0.11299046070734657,0.17133182213216752,0.10836898048195014,-0.19459974446819583,-0.2633058952035576
720,0.7714025717396193,0.3172315680310887,0,0,0.7748134400298565,0.13079116335643587,0.16721727568987793,0.13703806911314986,-0.15324998263201223,-0.1682115437727975
721,0.7867472679025646,0.3261502962880784,0,0,0.8067387086779191,0.17922672630307676,0.15714668586464192,0.040604761976352016,-0.1668806978719979,-0.016938579137682697
722,0.8130877000122942,0.33469318138337534,0,0,0.8275269058618856,0.18342010593920657,0.11524093579390307,-0.1426399523434801,-0.14654581027477476,0.10096052141742433
723,0.8492649336006867,0.3442764240316399,0,0,0.8198054586241926,0.1602300613501397,0.08217688024039445,-0.31531503702736674,-0.20289746493413546,0.13440609979874363
724,0.8934997089931622,0.3563214518126941,0,0,0.7668520713784209,0.12999439735934004,0.01945108160009426,-0.4570918776389665,-0.3495616355656795,0.1147054308119117
725,0.943451499270162,0.37199013658848695,0,0,0.7906210857234571,0.1984224011567563,0.06704106468412478,-0.4417688542545191,-0.2722809416751246,0.10384419416342765
726,0.996346090606591,0.39190948300678813,0,0,0.9360655527596088,0.17501833525315172,0.16049768804287662,-0.3698306600837744,-0.1280585417446778,0.13976733413460793
727,1.0491813473840241,0.4159022230070678,0,0,1.114569063387337,0.06500465361826166,0.22716200021371746,-0.2027307868967383,0.0006648864723782438,0.10567593432489518
728,1.0989960323390775,0.4427792385619921,0,0,1.0969790521791647,0.04183114944311673,0.1831790629968713,-0.0098862402220713,0.0978847964898533,-0.02388544885785596
729,1.1431615338709833,0.4702805285058368,0,0,1.0759227141400858,0.172692340493682,0.10136168519386295,-0.04415545536766861,0.1939897022626472,-0.17461319814906764
730,1.1796435264871674,0.49524345645860823,0,0,1.1800624812300176,0.41456454387736846,0.15882940703023807,-0.19966284048750607,0.06488589239901628,-0.340660603115377
