id,ASVM,GSVM,walking_nonwalking,normal_abnormal,ax,ay,az,gx,gy,gz
1,1.0025494159510029,0.1086144261556155,0,0,0.995950605698037,-0.01886862258296872,-0.07570326249825846,-0.028373812281331904,-0.03242111013638873,-0.019409783878725377
2,1.0079666452060858,0.10716548191914248,0,0,1.0230041705541502,-0.011185868017177034,-0.11470145123306062,0.031835973721823896,-0.027653984125860773,-0.06423067787666821
3,1.0127374010288823,0.10369338283623022,0,0,1.0319031843537572,0.012814664170643468,-0.08319233078687541,0.11651054067257499,0.09679234988194771,-0.0693647808415678
4,1.0160393756767214,0.09882621132013969,0,0,1.0331055113380228,0.0379316136345767,-0.05058535993308286,0.13548508269072812,0.0678732086091365,-0.029419865109315487
5,1.017195028316373,0.09360039097053686,0,0,1.0292786947482064,0.04915371522322212,-0.06614621257904896,0.13752308919300943,0.04556064052440492,0.008435454055719575
6,1.015773384639913,0.08944918551660837,0,0,1.0093789963962918,0.06217117163905004,-0.06756518824672623,0.12306974869669723,0.03114268578161502,0.021803069623063578
7,1.0116585348134361,0.08811815484635799,0,0,1.001032554225244,0.0635618153990955,-0.06399892783492246,0.07000762164345797,0.02404111631966629,0.023981527482568262
8,1.0050799015041707,0.09150839874653754,0,0,1.0052193211720242,0.045552276628657955,-0.06812709717165268,0.013582384955474817,0.04680090317752865,0.02303738752507945
9,0.9966040315276623,0.10146560143320439,0,0,1.0040342209466961,0.024052563183570186,-0.05772858921002534,2.835978332898713e-05,0.11126368145891827,0.01389810411803693
10,0.9870898600853956,0.11954364159082564,0,0,0.9937560215753978,0.025645573871693455,-0.04899294404176167,0.004134017571274306,0.12733323909912525,0.012307646963015582
11,0.9776103570738933,0.14677451021117607,0,0,0.9794741298163052,0.032936020366960916,-0.06426157711397873,-0.003135744126454342,0.1503075581964001,0.025480575831077434
12,0.9693447754878709,0.18347492137443505,0,0,0.9671296556124069,0.022906669016647584,-0.08190720267085708,-0.007236607462720669,0.16563041502783835,0.03813596406652385
13,0.9634479499020815,0.22911856982045764,0,0,0.9675995330584501,0.0038204488394993712,-0.08570924222568649,0.008305348619811923,0.16214731157412682,0.04489835208789228
14,0.9609057463081168,0.2823020245321863,0,0,0.9688802125414523,-0.00797744853463316,-0.08859584607157124,0.06631267020834579,0.1556327128103411,0.05917032250188398
15,0.9623883843225888,0.34082784755558454,0,0,0.9889848762629624,-0.003812886325835465,-0.0869973595227281,0.14984655670445393,0.1757035286183854,0.07410178174260168
16,0.9681163681386302,0.40191546175377013,0,0,0.9924715013056623,0.0223067928037453,-0.05573822639562428,0.11838092283622088,0.3182335761799738,0.09150599066868488
17,0.97775823775768,0.46252627852405004,0,0,0.9502792636622831,0.03330459275064438,-0.017271193310613112,-0.04308561003604344,0.4406017143330024,0.09073099858477368
18,0.990385498534994,0.5197584445070595,0,0,0.8972534526641159,0.005233153693613456,0.0303153755911662,-0.30524669702424273,0.6120658927694816,0.020168977089942666
19,1.0045150349954082,0.5712384815977497,0,0,0.7996734893042212,-0.09849719075717335,0.040938672624222676,-0.3854714491816344,0.6863345202511689,-0.16639311302128112
20,1.0182659698801186,0.615425712639618,0,0,0.8428604344309083,-0.055363704635035774,0.023295985779459204,-0.08605414345388648,0.5521545946616486,-0.3417612082684358
21,1.0296378372397306,0.6517608900700849,0,0,1.1275254721941765,-0.007649052376559621,-0.08218150651606322,-0.12039658327768417,0.5076446396580461,-0.36976987137899947
22,1.0368785794151316,0.6806303921638934,0,0,1.266156362598215,0.007115530865452934,-0.11443079759290697,-0.10163909713657615,0.6975497055192249,-0.2884939540103283
23,1.0388680652931712,0.7031649963356528,0,0,1.1599342099422303,0.027991156531738816,-0.08189039616933823,-0.17759065339002775,0.5724049312811345,-0.08014121335964568
24,1.0354205621017694,0.7209290631559431,0,0,1.1093378633564113,-0.017583957086586357,-0.07367931511235354,-0.16105358221660376,0.5909084715225891,0.08428749450578235
25,1.0274241343880464,0.735573692190719,0,0,1.0410182018209755,-0.02923932703269644,-0.05735330583544072,-0.20484658835696692,0.639679414832874,0.15844779591229885
26,1.01677840251358,0.7485261595767685,0,0,1.0342613807202097,-0.05003350353086834,-0.06474571439896078,-0.24881110816970983,0.5743847145138941,0.22660849376881825
27,1.0061411050848288,0.760770678840198,0,0,0.9868493216379409,-0.14236436039507103,-0.07566461931524827,-0.2152963956328996,0.6712385858013293,0.257029275672132
28,0.9985305483113335,0.7727484639836185,0,0,0.9416182145317602,-0.25250263483712526,-0.05061486328858997,0.045341486500124074,0.7392060382422792,0.2511269050994627
29,0.9968513541582169,0.7843771872426631,0,0,0.9145651583728105,-0.26155614930198984,-0.0021344080980759427,0.3845431365634528,0.6599720035402727,0.20959991782244172
30,1.0034184240705664,0.7951684207572861,0,0,0.9011952736945924,-0.21993861523214958,-0.021313720747513382,0.5684450495602071,0.4123764204092038,0.16515548745043396
31,1.0195517312932556,0.8044087086929207,0,0,0.9265868274195559,-0.12190824385617582,-0.09920113819111817,0.7592800557204024,0.3259952090653794,0.15671255346060334
32,1.0453031497913072,0.8113630198823717,0,0,0.972793570677997,-0.037517538347296105,-0.09417127797526884,0.8286573312462786,0.42545462376973797,0.1354189332995825
33,1.0793564095300232,0.8154559156169101,0,0,1.039445422496341,-0.023270394732093552,-0.07450515487976152,0.7914748372239676,0.36868793541695993,0.06632363524302295
34,1.119114753072014,0.816388607723603,0,0,1.1334813285107452,0.003157447486597183,-0.09232927180012228,0.8407441149206802,0.33107713879654094,0.027505400732608206
35,1.1609628867415418,0.8141648531535953,0,0,1.129292927952247,0.026181825527907304,-0.07582606449860804,0.7818779076020372,0.3462355664598941,0.11307746584851489
36,1.2006661287583296,0.8090253890794814,0,0,1.1530825591617238,-0.02104123683580995,-0.10502551683367475,0.6580061850250206,-0.09976351949416254,0.23511472090780586
37,1.233853318540846,0.8013209251314932,0,0,1.2698649232506098,-0.01516695773667303,-0.20297791992630315,0.5416385962681876,-0.40635827200746427,0.2449361929610972
38,1.2565200683374969,0.7913754124855931,0,0,1.3183496885801245,-0.022532553783245854,-0.2967322585279304,0.5669375636737557,-0.20658157107590094,0.204641260068336
39,1.2654843497155928,0.7793943019461326,0,0,1.4381032218304437,0.27390665948426257,0.12230894082426352,0.47721390454667134,0.5002870313290546,0.19548407125441433
40,1.2587314324005876,0.7654533633963754,0,0,1.238083402945166,0.2104215504315511,0.5339734490544419,-0.5960420188887923,-0.043079757549599355,0.2673032713996262
41,1.2356067219829185,0.7495683812610803,0,0,1.0538561859956956,-0.03278276343746211,0.21708339266659651,-0.39787242525738536,-1.0784455160558892,0.41052196673002717
42,1.1968520791009611,0.7318100042165586,0,0,1.036301645064153,0.0046969370224922615,0.20909204069733858,-0.009939086830280304,-0.504866718862115,0.46289828768033603
43,1.1445179762402842,0.7124114472845159,0,0,1.0187383690794773,0.0017938030813703621,0.4026968684462826,-0.0777800395178634,-0.3437152871838205,0.48343347367157447
44,1.0817989426625563,0.6918305564527323,0,0,0.9987638298471304,-0.00610953655116811,0.3395786802255552,-0.2594900287582948,-0.30288724032383096,0.5151144137355219
45,1.0128257674616807,0.6707587579510391,0,0,1.1045128777369155,-0.003788353879271949,0.3018571184832454,-0.3353567899355414,-0.4818653211224905,0.46398240187177486
46,0.9424193660457597,0.6500913713746469,0,0,1.078074708100144,-0.05287098108879988,0.17129601394509889,-0.6045238216647467,-0.2663320641376005,0.27490711988277966
47,0.8757915593836714,0.6308773282982706,0,0,0.9254194608897119,-0.02315804904293416,0.02726578407649431,-0.5199802488916712,-0.28949680034508674,0.05729028923935846
48,0.8181819514393264,0.614264357478646,0,0,0.7498961041973193,0.0348173863256251,-0.009587826321597185,-0.4352097565192837,-0.08855335873797422,-0.03872341558436553
49,0.7744450874585762,0.6014579017868622,0,0,0.625851239827,0.09895515191048944,0.05545768766868253,-0.3313767931693458,-0.17042316028065468,-0.14224499119537062
50,0.7486307899921721,0.5937098270669492,0,0,0.6419127234436942,0.09554519304670642,0.043247633129041625,-0.4121900304793806,-0.4771780663927846,-0.2803452655830263
51,0.7436128482772287,0.592333668144654,0,0,0.7920586875151413,0.07882404173616947,-0.03211436141810448,-0.3632562306028878,-0.6102687877044639,-0.4183855988000816
52,0.7608095485761878,0.5987118069941214,0,0,0.8231432951345716,0.036547629022240465,-0.09059481516265036,-0.5362601121456113,-0.2095739585584782,-0.4637903465567513
53,0.8000146893373522,0.6142409338979777,0,0,0.8157708845600918,0.007702141032388596,-0.08915914618501779,-0.49373812299908076,-0.1621422216399951,-0.43277242146092865
54,0.8593385712769753,0.6401758347202422,0,0,0.851688807380321,0.044886854543317437,-0.05781878271134659,-0.4145546350167604,-0.06694598107283076,-0.34314515283846897
55,0.935255203464657,0.677372248790734,0,0,0.8678396993085687,0.13575995139252084,0.04125086804620631,-0.44018176500293804,1.594706351346322e-05,-0.19679049973404006
56,1.0227596279742337,0.7259698315097703,0,0,0.9847152753764499,0.15854171881695572,-0.0008092545640494376,-0.7758675349590982,-0.1508657870286875,-0.009913378162707655
57,1.1156457490024898,0.785072410852227,0,0,1.0109978014814127,-0.021036169137271698,-0.07115084071523693,-1.1412789000986336,0.13554504783856844,0.01399061876996334
58,1.2069119926563003,0.8524764178646351,0,0,0.9936414677929681,-0.3081622250472968,-0.0868657873875999,-0.8778742133888374,-0.3360648427948915,-0.16136442098793286
59,1.2892873491326042,0.9244954220761047,0,0,1.3591404090683843,-0.2435022362486254,-0.37390435363230784,-0.15067544854696,-0.5534579197634316,-0.3493093465062753
60,1.3558460491821729,0.9959502004343048,0,0,1.406943230743255,-0.030054717394994736,-0.29259401013215414,0.36860535985296805,-0.1756146928333237,-0.38708033116318075
61,1.4006532651394878,1.0604244429508902,0,0,1.2155822323304055,0.24881810839221413,-0.4114456328969073,-0.09965941692638305,-0.447948920564519,-0.20778800810282097
62,1.4193687531713355,1.1108799930223232,0,0,1.3132571719581823,-0.28254498412596707,0.48604807359165025,-0.45542865124279297,0.3046863923417069,-0.4099227164576981
63,1.409735380633345,1.1406470470100898,0,0,1.3930330719659574,-0.5360715825637665,0.9252624056305706,0.08136786378443826,-0.4579973694159846,-1.067076309869562
64,1.3718901126425804,1.1446627900739381,0,0,1.3751565683571094,-0.3728279814815265,0.08736626343165418,1.3295667384210612,0.15393270167013318,-1.2098265935585815
65,1.3084539179964625,1.1206821964780926,0,0,0.667970475954244,-0.11938085229955146,0.508800422284345,1.4714697573706934,2.273278131688993,-0.7735180624033401
66,1.2243854312906337,1.070111039217951,0,0,1.378127652255749,0.4635416885698329,0.25383729495367124,0.6688752319904473,-0.1970106014612764,-0.381455540584092
67,1.1266105422870738,0.9981818013668289,0,0,1.2820759915973798,0.8275575587254735,0.20472870963909817,0.5989260220883829,0.21166067116402107,-0.016496259444857178
68,1.0234531155547881,0.9133945686590561,0,0,0.9300079831987268,0.3791244492391994,-0.01463460181485993,-0.6460836529435957,-0.42271500582284144,0.03769844383775423
69,0.92390228903565,0.8263654984610943,0,0,0.6616928463063994,-0.21349568290696994,0.02406171092701964,-0.27757155780398546,0.9237749307430313,-0.11014717190619225
70,0.836781057116783,0.7483491543738755,0,0,0.2532700842027369,-0.4940653537214764,0.16867098391437013,-0.032890571001097414,0.4647141723734697,-0.06171934536544929
71,0.7699183047350637,0.689710698145554,0,0,0.6208790134982155,-0.38837720444487245,-0.08918927478541067,0.14020141517717158,-0.23265993330930984,0.12663712207952835
72,0.729435224615854,0.6585776786071815,0,0,0.7247032578928393,-0.10651686726582736,-0.013829451655552423,0.6155968326707035,0.26190641243043794,0.29512715342059725
73,0.7192234906527917,0.6598407461181702,0,0,0.7406826706217265,0.05536692806302845,0.04264634419002819,0.31500567233554255,-0.2214542732317679,0.3919523507226068
74,0.7406413540170811,0.6946036903127262,0,0,0.7623819844997628,-0.02397481362468786,-0.06134574924747631,0.3367742795949568,-0.3366117482383396,0.33006357261367475
75,0.7924158791456621,0.760112417513899,0,0,0.8165864375528106,-0.11552836914967579,-0.07328348583557166,0.6103398921089891,-0.22360165664273263,0.16711861104305864
76,0.8707251742400144,0.8501334202249329,0,0,0.8691106862979163,-0.31324550571701176,-0.07502151148766283,0.8017595232199748,-0.18316814425876393,0.02933362490848009
77,0.9694372240576299,0.9557074381778705,0,0,0.9341678029090191,-0.28570560779643217,-0.1515442770709699,1.1313439381087382,-0.4041609035952477,0.002682693692189377
78,1.0804930960425538,1.0661702445162742,0,0,1.0295691778021054,-0.002393868721959712,-0.19922345675444436,1.1997870350467463,-0.05460370364485577,0.014750741475371379
79,1.1944359547880943,1.1703164105179165,0,0,0.935202864915779,0.3604939496502491,0.12331533043645761,1.1189363816423605,-0.24375504910796642,-0.0043527377353042886
80,1.301096619489911,1.2575923111654175,0,0,1.0138946864742806,0.39269809670192324,0.07935244180397137,0.12268205114593347,-0.7499795835084481,0.18286287390729294
81,1.3904405824729358,1.319231305906656,0,0,0.9956472780823833,0.07887354431591012,-0.15735474591991602,0.14067327785718003,-1.2867591049472678,0.3218753995574831
82,1.453548797785002,1.3492562250094784,0,0,1.2682944109559857,0.5416954625934992,0.29392513483544064,0.9514788045100822,-0.6554936018258354,0.6095964487012371
83,1.4836422718088333,1.345249938416158,0,0,2.031791360399455,0.7945121814036168,1.0750630340286111,-0.3872163251132384,-0.8043032135827748,1.4158800951226038
84,1.4769897586934475,1.3087502619619165,0,0,1.6804574098792255,0.03380376696173369,0.6353747580952351,-1.910215937276018,-0.8401176143607537,1.681153199225288
85,1.4335069756068746,1.2451131106122066,0,0,0.8337989854962494,-0.3526052868897052,0.009740958447748384,-1.0491086627681305,-0.5240850321196848,0.8502458545763266
86,1.3569024480064973,1.1627617717944572,0,0,1.7430794196884585,-0.5886293195929396,0.020687556052822357,-0.4314044327295236,-0.15180722542580877,0.21981955668145142
87,1.2543278305932162,1.0719051389455283,0,0,1.3157759392931032,-0.4264391362733791,0.11444810252407076,-0.08335860147050045,0.7307014221510323,0.15385999694889166
88,1.1355887065864754,0.9829881227111545,0,0,1.0462089977066462,0.08536674853457353,0.09359187512459118,0.1185588444079151,-0.5341736238836866,0.14765659102533882
89,1.0120362340486697,0.9052257320863403,0,0,0.6718890867944605,0.4506722167632831,0.08232045567764013,-0.2929793259328471,0.20694385466012977,0.08044105336049961
90,0.895302209619626,0.8455242740458504,0,0,0.4710089441340693,0.41616313483395556,0.017649174379571465,-0.7623700398442979,-0.3991013052562004,0.060623780934799344
91,0.7960623075744248,0.807952258505014,0,0,0.5766516747930024,0.18152524746018575,-0.08405820897109541,-0.7074754075064063,-0.4527038056802174,-0.10719096145594124
92,0.7229968542930176,0.7937629118500126,0,0,0.6480610727807015,0.0049411177742063024,0.019479767864673685,-0.7212066523835816,-0.43232666944975867,-0.3551044098678789
93,0.6820622139258365,0.8018446236015249,0,0,0.7021458869510938,-0.15797114787613745,-0.0909343666188635,-0.782266497482025,-0.6811612259542302,-0.4870902822612602
94,0.6761111840499745,0.8294130355607782,0,0,0.7392848099749268,0.0007125305647728182,-0.1700402591018446,-0.41999379580442686,-0.28210133741047494,-0.4023027161547888
95,0.7048371319687857,0.8727579558125967,0,0,0.6684993906119804,0.24587654955681448,-0.0184639622887821,-0.7101264223765672,-0.2504474879882283,-0.15018534448432172
96,0.7649816916656574,0.9278934294195351,0,0,0.7458383991590225,0.25004889748036974,-0.2126339196752554,-1.2527434385761482,-0.5970655312932966,0.21196866082534294
97,0.8507398145709419,0.9909989057648354,0,0,0.7859001784647532,0.05664351564876709,-0.3326344144530764,-1.3510179533853537,-0.5623895991432017,0.4207910167506544
98,0.9543069101384858,1.0585782120002107,0,0,0.8964019226046755,-0.17079554945204836,-0.333770386106168,-1.0823627630392618,-0.7415462686909576,0.30505002870103
99,1.0665280842624838,1.1273273286435535,0,0,1.086668163466593,-0.2753070614088529,-0.13117516512423977,-0.6551818369691161,-0.6302217907453065,0.039843787590850714
100,1.1776227974765014,1.193807954095444,0,0,1.001954567137433,-0.15587858681385727,-0.17953627528281504,-0.19028583271317853,-0.24043418792593818,-0.14568342217972433
101,1.2779672954124897,1.2541332527949005,0,0,0.832888260653799,0.052990663447135315,-0.24760617749174782,-0.3345852595763649,-0.39168527476422255,-0.31372373091159983
102,1.3589151978884257,1.3039082934296182,0,0,1.118255768315995,-0.2324141372917754,0.12578694105102142,-0.5836540721630074,0.38163071174800195,-0.6153943629514423
103,1.413610560697954,1.3385810069062947,0,0,1.7984077741008433,-0.5594817402597803,0.8284511099639106,-0.1548879722184896,0.4310554525804645,-1.3668894995247103
104,1.437696863644526,1.3541763063804493,0,0,2.1599607723643373,-0.5681966634616229,0.4146140005486866,0.0613907849567304,1.055250848271921,-1.875562287470895
105,1.4297858222240505,1.3481977472213702,0,0,0.7695478937864253,0.20067833108683092,0.26475741724768975,1.6520382444260484,1.1926528000041732,-1.0727835807904207
106,1.3915737974990763,1.3203893755562657,0,0,1.122766089765653,0.9175902097989407,0.18400113605190402,-0.10712350994069487,-1.1982234702886312,-0.2797139610886649
107,1.3275838137670402,1.2731053246892579,0,0,1.1890328465162603,0.47222734653325577,-0.20925007510334867,-0.7378369348066594,-0.3541221140071934,-0.03370661775457163
108,1.2446052366377969,1.2111964948222784,0,0,1.1295690138517112,-0.055521344286546585,-0.15059961526163532,-0.8704169749938455,-0.12604896238769947,-0.11933788064732771
109,1.1509444022733468,1.1414832838745472,0,0,1.0835877116674058,-0.5099268818939613,-0.20770609197310022,-0.8531913505678766,1.1159559389758842,-0.42523415047766594
110,1.0555921992477983,1.0719514356096738,0,0,0.7153805554655079,-0.6476037697160231,0.0390873716959559,0.53669063181991,1.3081379393214996,-0.4587119158615384
111,0.9673929797289628,1.0107921375163245,0,0,0.8123787696106574,-0.17348157336618253,0.23580606434415177,0.8865351146703653,0.26650530226627434,-0.12586855475662742
112,0.8942805047975662,0.9653844189210549,0,0,0.9137328672510994,0.11416316856284946,-0.0516856230444138,0.4856918309653689,-0.16653459594147615,0.2504181720710689
113,0.8426293815878326,0.9413355343227299,0,0,0.8931173010867269,0.1492818512713005,-0.14916457433990102,0.5110086188208898,-0.4924937099473216,0.38806446044916715
114,0.8167526725857261,0.9417260344276783,0,0,0.8384841518574647,-0.06781226346308766,-0.220033949594139,0.4180049114775893,-0.18229303954157636,0.21891391297830787
115,0.8185634474997798,0.9666968218401141,0,0,0.6616821757104848,-0.24330416127609727,-0.14585892101451126,0.8512634131453565,0.3523618462194413,-0.0504487534351546
116,0.8474159817263277,1.013449346014802,0,0,0.69587925274589,-0.22523176806834358,-0.07836361333764395,1.1957527554894467,-0.29900420295505836,-0.20505156536543592
117,0.9001468430370396,1.0766368226229137,0,0,0.9175501961701706,0.06410479450994222,-0.12141496570176771,1.3942226899006847,-0.48475529970826137,-0.14059509535184564
118,0.9713350246881579,1.1490509692225443,0,0,0.9921794959318312,0.219536749362103,-0.13434679367631674,0.9425885742987498,-0.48588334496116486,0.05423795390301872
119,1.0537878534631078,1.222489205232457,0,0,0.730634993852566,0.15347911548225868,0.07840158182104619,0.43879625017064,-0.34825290464253156,0.24543901615741961
120,1.1392398964247767,1.2887146787944221,0,0,0.6336002498755666,-0.03611133235488483,-0.016302589025905496,0.500867179764292,-0.9227885643825076,0.3515533651608196
121,1.2192238760503982,1.3404458868712434,0,0,1.0999301305989875,0.4411046751462159,0.3552081320090038,1.7844628010299453,-0.06141736536242369,0.6527583456803701
122,1.2860229341136455,1.3722909463036324,0,0,2.052606648304123,0.948910213973493,1.0077151829469637,0.4090605502554647,-0.07093243030438615,1.2709308904657626
123,1.3335500490852565,1.3814918729939145,0,0,1.706688616708405,0.08102549149510802,0.40833850540156497,-1.5775301534652513,-0.7486362194442645,1.359903604323755
124,1.3579764081690622,1.3683281580546571,0,0,0.3290577374530964,-0.4674651630958067,-0.2805859878933088,-0.7981131677478546,0.056262484293147924,0.6176942175881858
125,1.3579963965849922,1.3360818307210922,0,0,1.1502500991724272,-0.42349438467188283,-0.162230876970794,1.026434437197269,-0.889877599819915,0.12920274679476698
126,1.3347404847233935,1.2905637551500488,0,0,1.4808413394589264,-0.2981464341483432,0.06627661216528083,0.9320016214508238,0.8389396464130764,0.12251334432038866
127,1.2914349635465432,1.239289744479214,0,0,1.2475506679377062,-0.017058678509068222,-0.09224506050320647,1.3849445543069376,-0.4902939745701307,0.2365455430986385
128,1.2329146326609932,1.190443480175899,0,0,1.1970007335513089,0.5399930618096042,0.029053168329730993,1.125101556014668,0.08896052354172324,0.40489061228211126
129,1.1650623670142177,1.1517813354505895,0,0,0.8128566816111152,0.3359090643537707,0.08136118952970778,0.35268889716713936,0.1861825775216259,0.4722873634649571
130,1.0942280033231,1.129644387398142,0,0,1.1119569051793041,-0.08405969319565414,-0.06055538709870644,0.513023266457186,-0.7600120951093069,0.32443879905726886
131,1.0266707638166308,1.1282399601620727,0,0,1.1262450038385632,-0.2738113081680311,-0.23530639429020517,0.6734530987277855,0.13128686545775434,0.10989625435583526
132,0.9680567664116682,1.1493130367003082,0,0,0.9767581466434623,-0.13908873386442436,-0.12019534745834749,1.3444954335600126,0.36007193866591664,-0.023230828859116634
133,0.9230268690038989,1.192241931892969,0,0,0.8325416727651742,0.05247399072280586,-0.020777916873666154,1.2771471976869009,0.13008851973801594,0.03916435268710756
134,0.8948442126072159,1.2544955317940056,0,0,0.8336851630731391,0.08974807067217733,-0.2614905460788942,1.164658227808675,-0.5208396665581555,0.2027334118525697
135,0.8851374652791055,1.3323241099755816,0,0,0.8907865445807102,0.12461702016104408,-0.25989151842515446,1.3212297830569704,0.1477821170585735,0.34770877858326654
136,0.8937626216671323,1.4215394099985608,0,0,0.807258941125863,0.05639266839163429,0.0552333284195541,1.467622480831659,0.05613427263445724,0.3348069927693068
137,0.9188051707576194,1.518257596823637,0,0,0.9627460505871627,-0.051639301679107075,-0.028039510122362152,1.5101703744958241,-0.6790966084760784,0.25122997107881007
138,0.9567387267029985,1.619508472762193,0,0,0.8783574441786508,-0.1074727552112581,-0.18229434211293996,1.6702891576779002,-0.17040634225205473,0.22433244533002078
139,1.0027500104645561,1.723647285642038,0,0,0.6703269052316055,-0.021953757717861566,-0.20320498943799226,1.6126267668329148,-0.3778021920139097,0.19440611247271622
140,1.051230182279239,1.8305415097915192,0,0,0.8131505344537142,0.09583276917011743,-0.11090006365560659,1.6810475125596063,0.056398905768598635,-0.07667934145825309
141,1.0964089880621126,1.941537578458434,0,0,1.0856588079624838,0.03952570248513968,0.29886818161786816,1.709728632632209,0.5590597990828933,-0.3807934228806576
142,1.1330639435153986,2.0592280730775294,0,0,1.8061440168395222,-0.36736557407929,0.6613936968019798,1.7375231005330132,1.1084856997067825,-0.9358193319517549
143,1.1571869301188378,2.1870333411394696,0,0,1.202363393562385,-0.45896402674141124,0.3155446435490153,2.292309324742261,0.6196446154212506,-1.0053748075441675
144,1.1664761840117126,2.328600076541052,0,0,0.6715767482690551,0.09010313488740519,-0.02676271941850288,2.5874573014052236,-0.5573630326352239,-0.5581669371514659
145,1.160570046439025,2.4870353027661216,0,0,1.0240505439593375,0.28619121389119173,-0.032510616279383855,2.3512631011326426,0.23998270895367846,-0.2744558824547361
146,1.141019118041859,2.664055615671976,0,0,1.2720198004377778,-0.07419057103721284,-0.05841339034904992,1.9732485572724545,0.41722598104963765,-0.1821809961050444
147,1.1110424524614533,2.8592141012168564,0,0,1.276542325599027,-0.34582838827566037,-0.062137598763859554,2.1972385901497318,0.380446474527218,-0.2728457155380527
148,1.0751107029842994,3.0694096927448964,0,0,1.0439176883894326,-0.4384783837716325,0.04071112096895929,2.9571349402185962,0.5609336080102474,-0.13652828439010264
149,1.0383837360986254,3.2888359707362027,0,0,1.0054371391008574,-0.41272190246067886,0.02607604107540842,3.3684759652268292,0.45659116026971125,0.0621985431935198
150,1.0060413413251044,3.5094009414095972,0,0,0.9020163941731361,-0.16605371866919635,-0.033729507686838564,3.818912314314499,0.3161866053344502,0.22097155391801437
151,0.9825802515103002,3.7215167816446995,0,0,0.8080376140199581,-0.05964267351998146,-0.06913075856301816,3.8187574617852964,0.13155849970334985,0.27400362285851626
152,0.9711809768717092,3.915087693310975,0,0,0.8323411177991763,-0.135526395832605,-0.15427486774522378,3.8414188573384482,0.08946077960199124,0.19399590409270073
153,0.9732530440032628,4.08052941812401,0,0,0.8386558291265455,-0.21388166383597812,-0.10861756766623186,3.9763334695181443,0.30041830243636386,0.08915125307897656
154,0.9882433686812835,4.209699178977364,0,0,0.8294997510609341,-0.1816015556789047,0.004076759245134453,4.365310101480057,0.3479029358901701,0.182777235055328
155,1.0137482866276735,4.296655379539393,0,0,0.8724403542973591,-0.0963641204964237,0.05275445216328286,4.255138537358688,0.28217083967458045,0.49416261110158893
156,1.0459169062645342,4.338185853819068,0,0,0.9947627178729075,-0.1371648336485079,0.042231794346315916,4.260078710407915,0.3715662453146259,0.7153867367901695
157,1.080079849293379,4.334053343491333,0,0,1.2301742990916922,0.12483042590309006,0.06639146136235705,4.7442163427378015,0.45570805061079445,0.6583301062517279
158,1.1114900785480557,4.286923814555146,0,0,1.518494670164451,0.12584600630921747,-0.09922798166622875,4.07277937544195,0.21147734994700787,0.5011411522738805
159,1.1360353448071867,4.201975161652767,0,0,1.2574551311574338,0.018992636779572546,-0.25436827541134543,4.132952644880753,0.34603251397115187,0.4608198351803219
160,1.1507927639834539,4.086228286676185,0,0,0.9110690039492806,0.11227596697616862,-0.23848526679160276,4.195988155626401,0.34811380879561005,0.5722911654000903
161,1.154347718060755,3.9476865056785417,0,0,1.026599528526835,0.14611760799696996,-0.20699270550241733,3.997806818000258,0.09591886811976508,0.5693758687496814
162,1.1468650385805759,3.7944005258141376,0,0,1.227514624734963,0.28770725552800586,-0.21627022016558203,3.5985025924084972,0.00473887583131813,0.46719594048826973
163,1.1299436997467829,3.6335957378430073,0,0,1.2096974191581074,0.18316038820757813,-0.3352316265675139,3.03455323728696,0.016188589486310013,0.35864050696131833
164,1.1062974175248843,3.471005971982445,0,0,1.1182047531650188,0.10182965738134114,-0.31070037369578246,3.182262889695436,0.42297269909997653,0.20915690484566302
165,1.0793055810853467,3.310533916400557,0,0,0.9810805855951162,0.1184551654326007,-0.11112548286325989,3.310724936001423,0.5942332462778429,0.20134168043477127
166,1.0524935577529704,3.154286217022754,0,0,0.8805062132127455,0.1654807914724116,-0.0643708360481224,3.2893576575337846,0.22194056319739142,0.26329718040940975
167,1.0290232430527082,3.002931168888893,0,0,0.843441181951848,0.19109964998452875,-0.10901244001090693,3.1296471029112345,0.13572083089439516,0.27735482237937964
168,1.011282030369729,2.856247979908567,0,0,0.8804107111135284,0.1917449515981193,-0.0858254064401128,2.9787156599957725,0.10097028973615504,0.28128650291145685
169,1.000637874994899,2.713712505071458,0,0,0.9825063005577963,0.2140370809233957,-0.11832796966669516,2.8131745949963642,-0.16147432240811693,0.2973495874775083
170,0.9973855751855712,2.574990560896493,0,0,1.0395317055977606,0.25916702900777205,-0.17338429701397484,2.6270882019574144,-0.1653721016528428,0.26870381078133676
171,1.0008632888664855,2.4402610203295345,0,0,0.9999325755927506,0.24994063291714982,-0.13572435086475476,2.3998832854904824,-0.029883410909609713,0.22196169757456366
172,1.0096871912353858,2.310344368008446,0,0,0.9879646873111388,0.21318630312812495,-0.0791130965096287,2.276674986847622,0.018503669501941173,0.1985129916619215
173,1.0220437590681535,2.186654969069287,0,0,0.986880585241948,0.2558297684532382,-0.049231973575028,2.184790341600164,-0.03782610870590614,0.2087792673132827
174,1.0359874892462906,2.071020721646162,0,0,1.0287143747308818,0.3131897893428864,-0.0631642556586223,2.054608258414362,-0.04339284348065778,0.20154405983097778
175,1.0497050619574106,1.9654229098749643,0,0,1.0513469117212644,0.31548827655212697,-0.041328100028677955,1.907421251704318,0.06291882312135633,0.2125161206643746
176,1.061718169382745,1.8717082241468161,0,0,1.0370871025133497,0.29950391915998076,-0.053610837745433564,1.7722336823943678,-0.03766173654350151,0.242901290672234
177,1.0710073547356678,1.7913191605059224,0,0,1.049394675163491,0.26701666181870576,-0.07606298970198389,1.712576909981357,-0.04027867958387178,0.27566129420615354
178,1.077050954242997,1.72507831282593,0,0,1.0426785293102936,0.26442773241206463,-0.040615084762694535,1.705041248611243,0.027086949961555855,0.3270703949500819
179,1.0797858830752054,1.6730452831042375,0,0,1.0337072317921472,0.2771656649445231,-0.04677266024981197,1.664435233362395,-0.08302145199345266,0.33996716647167297
180,1.0795074214097806,1.6344457012657552,0,0,1.0438057496176234,0.2699175477281141,-0.07844482070133355,1.677079257140013,-0.03628650090456341,0.33313628598891537
181,1.0767313146448696,1.6076582697189645,0,0,1.0276077775384074,0.3002962505104578,-0.07859057172492567,1.676793442517975,-0.10348702862855542,0.33073288954800223
182,1.0720436412807985,1.5902448174515476,0,0,0.965414838493137,0.3193800305952227,-0.08161019284090143,1.535695784477706,-0.20953396039766597,0.3248266536773109
183,1.0659630618000386,1.5790212022005141,0,0,0.9674934597978653,0.34163301058070633,-0.1341558181890301,1.3863307290633715,-0.4449083214514198,0.3390735256146425
184,1.0588364101182037,1.570187105808283,0,0,1.0826720724215215,0.2614414573556292,0.09947209349804172,1.407640104311644,-0.17171516463341727,0.3163847185616603
185,1.0507822165161085,1.5595477034410548,0,0,1.0594365483951775,0.02032672826154659,0.28077919777157306,1.3178575517101079,-0.30385718976205545,0.19313414769195436
186,1.0416903427116886,1.5428566240288997,0,0,0.9178770626316568,-0.22921547910235807,0.09585301888161295,1.2982190623145928,0.07331283188112972,0.09182221171183082
187,1.03128326852097,1.516280694446191,0,0,0.7623176457757127,-0.2820848772210659,0.17636505766483418,1.5392147494798352,0.4643774741388006,0.12340714072170933
188,1.0192433381495578,1.4769364380092436,0,0,0.9500285920901265,-0.20274062054201175,0.12267723951444942,1.5791377273971663,0.31089283372376875,0.1493218848970647
189,1.0054002516829004,1.4233929390926248,0,0,1.0648208049499064,-0.05357662233305512,0.06460049596602209,1.8058039356249393,0.395723335580078,0.12565758432744117
190,0.989948439521,1.3560033837155983,0,0,1.1724119658903327,0.08121111720623925,0.08882131091252211,1.6797479878465125,0.4995984492123447,0.0491069166732611
191,0.9736356789827582,1.2769450597390883,0,0,1.1499850584925968,0.11705833346866015,0.12825320696821063,1.23481927287284,0.5011995047602996,0.103179637684753
192,0.95785415766136,1.1899215298837484,0,0,0.9510272539659776,0.1179780752265103,-0.005247005080217265,0.8859301268882928,0.08089233105328945,0.2312980477008183
193,0.9445857306444687,1.0995857874848745,0,0,0.9093620122947952,0.048941668343726666,-0.07164984834829065,0.7601539327693526,0.07820871503128082,0.3212522374125197
194,0.9361956466356055,1.0108305401239235,0,0,0.9131427503354849,0.01181645386929517,0.006660013567884712,0.7907150495441779,0.35141850978073197,0.34408914152271813
195,0.9351110876626434,0.9281201036021178,0,0,0.896504951204424,-0.035844921756000854,0.054123968719624674,0.6616405416256214,0.283725630353927,0.36313936760216436
196,0.9434447928039147,0.8550042718940292,0,0,0.8761865752331669,-0.060606177205488214,0.05412673016806133,0.5119316209131685,0.2030692151469394,0.38193772951469795
197,0.9626273359419419,0.7938872828673632,0,0,0.9250530702087916,-0.06885395468366275,0.03348766232744797,0.4934819208360182,0.11194787842914243,0.35784061836908115
198,0.9931016245307211,0.7460534687208888,0,0,1.0014878486667955,-0.054190173103443484,0.009549569327199508,0.6320361726057745,0.3292922264771582,0.309207275904203
199,1.0341175939273017,0.7118858892650162,0,0,1.0766595468662596,-0.0753074611744255,0.08907592199428957,0.9147423395048998,0.5712958271396701,0.3182882110241417
200,1.0836498898164495,0.6911623350155932,0,0,1.0408219654697137,-0.07854945483488525,0.12243347293299796,0.92360499835396,0.49597159304390587,0.3212306031513488
201,1.138451366256676,0.68329524511572,0,0,0.9876434859269239,0.03976314128758711,-0.055978548464891906,0.7783586406534447,-0.15312165980601322,0.2864397178024063
202,1.1942503642475302,0.6874203903413441,0,0,1.074920227250274,0.13518163478677864,-0.2616290295193926,0.47458533372874845,-0.32932317797589056,0.22843264916318393
203,1.2460924987589943,0.7023276354959896,0,0,1.2498632134702816,0.0910011975888764,-0.255798125299276,0.32069124795087556,-0.1248397246451878,0.14168443328755195
204,1.2888103360257264,0.726322820906969,0,0,1.272845194950048,-0.06651593922431713,-0.21955717302561667,0.06037671708174434,0.061991712144382455,0.009759838450144153
205,1.3175789672531635,0.7571580858863044,0,0,1.1600891391955526,-0.05284086221574746,-0.020609054350649057,0.7833514429214957,-0.25117915301262633,-0.1206416688284619
206,1.3284920913865483,0.7921382633199684,0,0,1.4002170335037947,0.3805005909418067,0.8326461058623719,0.5199706110220732,-0.33848908128890876,0.16720787564773248
207,1.319079722419142,0.8284181229154024,0,0,1.2723716288411164,0.2651212589155643,0.7714551598463656,-0.7260027432515271,-1.211569639080802,0.4180875530448588
208,1.2886901797924561,0.8634031022412869,0,0,0.9798104920881803,0.17073953725301957,0.21896327683758515,-0.5264001877963469,-0.5380032192370017,0.4763237647802334
209,1.2386799112494202,0.8951130153679188,0,0,1.0426899716270477,0.03345404364893636,0.5482983518652967,-0.6176128586213105,0.1400738122571821,0.6464541253561156
210,1.1723874427500711,0.922386805671643,0,0,1.358398462365636,-0.38815006749685893,0.3088724788029167,-0.801004244396238,-1.1160472477060956,0.5789838901074801
211,1.0948925021841462,0.944875344153336,0,0,1.3037288505799043,-0.4794516930922612,-0.08201004054034486,-0.3885368905200267,-0.1294750711886498,0.3229969144521297
212,1.0125733142816378,0.9628510719367288,0,0,0.870416471125808,-0.058287824696451294,0.25287196298039216,0.33745324328497345,0.6722173068366926,0.005327114636918023
213,0.9324947532677927,0.9769280242582546,0,0,0.5142616253710625,0.38404510256853536,0.33070724042374156,-0.40633252671070336,-0.18191547305895944,-0.10444315019101405
214,0.8616984568282067,0.9878079799147023,0,0,0.541515600199086,0.35701867299039414,-0.08905072669687399,-0.6750773171713443,-1.0944601914468786,-0.19533543961994052
215,0.8064993156000976,0.9961326041118904,0,0,0.6959594094271955,0.2782479492022021,-0.0790294857842525,-0.6947231463800216,-0.6876840816783752,-0.3622460219639772
216,0.7718896982393818,1.002447402463827,0,0,0.7986758770659939,0.14145452983186976,0.02039703203472978,-0.8722792391302594,-0.5345413068833642,-0.570977603896906
217,0.7611127454062087,1.0072217937475658,0,0,0.8214527772563678,0.016733310016360543,-0.09869325581979428,-0.8753489371468585,-0.542252536526008,-0.6640887390353747
218,0.7754173104762611,1.0108575158786957,0,0,0.8295848175326258,-0.034511717777371706,-0.13842707994150485,-0.756488379563436,-0.12465446432594651,-0.569435744716275
219,0.8139769975728185,1.0136507484690194,0,0,0.7520509387177661,0.006519067312491532,-0.013515843083605504,-0.5611745093037894,-0.12381743717170206,-0.38760459295613925
220,0.8739509685951424,1.0157204945927483,0,0,0.8366126151235654,0.11310085132804089,-0.03212183779841654,-0.7263728105038717,-0.6657613954707465,-0.165070860731118
221,0.9506734712820956,1.016943469481989,0,0,0.9641116398281575,0.10825581297454148,-0.11040496498452461,-0.9458991196151446,-0.4153218267465304,0.046028784246675725
222,1.0379673991087748,1.0169279638640707,0,0,1.0253010974226051,0.08707199138706008,-0.10613662990688763,-1.10863349533997,-0.19237135762734203,0.1453487342429357
223,1.1285779197757952,1.0150289449312961,0,0,0.9458200245534786,-0.18395347488798383,-0.07456935859747406,-1.3244011682972894,-0.2795066966702938,0.10252243824267883
224,1.2147168018024062,1.0103861726666576,0,0,1.049296775525223,-0.45664982316859226,-0.1442103496650456,-0.8038379995145377,-0.7422829825192652,-0.09816150724858465
225,1.2886973092107334,1.0019801597767322,0,0,1.2916653519010233,-0.30560243241133384,-0.1862741218649171,0.19591489958469577,-0.3831416717698873,-0.25522202672727345
226,1.3436211421502702,0.9887413677260052,0,0,1.2726756245284387,-0.18074167521460502,0.026952395598156112,0.09855708434784205,-0.21861672370252866,-0.3007782611809332
227,1.3740553994017832,0.9697767155062962,0,0,1.402004120030323,-0.4441331942340632,0.46667641334840426,0.20937227757285853,-0.21205362600969063,-0.6206198565612087
228,1.376619261717124,0.9447458129156421,0,0,1.5377954665081952,-0.27674501625451753,0.44834543268382254,0.7927282766654734,-0.5136390695336233,-1.0118273185023023
229,1.3503983860297233,0.9143192169872272,0,0,1.2251555566456227,-0.12073050035324402,0.2646277464403658,1.0948994255508924,0.5810141924127079,-1.0795137999152207
230,1.2971247698324684,0.8805421339955285,0,0,0.9618151859421915,0.007159364401110503,0.42548524954919,1.0249604465208133,0.6599818855809667,-0.7957462423669647
231,1.2210935462071901,0.8468974736014345,0,0,1.580229395354176,0.3767550882481201,0.2511352161477791,0.7398939886024023,0.022427279471817687,-0.5097796631097908
232,1.1288183305871398,0.8179522438791451,0,0,1.2070110109480914,0.5035469444781735,0.09153357526429824,0.5543308022089241,0.26779803407715574,-0.22201390061938348
233,1.0284467192768623,0.7986363116005529,0,0,0.9717642310562052,0.2073638943809872,0.05345558594494918,0.042287107457077665,-0.09223215710430024,-0.019165399147247474
234,0.9289825513440352,0.7933485863869546,0,0,0.6754828977192354,-0.18251586282992133,0.084098492015842,0.11541177572714449,0.7380088099941567,0.042523837064372835
235,0.8394014120356823,0.8051386655804254,0,0,0.43755195820516146,-0.4677341331044484,0.04781459313578765,0.345163979531464,0.3564917187253666,0.08595733258197573
236,0.7677796186230912,0.8351614775651126,0,0,0.5650571132489277,-0.35979950784166526,-0.01594681918839205,0.7572812148506165,0.22398807123369005,0.1909914892604834
237,0.7205548178867808,0.8824937128671441,0,0,0.7080791258420879,-0.14692351278978671,0.0433013290342619,1.0013766403372555,0.10947214116504339,0.3503925313014197
238,0.7019959877647977,0.9442926572660627,0,0,0.7687647676093513,-0.0015872318210758936,0.017031128302329192,0.8741712391854262,-0.15613812868726124,0.4424238196540384
239,0.7139076221444215,1.016207811791424,0,0,0.7134533131388094,0.035241048220085676,-0.06838671905529436,0.8121921589318581,-0.5192319510292485,0.4471254968980164
240,0.7555540704105271,1.0929320966603269,0,0,0.7354568530860934,-0.020361255941212356,-0.10545943566234015,0.8904805551881788,-0.4807563866359996,0.40151585191010625
241,0.8237746026552183,1.168790071583186,0,0,0.8092524088387002,-0.18757850137109516,-0.04097045836565342,1.136954499058938,-0.1427553541082993,0.26627863607197005
242,0.9132602544795893,1.2382837397465474,0,0,0.8250769289990479,-0.33262398166709434,-0.09517672101387825,1.3219894979345959,-0.07660243737632544,0.09625803833933681
243,1.0169678412148002,1.2965369863734126,0,0,0.8872757432248247,-0.08607446133609778,-0.37372990610947515,1.6723489321959748,-0.22685881232491145,-0.011284690876111487
244,1.1266476945055361,1.3395993127767405,0,0,0.9726215719068108,0.5436043288216768,-0.023141914052849627,1.3486618822628378,-0.2414400036475709,0.0004536619696473293
245,1.2334584083015563,1.3646011297236886,0,0,1.2756884493818916,0.5969619856002498,0.032162082055805605,-0.10118330895020375,-0.9858693514647177,0.2397228096857595
246,1.3286365751828861,1.3697998208878734,0,0,1.1460542790011987,0.08948398544499706,-0.18573746630396287,-0.7117168405488512,-0.8478124343490465,0.3347818419864838
247,1.4041863528744016,1.3545955140188402,0,0,1.1221399411967588,0.16711591807495407,-0.059095636527367476,0.23315176289959239,-0.9823661999612462,0.2992996449104719
248,1.4535519549402154,1.3195925972438778,0,0,1.3240571894342619,0.5572886417306356,0.5010917049882381,-0.057093996169381156,-0.3435867951630038,0.6851104120424424
249,1.4722263952640673,1.2667221054673263,0,0,1.857813070082132,0.361204957241495,0.7060998421685176,-0.848571427208706,-1.2865216263351384,1.4124258440620159
250,1.458229969541064,1.1993437393398734,0,0,1.2621207154600365,-0.08643368993822355,0.32905975506171425,-1.5566928757096148,-0.06345702449900688,1.4774142098062946
251,1.4123822544754954,1.1221729020268896,0,0,1.02585348197292,-0.5103972049727417,0.0781005758831664,-1.160901514936953,-0.7220695309218936,0.7564972299031276
252,1.3383113173605299,1.0408980644625743,0,0,1.7324804499361945,-0.5761835017853655,-0.07784433958145967,-0.26724683635207985,0.16426919605585807,0.20135173844787727
253,1.242181757933678,0.9614869711337973,0,0,1.2845664316104741,-0.20266730319366152,0.12506504369383772,0.2488578593023273,0.4928751254626987,-0.05230385578643103
254,1.1321567378703083,0.8893496535851855,0,0,1.0728957507495525,0.3269597622683653,0.1439215220224612,-0.11835000847649442,-0.3719941532183254,-0.13619902631995598
255,1.0176402484316684,0.8286128969829489,0,0,0.7470792996148367,0.4756137792871174,-0.09437313530756446,-0.6160939922025163,-0.024940746761389822,-0.09359935256852916
256,0.9083844433212707,0.7817130665593925,0,0,0.5906269458144733,0.3305333197514629,-0.08598196670263879,-0.8385592694920111,-0.07609708491428693,0.03259224191082781
257,0.813578922013848,0.7493794042485353,0,0,0.6778493896009549,0.14537500160082775,-0.06818519752500399,-0.9359736780223563,-0.09152639997476227,-0.007920636213415475
258,0.7410398265195651,0.7309424827992247,0,0,0.7377890193769736,-0.041658959339056716,-0.032408663729730815,-0.9077217153864765,-0.059129118040897564,-0.23058111017299945
259,0.6965826096479966,0.7248207526722448,0,0,0.7413621720053206,-0.17747895159601604,-0.10445227499111524,-0.8270718432751515,-0.23992466151829941,-0.45684918708850003
260,0.6836133683829227,0.7290275460069989,0,0,0.7077552125177136,-0.08601209693357717,-0.1987464224231243,-0.47622417836137276,0.008014574822198124,-0.44383163273871057
261,0.702935045334485,0.7415840096803175,0,0,0.6122117566592515,0.15384537599127016,-0.04002126311209231,-0.4386761060411866,0.03187305462135021,-0.22727745500938423
262,0.7527491687007885,0.7607844333016053,0,0,0.6581134269333805,0.26236744391802647,-0.18839397407326985,-0.838205500984841,-0.27749165737474124,0.06231320683920737
263,0.8288352015104992,0.7853037766348058,0,0,0.7163484436553408,0.20649360165076183,-0.22477136518463625,-0.9390451965242403,-0.2312822543873042,0.3331371787030056
264,0.9248929043160968,0.8141511300717864,0,0,0.8562828156931248,-0.05722248195169139,-0.21275437112045054,-1.0520524056576408,-0.5325952395739105,0.37996619840780693
265,1.0330286135344673,0.8464803262275042,0,0,1.0582894449961209,-0.34366290726456206,-0.2827267318030677,-0.5801739283484313,-0.6267851395651366,0.17717250265981652
266,1.1443556782608069,0.8813035722236522,0,0,1.180830556506169,-0.3129456787457234,-0.2623120428685892,0.05243472436981126,-0.30549264868980225,-0.056766093013065455
267,1.2496714201787604,0.9172168859091299,0,0,0.9905294305063976,0.046125518607001474,-0.2957460857074323,0.4313518960447901,-0.17829666992431806,-0.18059121380000753
268,1.3401740862705327,0.9522918912803598,0,0,0.9910124292699536,0.011396187351859207,-0.25411266427519624,-0.20212901990710402,-0.16286300434574313,-0.20565741578847974
269,1.4081859320267318,0.9842610920082744,0,0,1.3559900344696327,-0.4059855572066769,0.35774722404063547,0.03477790872494918,0.20341155323206514,-0.6596114546947697
270,1.447835282184113,1.0110065330219185,0,0,1.9567927102894764,-0.6528484318235491,0.5299800120702554,0.3282298601586115,0.12120089627084893,-1.472360858587718
271,1.4556203588304633,1.031197135088208,0,0,1.3896110698437316,-0.22773276918666452,0.44369350711241057,1.76382434883212,1.244249272935753,-1.5190928041452814
272,1.4307624289850678,1.04479516976898,0,0,0.920724696357484,0.2195154815861879,0.27087385482932086,1.1342107344723376,0.16626351724256577,-0.7743098298455715
273,1.3752844925322276,1.053159689137048,0,0,1.6541190517321165,0.4419315508702825,-0.04445367345613306,0.7771370623529112,-0.10572117709804416,-0.31342598362673835
274,1.2938071363724557,1.0586411136000355,0,0,1.281886024862714,0.4889772603637664,0.0905094259228912,0.541477268420107,0.2633276180874309,-0.12756484672492502
275,1.1930943706765846,1.0637995666876627,0,0,1.2306467020871588,-0.00237368719344541,-0.03735005758095285,-0.053046171990229256,-0.3003690408405415,-0.0988563287049853
276,1.0814007490512503,1.0705453464337122,0,0,0.944548617993603,-0.4033545648624649,-0.08599456552404387,0.4081952376493827,0.6711272197712057,-0.13096684736405628
277,0.9676882399972916,1.0795091150973464,0,0,0.6774002838160006,-0.4799918116827951,-0.026319381188915143,0.9029787716282455,0.472085475585326,-0.09687240080930917
278,0.8608031199697411,1.0898277779970669,0,0,0.7199948714948897,-0.19709241169356354,-0.015607326258875393,1.1391642197245324,0.6880254661872147,0.0035997083291421767
279,0.7687126697250654,1.0993684652527436,0,0,0.6726514947816619,0.014524024986237914,0.016068053470883976,1.085804565301408,0.43653753818082386,0.1460005689621727
280,0.697886500656528,1.1052896244641064,0,0,0.6909753358632449,0.0929751612080027,-0.023771149059773386,0.9879549115436138,0.02426222915255728,0.2665620484666898
281,0.6528732955439116,1.1047877219535482,0,0,0.6810820938257969,0.06133157616110542,-0.1227272489910399,0.9836754597693563,-0.2218553438492554,0.3033595473405153
282,0.6360857072326004,1.0958805300501029,0,0,0.6616349372118958,-0.07747597914214358,-0.10687862001414501,1.0434056679686385,-0.07678600761346487,0.19604321449221665
283,0.6477783189181556,1.0780929519161195,0,0,0.5720121201954275,-0.17939701974440264,-0.06301940925531432,1.2968495962318922,-0.14225829853059607,0.018928848864073578
284,0.6861916383257031,1.0529170002306276,0,0,0.5072699246995407,-0.08979858291261052,-0.15628443889120255,1.3997965603916436,-0.4235012988205556,-0.08618206463977685
285,0.7478331305384134,1.0239249476495997,0,0,0.6517929557726881,0.006543368420263515,-0.3078504734840077,1.339552852436344,-0.5445143696167969,-0.11588300820497334
286,0.8278618344181735,0.9964523099472405,0,0,0.9613038788249091,0.18699873440847453,-0.20259994223944758,1.2973052382729175,-0.2586069014996305,-0.08402594004753278
287,0.9205302265665044,0.976854095927463,0,0,1.088773345920629,0.35403560542138557,-0.020265428090536622,0.6771820109015809,-0.2542974843575508,-0.0010785409653146297
288,1.0196260396978347,0.9714616382736138,0,0,1.089367888002148,0.2441152794613851,-0.03142334696445812,-0.1729601170199342,-0.3031681529978196,0.13913345676792366
289,1.1188663348964978,0.9854816895352166,0,0,0.9409132936407455,0.037112621417605574,-0.17686537379176612,-0.49236805632687386,-0.41606970772603896,0.13139035789102818
290,1.2122308708228595,1.0221257792657101,0,0,0.8194441088427932,-0.15878545459882382,-0.4190496074677124,-0.5342546069437185,-0.4224575423848044,0.025328909348157545
291,1.2942599480978927,1.0822060817389887,0,0,0.8675646819784314,0.00546930656903419,-0.38356481101340706,0.12216837736502094,-0.6652462454505533,-0.0036166458357713644
292,1.3603498407865675,1.1643037407761971,0,0,1.5102409976827795,0.4938886263075543,0.24475375718422154,0.22293284749382652,0.6011042352964944,0.5405209571060352
293,1.4070427485841916,1.2654522104949901,0,0,1.773206800378075,0.7719830394040771,1.1090034793346415,-0.6395807359745541,0.42699883455617316,1.2386671171666315
294,1.4322563173843077,1.3821213126764595,0,0,1.3010758077095699,0.3800856282917331,0.6087584777955067,-2.4136550764762337,-0.244340595458293,1.392972549623157
295,1.4353856614913088,1.5111783066371596,0,0,0.38893903999150276,-0.31198713926861477,0.036210674737777275,-2.216437482393511,0.04141132832120103,0.6755729854356773
296,1.4172619179367951,1.6504995953099495,0,0,1.4870801485784952,-0.27672955670312116,0.04506447225519085,-1.4031947673824336,-0.6128537331573292,0.20966160323411953
297,1.380016616577292,1.7990496829240947,0,0,1.632425571093719,-0.2751777044861784,-0.19346619812781524,-1.264009039420687,0.8186548995630614,0.27476206680215426
298,1.326912186515403,1.9564824802581717,0,0,1.3197717613782605,0.2215567151790778,0.03648400728369678,-0.6926337970887786,0.16800935055703148,0.22200711244440474
299,1.26215640592738,2.1225209250664747,0,0,1.0477164139270871,0.771614561987666,0.31486029575013724,-1.606571161019161,0.3996965057915414,0.22351130092484758
300,1.190682567511559,2.2964174980408685,0,0,0.7615769000925025,0.6093261918871916,0.07365526112612628,-2.728555059495414,-0.23645220813295198,0.24941578195628286
301,1.1178800081392277,2.476680758285332,0,0,1.1219833582404513,0.2344055211024712,-0.05194917259936344,-2.835376632804639,0.06113224722133365,0.18760303654258384
302,1.0492785975614896,2.661070563676528,0,0,1.1353571835090965,-0.05059247719081414,-0.08340015681810217,-3.080141590927643,0.0437874546780543,-0.11721034291296165
303,0.9901972614601104,2.8467455150900776,0,0,1.0987474501256735,-0.24665582738696826,-0.2695881181974593,-2.8096721318984463,-0.1821012985181387,-0.33086687394354286
304,0.9453624899598352,3.0304495485778165,0,0,0.9252756789597345,0.04229654888585433,-0.17356167576194226,-2.4163725693428297,0.3720659924995598,-0.27755070419013106
305,0.9185068346489965,3.2087067569984673,0,0,0.7645336831391382,0.25797883340117883,-0.11818946831943528,-2.945853027631464,-0.08544493164562104,-0.10858509535163144
306,0.9119769340085324,3.378062458120367,0,0,0.8594134083456587,0.2212901091127938,-0.2665068261403376,-3.5076355991177612,-0.33973294871036663,0.07708299276032776
307,0.9264034737218132,3.5354055534998428,0,0,0.8453525620608012,0.10697855303370839,-0.30624485417818015,-3.6468284891344807,0.08168419421794207,0.1722947514238407
308,0.960496195070217,3.6783464423755494,0,0,0.8287710970536456,0.08050361127390221,-0.21638996246893435,-3.8805763423219783,0.10981138769680562,0.046764390830090326
309,1.011022407359419,3.805566172791711,0,0,0.8437411334063758,0.02473456766179269,-0.13678794435724353,-3.946903498862439,0.3237785701112803,-0.10838457589291597
310,1.0730120145518387,3.91704078278219,0,0,0.8574051551507781,0.2024851967961642,-0.09776107832373016,-3.6201138268859006,-0.0741391882038853,-0.3423063765674568
311,1.1402058719188233,4.014076322316003,0,0,0.9897366198079341,0.2697583669831373,-0.25649982199015614,-3.8308159273901627,-0.5364647894018456,-0.581441481407678
312,1.205723491464121,4.099129829979283,0,0,1.0745038016316097,0.14718049627173524,-0.41182230141068876,-4.3920252624256095,-0.2798798359169362,-0.5823209937376401
313,1.2628734162171187,4.175411887177598,0,0,1.3939004284959524,-0.3358102023650253,-0.11007518566018812,-4.877224595363743,1.381543367069022,-0.34176301397863923
314,1.305979503162022,4.246277966207641,0,0,1.854818285404031,-0.6746431856142551,0.37757255753861246,-3.6191948787217254,1.321711899852469,-0.583235272429384
315,1.3310726003726734,4.314458516205738,0,0,1.1486356016850858,-0.43943331984561035,-0.16489180871546136,-3.7215437098588477,-0.31164417108909553,-0.7728212361730568
316,1.3363217960336335,4.3812616665597215,0,0,0.976856493189308,0.3138388276362815,-0.1518403445618634,-3.534466459865062,0.6596549533014205,-0.6769989671272796
317,1.322149925068758,4.445949555249684,0,0,1.2672715324219095,0.3615936397685314,-0.04603084172240485,-4.6086731787749535,-0.048984758112694864,-0.4881907542273035
318,1.291054622056181,4.5054685037900715,0,0,1.4198022569264759,-0.13498345592711322,-0.488786729628424,-4.728904630863973,0.08331889522917768,-0.5118357490760431
319,1.2471957466920305,4.554608294220032,0,0,1.345133882974241,-0.18172200182614937,-0.22317032961750832,-4.2275826247716175,1.4059726493353806,-0.7199681332282648
320,1.1958132361846163,4.586553902728963,0,0,1.059605890164887,-0.20454966961901921,-0.010537867735436043,-4.193432374912756,0.6534134921396867,-0.7329989850425785
321,1.142541144945188,4.593735990410808,0,0,1.0136553259945633,-0.07306135302588507,-0.2375251718838391,-4.480484264424661,-0.23624925189342647,-0.5469473240678232
322,1.0927005801987835,4.5688740131123335,0,0,0.9594070730554195,-0.06947011869904651,-0.42840841918995054,-4.593988627052033,0.30998694904254953,-0.3342271754136675
323,1.050669590714251,4.506093409682466,0,0,0.8476223274544379,-0.09499909648935397,-0.23470211637451227,-4.526807968533396,0.6556609873504278,-0.3339823454145646
324,1.0194220990965064,4.40197029104471,0,0,0.7914501161696235,-0.16198074249980565,-0.18105054243936802,-4.6175632974977585,0.15192770541464737,-0.4120913216860791
325,1.000298941707674,4.25633493694005,0,0,0.8916374760077904,-0.24387718029636288,-0.31647359634192945,-4.602408061396053,-0.2598285637804665,-0.42364583950023943
326,0.993030132125855,4.072675364413386,0,0,0.9738509514408132,-0.3698349317507638,-0.39103418756494696,-4.350434034453124,0.1514788026166629,-0.3778605372797099
327,0.9959787897747759,3.8580349511436225,0,0,0.9496470944141063,-0.4358911817822641,-0.2504808371191955,-3.896101901099581,0.44912589464709946,-0.3416337976201871
328,1.0065385363012727,3.6223878639912264,0,0,0.93296742758155,-0.39841341691713567,-0.08001860632250848,-3.479913696045184,0.1541367054321619,-0.3003525962697961
329,1.021601411272683,3.377580499493109,0,0,0.9622416416781898,-0.3803279787528706,-0.0889657184963007,-3.237379097286965,-0.04720481418056335,-0.21766870133686275
330,1.038022541369159,3.1360123667309283,0,0,0.9961237261445199,-0.4296843893020702,-0.07641758554729065,-2.955824071148307,0.09577510500944472,-0.16014772395178942
331,1.0530276564333283,2.909268741370088,0,0,0.9460171487800213,-0.4307440054978136,-0.0033879629373081478,-2.7168439646082967,0.12558815093376804,-0.1169386371285799
332,1.0645277060588643,2.7069055189708875,0,0,0.9601271631900931,-0.425908144513559,-0.009558343719903413,-2.611352258744445,-0.0052917158705609035,-0.06622377397272249
333,1.0713174660198432,2.5355388712244933,0,0,0.9783580021798879,-0.4097389576365761,0.019049023869675673,-2.405269214689636,0.09002642197641386,-0.05567861613556799
334,1.073142705490435,2.3983282680789304,0,0,1.1711729857281,-0.29419397087290766,0.18801797241123253,-2.251379742974598,0.026251069066458667,-0.09864647283640723
335,1.0706254286893464,2.2948756726590935,0,0,1.2747739240466358,-0.1854071287807567,0.27743899461008303,-2.3219018847127,-0.11122410623438478,-0.17727305807790986
336,1.0650460841141538,2.221504610398083,0,0,1.0327461802211109,-0.21445980963530717,0.1639887995832518,-2.5658417051806595,-0.4249085940305299,-0.16976518516267475
337,1.058005576022351,2.1718392270798703,0,0,0.8750733902458213,-0.2880581366043036,0.004430674042514706,-2.316554773064933,-0.25780320393317013,-0.18635809443514567
338,1.0510284401315682,2.1375896769779335,0,0,0.8067577453672927,-0.13720196369309579,0.09895405376963942,-1.7097930749007042,0.10078537518539543,-0.34437974574996616
339,1.0452027801785622,2.109472319258762,0,0,0.8215038807599263,0.13880248301563847,0.2004467289357968,-1.6570384014449027,0.042528217490303714,-0.47359662483887754
340,1.0409568226048163,2.078226307189472,0,0,0.8128953337236634,0.3563983592977304,0.1666076933713466,-1.8018063874700736,-0.01362858315558895,-0.4071117850301633
341,1.0380361511903857,2.035685676364969,0,0,0.896254289217431,0.4878032370597318,0.15417306490806532,-2.1538097040725774,-0.42120473643622797,-0.14730001086672667
342,1.0356831330982237,1.9758076552525132,0,0,1.1047929533421603,0.3198794365357978,0.032469762478731866,-2.5069983584814857,-0.2786095079615454,-0.03908171016180798
343,1.0329566031601598,1.8954802665674428,0,0,1.2558094244043987,-0.05602467885287247,-0.08100528082077597,-2.6389152338414776,-0.32197557416304,-0.1610168719122429
344,1.029090007797456,1.7949042378268811,0,0,1.1465704717509388,-0.38071395972600486,-0.2556149142079655,-2.1122854220125937,-0.15467743341979676,-0.31729187135632353
345,1.0237844159756686,1.6774132125419232,0,0,0.8819368258512562,-0.2977554387912843,-0.09866237581890071,-1.2782092076339853,0.16627589366181272,-0.3149380730285955
346,1.0173674886177275,1.548748956783858,0,0,0.9128382326870138,-0.16434791805399923,0.007227692184478059,-1.180024236250784,-0.18583013015259453,-0.1989423818657396
347,1.0108007227829712,1.415971852674061,0,0,1.0272044686060617,-0.05096799349040423,-0.04016045277515375,-1.0174871413133686,-0.320149018139347,-0.18445976391514082
348,1.0055574067108357,1.2862777004367816,0,0,1.0301176477510896,-0.056925184092204435,-0.05519699011689981,-1.06674032636161,-0.23037561911211824,-0.2524908050579035
349,1.0034083563771978,1.1659762626074,0,0,0.9940467472468272,-0.04548391344914353,-0.07349373513521577,-0.8632135139776316,-0.15909469263647313,-0.3309420195694038
350,1.0061494594605376,1.0597956722387583,0,0,1.0117807006967177,-0.017371594320236446,-0.11331818163806183,-0.9392133406805605,-0.22686615520979056,-0.28637708073674006
351,1.0153001799699208,0.9705635925191615,0,0,1.0700530786627434,-0.0006606524691907164,-0.0750160952310103,-0.9958970959567705,-0.02009408764151345,-0.23431291521391004
352,1.031802877837961,0.8992183155189595,0,0,0.9923921795089397,-0.039248276314308286,0.0036022870319407855,-1.1708812444731607,0.08012567447408357,-0.23151411487386395
353,1.055757677631233,0.8450391517717263,0,0,0.9909397558041974,-0.08969319078074202,-0.09651600471524582,-1.088430922468359,-0.22452851176336552,-0.2821285589763921
354,1.086232893282112,0.8059674910027255,0,0,1.0304496697203458,-0.11026301010919193,-0.14499624222357294,-0.880273525371356,-0.09197013616689166,-0.30732254155910377
355,1.121192097363886,0.7789227215000201,0,0,0.9997575696466416,-0.02872061598866496,-0.1652303335660903,-0.5043491059125628,-0.2966638266071621,-0.23614640011399401
356,1.1575713218101975,0.7600862950582674,0,0,1.090099922461721,0.006580685015064393,-0.19384963122324972,-0.4265139311163291,-0.24341317924608655,-0.0894241761589287
357,1.1915220814233007,0.7451963542501473,0,0,1.06637865892592,-0.003918076751427252,-0.14320470492505383,-0.22955025351174996,-0.43467843304985404,0.026154835289614622
358,1.218809678124854,0.7299248753712714,0,0,1.1366910667543206,-0.12756029576484954,-0.10697831603271284,-0.3081518920357003,-0.3259239868243874,0.023605867827258938
359,1.2353248247078297,0.7103807585899163,0,0,1.3704529674105825,-0.438107750502477,0.4470558337781018,0.23673579464943723,-0.34735389604113265,-0.3316078775925783
360,1.2376364189426778,0.6837069758517488,0,0,1.3961684602226272,-0.13644685177857502,0.1908619183808436,0.7617301258296767,-0.9494238980176152,-0.5307485812050486
361,1.2234969434610128,0.6486521465084933,0,0,1.0565157980898254,0.034239642119077825,0.25270484194018833,1.0331430707034366,0.36331278828172636,-0.4653602930975059
362,1.1922212521803282,0.6059450522140052,0,0,0.961861650662777,0.06497734931135278,0.48866485963635203,0.3405260251890631,0.2698635082854667,-0.4681169280322374
363,1.1448889600053829,0.5583253311957257,0,0,1.3331641296537624,0.07087972920478547,0.2621311412662725,0.19717300854562128,0.1324857365566051,-0.38986717021260053
364,1.0843485315614665,0.5101812636149198,0,0,1.2519525985440554,0.20713752765512813,0.29607089547929477,0.40419838665460556,0.4343187749403988,-0.26038018732101426
365,1.015016767855055,0.4668620294023373,0,0,1.0024139031828396,0.13496511345006135,0.21058024163181918,0.15999433070934468,0.13672700986177522,-0.10877701876535444
366,0.942484641438871,0.4338109467138084,0,0,0.7877666514143794,0.014320812067820252,0.12415229428047676,0.05058464017444929,0.2769418312902534,0.009364689924534186
367,0.8729722976308042,0.41569193183743297,0,0,0.7159639438193789,-0.09695794793814953,-0.0012627127494266983,0.04214133567040756,0.1668120967297543,0.0812829209232819
368,0.8127094948253352,0.41566535729818915,0,0,0.7700969412412558,-0.13582543873407363,0.0700594737190652,0.1880143158053437,0.2552996830710799,0.17421019087758308
369,0.7673282335876801,0.4349243364262565,0,0,0.7447023451605467,-0.14150586802787593,0.07297275694389342,0.18005154101785364,0.08781138416733326,0.3217741999888108
370,0.7413357421844227,0.4725411338113636,0,0,0.7662494980865464,-0.13088331715748394,0.0018805376239283658,0.18436767454971076,-0.20631831270694417,0.4490911650314581
371,0.7377052039267203,0.5256140232836627,0,0,0.7663329586282865,-0.1133915205336183,-0.016685055447645418,0.25172649467021685,-0.18464673454756603,0.44397274209376036
372,0.7575986673874151,0.5896630999720506,0,0,0.7338180205875661,-0.11092557407041981,4.670128651776701e-05,0.3882451522920507,-0.1349764767252708,0.37161378348145013
373,0.8002287932857131,0.659203437587024,0,0,0.7133672373508508,-0.13493628547063108,0.08346742750699727,0.5262747679747855,-0.0758651145191575,0.28664940875477307
374,0.8628680387584997,0.728418273882405,0,0,0.777929731095501,-0.18856509923607562,0.09014309426395255,0.6330466515994052,-0.1849434875161678,0.22908584711262067
375,0.9410152766396966,0.7918520323400925,0,0,0.8904227482176962,-0.227878172198394,-0.06689787354276491,0.8568877212336706,-0.04342629811739337,0.16703555651322516
376,1.0287231613033865,0.84503715979224,0,0,0.9198423343433821,-0.07406012832446557,-0.12707073985897632,1.2763275603175859,0.11155049120863383,0.14665252263090578
377,1.1190737328632316,0.884967548132757,0,0,1.004315881256772,0.23594548510075541,-0.06681163095690036,0.9720198892719967,-0.20271064948524956,0.21691601784806194
378,1.2047680967158199,0.9103522507969762,0,0,1.3201006527208945,0.23777011089755642,-0.15766589568095923,0.3473000434519311,-0.5838383340271186,0.3395354220685306
379,1.2787730992609736,0.9216347024337889,0,0,1.466797897028983,0.04255075179589294,-0.17725886866487084,-0.11105647774577589,-0.575219112461035,0.3334977376829444
380,1.3349517325859108,0.9208246078932009,0,0,1.242101657648176,-0.14780949477461433,-0.22283242016893426,0.11479863170484232,-0.6745594036065099,0.1673339226739533
381,1.3686050959987832,0.911222636559129,0,0,1.2030872085783282,0.189942753114071,0.2640944692709332,0.6395799098913358,-0.2694282028877546,0.2271066023296747
382,1.3768734152120898,0.8970981464402088,0,0,1.430085930292426,0.5067607190745712,0.8070649359420856,-0.2506061563983589,-0.754955186005902,0.6718603563429292
383,1.3589692290542106,0.8833211581382069,0,0,1.2442848174785572,0.15010103613332748,0.44048566231973635,-1.1580644278318544,-0.9290730811766277,0.8814185794039489
384,1.3162368629930787,0.8748955686887625,0,0,0.8411936352787267,-0.12069299845702894,0.177308560463142,-0.6822367763857874,-0.26727448717570756,0.7388003157699976
385,1.2520486807095608,0.8763407802544226,0,0,1.3718289952799476,-0.1787953370949257,0.2282893948635368,-0.3240996266143259,-0.5182130585070903,0.4648707978875916
386,1.1715561919065292,0.8909435838366606,0,0,1.4934785743684869,-0.39130747942229294,0.14742931412957805,-0.6153319722317647,0.2095892619712293,0.29586967210793524
387,1.0813061578099035,0.9200149128020125,0,0,1.137211897559742,-0.1822495457817635,0.11068505082611343,-0.2501440056785232,-0.2403980949433411,0.06865652516448507
388,0.9887231138077296,0.9623652168315803,0,0,0.9140791420357551,0.17321807370889242,0.10350410296188106,-0.3813345035759236,-0.18800433214865833,-0.15925704132480187
389,0.9014770909964732,1.0142056528427916,0,0,0.5701342512739941,0.3716930876626145,-0.12554723566543896,-0.7291197814386081,-0.33038248274494003,-0.21245291930965782
390,0.8267965386359384,1.069586824300276,0,0,0.5838830033060123,0.43226717702493284,-0.0954981987892733,-0.8824156543408023,-0.3413069122031747,-0.25215336195221744
391,0.7708171661985797,1.1213384483162245,0,0,0.6579573003116181,0.29122479839264287,-0.025046255391908617,-1.2114268691663164,-0.4104883784470783,-0.35057776695577975
392,0.7380524989785551,1.1623264304731984,0,0,0.7524403220064347,0.10759279769387399,-0.09496585229483366,-1.5199124390661412,-0.4747773995324265,-0.4214869392884731
393,0.7310390801079045,1.1867493978832457,0,0,0.729971315103562,-0.0943252850190597,-0.1852724617103542,-1.5900085247694473,-0.12437857258696357,-0.428105740087623
394,0.7501729293449778,1.1911847059859928,0,0,0.6706361163674299,-0.07990294016967733,-0.04558996082196103,-1.185232561879955,-0.2223387093374748,-0.32414450025600033
395,0.793730506721842,1.1751643994949017,0,0,0.741825649818547,-0.004287791059868587,-0.06072637716721248,-1.2504360756484565,-0.3411508643600095,-0.1287818581110129
396,0.8580566909751784,1.1411836183606596,0,0,0.8475600633936112,0.021440643302858026,-0.18488193809076536,-1.188518498105964,-0.05832415149976214,0.04100878421483573
397,0.9378949147279295,1.0941698235948387,0,0,0.9959854328769706,-0.0038181300399650455,-0.1525504201637353,-1.1749504453563928,-0.08879627453156287,0.23467248554846556
398,1.0268255106561244,1.0405370716027142,0,0,1.0135204229130943,-0.1734739274600153,-0.2668980219799873,-1.0931399790990115,-0.27663259675705476,0.2810372716467806
399,1.1177715896583797,0.9870122412874356,0,0,1.0510580873075521,-0.30056818159131865,-0.15566034726966863,-0.6773697532666602,-0.3153758170034871,0.1131636911243555
400,1.2035334136220395,0.9394610936840947,0,0,1.173714167846152,-0.35907841160436893,-0.1592404727183907,-0.23874576450190044,-0.22899611436191442,-0.07803243875463861
401,1.2773214152698171,0.9019593561161706,0,0,1.1263454100647825,-0.07121613848530492,-0.24382480901909406,0.39418012799825314,-0.18815624962989744,-0.17503438417355768
402,1.3332671917349694,0.8763244771350682,0,0,1.1495896202358284,-0.1272431486481959,-0.01548338019096368,-0.11375256987576542,0.012155852015241839,-0.21193672833415889
403,1.366892118434135,0.8622242394555926,0,0,1.339028241071776,-0.4314818124455415,0.4053103530365469,0.17362670213703976,-0.025755373440021233,-0.7165428087545445
404,1.375500266122159,0.8578154607681788,0,0,1.7652951714505731,-0.2986188134309666,0.3540290755489623,0.6758636218022421,0.09449002042547416,-1.3180107293703267
405,1.3584442219080954,0.860687372711756,0,0,1.252703744426908,-0.09748953740480014,0.39532095638804526,1.460083247094141,1.079354657796542,-1.2716580066281815
406,1.3172107233259305,0.8687695117659109,0,0,0.9395388651469355,0.23704202964999802,0.24619708710662488,0.8919012961820425,0.2531699689044107,-0.7099393722245764
407,1.2553001544965272,0.8808881967091915,0,0,1.4561167398276127,0.40871140061811895,0.069863548782696,0.6193211933916953,0.04840171401293031,-0.2641406526875544
408,1.177912453636422,0.8968263061038415,0,0,1.1385533305606323,0.4681945228987712,0.17914155378284013,0.483644556017701,0.1679233594375747,-0.06576557877788876
409,1.0914756809914452,0.916966165795468,0,0,1.1366739716854983,0.009287882617359532,-0.05573976863385678,-0.22368499875447112,-0.27200227198438776,0.03789896715330778
410,1.0030627932397922,0.9417462904105661,0,0,0.8207907648385264,-0.4403480922033031,-0.09055020075523434,0.27910717518626216,0.8891889878793215,0.026715484416762195
411,0.9197547210362115,0.9711767598792065,0,0,0.520783657410836,-0.5157361154117819,0.0721875609269709,0.7784667425641282,0.521215961770417,0.02642338722011125
412,0.8480244614006981,1.0045695637095085,0,0,0.644468876161342,-0.31076043051836016,0.001503410786255165,0.886563384083045,0.2735735289474949,0.15498596337245504
413,0.7932197832817522,1.040527008665291,0,0,0.7622219842678171,-0.095624674855202,-0.004574644959155816,1.1377490554572989,0.09647492877465867,0.28601320751183595
414,0.7592000799226707,1.077149190619941,0,0,0.8394999201954315,0.037938022100861925,-0.05992043922514029,0.9923040567572914,-0.07803034575608706,0.2888809514698312
415,0.7481445042518817,1.1123827959635542,0,0,0.8005183481395347,0.010043091713631696,-0.10451954431855735,0.971015081051306,-0.09844419059420437,0.2744217884514877
416,0.7605141729514898,1.14442342651539,0,0,0.740394400723015,-0.11320756635564565,-0.026347560796519457,1.172104348452494,0.060050436317252744,0.2558811704528151
417,0.7951360945726879,1.1720836297608455,0,0,0.703502293093028,-0.17990522966238665,-0.05020840972241837,1.3364955415017188,-0.10249436777127553,0.20758483710800324
418,0.849379255388289,1.195039622999685,0,0,0.7087490549271486,-0.21460002842843132,-0.2424974826367286,1.3521123193468247,-0.24832740434019931,0.12493039782603169
419,0.9194000659092723,1.213877473121677,0,0,0.8983885609954848,-0.022072746451948056,-0.3827866955634517,1.6966007413596198,-0.2702251706653509,0.11355812708811099
420,1.0004333512320651,1.2298913377811782,0,0,1.0694584960513267,0.40472280341816524,-0.10216221126223275,1.4650760789728414,-0.014225175375917576,0.1236397451617437
421,1.0870980784685367,1.2446545831870375,0,0,1.1675685881397664,0.4976422191531477,0.025818259726663174,0.2460883435097244,-0.3963146702002345,0.13878653959946205
422,1.1736877536295003,1.259477140411693,0,0,1.1846397245695255,0.28109284766706233,-0.07563880042886098,-0.6180989221153627,-0.5244593890697983,0.31999356872825685
423,1.2544356796198086,1.274933657254745,0,0,0.8519218690256166,-0.0876898960420225,-0.24641268055504598,-0.9039004439533668,-0.8478833373826776,0.36214000186793543
424,1.3237791032584898,1.2906441533497568,0,0,0.9305910708300006,-0.03696875300441687,-0.3320160513843947,0.026142751064295623,-0.8040990494453701,0.27699162451661735
425,1.3766667205499379,1.3054029416964434,0,0,1.1698338948848224,0.36751048603563224,0.4007442339252147,0.21725343689310878,0.3211280803576781,0.6837915872202615
426,1.4089331707806045,1.3176221761684568,0,0,1.6800933815181731,0.6178729312744093,0.8335297206725322,-0.6785034573558929,-0.740014313177888,1.3745500753492683
427,1.4177063472366205,1.3259265948472547,0,0,1.5117823430936645,0.22296020855017704,0.5175357406054819,-2.159154406420254,-0.3818271210429358,1.713210364493871
428,1.401762834041851,1.329644271553939,0,0,0.8225187721427479,-0.42651101032868854,0.11619373788032332,-1.9141978877353258,-0.4419382535440024,1.0460348122453675
429,1.3617453620574231,1.3289462463126696,0,0,1.515641665631342,-0.45951362250539773,-0.059810835534405894,-0.7038364603409303,-0.38511925590845403,0.1864947963033272
430,1.3001953802359387,1.324540913540264,0,0,1.4606254010630773,-0.38260250275761243,0.007911046948402148,-0.33558711175022166,0.6074549830813004,-0.09314881047683903
431,1.221391811753236,1.3170667875043236,0,0,1.2378606505599457,0.14416209023116489,0.08253756870942426,-0.09188800839509954,-0.37591486681016184,-0.11807215231366852
432,1.1310074816048095,1.3064973295703695,0,0,1.0489507688866435,0.5254161284460385,0.028802189076269497,-0.8636880896395013,-0.24873045864793036,-0.032645702399697066
433,1.035615765634097,1.2918619966818947,0,0,0.7550422575126793,0.3991803249906673,-0.09004122137704726,-1.4397048010061633,-0.3137481066457178,0.03047331390979106
434,0.9421104497570847,1.2714200968291327,0,0,0.739697262463291,0.14524301743668488,-0.18328175692175128,-1.6093198241961608,-0.15848599263476879,-0.02718929792951875
435,0.8571235139156435,1.2432152838873405,0,0,0.7619158994287555,-0.07699802744732039,-0.10049308991032999,-1.456249607601413,0.0073133045204971355,-0.2990667208348344
436,0.7865194376789628,1.205801487756213,0,0,0.7906556194272869,-0.20943868784931813,-0.1006481335195246,-1.3487719971742334,-0.2558596192538017,-0.48595900469741293
437,0.7350119740980269,1.158908509550185,0,0,0.774845606754032,-0.13185312434028948,-0.24834400128119227,-1.0493901840961155,-0.3991074855737617,-0.44893638572284833
438,0.7059093110461591,1.103878594232417,0,0,0.7546232294249691,0.0419852075701264,-0.20203964844730946,-0.9073737685124739,-0.17822235511602877,-0.22189280478768644
439,0.7009679273975283,1.0437956623848685,0,0,0.6947765248798847,0.08438159466928176,-0.12008038213271172,-1.025512969429819,-0.04191636124370391,0.10743949650823875
440,0.7203336600047152,0.9832998609277936,0,0,0.612513588746681,0.09196848328510436,-0.12617007910897518,-1.007934740469567,-0.2644166581084736,0.4171006740106537
441,0.7625628554061062,0.9281150293861866,0,0,0.6130368586328208,0.03941753620751779,-0.20841217392199327,-1.148709889413488,-0.3174084292656708,0.5745379650741704
442,0.824729922442849,0.8843308249087203,0,0,0.7582703383430187,-0.10593810467908689,-0.24550274597161692,-0.9804704308333583,-0.24867471582623699,0.5311839390322388
443,0.9026266851171441,0.8575077545098734,0,0,0.9937281610652177,-0.2312603511105543,-0.20126590569479447,-0.699643923162204,-0.18251539124311672,0.3338331069834564
444,0.991043979426158,0.8517324125038562,0,0,1.0422537050112681,-0.294731733899523,-0.14376473126022388,-0.19494318990027237,-0.04653616084630373,0.10323791654177075
445,1.0841110624154762,0.8688227053925666,0,0,1.017467409132467,-0.08330236193650666,-0.2763240103605817,0.4061475975821439,-0.34926824761874153,-0.06619990302762052
446,1.1756684201304113,0.907917338328846,0,0,0.9088103435396453,0.1495498611368105,-0.41604943227903907,0.3015820247850604,-0.10002428806691582,-0.10367844665007847
447,1.2596633993925068,0.9656363724156038,0,0,0.8795947657234262,0.11857367745622745,-0.35837696247650125,-0.26150881396436343,-0.3305571051489146,-0.10159967590212869
448,1.3305662428085874,1.0368671044461162,0,0,1.2284381529205526,-0.3446435364185792,0.14530285641547463,-0.07385498029880504,0.8347686988220254,-0.3869116129439967
449,1.3837865703248622,1.1160456759389052,0,0,1.7366635631448184,-0.8038504092244659,0.7815691148861464,0.2963641735424644,0.8197360509967567,-1.2987491770337996
450,1.4160327230715264,1.1986215955322426,0,0,1.6996338303700322,-0.6159418882670945,0.36623051193863776,1.252350890498276,1.4019102829557626,-1.586778257391431
451,1.4255372446464838,1.2822764486205234,0,0,0.6050347484771106,0.11238790651499157,0.4415225579550062,2.1832025864512095,1.0464307980423981,-0.8734161532680227
452,1.4121065873763257,1.3674922281144448,0,0,1.1881539166405417,0.40833689653515187,0.16957264259713298,0.9495364333429075,-1.1278602543223717,-0.20379470026753715
453,1.3770228050366102,1.457261859193032,0,0,1.4952260557406933,0.45043595009075366,-0.05824324192254821,0.942500927702604,-0.012198638795908531,-0.019624595249675178
454,1.3228676535308082,1.5560427980192586,0,0,1.2479661935124233,0.02456433484025486,-0.019256112667073545,0.21128830550928546,-0.346388971545695,-0.09708621620768278
455,1.2533259299837498,1.6683258085863537,0,0,1.204097158452164,-0.48122752021597504,-0.0768407576975785,0.5833612758937117,0.6731763269404936,-0.3237487730834584
456,1.1729872381834172,1.7972843766322852,0,0,0.8810835921239064,-0.7109002626669054,0.031013889170911097,1.5485007253151004,1.07000140863625,-0.4084802358251648
457,1.0871426399267152,1.9438560089487171,0,0,0.9228605391499264,-0.4125401576893767,0.18403371933804777,2.217423488417915,0.401274654870353,-0.3123990968467389
458,1.0015676357581058,2.106383239265782,0,0,0.9689532538010867,-0.06624633758964187,0.02598538779747789,2.3291788519455667,-0.18083721158576094,-0.0053208622827614505
459,0.9222800612172114,2.2807527746866665,0,0,1.0612557181694815,0.10661739603298957,-0.08224721787055125,2.2785001177516286,-0.37356908998497396,0.16268476891826614
460,0.8552546814127915,2.4608970828022994,0,0,0.9890282481953432,-0.04940067751242926,-0.11264499340033213,2.140464459139558,-0.20641514650780757,0.12500265475978284
461,0.8060729036330062,2.639543299772322,0,0,0.8503729542971553,-0.1975624287862709,-0.11714256904779906,2.421506289912524,-0.10135177760460726,0.029794021508351216
462,0.7794974263160014,2.8091344179652995,0,0,0.6737964234041935,-0.3022727823477919,-0.10994884232188043,2.752098286623494,-0.09242766353501868,-0.010866205131809234
463,0.7789903556762776,2.9628501085496195,0,0,0.6429892451239078,-0.27284264935835006,-0.12603874300971993,3.105182464920654,-0.6644000735702347,-0.03951365391463618
464,0.8062276039726135,3.0956159606590465,0,0,0.789940445204338,-0.15203169629363852,-0.2600946533586728,3.342025205733197,-0.616403647197964,-0.06450729060273389
465,0.8606860453808187,3.204948478937614,0,0,0.8157555991338888,-0.06810557251909526,-0.18012208260502746,3.453471566025368,-0.18095743101721853,-0.03768304834633615
466,0.9393867899078199,3.291480312700394,0,0,0.8212052368335241,-0.10454645255046127,-0.04184537441342487,3.2623400811627024,-0.14891396359468145,0.11055293771434696
467,1.0368730565080837,3.3590576064585034,0,0,0.8670817751507818,-0.1705916658122332,-0.07318755492154944,3.151390472979698,-0.1811074278971553,0.3084352761878411
468,1.1454885254869966,3.414374402190888,0,0,0.7967795125867081,-0.1539729915889243,-0.16079447955533405,3.4525613648304194,-0.04818186017679261,0.35209811333065305
469,1.255995936281315,3.466168980924929,0,0,0.7751410277006712,-0.0822950307869982,-0.20903157335703806,3.7458868970385923,0.2259271641615762,0.22939087584462658
470,1.358523681729056,3.524037224594225,0,0,1.0370927523048585,0.3191012957062118,0.07812303948286192,4.60670067113265,0.5892425502778961,0.1208151268753068
471,1.4437430851707183,3.5969461083765504,0,0,2.234366252177673,1.1394820250246251,0.5617082551071989,3.884020690073046,0.4994590688587373,0.5100329086269392
472,1.504079181696252,3.691607478154785,0,0,2.095462064053271,0.5442698059877105,0.21170485360690208,1.4890548252535114,-0.02349536612589303,1.0958017074360398
473,1.5346999445273628,3.8110035663021526,0,0,0.5549518010785338,-0.9051594560348725,-0.372679169683843,2.089922697839173,0.6307234916753677,0.459577781617277
474,1.5340713363055658,3.9534452514941276,0,0,1.2135776946176489,-0.7185195946210963,-0.28621499053026284,4.4468973031398304,-0.7986655693277716,-0.2051947965264481
475,1.5039953047760997,4.11246212486868,0,0,1.528142133156023,-0.12300777717385933,-0.7201591123749723,4.224520646237294,0.8447146638363612,0.009655869499203962
476,1.4491787092260722,4.277568146031884,0,0,1.5140769446164126,0.33315312061835695,-0.23087525683328158,4.892236912445241,1.4847084367405448,0.4081427610182803
477,1.3764491830644137,4.4356820083180155,0,0,1.3507239610301724,0.22127792475667094,0.052418874598639385,3.94388878133214,0.38227680235304407,0.5621644468298663
478,1.2937544207650766,4.5728670976282375,0,0,1.008470939171408,-0.14231727171490668,-0.4932856480991575,4.38162215145943,0.17554004666629902,0.2909263601064208
479,1.209095267114919,4.676093527435811,0,0,0.95733278068505,-0.008236545025642158,-0.2753661821776302,4.982326639522006,0.9252357516243026,0.1318175633478711
480,1.1295547495302745,4.734805561341061,0,0,0.8057691435080645,0.05962162654369288,-0.11561909480129205,4.908979977884585,0.6364393225180422,0.16009657287419143
481,1.0605722159627375,4.742128007931353,0,0,0.8456458926894654,0.16200240030237711,-0.2975859295454244,4.8566320211174405,-0.16679181215639244,0.23568046484050978
482,1.005561094636587,4.695577790953927,0,0,0.8989222977030632,0.24946740949615873,-0.37876234862242686,4.964139954317545,0.14467800868368347,0.3316173639527713
483,0.9658904820057814,4.597200267608346,0,0,0.9699695199407836,0.32165474064931754,-0.30639036270342596,4.705721936611127,0.145285829616973,0.38834970898785215
484,0.9411706045843841,4.4531295655553045,0,0,0.9756416132479734,0.38007295472023656,-0.3060445229814324,4.428482404925678,0.10758780756154995,0.4139000329653984
485,0.9297276850538654,4.272658337766948,0,0,0.9295941933937512,0.3669210006236759,-0.23279624143379601,4.111990593997124,0.08400429384426705,0.4106852474025273
486,0.9291392589939651,4.066974850491479,0,0,0.8975945450617909,0.31741230713577234,-0.2192306517340161,3.8548722241761504,0.005266654498746692,0.365617243025807
487,0.9367216352257769,3.847768276412528,0,0,0.9203967877813618,0.3730898111934842,-0.20345658681827208,3.7863336232936473,-0.02747828144881009,0.3316486628561105
488,0.9498998944111088,3.625906808503114,0,0,0.8943352140452324,0.43491136313780965,-0.15754044226218294,3.4716861525183487,-0.07504342240505552,0.32733191565047914
489,0.9664313576915718,3.410362392221525,0,0,0.8533568339073816,0.43468144194776376,-0.16846393463733483,3.1917720764286273,-0.2157956314803532,0.3199852989274469
490,0.9844878588618714,3.2075058585367158,0,0,0.7784972014984857,0.4177228545790151,-0.1571716699118516,2.9565005460266818,-0.3160347363717939,0.33156798536903825
491,1.0026278036817742,3.0208381354850276,0,0,0.8434172248551599,0.311241217142622,-0.036824158117169915,2.786195553814306,-0.13032796985533862,0.2815650538516496
492,1.0197025616195476,2.851157628006766,0,0,1.060226907836024,0.1402733332921929,0.3295741034375116,3.016903653464923,0.14592560331127383,0.1266748223595447
493,1.034740874940104,2.6970917375943713,0,0,1.2430423446336867,-0.14028829199569423,0.1805858213731777,2.7708387854211303,-0.10890856753777248,-0.07072632330991316
494,1.0468464162486844,2.5558560167628825,0,0,0.8064168156070949,-0.013175338443722373,-0.13810141388478075,2.9951299304773356,0.2624146130159771,-0.040031215102673476
495,1.055140865497957,2.4240720185519202,0,0,0.679257254221178,0.19564813807299694,-0.010266093098137382,2.4427636793843566,0.1662966697476543,0.25343067752401055
496,1.0587889868513731,2.2984911119330826,0,0,0.8884464100795078,0.07848895779517047,0.04145084839569621,2.086615370472691,0.5594408721276034,0.4007596924201086
497,1.0571321593352367,2.1765285140871864,0,0,1.152025101039175,-0.041595852854534765,0.25434748623256587,2.148684399831148,0.32300972730768207,0.21577987408087185
498,1.0499145216638137,2.056578357378247,0,0,1.353946981838995,-0.23862368271601775,0.14786222960902717,1.931002256620411,0.41025612495740393,-0.03485463959043484
499,1.03752802239009,1.93812505728536,0,0,1.2689835362225377,-0.11111068446995354,0.05755743934138883,2.200820671900672,0.39547662477166995,0.08849965576219979
500,1.0211720979291932,1.8216817649297024,0,0,1.038510085843589,0.05915710153036984,0.01091261158854769,1.7337012587947696,0.16570575558326903,0.2870473536474365
501,1.0028470940076617,1.708591403244883,0,0,0.9040703365824474,0.012854158519480359,-0.005520928622810441,1.468436907357039,0.04387025077062181,0.359757042883755
502,0.9851629066982963,1.600736391774333,0,0,0.9493622623593351,-0.053364867767956514,0.02335571712315106,1.4291736022461872,0.12180017783171583,0.3048606793531797
503,0.9710057848115493,1.5002139833190693,0,0,0.9408957292440756,-0.007051209050984922,0.004958833213445098,1.5797677409496065,0.17948449986545661,0.21115281014019796
504,0.963137796289439,1.4090282211083403,0,0,0.8940859896281794,0.08939797152076322,0.009101440665252643,1.4586346731601645,0.05009877571618735,0.2004689315437082
505,0.9638039337993668,1.3288262009336886,0,0,0.8893708756174618,0.10718714612161913,0.0006669479207379167,1.2597366130728345,-0.11354412460798953,0.24261051269528233
506,0.9744057314544506,1.2606846162596106,0,0,0.960127591478937,0.09327802223732244,0.0063780068182084145,1.2248880023608568,-0.15869766274773,0.2509593090940323
507,0.9952793259962803,1.2049465715604166,0,0,1.028031599959679,0.09792143341513694,0.020528846913107895,1.2260445003000222,-0.14855271329885492,0.20287618790942513
508,1.0255954041898234,1.1611139292908896,0,0,1.032574827018441,0.1483477575560135,-0.04002711825640162,1.048702593386327,-0.538926408699168,0.15567203949444955
509,1.063382832774277,1.127807089673026,0,0,1.0555084702284845,0.09959450948292287,-0.16868675501736743,0.8823104248060554,-0.5300795122499509,0.1284806590552218
510,1.105670788657218,1.102808823252519,0,0,0.9921038447004936,-0.012017111449741826,-0.08722465253185709,0.9083139144996839,-0.24754085897691672,0.021231285745966003
511,1.1487440784543055,1.0832097234096731,0,0,1.0017220290062898,0.014759883149907577,-0.06556864619549777,0.987714226022372,-0.5765344124453358,-0.13686213933023722
512,1.188504028673671,1.0656643726566652,0,0,1.004121902591177,0.0981751845202759,-0.17179041265606504,0.7053565536604982,-0.6095839217409441,-0.1991933976523606
513,1.2209118761318063,1.0467472426180437,0,0,1.247799555386274,0.27645138508280737,-0.05468945664550021,0.922573500747734,-0.5804723317366932,-0.10807159599480629
514,1.2424601179191197,1.0233716198090208,0,0,1.5586325425208796,0.7088493121862354,0.7297154744395657,0.04012120088918272,-0.33587135405119734,0.2995613031644062
515,1.2505849566235234,0.9932090406374882,0,0,1.2548149141627767,0.03712279416049692,0.27074368846203367,-1.305424260133792,-1.7841623271032312,0.4730095015957883
516,1.243929814381675,0.9550245959449909,0,0,1.1552334204042642,-0.29037397864873005,-0.2281064805367871,-0.045872821739574104,-0.6434046693780638,0.29568307889446194
517,1.2224138320196625,0.908841633850133,0,0,0.9521376306601279,-0.267093279267978,0.24836338645969777,0.6694658136230479,0.10099427622710658,0.13666761954528417
518,1.1871294081764696,0.8558885666329205,0,0,1.0311593865167596,-0.28066224296756365,0.2800570289987301,0.6710564962046937,-0.5269497376340416,0.20090249966890147
519,1.1401435761329464,0.798346618517004,0,0,0.9722582196029065,0.060965230520044836,0.1347947426668144,0.8413523580535498,-0.12586272059185774,0.4138340450869835
520,1.084282302506559,0.7389656621798557,0,0,1.0248177204796252,0.344633806123887,0.26223301968342544,0.44372645632295965,-0.1423723957623879,0.48180832486941894
521,1.022944053751962,0.6806270752917902,0,0,1.0799075302190118,0.27470895873519174,0.04450920222876189,0.08948957687270295,-0.642648997480091,0.2737171492696555
522,0.9599464245905569,0.6259292662580571,0,0,1.0159294150875566,0.1632730922116902,-0.18118703102473227,0.1699230526696042,-0.2241297946666387,-0.07238739133545945
523,0.8993804572755228,0.5768692540000583,0,0,0.887517031644337,0.1287107660589371,-0.0027358976330115843,0.2691983028746244,0.30058398444806694,-0.22673702002833776
524,0.8454415033509722,0.5346812272999811,0,0,0.7600980236487325,0.18418901930140805,0.06992887864404992,0.18990557463424956,-0.2446272897251168,-0.18808068038502596
525,0.8022177717417679,0.4998560359257973,0,0,0.7968768284178476,0.10584263212157606,-0.17719224425980934,0.0902297572261042,-0.8682350742959929,-0.14654532680199533
526,0.7734336000549592,0.472311195917715,0,0,0.8938785576417909,0.055590479029473616,-0.28187848071314375,0.27231114295220554,-0.3379413487400586,-0.20249699678916075
527,0.7621547093628561,0.45163684621922584,0,0,0.8227183518365899,0.0673695101017273,-0.09354015011098413,0.36050970094907553,0.4148719391719309,-0.23555492008265205
528,0.7704715808057045,0.437334691370383,0,0,0.6827433822412314,0.10890712866171558,0.07752683555895586,0.3150781410039793,0.2543088216141594,-0.1685460197640854
529,0.7991932518053844,0.4289945250047289,0,0,0.6085574188924956,0.16831924262000134,0.025158479062105964,0.08898432088141674,-0.17967645489654432,-0.041626408028430276
530,0.8476038352238856,0.42639212647418756,0,0,0.6774841731128902,0.1970648739918325,-0.0913868425960972,-0.13067349466548706,-0.3478989794858975,0.08098975086737228
531,0.9133415042356462,0.4295158133685879,0,0,0.9190598218677193,0.14228762553212662,-0.16493138303767177,-0.46524735402275585,-0.09068507106372822,0.1395008225547263
532,0.9924429971116019,0.4385259465458574,0,0,1.0455955250505868,-0.018020370525754458,-0.15155912672718855,-0.5653653972839398,0.38388308017848394,0.0699156099211889
533,1.0795635724893622,0.45363480735859896,0,0,1.0527188805940102,-0.008956137249367965,-0.10437447044670073,-0.5642563017383522,0.41452947469360285,-0.029994710754846658
534,1.1683524886740488,0.4748908476756125,0,0,1.0441902278500128,-0.07535731652368469,-0.020979421875598394,-0.40918204461271906,0.318821844370579,-0.15548718662194477
535,1.2519488989487793,0.5018810688333887,0,0,1.196339645973582,0.01791232602497059,-0.2769992939180388,-0.06043431833994603,-0.19710066631837503,-0.19645684159554594
536,1.3235565789172796,0.5334207442070793,0,0,1.3420358360854594,0.1608375231717653,-0.4034098168966064,0.175049421193025,-0.1235994579586856,-0.15779522528764384
537,1.3770470204810656,0.5673480258207009,0,0,1.3201346264022198,0.20978306489203913,-0.31816585993184926,-0.1555379155364516,-0.08936992424018494,-0.040743028500780196
538,1.4075288709427891,0.6005460593409828,0,0,1.4755945129631904,-0.15210625719802123,0.3601464224063418,-0.20103093891286686,0.10259396117441996,-0.16102953380900076
539,1.4118172643725448,0.6292614769824426,0,0,1.6238626599481911,-0.18532293503510752,0.3085708659098995,0.3171057693454683,-0.5314511033716535,-0.4357194696255231
540,1.388747640758326,0.6496903430005784,0,0,1.259889995718742,0.04260124465826378,0.07382295688268614,1.0830935217134998,0.1446877765938616,-0.3804493258377404
541,1.339305738282716,0.658701887545993,0,0,1.0183644156931844,0.06238539444903969,0.38281798589583504,0.6007240263251986,0.3766131742004916,-0.33899240415368936
542,1.2665784173033947,0.6545161798010508,0,0,1.2164456380026172,0.08855348352671798,0.15066434736212242,0.426695864273682,0.3004909935141724,-0.36878377253357103
543,1.1755489165992576,0.6371692521356227,0,0,1.40291493212064,0.149919062595945,0.40954515590648044,0.4437160108238265,0.7775141871370882,-0.3204824644572065
544,1.0727535055233732,0.6086683822955898,0,0,1.2735144676019845,0.19349582872767893,0.24787227151380573,0.27929418506956655,0.5152793815095663,-0.11447991106609182
545,0.9658014917356309,0.5728203291820798,0,0,0.8789162404464829,0.15466009830625205,0.22375261112784958,0.40024550111338236,0.2796354804316641,0.1244246037608245
546,0.8627686115888931,0.5347809443386021,0,0,0.7007232218918038,0.0017651795848596284,0.07136978499004774,0.040052379908683704,0.007402697733209964,0.3231633642586096
547,0.7715113527738948,0.5004177549798036,0,0,0.6175326926704745,-0.12320265708127627,-0.08632409125272202,0.1876838588144243,0.3232412484464102,0.376000459207818
548,0.6989879432884055,0.4755919075472545,0,0,0.5564342293085639,-0.0918183706488522,0.04468830221746456,0.29757824180581255,0.3067378237986347,0.32353082131770716
549,0.6506789729391087,0.4654533246152975,0,0,0.6605544773013794,-0.08180545780101459,0.045186124297796164,0.20615628468834074,0.03725081971370289,0.3302951439380606
550,0.6301728913551888,0.47381916472427693,0,0,0.6771971628064223,-0.05669790130085197,-0.023127221531416157,0.2958634180976224,0.035421054954823616,0.3786742224042254
551,0.6389394544816472,0.5026882289623205,0,0,0.6522328295381812,0.0038607638820324815,-0.040656868412769824,0.255257998166687,-0.20207556659850742,0.40546760012068145
552,0.676280755275655,0.5519362500816164,0,0,0.6757207604073523,0.021156757934372643,-0.05573787477614625,0.19265820978395456,-0.24666943002977648,0.35793780313530976
553,0.7394349857035357,0.6192323485482419,0,0,0.6902278001090999,-0.06778179510518355,-0.018959610678430588,0.23027387767986301,-0.16685739816033585,0.23782731352250472
554,0.823808035755983,0.7002075804556919,0,0,0.8173914377799162,-0.273341355312669,-0.016096773344443267,0.379379836984489,-0.09839530820113294,0.08468001260025385
555,0.9233119416876534,0.7888830496686109,0,0,0.8806749807815362,-0.3295690217764466,-0.021444132167629207,0.9441596631657507,0.1297823371282178,-0.048941627727840664
556,1.0307908596538147,0.8783206898762799,0,0,0.9506104512197449,-0.14015817356926424,-0.1569447720363644,1.237029586692795,-0.0003454582714182943,-0.09062512194329125
557,1.1385148918374108,0.961406730817346,0,0,0.9654215115361044,0.32971838205787113,-0.1314322486026225,1.0960912996088856,-0.21071650294856908,-0.01203696585563131
558,1.2387202059998155,1.0316490050496057,0,0,1.2237798393177992,0.526022163036046,-0.003937777605292286,-0.03950597057688874,-0.762627972656661,0.21546414510917603
559,1.324167964127139,1.083886828782131,0,0,1.3508637476966394,0.10908366885419017,-0.23511766200552917,-0.5829937894982833,-0.9216688218532634,0.31890773589574584
560,1.38868479730587,1.1148582766236483,0,0,1.2647621705465708,0.039952507086150314,-0.12464335953914893,0.14306785317918655,-0.7537066596064946,0.2789729947981336
561,1.4276398809092392,1.1236020202949,0,0,1.3481231081981626,0.40808626787376506,0.42621130239928035,0.1599270849065416,-0.4069645279329999,0.5887518540189007
562,1.4383124859809806,1.1116628091750649,0,0,1.695352948233433,0.34333232845696376,0.7027516576035185,-0.832536983028204,-1.1782745750004675,1.2177187042621738
563,1.4201096006914875,1.0830297955932,0,0,1.2258253556886616,-0.14646021674681609,0.3341798878585012,-1.461955647181307,-0.5386998482605193,1.3385845541973063
564,1.3746093650976963,1.0437102047436053,0,0,0.829081931637953,-0.3358014210806858,0.05693682549357857,-0.7229803447286685,-0.5201706164650222,0.8024135621445122
565,1.3054326275769719,1.0008882932859364,0,0,1.5647971891956705,-0.4496991651147279,0.1196409989159803,-0.28702736347064867,0.0574902578527924,0.37502544499492474
566,1.2179646931025974,0.9617569904922554,0,0,1.3810028654424829,-0.4371397175706366,0.24084191623983342,-0.19944692341387021,0.4238939654978115,0.22521815040951942
567,1.1189473961433973,0.9322645945383664,0,0,1.149114511093737,0.04722716958301196,0.15287912092668532,0.02045272808281636,-0.6857578328339333,0.01848228625171479
568,1.0159553965400412,0.9160877541893483,0,0,0.8538866873730021,0.40432622599496537,0.014546295682980243,-0.2967767132511402,-0.1632193694347367,-0.18023289419791672
569,0.916788115179599,0.9140872787213827,0,0,0.493356027614969,0.43072223109533514,-0.09000055080476088,-0.6081446568633385,-0.2853891927770942,-0.14208976986825053
570,0.8288436102045244,0.9243666762583108,0,0,0.5946882959284722,0.3445080869100184,-0.07779186941716572,-0.7864662439028913,-0.5214523297667738,-0.15548410012801767
571,0.7585579882164807,0.9428952209003094,0,0,0.7337950730020787,0.15418789608227626,-0.07689190716503731,-1.019712103059544,-0.4597028325638212,-0.330847720961915
572,0.7109735978428365,0.9645221096597435,0,0,0.8107280570220206,-0.030953610320053955,-0.11836135307641536,-1.1981867874821022,-0.43802637135351086,-0.4567867574016476
573,0.689455000413514,0.9841288591472558,0,0,0.7503090653004253,-0.089841652760114,-0.23616204476521216,-1.0525012296688236,-0.4162126480823224,-0.41556649188824274
574,0.6955336872968318,0.9976623643799833,0,0,0.7339113892810819,0.07247735661619266,-0.09212934063978363,-0.8192098661858154,-0.24192264844060565,-0.251001487112656
575,0.7288512074035305,1.0028506310698289,0,0,0.636814261944557,0.08286056718950274,-0.006708859096633346,-1.1617445660888222,-0.31987692085105995,-0.019439418122677736
576,0.7871838917474298,0.9994904795261842,0,0,0.6702360057942932,0.09369806993674358,-0.2812533699890261,-1.1260079802239347,-0.7137304820790898,0.264175683022116
577,0.8665525874684483,0.9892779144891277,0,0,0.7700519446268353,-0.008399073782558473,-0.28372526959316496,-1.0171891252571423,-0.5278341919530412,0.39941111242614646
578,0.9614299850164604,0.9752235991461592,0,0,0.9360078674511663,-0.22895064228202788,-0.23706668554967145,-0.7267274144013404,-0.7144406868345413,0.2612702665326573
579,1.0650517629876055,0.9607736889719835,0,0,1.121243821549727,-0.336169232190528,-0.1568091402648546,-0.29585474714477855,-0.5284669131939426,0.052845138327932355
580,1.1698251810733882,0.9488388255611044,0,0,1.1220349076532599,-0.19272179728329267,-0.18617234263409288,0.29930229312263856,-0.33900366940964244,-0.1519096664923991
581,1.2678224978949704,0.9409882487400261,0,0,0.9743638110531445,0.11512295106960871,-0.36524765408553067,0.1839270866365933,-0.16880639580401516,-0.187294820830855
582,1.3513488998572691,0.9370502818886797,0,0,0.961026980122576,-0.009817879624563146,-0.10662052176322535,-0.42421042981831236,-0.039048425650669315,-0.17765526254799813
583,1.4135710149190968,0.9352567941911196,0,0,1.4027964638580446,-0.2761172409901326,0.38338693629839293,-0.3429287516559917,-0.14468040957511594,-0.583242956869443
584,1.4491639424757483,0.9328969280223496,0,0,2.0221548018419853,-0.7234321252556127,0.46794152762358593,-0.43442763991727645,0.5469680337630218,-1.4604366841407888
585,1.454888105514392,0.9272595635296702,0,0,1.3550588982136142,-0.30254653035815243,0.4409553649059249,1.3101837379658012,1.2575658784687749,-1.5597835428114064
586,1.4299820382068331,0.9165265508257412,0,0,1.0944457304124173,0.2127623287174881,0.0951235826755641,0.7203917898471727,-0.23676436327439782,-0.7773195357605523
587,1.3762865383583893,0.9003053543017276,0,0,1.6101704076355619,0.35837161070691326,-0.07624703363285718,0.5445993247483465,0.22146403622034103,-0.2526605722908031
588,1.29808080742343,0.8796648595241828,0,0,1.2165616047911516,0.3495096344209834,0.11588955676815427,0.3721069248229604,0.027143490370807665,0.010099608808972024
589,1.2016652449288376,0.8567614907410979,0,0,1.3033005407557872,-0.10561021632963082,-0.12903659967385303,-0.22208498813495312,-0.16848030854013232,0.008773547276594643
590,1.0947517102592537,0.8342787657133436,0,0,0.9131416152490606,-0.40666005219612816,-0.13432612141321915,0.4939377553046911,0.8564077195234178,-0.046752849701906365
591,0.9857373096446446,0.8148935570733332,0,0,0.708215560734132,-0.3523665406516358,0.01396812495483737,0.7643319860470722,0.5095378759364191,-0.047869966272974525
592,0.8829514223344218,0.8008775181537545,0,0,0.7723166507461895,-0.14787235966277584,0.004636425811959754,0.8813995289278591,0.5986219802935324,-0.015535229497481885
593,0.7939665721134226,0.7938378981194463,0,0,0.7864318438651704,0.05894851840691713,0.010721250734587308,0.8195528315340292,0.272431151857091,0.0873482705153616
594,0.7250422686224266,0.7945601541912914,0,0,0.711831437282798,0.14310923752614005,-0.07217971684294465,0.5973150467869826,-0.022926887843856696,0.21549282539336811
595,0.6807346025342272,0.8029340552123594,0,0,0.6956463937902612,0.10230570807680661,-0.15220173323490083,0.4676828951786929,-0.28039570543277936,0.27972073570729145
596,0.6636710315363429,0.8179827160382117,0,0,0.688055009107048,-0.0687081430620825,-0.11819780657491376,0.499301331618679,0.10579448482888022,0.15815974253170945
597,0.6744720017913446,0.8380262412988104,0,0,0.6472187628696722,-0.22144213322096315,-0.05402951687830781,0.6937091572689922,0.07838553641571044,-0.029260834685883173
598,0.7117991972695793,0.8609799899064592,0,0,0.5975934757419322,-0.2688872239037779,-0.0008235732693458942,1.0704410877146566,-0.014600935273648223,-0.14284287417796918
599,0.7725166764166751,0.884725308390743,0,0,0.5732630115577403,-0.1484237674329469,-0.1647359744882993,1.29530531685066,-0.4621044272957861,-0.14520249406266936
600,0.8519559059550895,0.9074358034836484,0,0,0.8983236582309457,0.12255398802739205,-0.2668184384730281,1.4263051511432108,-0.21256066423153186,-0.12301037598346586
601,0.9442710367845397,0.9277389620536577,0,0,0.9727109893479952,0.4363312194315881,0.0882890590043489,0.6836211290003154,0.06816636148310581,0.04484309650423779
602,1.042858271768876,0.9446610416619885,0,0,1.0342855942001457,0.2667955875049893,-0.0834725105861334,-0.3952145756188884,-0.6212732866499268,0.2538885809414509
603,1.1408051397033712,0.9574130811804139,0,0,1.078762497896462,-0.04876149264658213,-0.3844926856624776,-0.36274238747740595,-0.5037597702243009,0.22706775382232605
604,1.231342319424825,0.9651627390984305,0,0,0.9045877628711867,-0.26669688056360513,-0.41014530624176904,0.163006262040405,-0.45874223245082457,0.038790729138052434
605,1.308286498795498,0.9669496965470316,0,0,1.0665671806961672,0.04861211566984468,-0.1358157962566001,0.7203624252296623,-0.2065450003267797,0.03339141091237907
606,1.366468466547616,0.9618363568459363,0,0,1.4466771667960638,0.39175779806638905,0.37178178903915005,0.1966609551611488,-0.23938558223425954,0.6132751855057671
607,1.4021234436000614,0.9492692949426289,0,0,1.7788352732625097,0.5952125303953397,0.5518091691806789,-0.4356902422500978,-0.6046620980486035,1.3258841845122076
608,1.4131931137984137,0.9295038432345166,0,0,1.23576196312067,0.1309378728519178,0.37292505953287847,-1.3864731275391584,0.3064074186946221,1.4037361359565192
609,1.3994835153518872,0.9038702481204546,0,0,0.9002001930638794,-0.3118965629458814,0.12420619092413815,-0.9031936499134287,-0.463917852013563,0.8310707506222417
610,1.3626549262877197,0.8746906537208228,0,0,1.4881156015987815,-0.3649474799235477,0.029304282246139523,-0.4027662953101337,0.05990300810101021,0.3706943618860896
611,1.3060607072208512,0.8448012691326517,0,0,1.39474090272448,-0.361947463744161,-0.0002674606980029417,-0.1796798938735603,0.4624438738066235,0.2172834604746796
612,1.2344645895608828,0.8168227574704299,0,0,1.3121365149775874,0.13608443453949146,0.07714905547429342,0.11454714255371358,-0.20109258461235582,0.076959662821971
613,1.1536544606915082,0.7924450711520657,0,0,1.0961170712722177,0.39056086895778425,-0.014438262713633857,-0.25120603289473703,-0.2153898269231423,-0.016006493532068282
614,1.0699682737900376,0.771988542301637,0,0,0.8552944079935031,0.3757475734414836,-0.075234884740953,-0.5793259887985985,-0.16417775405493418,0.05057155486553687
615,0.9897657522899285,0.7543890267944809,0,0,0.8601718863269183,0.21760967793946123,-0.11226152931480554,-0.8609236039117448,-0.21021075369170217,0.16897395966314963
616,0.9188986916960646,0.7375956839693038,0,0,0.9619136098719006,-0.0700905442591405,-0.1550562149602409,-1.0691280173756506,-0.2422403983640297,0.08619763755123833
617,0.8622339687679965,0.7192347439900012,0,0,0.9142390590179611,-0.2952694231367956,-0.19161597115866022,-0.9861877086174866,0.0854385640343417,-0.1029104183758189
618,0.8232695555019875,0.6973300134516708,0,0,0.7374452647114641,-0.21462008729150597,-0.09026849295779443,-0.6753341700113584,0.17682951717558254,-0.22294431809878623
619,0.8038715473696686,0.6708909279413633,0,0,0.6598628624825189,-0.0274121136120871,-0.06872915177149293,-0.6415161037147448,-0.060847554252894495,-0.18990769669149318
620,0.804158633902498,0.6402512081910333,0,0,0.666669366008052,0.03073501868299163,-0.13328556480434936,-0.7115520110169479,-0.10804934578825932,-0.10566868691898855
621,0.8225603380559494,0.6071196220785953,0,0,0.7118141371763141,0.01996240342924058,-0.13792285250716207,-0.6945243820197702,-0.12625949221649144,-0.01954160767992238
622,0.856060854756588,0.5743610708935001,0,0,0.8461879750247486,-0.00411012434907369,-0.11718110513695527,-0.4939894150488464,-0.21367909764517526,0.07670640976453527
623,0.9006078488869296,0.5455616850002287,0,0,0.963129291926382,-0.061532526947912135,-0.1266830227944319,-0.3943819278035336,-0.3376440989831473,0.1450858956031131
624,0.9516275633100818,0.5244565780578775,0,0,1.0459851899328756,-0.15851961471593923,-0.18500343747255368,-0.278332039373844,-0.2924692820867558,0.06309774659654896
625,1.0045614140178736,0.5143154294551112,0,0,1.0666928294019948,-0.11861385978530029,-0.18082417009789759,0.04019036717904659,-0.3551366996974472,-0.058984781891536275
626,1.0553358259449679,0.5173830508955204,0,0,1.108371253937547,0.00326749339986167,-0.22735576482045589,0.1150108466249825,-0.5724232300424598,-0.09457487747940424
627,1.1006963489848052,0.5344566432807035,0,0,1.0973355818154265,0.03394817737902802,-0.33908765603436286,0.0833847939964913,-0.5635796019858226,-0.08910042126613063
628,1.1383702811955294,0.5646558174512839,0,0,1.1068809846216952,0.055835793638400834,-0.35637539247064903,0.04075826225037583,-0.49688896764146634,-0.05616254269638219
629,1.1670579959072387,0.6054187244795058,0,0,1.185667033962191,0.02055726940253319,-0.24949815763285596,-0.12853922719517707,-0.24462890683743846,-0.014787135218734673
630,1.186284324321511,0.6527418385135876,0,0,1.13505575678485,-0.0066539289621771825,-0.06754452180020364,-0.19756762545682113,0.22458102485681314,-0.12889962329688773
631,1.196164568963793,0.7016575993187236,0,0,1.0810147412714324,-0.07554697370624382,0.12513241712246262,-0.3067160115631259,0.692006883732873,-0.33290682216707634
632,1.1971530699587156,0.7468959353578462,0,0,1.0571481106425655,-0.16794747068033017,0.178181201898096,-0.2680396374731968,0.9779433832517318,-0.4974080838618067
633,1.18984208132097,0.7836120732539994,0,0,1.0293853530314776,-0.18720571529912985,0.23429619378164634,-0.17324760446426116,0.9957528455207874,-0.5729489432125611
634,1.1748615685943513,0.8080247396481397,0,0,1.0968356562197021,-0.10278678604521192,0.22657838546791825,-0.016385905373857486,0.6566681130028555,-0.5621430582668251
635,1.1528979749945947,0.817832076345926,0,0,1.164376770815575,0.051681588618895956,0.10155922649818604,0.012165633517276878,0.6255134242941751,-0.5043493558637983
636,1.124810443512078,0.8123506834300208,0,0,1.146376679519088,0.12970345279221368,0.024308283902617203,0.02670843355161343,0.6619930002991943,-0.36670987818662903
637,1.0917884522487737,0.7924116242272875,0,0,1.29332554524912,0.15041527821283598,0.08881556185891053,-0.024849072039183195,0.39988499470065214,-0.15935095259033377
638,1.0554765210859278,0.7601018746283482,0,0,1.2716366473570624,-0.00045298727799257136,0.0018637696630201073,-0.462123851567458,0.42771284465855625,0.04610984052605259
639,1.0179976161479876,0.7184429940338334,0,0,0.9928314868267377,-0.12705450898646767,-0.010299115352117118,-0.49039255002262944,0.7242508125606638,0.10865721740185438
640,0.9818389525145005,0.6710603848156105,0,0,0.8530671094469586,-0.16225149827996468,0.12456443177915498,-0.39306362329348504,0.8632994649332665,0.13544555094936742
641,0.9496116650404625,0.6218470922831969,0,0,0.8564469458786245,-0.16592022008298557,0.12176840268751626,-0.29163231713291005,0.627871347217871,0.23274974733728127
642,0.9237370801403161,0.5746033897646387,0,0,0.8962902278366883,-0.15986704062069837,0.004934015518899995,-0.20007494843844373,0.1886155453466623,0.3343786560275092
643,0.9061285145203352,0.5326534556400728,0,0,0.866825195971986,-0.1947824186680243,-0.10281441342547215,0.044639589888082136,0.15098045777378447,0.32659820314484145
644,0.8979290151640618,0.49848148270884185,0,0,0.8239181584963626,-0.1909959582089934,-0.06307014455743609,0.36237945285799045,0.23123656384110297,0.20461948723972148
645,0.8993466118470788,0.47345406098809706,0,0,0.8218815218524874,-0.12230774591049835,0.007159002572272831,0.47200486429079047,0.012911967792213973,0.05153757773671373
646,0.9096107031681756,0.4576872376814816,0,0,0.9025857746739796,-0.03320894627032313,0.026078306197085163,0.396228138951146,-0.1086611192258516,-0.030547040223982108
647,0.9270572478828162,0.4500883999943223,0,0,0.9285599759090296,0.011615835233688416,0.06499545192581684,0.24311166065865833,-0.05012053697260234,-0.05152742757254494
648,0.9493343224464753,0.44857372266105305,0,0,0.8975365042280617,0.02658798903584446,0.08124797027178211,0.05695190093314594,-0.3341744005052258,-0.08936614464894801
649,0.9737042242103857,0.4504345744415868,0,0,0.8921002845235748,-0.040054677832021685,-0.057334621261303564,-0.09318136871834427,-0.6125725090880382,-0.1416392136238894
650,0.9974051012536602,0.4527956643844083,0,0,0.9695122413475745,-0.1126134598236297,-0.0387560808703321,0.188004300326261,-0.40444389177615747,-0.2415716251960495
651,1.0180222678154123,0.45307914509485536,0,0,1.13846459288324,-0.03689282656179818,0.12459136137068,0.4165754012505253,-0.4457088620654177,-0.24307292716417533
652,1.0338061256487585,0.4493793204156646,0,0,1.3340152122817328,0.17138375157328817,0.06836555678477307,0.25767679955762396,-0.5688288088280247,-0.055368056588789356
653,1.0438682007593973,0.4406731132385619,0,0,1.2012729335205388,0.26607285198094033,0.06683585670386707,-0.11761706332212543,-0.29776778275885224,0.1657743490381587
