id,ASVM,GSVM,walking_nonwalking,normal_abnormal,ax,ay,az,gx,gy,gz
1,0.9958330576008931,0.0029869736240490494,0,0,0.9970766738786787,-0.026702202143224513,-0.0642694465133281,-0.0017197047391754917,-0.011445022149304216,-0.0016377037933965933
2,1.0006765087543692,0.015468382317459055,0,0,0.9959018872586363,-0.02931123449570093,-0.06594021188824756,0.004024691646297885,-0.006265041470353056,-0.008852703843789209
3,1.006963111575064,0.034146687499987206,0,0,0.987400766795137,-0.03194582146297158,-0.06990648781840562,0.010784213583277961,0.002626414173827257,-0.01945964334901636
4,1.0142838110655403,0.05940787975125929,0,0,0.9824294496610673,-0.031956805598860244,-0.07482739519131681,0.03275181754252104,0.008627687657718541,-0.03591881657785525
5,1.022007161598987,0.09113367139742559,0,0,0.9916856228453464,-0.030731583071831478,-0.0870901569610965,0.041264364488385274,0.01813611834551285,-0.05309129121530505
6,1.0293243126054625,0.1286377998670066,0,0,1.0145984211664454,-0.017073714937505244,-0.09368877306957892,0.044809000832269984,0.045262256117235604,-0.07652837627497952
7,1.0353318315748727,0.17066541005871147,0,0,1.0308837559754116,-0.00025981329228204163,-0.09792315511580603,0.05431594378165921,0.09577645315709063,-0.10173441954200403
8,1.039144636011081,0.2154656765384693,0,0,1.0465060640738997,0.0047804568529616,-0.10104507060484891,0.049259404173069274,0.1628803852901251,-0.10583520440407243
9,1.0400236851632574,0.2609394017281568,0,0,1.0571873456890104,0.007699188314133892,-0.08857957842636555,0.03842263258872478,0.18137988564836088,-0.08507893538453926
10,1.0374985610446548,0.30485331363182827,0,0,1.0438358151542657,0.010078010505810777,-0.08391058313035638,0.017641450149345712,0.24007417646290347,-0.07468402006938873
11,1.0314647494819797,0.345101191485353,0,0,1.0329175622624438,0.017323931004034877,-0.07763906065309877,0.009433686733497718,0.3623401015824033,-0.06452958272482075
12,1.0222386570762343,0.37997855088969956,0,0,1.037261451567346,0.01958140695002873,-0.053750384287400386,-0.0013118463261870591,0.4306734235396214,-0.07046401456062096
13,1.0105584901643112,0.4084245931108222,0,0,1.06176213060594,0.0022170119213517493,-0.04795451350333354,-0.00331235853658598,0.49727873662423844,-0.08875591667772217
14,0.9975250509216337,0.4301786131107633,0,0,1.0556664334878632,0.011143572682929183,-0.033057903309692195,0.026994568905054323,0.567259012066135,-0.0927395282944386
15,0.984484237136866,0.44580520923247985,0,0,0.9847948103813435,0.0003507066222355122,-0.02513141104267557,0.05824556552675672,0.5612818648793322,-0.09101428196780532
16,0.9728642201728269,0.45656686448390416,0,0,0.9069651939495453,-0.04099670106741038,-0.0434863345490804,0.09009209501114272,0.48301705345057105,-0.02028028367162907
17,0.9639934734578048,0.46416087953752594,0,0,0.87852080351649,-0.04029531058195301,-0.05624673680734272,0.12669483607823032,0.30429976176871903,0.061736008243518714
18,0.9589347042608293,0.470379855517302,0,0,0.8872301811064829,-0.02248811614746561,-0.08020930535016149,0.16359534870761003,0.16389518874635758,0.10146197712962057
19,0.9583670569081864,0.47678402583322105,0,0,0.929423236529914,-0.005024979513866822,-0.08466760570335145,0.23135796394684466,0.1902373639061847,0.13290660691801856
20,0.9625330349334618,0.4844734021138971,0,0,0.9762693886193716,-0.006326008870713495,-0.04297164739586892,0.29578206706619636,0.19431320224687026,0.15571303000611617
21,0.9712435664155661,0.494013635720645,0,0,1.0549434985249626,-0.04746759229072004,0.0031220839992055173,0.3290430282173804,0.2540056600327836,0.22593631627620056
22,0.9839148401374143,0.5055143029865118,0,0,1.1120233736550817,-0.06760908295439717,0.05468343005687819,0.2888841737877102,0.37784596090589545,0.3492508284407149
23,0.9996035065344141,0.5188039636931496,0,0,1.1138135977698997,-0.04582165705318916,0.1077435677337474,0.2668727795176071,0.5177827238714425,0.43124623013354535
24,1.0170181016388555,0.5336127065244478,0,0,1.0409850851006257,0.03378700342532553,0.12231988937913713,0.19465802327723677,0.6540822228364573,0.3990872077938669
25,1.0345130634622781,0.5496724303315564,0,0,0.8695703895411581,-0.0029806388173641476,0.11461493767492203,0.004064464981197933,0.6617963710474867,0.2615637347880349
26,1.0501070794654939,0.5666812528461219,0,0,0.752854861993455,-0.02378152532193945,0.087628547940374,-0.07909686958784522,0.5476227245941171,0.038369043317367936
27,1.0615902163978799,0.5841420742653691,0,0,0.7265174982439411,0.03179821692974603,-0.037151492555968474,-0.10345625472185593,0.36050190375350283,-0.1688359234584612
28,1.066773104605384,0.6011529546909037,0,0,1.0120954339080845,-0.02237277149191384,-0.0338683162210143,-0.11645434760710746,0.13592747647817685,-0.08551574669975584
29,1.0638780747693797,0.6162676049568186,0,0,1.466737637303518,0.028697017246258266,-0.11443900746231411,-0.23559547165895373,-0.2826824630703311,0.10005456005001757
30,1.0519952907969283,0.6275341700059831,0,0,1.3750589626599983,0.013046980243582628,-0.2730938839492189,-0.31423743704421425,0.40147808237472216,0.17627931929262686
31,1.0314699865229024,0.6327580012740858,0,0,1.073947257168745,-0.03192196494491972,-0.1059248947459004,-0.39453156579912696,0.6974113043722848,0.14793771904303687
32,1.0040889558114234,0.6299452822490652,0,0,0.9923612842649684,-0.08333883688285353,-0.07739711049930827,-0.6664227666439594,0.4226351618520172,0.08370148774389127
33,0.9729951550395514,0.6178105007423705,0,0,0.989102976394312,-0.12284761742608959,-0.10219049495306286,-0.73832674552089,0.27694434516110406,0.053571908558759686
34,0.9423393116201327,0.5962032666187845,0,0,0.933192959885428,-0.12097980917849965,-0.10527935496129649,-0.7219431596112074,0.21446188449386808,-0.016668406179702194
35,0.9167372354865104,0.5663331945982735,0,0,0.8375137833328398,-0.13725556747501044,-0.04950175904831338,-0.5984874845662574,0.391301271640876,-0.07845354727609527
36,0.9006303630822586,0.5307280125845887,0,0,0.7784106767322286,-0.14683102819340096,-0.008599554878353432,-0.40748736089145593,0.32444645045803977,-0.10713844280628125
37,0.8976535651682462,0.49292744369047226,0,0,0.7787955369521845,-0.1631233289726804,-0.022225215443213812,-0.22571083830199012,0.34641276080509015,-0.12753961518961884
38,0.9101052575608204,0.45697619591772215,0,0,0.8176761947279071,-0.16173977902424766,-0.054064162511791136,-0.08135190889821727,0.35731361368800557,-0.14923020672475917
39,0.9385917963557144,0.42682072396433535,0,0,0.8827716133919664,-0.16869983033358013,-0.024322546807957104,-0.005172163736167857,0.22244261311548144,-0.17649605476122399
40,0.9818847370596732,0.40572877740060953,0,0,0.9926214852254991,-0.12784924356290897,-0.08875994507027138,0.16957053665396096,0.023447099190633126,-0.16315390868511828
41,1.0369943551194023,0.39583792641005067,0,0,1.0657135369793291,-0.0411504110187086,-0.13793355260955584,0.28753742244183805,0.03261498975342485,-0.11934102180483092
42,1.099435187466588,0.3979049078729442,0,0,1.0817380172115978,0.08167664153682554,-0.17465971538310618,0.43640019760287335,-0.03880954478080159,-0.14795548488310217
43,1.1636445989519337,0.41128168077798316,0,0,1.0980193670041745,0.13767159042614127,-0.2540513348671111,0.38482495796244187,-0.00580654036086446,-0.21322220684518137
44,1.223512176683162,0.4341005594437083,0,0,1.0900547565726122,0.0072826934760841285,-0.26297331474403746,0.10583401945547669,-0.01692355244630547,-0.23500075367287263
45,1.272978555987301,0.4636213377538872,0,0,1.1947924374372463,-0.1549545479367073,-0.136913544006813,-0.387423487191867,0.23788984567189808,-0.15154162798638102
46,1.3066579347213394,0.4966773003293552,0,0,1.3746308881008942,-0.2580609508864217,0.02734466013430693,-0.6008574455143997,0.07353348949882173,-0.11531053752562966
47,1.3204257773950812,0.5301454741216655,0,0,1.512660674327669,-0.09638184476232219,-0.00671356554448979,-0.43798062199607685,0.3694100955741076,-0.1518839102388739
48,1.3118999519232923,0.5613583764598759,0,0,1.3770174188011322,0.08317974609810513,0.2898901692027,-0.5258877136028947,0.7615773950569957,-0.19628801325471126
49,1.2807446870163786,0.5883814228077869,0,0,1.1957077766216673,-0.04226941473184806,0.2631364536735664,-0.498011847366641,-0.06660462751062085,-0.12711096010727502
50,1.2287499359375338,0.610112275426812,0,0,1.2021763382117907,-0.23679034062679155,0.20326916198412925,-0.44517349523640504,-0.39552118342156384,0.007156075444155063
51,1.1596745610254364,0.6262100093841686,0,0,1.2254423013963749,-0.2550729359287219,0.2175983351367066,-0.022327670426492998,-0.43232502279539387,-0.11818897150978033
52,1.0788733813447622,0.6369106384763872,0,0,1.1609064039593249,-0.20381911128466468,0.21842803683204215,0.3064360772974794,-0.05706285310078834,-0.2675693745503833
53,0.9927500396097688,0.6428063980098644,0,0,0.9022796390100872,-0.17587784399934392,0.28782674314567763,0.642672492029925,0.34684527494529527,-0.23533089644220195
54,0.9080975597045464,0.6446509693733439,0,0,0.680056045838958,-0.15157581192786468,0.24423571734546998,0.7586615243142658,0.22278358548009064,-0.09156319844794761
55,0.831410024979913,0.6432176388563995,0,0,0.6185595833264991,-0.17267000462001683,0.22520325082764778,0.577791561859643,0.1579860424209793,0.049614327167736234
56,0.7682609544266601,0.6392100088516313,0,0,0.6299119864551931,-0.16339985224442236,0.22484685519414954,0.45638079308864665,0.1600149480164898,0.15552916237704764
57,0.7228324597792444,0.6332196984131157,0,0,0.7128212599111545,-0.06481606070145447,0.17436698245363633,0.5131243919173224,0.06232748018111961,0.15498882863204771
58,0.6976445458673765,0.6257308334400304,0,0,0.7386775499698996,-0.0009800849142678188,0.11347368555724964,0.6267226847232811,0.19566818100739528,0.13418985976174047
59,0.6934926480782956,0.617166827684178,0,0,0.6514300999585524,0.04838422332027555,0.1128857070348243,0.6965412623108498,0.24284317353933454,0.16612265202616294
60,0.7095715510491988,0.6079586362158361,0,0,0.5892674352418362,0.1108889065453027,0.09541100796080651,0.6899005386265228,0.035606516034342575,0.22060595728438823
61,0.7437496867390926,0.5986023663689114,0,0,0.6382733021343582,0.16271794853604912,0.15489891324328547,0.5058101266860158,0.10152807005492204,0.27497742478192283
62,0.7929500487594014,0.5896826557984205,0,0,0.7842964977534751,0.24581669777936924,0.16617168116212402,0.3642042352587501,-0.1524728097157469,0.29191091115907214
63,0.8535819871575764,0.5818623642527262,0,0,0.9847311021681637,0.3067466544860371,0.06602308298408285,0.07243444562892087,-0.3564174223071729,0.2839510919984514
64,0.9219535289518291,0.5758597569892426,0,0,1.054271747859906,0.2571834595638919,0.018594655919813415,-0.3531652472316852,0.21199506603118878,0.2834290362658585
65,0.9945904571390188,0.5724347559573872,0,0,1.010627379899854,0.1703525663754075,-0.061489889479633277,-0.48991646012533085,-0.17756402128052629,0.22057259786600483
66,1.0684081757815804,0.5723848068945774,0,0,1.0623606965563928,-0.008017934937156308,-0.1783480183759575,-0.5896587142582984,-0.45798952455354264,0.09815393287486163
67,1.1407219170876857,0.5765227719648608,0,0,1.1022434689387546,-0.14920270053922613,-0.2622942451947198,-0.43195093487783487,-0.6553419373662139,-0.059682879401819794
68,1.2091233022525605,0.5855946806773831,0,0,1.1662049704369466,-0.1905309543354286,-0.24172400869979696,0.0005273708582253861,-0.6896150052732242,-0.1647700196378242
69,1.2712815812876692,0.6001095362481125,0,0,1.2441578640821487,-0.20042864435616786,-0.29189497755652144,0.20541218934450553,-0.6298423502719217,-0.12094060103468318
70,1.3247430047382844,0.6200966248819353,0,0,1.2246424436414012,-0.16507040673549095,-0.25427080782619843,0.23460924619923862,-0.2652585075910759,-0.02343623886776995
71,1.3668066020030027,0.6448592488477639,0,0,1.1158562983186886,-0.007596029658311611,-0.21786682919286696,0.25118192676382173,-0.22365614118488572,0.08179705628574538
72,1.3945508309352728,0.6728276947930827,0,0,0.9944517777162445,0.1257320988917643,-0.07082625440934313,0.04945976006995855,-0.2565282882587309,0.22266869469651573
73,1.4050649076277741,0.701602850629857,0,0,1.0575750258530552,0.3479426024593035,0.32797014417912523,0.1790335049935082,-0.6079879303652732,0.22179945005587648
74,1.3958881046206042,0.7282207717056287,0,0,1.3555328971312726,0.0529433016824342,0.7552900617650898,-0.024460503160094408,-1.1972570919257601,0.1668967285959798
75,1.3655801685006848,0.7495841815689653,0,0,2.025764913836172,-0.1418365330793696,0.5319603784813857,0.2751275386550546,-0.5336418886867429,-0.18255736724444305
76,1.3142673597800818,0.7629447425462671,0,0,1.571656258733421,-0.29182223166860616,0.33348952221539097,0.1339775541432381,0.7847917095226783,-0.6555631339376901
77,1.243983839826772,0.7663109573479232,0,0,0.9658041314752859,-0.05001526811582915,0.5090224813012684,0.5587927243721095,-0.22596332706102876,-0.7558219000768905
78,1.1586864057073742,0.7586957469280289,0,0,1.0663503206325586,0.182953623364228,0.29399789749178845,0.43186750979124944,-0.1055107592041425,-0.580315282067239
79,1.0639313412250453,0.7401784058645097,0,0,0.9356891727664247,0.22648721505953603,0.15601382167943942,0.19723953195995056,0.03511506450265171,-0.23190076750922678
80,0.966298957732639,0.7118114718435531,0,0,0.9414366291686191,0.09693902235377112,0.15574966827286935,-0.3201857185437378,0.6532227117941846,0.06449084067968934
81,0.8726935725619641,0.6754315002872251,0,0,0.7270314978123382,-0.06223676878836736,0.15044153215313694,-0.24169039650970603,0.9510063858700789,0.13451070739580595
82,0.789642494312461,0.6334241049907001,0,0,0.7109525008877656,-0.12962790874914834,0.12203185850188202,-0.31624752464953837,0.5685681493556951,0.08283623093660296
83,0.7226934907508199,0.5884685872785088,0,0,0.6318869161585513,-0.17720341303381495,0.11788265353808373,-0.21999419839712359,0.49717794551274025,-0.05545088150958575
84,0.6759809353991438,0.5432800563993315,0,0,0.5527659398233198,-0.13315487372259727,0.03198170279268283,0.013787955976320737,0.12256145862293039,-0.24667544490995227
85,0.6519993192059144,0.5003823767941578,0,0,0.5323589716106893,-0.12825932565332554,0.02005907082938938,0.3282330440960036,0.03955630622282544,-0.29067310910156785
86,0.6515894298780878,0.4619557553836978,0,0,0.6038828135570721,-0.11876900210446867,0.11942519454944411,0.48039632539028704,0.0762728581287916,-0.20688942991045206
87,0.6741077283432144,0.4297864961594031,0,0,0.7191343857564454,-0.096865946157389,0.08308017966176828,0.39146146881555716,-0.101800682377386,-0.11732488355080023
88,0.7177159393294846,0.4053121727983763,0,0,0.8683551964081307,-0.11761061462052554,-0.025907433179515507,0.32462303594856534,-0.08343128422246862,-0.048080497430502446
89,0.7797038013421398,0.38972579471230756,0,0,0.9676911729276255,-0.1364023193081538,-0.07712679176597671,0.3757441704411911,-0.0687856401754997,0.0015320923297485662
90,0.8567550263512754,0.3840872067148526,0,0,1.0301414185035094,-0.09949729061404179,-0.0844799168011585,0.5466524269234493,-0.10298405282647695,0.06352556117754836
91,0.9450924024114588,0.38938474074577134,0,0,0.9856162019909741,0.022174382759680387,-0.15993840529905912,0.6456719530555796,-0.2271629787312419,0.13086830640152522
92,1.0404893507391528,0.406495307676081,0,0,0.9332570558598966,0.08522422494480884,-0.12409556714575244,0.4094668152668109,-0.11616210901630741,0.11859139331653765
93,1.1381965110582908,0.4360165369304659,0,0,0.9371899859856768,0.10633434916865926,-0.08305945429332919,0.12681412368864564,-0.20375787739511206,0.029273044567485057
94,1.2328800670687068,0.477991450754525,0,0,1.037652645971899,0.1302786961025826,-0.12485710790609729,-0.07880269165105189,-0.5434839115534315,-0.08560253072008459
95,1.3186835712086271,0.5315945763083763,0,0,1.1109188101713405,0.13220910863276802,-0.27747720595900033,-0.10210438665320784,-0.3356189638231575,-0.1199114605676219
96,1.3895000780227964,0.5948734093003409,0,0,1.0324615851615628,0.12000639564932947,-0.0751160459227021,-0.3230176047759319,-0.053293922615171435,-0.14302008781998626
97,1.4394831416336036,0.6646331124129414,0,0,1.227987756283474,-0.038192556658319055,0.33544050688834925,-0.3746846718728405,-0.7784767862016899,-0.1812712778143886
98,1.4637456176592012,0.7365242443743149,0,0,1.6329526334962754,-0.12384239003959804,0.6343918624824046,-0.28727368910908435,-0.33060410751471675,-0.046217892262556994
99,1.459109950983231,0.8053554872131228,0,0,2.206086111169093,-0.21793710015770942,0.7611495831525902,-0.04563485968816936,0.12015773012341818,0.5359380123706913
100,1.4247143129441393,0.8656129708616392,0,0,1.8311000210158144,0.2235837055547506,0.41681356883140247,-0.20084252970367727,0.20119102786801754,0.8900949593091659
101,1.3622912948678023,0.9121243575741345,0,0,0.7655374043851415,0.061645520096242,0.3951481712626624,-1.0235830416466862,0.5693630510263427,0.7737023380439749
102,1.2760381616305845,0.940762504622014,0,0,0.9182775574021346,-0.44991598010670353,0.2358962847609221,-0.7389639964383106,-0.018646467954432994,0.6348266177686922
103,1.1721395446005622,0.9490610312361116,0,0,0.921147783115882,-0.41364240399603774,0.0772873657746367,0.044820443700388124,-0.5603140338497291,0.07922169152723729
104,1.058096627240038,0.9366308015010762,0,0,1.0022304048039998,-0.13794947359855642,0.13805550809607386,0.9101953941879594,0.7871494960803741,-0.28635276348374844
105,0.9420182093252534,0.9053067471747115,0,0,0.949907913705969,0.06953733194874541,0.24333985629683824,0.8738928241661013,0.984826446233466,-0.29727550508547684
106,0.8319712797490662,0.8589898972000165,0,0,0.8603364464433406,0.14502437925858297,0.12990691430901063,0.824310323851531,0.5153466137961471,-0.1589317119642197
107,0.7354295400764067,0.8031835955251506,0,0,0.6613194607832625,0.15560403173561024,0.16558297691579493,0.5177891792188422,0.5268269119848895,0.0485335573908837
108,0.6588267456839041,0.7442790907282106,0,0,0.5825015839223215,0.20078615668501176,0.12196185041660222,0.017593186690248605,0.17570821840114595,0.2051678339129689
109,0.6072139087041465,0.6887148310720537,0,0,0.5261181080325142,0.2236695349164163,0.06712271355496513,-0.5252658796069065,-0.04697995542650698,0.2892612831693732
110,0.5840196267725695,0.6421718470604986,0,0,0.5549029458131969,0.15347754744455802,0.07914450648664513,-0.6479199693176149,-0.15906093640492838,0.2564338021245127
111,0.5909099372082992,0.6089474915338755,0,0,0.6014146596504053,0.13888982365816957,0.029931326279560345,-0.3774487128377816,-0.045130235754692355,0.12088678259765555
112,0.6277369728779705,0.5915903332742865,0,0,0.6742966023251805,0.09114927246113251,-0.02112930505715163,-0.3852895309095487,-0.3097901530589625,0.02249967606202603
113,0.692559701868599,0.5908167381288731,0,0,0.7516471232801935,0.01358611471813257,-0.0855472561997123,-0.4715937898098907,-0.3847570021257222,-0.030472911390083433
114,0.7817208015155734,0.6056809406837375,0,0,0.7687609501830218,-0.023288296117645442,-0.11486413694437778,-0.3606588936638717,-0.45045688735456185,-0.04420134271942289
115,0.8899729515380673,0.6339320014471018,0,0,0.8479582344418755,-0.05759631256778614,-0.1260487561408152,-0.3162393912310809,-0.7059042144264198,0.01589247626122758
116,1.010662026374977,0.6724630242584397,0,0,0.9941227707148622,-0.11759660417697496,-0.17405474612871227,-0.27288795774583036,-0.9180593918012022,0.0548665296757974
117,1.135987188216637,0.7177499888798484,0,0,1.1346666574439326,-0.16819826633047938,-0.21322401160950777,-0.06699648025758842,-0.9439311544595345,0.04598871014897492
118,1.2573642076787546,0.7661992023119585,0,0,1.161197679936901,-0.12592018393561424,-0.22765498731148498,-0.0021343092531016955,-0.5613002034877884,0.13761619156373522
119,1.3659186286100107,0.8143723129389909,0,0,1.0150216333018685,-0.10485216595656142,-0.2187157434334467,-0.17156571378885274,-0.3472688502882742,0.31061942612385257
120,1.4531281772394438,0.8591142590457668,0,0,0.9717630132481564,0.053041691963181016,-0.057145885791629464,-0.16816591679054396,-0.6476562476788862,0.41767551392853547
121,1.5116073651588697,0.8976377325952981,0,0,1.2811155189082897,0.12828037102539466,0.6156335714327735,-0.5154652744679717,-0.9653166401404878,0.297977718024136
122,1.5359666446745839,0.927601968139257,0,0,2.028158278525784,-0.13762391932845056,0.8210067818217299,-0.4898274461042385,-0.8729729436387534,-0.09160927941161691
123,1.5235936644310195,0.9471874064580433,0,0,2.4468622857098694,-0.47204362388517396,0.34025650759601206,-0.13207189108022063,-0.05102025168886669,-0.8801077312605365
124,1.4751487660597724,0.955148881605693,0,0,1.279096184943789,-0.3801656229072545,0.5889159959666865,0.519437620482536,0.2466692569962791,-0.9081463516067875
125,1.3946050688045903,0.950840678658718,0,0,0.9478566917527103,0.2633823746755136,0.2834815834856814,0.405815430482295,-0.448000217388369,-0.6240030851659315
126,1.288798574425721,0.9342297981043063,0,0,1.0302108347844887,0.18819494649890653,0.11062867761189248,0.158451586859359,-0.4456967150703929,-0.14462158594582242
127,1.166605274677251,0.9059257957787878,0,0,1.117812651098093,0.222117927051404,0.058473464907532136,-0.6839028104330773,0.07777812434437828,0.08486321951650934
128,1.0379393604383322,0.8672401461982361,0,0,0.9886324191831258,-0.06373912263383386,0.10941576521692557,-0.9098864180549032,1.0929446618826006,0.038492998088094
129,0.912752153202215,0.8202432953149262,0,0,0.8452327187761715,-0.1001426352867046,0.06593865319694658,-0.6471088966434269,0.9451460032908335,0.030551130884469917
130,0.8001547688546461,0.7677422308303381,0,0,0.6535628332820836,-0.2643138677959866,0.06101801166210462,-0.7360552811166831,0.7246028295254144,-0.0218010850173952
131,0.7077362128285132,0.7131035904539359,0,0,0.5900317788259487,-0.26778138885074426,0.07773420804197817,-0.405576830285627,0.22106630507027986,-0.19626379824197468
132,0.6411130346333793,0.6599136560704817,0,0,0.541500748198218,-0.2293199628672818,-0.0048881119271051345,-0.13491531100965692,-0.017793348464863648,-0.3477093290035719
133,0.6037175703683509,0.6115556557313128,0,0,0.5356900434190793,-0.19423452821308565,0.020333346173447963,0.04284465892692666,-0.15923585273553195,-0.3720110674315485
134,0.5968033974517845,0.570834883468017,0,0,0.5899391408416426,-0.17947392284052854,0.023644799279209427,0.16682083791588004,-0.1645615082893943,-0.3267940645751063
135,0.6196208182915396,0.5397650947958723,0,0,0.6871902559243446,-0.10268670015541831,-0.07469801822937581,0.21654353564069098,-0.3679488919774397,-0.2923332218917052
136,0.6696968880148161,0.5195636998867772,0,0,0.7928467231259471,-0.06907580032266511,-0.1695185332857178,0.16612373264089178,-0.4730442616569643,-0.27898607186830826
137,0.7431492094091826,0.510827240508026,0,0,0.8642110112053047,-0.08554222572955258,-0.14406544281502567,0.23385828503000985,-0.5110746068608254,-0.2693001033288446
138,0.8349752308312625,0.5138034354318788,0,0,0.873391114670865,-0.06199134636783977,-0.11301858494169637,0.3899131005018086,-0.34714800953833885,-0.25996314063373366
139,0.939289414230104,0.5286544060278157,0,0,0.8452859745488575,-0.01946793973813794,-0.15029402862843694,0.44357847604362793,-0.42883576341737517,-0.27535950883599797
140,1.0495210894974996,0.5556157251459226,0,0,0.970351427988933,-0.002245797626786072,-0.12106407724262985,0.4339835373287921,-0.831093527527543,-0.23874793603306396
141,1.1586205124471796,0.5949909785875562,0,0,1.0710727978622692,0.010128707021643289,-0.1638441185910007,0.405011277653442,-0.3550896711939609,-0.15834241981620917
142,1.2593353860908483,0.6469767872689746,0,0,1.0396531264722253,-0.026600940500089064,-0.22702579992917082,0.3187720255406137,-0.09667857934600746,-0.08214565633793806
143,1.3446098336824759,0.7113780008707806,0,0,1.0357522410891458,-0.06532891444737216,-0.10541094953162831,0.017655962899083215,-0.19944047100563625,-0.08373966520199422
144,1.4081240667799932,0.787317650245993,0,0,1.1751335241050012,-0.04109092769817288,0.018047985207901115,0.20177123404400807,-0.728144562864785,-0.11314998222768755
145,1.4449371407610387,0.8730373368795425,0,0,1.7491807842277989,0.04814461574843104,0.433382391978793,1.016317017758913,-0.8491796379463988,-0.20023119778770054
146,1.452124618618044,0.965823051195044,0,0,2.124792028980946,0.08821102414122863,0.42755398194416827,0.9112295530169323,0.9521392011349515,0.21771952515297988
147,1.4292474535574784,1.0620309248244022,0,0,1.775070524388886,0.06477515490043359,0.18804624036415157,0.15501348182383962,0.7120030576911776,0.645462934649397
148,1.378494544891041,1.1571835055579869,0,0,1.0885933884077474,-0.14663435664838123,0.411501623596555,-0.5772285605108474,-0.21527682967791037,0.56487270387862
149,1.3044296532443254,1.2461598931063576,0,0,1.0888077703877101,-0.2898992782674396,0.21676619295088553,-0.11739085049646909,-0.4362287748934611,0.4332389364257298
150,1.2134027184563192,1.3235518957677586,0,0,0.8517454799371034,-0.19615356817376697,-0.1379604183824466,0.9774082740315879,0.08908875885863173,0.04629506934298622
151,1.1127808291541443,1.3842391643041592,0,0,0.9393992530961179,-0.07938841328841231,-0.012081146448465339,1.6273755561892291,1.6911564152247746e-05,-0.028057486178028362
152,1.0101700414567945,1.424139459589787,0,0,1.1458452236895862,0.06791857171324164,0.03954589677239493,1.622800598264017,1.0677854490698002,0.038968758881344163
153,0.9127493312486964,1.4409708008104247,0,0,0.9071737102010053,0.07753627386457934,0.016023269206025998,1.3111578487413744,1.424558634498613,0.1233870449079392
154,0.8267684746468918,1.4347998007280862,0,0,0.8244666315321294,0.08348787766253121,0.061488694270252886,1.273193174438969,0.9712267110263039,0.22118434719751034
155,0.7572120713736085,1.4081898959555494,0,0,0.7345549405821279,0.07534603446566909,0.024091338793142947,1.0983841489589787,0.916251771000229,0.3861225449185443
156,0.7076131766465558,1.365883616542845,0,0,0.6465868556420935,0.11562886424133345,-0.00024694579749903994,0.9878367784246792,0.6670937655391561,0.5428943113834045
157,0.6799988024718702,1.3140915414343333,0,0,0.6080948101309319,0.14085002043200284,-0.007805045176930745,0.7844107377412934,0.3790463674018225,0.6062720181107838
158,0.6749486194260871,1.259560701068927,0,0,0.6677270151291054,0.14153145629053432,-0.01676682303323504,0.8618844638396884,-0.015568393102480652,0.570293156059301
159,0.6917404298428138,1.2086329310370554,0,0,0.7720562582251453,0.12720854339979407,-0.05412125632349918,0.9523576416452412,-0.0913345911896172,0.4898113678358416
160,0.728544754073022,1.166482807610329,0,0,0.8289955408661066,0.05692489353079127,-0.06214519225313937,0.898950934619444,-0.09994212910875225,0.48858859163818436
161,0.7826251058230661,1.1366643210479317,0,0,0.8520512977714172,-0.014725642982571268,-0.08330024706471995,0.772046538960701,-0.19075303547997222,0.5711275694258408
162,0.8505085775308604,1.1210191716651674,0,0,0.8654986445351639,-0.07589282534955365,-0.06973471439690822,0.7351486238754742,-0.29619793363190866,0.6512608933423492
163,0.9281141441795988,1.1199252897255236,0,0,0.88504584908149,-0.09642299743369954,-0.09428408282052667,0.8346002128340918,-0.38925984260217644,0.6982025804307238
164,1.0108552498735395,1.132799929785463,0,0,0.9271193699186102,-0.12503749352597754,-0.1630711566351714,0.8517383302964703,-0.6393583414086081,0.7194912058343398
165,1.0937565790903696,1.1587234786785745,0,0,1.0021014417380993,-0.09853173125430485,-0.118302025829976,0.9706253188905476,-0.6162019320149883,0.7365485618078521
166,1.1716334952937062,1.197028323661287,0,0,0.9714158436299051,0.0833747162939631,0.07763270102802067,1.2357307386751897,-0.39606643941079434,0.7636937045484431
167,1.239372977177739,1.2477117595167877,0,0,0.9028910885596937,0.14393050806810634,0.5667068814598195,1.0373666593256574,-0.09867508504965561,0.7439482466605839
168,1.2923265516279638,1.3115829789599187,0,0,1.0027405296828742,0.05751109750336752,0.6201421145504796,1.1783206985616026,-0.4920751847434363,0.426550606750786
169,1.3267807892383436,1.3901272228184516,0,0,1.7083766584018258,-0.13371733314709283,0.13911303891621787,0.9533274730559349,-1.1232531419097378,-0.0756714686734505
170,1.3404206455149912,1.485141544197999,0,0,1.7001847647617823,-0.5933460092675101,0.1261095003814878,0.9559417387521457,-0.2502776602478814,-0.40926261557020216
171,1.3326715449207736,1.5982451550702386,0,0,1.165045432909882,-0.22664631706418442,0.11438945797110074,1.590068055106779,-0.10963133880819395,-0.42752901928540127
172,1.3048247117171785,1.7303817040309228,0,0,1.1479147422991793,0.1264209116687542,0.18222106702462715,1.6457347079144085,-0.07296437012867818,-0.3297335800332283
173,1.259913379388578,1.881411908162753,0,0,1.23998177589411,-0.01777390479716315,0.20177574002386034,1.8048973543599351,0.20000186542777612,0.10037449854622506
174,1.202374697405242,2.0498567973049306,0,0,1.319420554851097,-0.1488707395374153,0.06069790676415786,2.040313617592629,-0.053027999561916256,0.354013892186929
175,1.1375662194209566,2.232814411025686,0,0,1.0822633145107228,-0.24789930348980085,0.04861700689972536,2.1574904689453698,0.5128028359399046,0.31442382796238866
176,1.0712088442226868,2.4260476049316484,0,0,0.889308267815869,-0.2753227375581593,0.15086563045208354,2.4195273132859834,0.3785535494076797,0.09544346523362986
177,1.0088238334699886,2.624227474746872,0,0,0.8579290605522346,-0.2743821017261668,0.08701402295769038,2.514390586373702,0.005806261427292472,-0.08382751349462945
178,0.9552285718526177,2.8213110041081286,0,0,0.888738033897018,-0.2746878225084402,-0.00646745452668462,2.6406902402055032,-0.16425585916815497,-0.06699139970166604
179,0.9141446081811918,3.0110252787942637,0,0,0.8564101583937471,-0.30418854084713814,-0.01198101129453382,2.890013333749875,0.12200037332011897,0.07887975077319735
180,0.8879476917320902,3.1874139928125587,0,0,0.8730536344035353,-0.2439243032036041,-0.07342475202054355,3.428412988808437,0.08387274383202906,0.19827662005775698
181,0.8775623294365433,3.34537268581907,0,0,0.903309236416307,-0.12790486036507323,-0.07708461007512059,3.612607566312915,0.2478062322284846,0.21124753464717577
182,0.8824847405475328,3.4810732493462297,0,0,0.8677188070285025,-0.07705416064604963,0.00501819756238667,3.5862588787080547,0.4392394537044167,0.18321277495723381
183,0.9009118391217905,3.592181955825219,0,0,0.8852004423975398,-0.0480745760730543,0.011305028427415868,3.644415742346456,0.4906443492271093,0.13459209003604197
184,0.9299560604462999,3.6778199527084032,0,0,0.9251890641748028,0.01353179425727731,0.04992328105259605,3.77385514791164,0.5472284376271318,0.10956569531454044
185,0.9659299684892999,3.7382853292861067,0,0,0.9602013768464339,0.03734400051106076,0.07951152393335996,3.6740505856280357,0.6780858542216297,0.1575793201140754
186,1.0046862225804107,3.7746254635387486,0,0,0.974240372900226,0.07199087018978992,0.07631231295927662,3.487757643776754,0.5852134271848947,0.20949361639858208
187,1.0419969164114027,3.788198753757005,0,0,0.9744675730726031,-0.09799249011662682,0.14001963829440645,3.101906845211688,0.42212504840346843,0.21543887674008494
188,1.0739522676371478,3.780380051434232,0,0,0.9707069280834424,-0.2806334720038007,0.062191749571123243,3.2526500972984143,0.07487088145210223,0.20208389456108183
189,1.0973513394097762,3.7525227780751083,0,0,1.0475552689124554,-0.05612933081753672,0.0904943528542637,3.9518240159120905,0.08510110332959207,0.191112787942106
190,1.1100453600710862,3.706184967105123,0,0,1.270723323934906,0.12807460910747726,0.10318580542765818,4.2462995658558915,0.03152019162385347,0.21936924920913797
191,1.1111798531358865,3.6434936005279366,0,0,1.4019558396480574,0.154014954536969,0.045898789201836224,4.108523780386377,0.824357862913157,0.41222632760650774
192,1.1012763108149657,3.567438085455552,0,0,1.2241070417630933,0.1811404923320548,0.05880927856501849,3.619670797990239,1.0908013989845136,0.7121900878471797
193,1.082113081264793,3.4819077094847968,0,0,0.9972631590523059,0.22099724424977926,0.029993420870710216,3.2093867541031957,0.7029828130032876,0.6879528607364054
194,1.0564130904978921,3.3914071345167494,0,0,0.8602305908785179,0.271540112882368,0.004802229458694827,3.0470671618356278,0.41899153609830936,0.5505758851686319
195,1.0274045950413058,3.3005259495594057,0,0,0.7839574165107657,0.32781172036319567,-0.00882149414063735,3.0048810014639304,0.18571986220664857,0.5223145016733729
196,0.9983589043054955,3.2133279371207446,0,0,0.7728967688575733,0.3067496074725372,-0.0073552818714789315,2.9880308275926533,0.09179478774499689,0.5566643070419499
197,0.97220596050828,3.132832832764588,0,0,0.9372378973022814,0.24448530027724896,0.04610079566332193,2.9695065101981526,0.04025434179664555,0.6084989090350301
198,0.951289549813667,3.060706928067178,0,0,1.0153373751871504,0.19713612270547473,0.010019207369655952,2.9296102545514096,0.17481874965097843,0.6766513016708838
199,0.937271203093357,2.9971988626509667,0,0,0.9649887676045303,0.17799533914495702,-0.023434578410284176,2.936426902500252,0.33009820476440915,0.7445537562177974
200,0.9311501848695782,2.941285960894431,0,0,0.9002247427399276,0.18980161178590238,0.034084471431605236,2.9594073128494327,0.2779696252339256,0.8206001248258986
201,0.9333494711416583,2.890950993853341,0,0,0.9064627999224221,0.2110190019993491,0.033378343969690964,2.8890362267831655,0.04255908535556493,0.8999612526795601
202,0.9438204985645233,2.843494917539557,0,0,0.9532846919331729,0.26690287156603365,-0.012409886739868318,2.7966429264599255,0.08434037547938038,0.9457545993815962
203,0.9621299694349917,2.7958069973157196,0,0,1.0064914237627427,0.32773213774023396,-0.029706109988570668,2.734156769696136,0.05353549137784301,0.9516813727520409
204,0.9875024311268014,2.7445520860182944,0,0,1.0356391474930484,0.37609722047169625,-0.014689301852504584,2.5824058286112717,0.08281537836474094,0.9414926711433453
205,1.0188053420929306,2.686282535754563,0,0,0.9694902541664366,0.39311735436632816,-0.007840891395537548,2.390408075738483,0.06955963964270474,0.8889523659578463
206,1.0544844713370227,2.61752441156654,0,0,0.8865465003573053,0.45981345584312455,-0.08277586785123545,2.286075746351432,-0.003293451386131081,0.7652256319167547
207,1.0924853409565276,2.5349100795946047,0,0,0.8515961702017806,0.4473633610992816,-0.0005721164994261949,2.212933507591441,-0.02315781497915582,0.7258821581935601
208,1.130220083217279,2.435420756892419,0,0,0.83563774827137,0.34458549518395937,0.053281415029755065,2.1478852032025393,-0.42383831664115695,0.7892137086109522
209,1.1646440225641135,2.316761333318,0,0,0.9056317699785681,0.26766487710582426,0.19838628376676862,2.1137412748994753,-0.5048067074811126,0.8298691280584319
210,1.19248304902335,2.177827975929657,0,0,1.2118694811275876,0.10896941547583053,0.2633070390364332,2.0902308915032544,-0.8828963291744638,0.751743539835053
211,1.210604070118885,2.0191702190473637,0,0,1.4379805378943753,0.08051238676497435,0.030993858649404342,2.119571749793811,-0.3409663548160775,0.4885070900320537
212,1.2164646688476337,1.8433176763573542,0,0,1.2352849530170522,0.07993916948719056,0.024598144524029288,1.8333102885134442,-0.11173232517583508,0.3298716368283476
213,1.208541262368233,1.6548496630659997,0,0,1.242771504871665,0.17547086918738591,0.15006250422756168,1.9408497089306027,-0.5425623429563637,0.4234631739933144
214,1.186633799259288,1.4601297704392568,0,0,1.3704513929440445,0.41139913832719455,0.18290192902053867,1.7029989886414036,-0.1632637514751713,0.5435967120829232
215,1.1519740020427585,1.2666958746906345,0,0,1.250363981119321,0.4198308559861201,0.26280388260050874,0.985323280208302,0.2919873558077385,0.5088652313500291
216,1.1071093366229974,1.0823809838544671,0,0,0.9410438829063117,0.24417648253159174,0.2913344432927252,0.4470402944868005,0.23618467614803706,0.5005024139231454
217,1.055588421861109,0.9143253960054499,0,0,0.7979750714442237,0.16590326175686163,0.18200145317100877,0.22296423924054726,-0.274119016421943,0.4740987423171143
218,1.0015258151639543,0.7680905187998827,0,0,0.7793751147888714,0.10074251497211013,0.18766728912182454,0.1334025148797219,-0.1414684535341814,0.45418001671307845
219,0.9491535526922782,0.647067012467089,0,0,0.7875189413682021,-0.0008669280316445085,0.2751832487482283,0.19214036605439352,0.15436894626314795,0.4571315801186243
220,0.9024550635653141,0.552287817404731,0,0,0.8678308436529493,-0.06544057398003907,0.23734826790990696,0.23022554548042748,0.17362716758800886,0.48164779518905987
221,0.8649295607115804,0.48264719911995624,0,0,0.9063536467148586,-0.06126360732500084,0.14187361173772456,0.20675666843992102,0.057904486382434055,0.5451922905673808
222,0.8394778322029794,0.435431887869339,0,0,0.9163257245244993,-0.04705120834439153,0.0744194220725776,0.012465675225110105,-0.1242887038176692,0.5680763208868981
223,0.828359449730968,0.4070148242345123,0,0,0.9416077854244562,-0.05938250438077133,0.10475448923837978,-0.03182262351566034,0.09684874355679206,0.5574224039846797
224,0.8331584442799919,0.3935517863357834,0,0,0.8798077816912462,-0.0688461116472207,0.09688004053081704,-0.035563675950944326,0.109352556953949,0.5330577054576486
225,0.8547071326893475,0.3915485476394995,0,0,0.8837631491955019,-0.07662535817746428,0.072919022243841,0.01420913298985354,0.10016507431626231,0.47105760730705354
226,0.8929461847026027,0.3982168948092387,0,0,0.902047622541328,-0.0661087338242581,0.03274776311137926,0.0693667847697354,0.1664906352607656,0.36872576392565015
227,0.9467316915521891,0.41159621436916427,0,0,1.0166282521559447,-0.029499441225627338,-0.07621654691188326,0.24943393703521582,0.042274621837066755,0.2831466433245973
228,1.013628510668584,0.430469342131244,0,0,1.0635925161603297,-0.03526736973011857,-0.09036477908104851,0.31134913389430635,0.17343515195361695,0.26025283948772204
229,1.0897513788412543,0.4541371666300866,0,0,0.9656982051613222,-0.060523441121636344,-0.11165495906375805,0.3768894972924558,-0.005926426644418632,0.20497539795935504
230,1.1697325350353271,0.48213352679191795,0,0,0.8841784416074321,-0.035620963762077476,-0.19180737231134315,0.2875187532194745,-0.049842895312583305,0.08199649926027806
231,1.2469029185141904,0.5139629186930853,0,0,0.9351799450138805,-0.01468658229129256,-0.19366097832116763,0.1709989861892602,-0.16034735746940937,-0.061545344533811
232,1.313760058651346,0.5489287286521821,0,0,0.9728419685166441,-0.03406387531731946,-0.19625653938158275,0.22505814901204696,-0.3912407944056604,-0.23741977477633608
233,1.3627454954610532,0.5860853830005451,0,0,1.0902997460547266,-0.11817968951855226,-0.09370673991407155,0.22491170444765446,-0.6344792680800964,-0.4403871247934312
234,1.3872667392727018,0.6242981061390603,0,0,1.3987428331274077,-0.40840952423435917,0.5992657493515574,-0.07548550124768935,-0.5370209808425429,-0.4583691812272627
235,1.3827922865573843,0.6623501037209432,0,0,2.304404658130372,-0.3463271247264154,0.5760978797298225,0.6828892789974622,-0.16045581579248996,-0.08579336282700821
236,1.3477647875485876,0.6990235497053545,0,0,2.0006456333566156,0.5234253143070448,0.3495217224298526,0.6215871042810304,1.0096930193262057,-0.10309070859138661
237,1.284073949310109,0.733105106408454,0,0,0.6969338498355194,0.37515635487922244,0.5276661842487236,-0.5256014144075734,0.1208997224106846,-0.2743625356440735
238,1.1969395501760673,0.7633188033053184,0,0,0.9020856056576219,-0.1368509531203085,0.4119851577358085,-0.3092063218872315,-0.3548748448596585,0.04974267408838179
239,1.0942347259728826,0.7882495557713133,0,0,0.8613385730992672,-0.2625220197721856,0.30373528894881247,0.12800287286534653,0.02822074279791053,0.1859908985019307
240,0.9854320374805986,0.8063572936996808,0,0,0.7809767705998041,-0.264352702555661,0.09278690888190869,0.5270041406845493,-0.052902643601045914,0.035738054378512435
241,0.8804109428303064,0.8161588723662229,0,0,0.6598176855998701,-0.181385683462116,0.18301966379833876,0.8484063932527481,0.9428231513059291,-0.05323396869971545
242,0.7883357959530408,0.8165698478348339,0,0,0.7336188904007187,-0.1833249004378172,0.22586832341363872,0.9838904800111555,0.3748205570498034,-0.054246307169836444
243,0.7167488130148758,0.8073006249702431,0,0,0.6856712080006366,-0.10934663467508335,0.14180044589542196,1.066730468337949,0.24990322633532103,0.04168577098517726
244,0.6709590414993857,0.7891577587221303,0,0,0.5330766331396597,-0.05967839291052983,0.0878699995754243,0.7858899144102786,0.2344370655354482,0.16401711304566483
245,0.6537590976573335,0.7641359553515843,0,0,0.43873225918336795,-0.032163552327554946,0.08570417550989518,0.559839420561804,-0.24053738939992464,0.23234477531298844
246,0.6654645379920006,0.7352669829657794,0,0,0.515788252668094,0.011780889344826274,0.2408924275286339,0.5005710202391535,-0.1988224818631516,0.2342864890778272
247,0.7042349688258086,0.7062652317060827,0,0,0.6675928130280322,0.14514743606087988,0.12405404255345145,0.7724321127649258,-0.2737906556488767,0.1895185849405141
248,0.7665924150973555,0.6810454439205325,0,0,1.0164462538674348,0.3269316723439862,-0.09711293020232258,0.5907820042402232,-0.7003792636682278,0.09701731397388946
249,0.8480090884407883,0.6631922790425846,0,0,1.1853278048423848,0.35245070766159853,-0.027677305228160764,0.30872849581112327,0.17833366299681122,0.035737987508412034
250,0.9434181818812007,0.6554593911515314,0,0,1.089649327903715,0.33710941425816954,-0.018605083805166733,0.09880231504058204,-0.42109059915683394,-0.000297724989076181
251,1.047530814540628,0.6593788622989222,0,0,1.133452963389159,0.1071110120451795,-0.12008758023164107,-0.16338759504297173,-0.6134929679743348,0.028411491216651385
252,1.1549199682230054,0.6750545776445938,0,0,0.9949633270641534,-0.0734224859788537,-0.21660280950157026,-0.0733877427453865,-0.6477141070135597,0.06178756581872475
253,1.2599297695703617,0.7011801209430019,0,0,1.0443184653743587,-0.17529942359298165,-0.22774994391782546,0.08741044552724349,-0.5801224743195679,0.07928856889333516
254,1.3565456105223441,0.7352729816161598,0,0,1.0620486721869196,-0.21039861515273983,-0.1535423919950628,0.18857761387515318,-0.6668311896763537,0.1402914448170664
255,1.438389093398009,0.7740731636460699,0,0,1.03482808523639,0.026880537247350816,-0.23489108495063943,0.2862213416878037,-0.8321314414137392,0.2046639506733834
256,1.4989741354581778,0.8140239027111769,0,0,0.9687319090425556,0.23888059960349348,0.059745715565271154,0.08436936386657416,-0.4910900118329422,0.23752244439127845
257,1.532282259490707,0.8517333305010325,0,0,1.1557475517199076,0.1922652495493165,0.6489995575808485,0.11083000430761333,-1.668663940175919,0.16167328019419816
258,1.5335978593458184,0.8843120706772793,0,0,2.187184110287598,-0.1745439628365151,0.9621998783559748,0.34204689535046967,-1.1720688812118571,0.019937376998552265
259,1.5004170438741702,0.9095083105645677,0,0,2.370860546238038,-0.2516857300556997,0.669232553478427,0.17533439396216477,0.44419486623537596,-0.37337262752482664
260,1.4331664927624264,0.9256329149483665,0,0,1.138706206874423,-0.1848083943751309,0.4973062771967917,0.40430783102858403,0.5186964646724566,-0.47999414462226864
261,1.335503298072116,0.9313645371576915,0,0,0.9540829358957787,0.24423698678962924,0.5821076427946865,0.10732664991467122,0.09694763718778997,-0.36414484195110197
262,1.2141076492665899,0.9255925545598992,0,0,1.0448156850875367,0.24747496121216928,0.24988647639217365,0.08151286203791319,-0.3251612726711763,-0.24950569763914882
263,1.0780391939164526,0.9074439279395505,0,0,1.0227998286730087,0.2638472227222932,0.2141435125746462,-0.6752823009184244,0.367567906262863,-0.06943048879743997
264,0.9378163500761986,0.8765456847904285,0,0,0.8413148163388909,-0.022144856981740728,0.19347859780619092,-1.0473335536546973,1.134515487355787,0.09494373985431928
265,0.8043844748037501,0.8334422918884441,0,0,0.7154638392816187,-0.03864477456042849,0.09267175511309404,-0.7603788867771304,0.8462730588777307,0.15482667207080783
266,0.6881078515433129,0.7799874983556876,0,0,0.5784221112227086,-0.16391161144343602,0.14213424330925348,-0.8457748583583833,0.8388257497609523,0.06336243415111052
267,0.5978868574007111,0.7195219438710367,0,0,0.4982535418437783,-0.1406994706945046,0.08142121007734052,-0.5177363471254458,0.13022463581898305,-0.14265431473964238
268,0.540471392316413,0.6567328831849867,0,0,0.4446908993355716,-0.1453731444589958,-0.019912376619046566,-0.49995812238023907,-0.21504204999324336,-0.2859925754500137
269,0.5200107837286796,0.5972137116189633,0,0,0.4534885788667258,-0.16563290911529865,0.012191848953608374,-0.30614723033831026,-0.2506146311311768,-0.30575417824783246
270,0.5378486418257923,0.5468323758570078,0,0,0.5276574746512469,-0.24299697107459844,0.10976897245915083,-0.12332078508713433,0.011618125971344316,-0.2314791199348829
271,0.5925420141275989,0.511049478309177,0,0,0.5744356475294727,-0.2511365475155748,0.03213401927424202,0.1883969470673694,-0.38157139854437433,-0.19608671344022113
272,0.6800630053509594,0.49430735973889695,0,0,0.7536129399681054,-0.20894816903868332,-0.06371946045996053,0.059043647822508004,-0.6197366651216724,-0.13150805002882637
273,0.7941331826450948,0.49956523987239443,0,0,0.8347179193063005,-0.1733142998354051,-0.09428783684893437,0.09017371135439405,-0.31471683632725417,-0.050065302863601543
274,0.9266487210593577,0.5280078245797752,0,0,0.8820455924463398,-0.06770584832276938,-0.13708700310381378,0.18844704990564948,-0.49857965469162807,-0.00874169175862474
275,1.0681736667903692,0.5789220220325129,0,0,0.9850461362671084,0.013275453040096216,-0.14947238549706868,0.1062519724389343,-0.725891599353619,-0.049459956873826455
276,1.208500524914582,0.6497204822530173,0,0,1.1186832215424052,0.10803529744550915,-0.15253536370810966,0.12499207907163586,-0.8023402079783678,-0.13947647327428347
277,1.337290002272748,0.7360881013908223,0,0,1.1908870840640113,0.05235802233299102,-0.2542522624304387,0.11659966929643138,-0.557401941187987,-0.21989070128472582
278,1.4447969508356147,0.8322389819619256,0,0,1.1192090627337878,-0.053869469968581746,-0.2111472411205598,0.014854852136921452,-0.23994727708322644,-0.3191373886633088
279,1.522664558082585,0.9312896924603719,0,0,1.2620282483727292,-0.24479674236670915,0.26505948188821643,-0.45897254895759476,-0.8691566101357235,-0.24860315000641323
280,1.564723325446682,1.0257575022847336,0,0,1.7988470512507573,-0.276791746167054,0.6778035505513381,-0.13960699133022694,-1.2343091870720309,-0.08315954375933352
281,1.5676726183250211,1.1081655041370644,0,0,2.5816079904913143,-0.0006099925920323581,0.48535340079328393,0.6964297188510133,0.0529740135917829,0.3897240905437033
282,1.531482279824121,1.1716970833024425,0,0,1.7931721071603726,0.5806515181329969,0.34252970786024706,0.32888879810800997,1.385907299101265,0.6563748816391319
283,1.4593821659789699,1.2108186983800298,0,0,0.508316092409801,0.14659031416847343,0.3860276787054405,-1.1708880897742637,0.5281592790979351,0.5965340888832587
284,1.3574273851216285,1.2217945206069194,0,0,0.8547876529711905,-0.4220784002091385,0.3313104971206165,-0.9551574730559992,-0.7487118279474898,0.5475339456177017
285,1.233772354941208,1.2030474715199009,0,0,0.9793794336763351,-0.414030782655614,0.11714068253102504,-0.05569097478598794,-0.5948919065291156,0.1668875878089272
286,1.0978546145458787,1.155367317522251,0,0,1.068626585786952,-0.24866980245930118,0.04847605474115153,0.6698405739416673,-0.007192774083245059,-0.11706983560822538
287,0.9596433497968245,1.0819949923281715,0,0,1.1436672509905457,-0.12165243466457216,0.1306603185975771,0.9892871106666667,1.1467047958650818,-0.180446954342025
288,0.8290070533090417,0.9885880007371483,0,0,0.8966899778630449,0.03336967334800676,0.07482859633873717,1.1122831786369285,0.9722801160588495,0.009672113599468138
289,0.7151789767229266,0.8830085417489482,0,0,0.7318135746180452,0.141820405517908,0.05226891619215158,0.9354371676174034,0.6576940085168147,0.20986684576697892
290,0.6262786376214994,0.7748408886377267,0,0,0.5903436629575297,0.16351922690198054,0.0747701337670349,0.3787536054385902,0.6281647322138972,0.34475494547692664
291,0.5688660199540793,0.6745874765201344,0,0,0.5260274357098126,0.09081959970542834,0.02252772341368991,-0.1578218664737883,0.0835361296836983,0.45702608377492976
292,0.5475326058825969,0.5925919968974133,0,0,0.5278333666322914,0.0910194088307328,-0.01887038138283479,-0.4399974753989966,-0.11067303845459577,0.40731465420379187
293,0.5645510379846472,0.5378290655891755,0,0,0.5726177078968949,0.12172010355415677,0.020155114400061045,-0.5863205019915526,0.054450822134937425,0.24003832337046893
294,0.619610029788696,0.5167448240272193,0,0,0.6836073857393723,0.20236989412472617,-0.10448572209528548,-0.13856504318491294,-0.11600438627525819,0.05410494326641459
295,0.7096603350011336,0.5323362545026635,0,0,0.6977447989199277,0.23136880105580712,-0.2016290375827117,-0.03867319404133309,-0.0842956665796898,-0.034228214495038864
296,0.8289005071384549,0.5836344168277976,0,0,0.7215632393520585,0.13796843076844972,-0.037912505331393585,-0.14403762434865297,-0.2038476922858496,-0.0228523913375709
297,0.9689417120313686,0.6657043618390331,0,0,0.7672896319688196,0.04861031403810462,0.009501747324852377,-0.28279841412676976,-0.6267487524513988,0.05359803603817184
298,1.1192018469195077,0.7701843341798005,0,0,0.973352214851646,-0.21446990285498518,-0.1709310121510224,-0.5809501192281074,-1.0379393724588986,0.16781641880646936
299,1.2675755903829107,0.8862802042472498,0,0,1.0426714183107393,-0.16260057931941635,-0.2571181779383344,-0.2869144587949198,-0.43762915662677254,0.28922869136606666
300,1.4013976175202196,1.0020517749442257,0,0,0.9152338022831059,0.026593064496800534,-0.0684987404346986,-0.2274576056775521,-0.5049870935867352,0.3307775494743591
301,1.5086595878273488,1.105796425920787,0,0,1.054373898410843,0.05766794189706839,0.40881853153763176,-0.3785343179234452,-1.6839621134439176,0.2653743957448037
302,1.579359431278329,1.1873325038370512,0,0,2.084255717426002,-0.2211752565669326,0.9934315301130778,-0.5041117707148841,-2.002586399477503,-0.11016771007093167
303,1.606764660752672,1.238995838467003,0,0,2.95026747775421,-0.8543291393958005,0.5549828033249152,-0.2179974256420485,0.374357053218634,-0.8781866297190457
304,1.5883067901685655,1.2562142880106473,0,0,1.5145649884196921,-0.5398705690317215,0.40153082475048113,0.9774691628994042,0.6266994446014932,-0.7815259746190241
305,1.5258668606723147,1.2376358093826583,0,0,1.0061187730830536,0.3899764493206135,0.39543503079092424,0.7312390880495849,0.14063586367223327,-0.45911727628234855
306,1.4253854980164269,1.1849113636685948,0,0,0.9211446331653864,0.14938113566864683,0.20316461523020796,0.3711060419675612,-0.6252151159960054,-0.02925986210684754
307,1.2959451063526826,1.102303236938961,0,0,0.9621399399599168,0.26807929687176085,0.18215222122998836,-0.39333761491127134,-0.2259172008101236,0.12290783005252756
308,1.1485950887455483,0.9962673382897499,0,0,1.096083707004664,-0.03324418991182886,0.04093581275239534,-1.0841376799065499,1.3125287350256143,0.026538058496450512
309,0.9951750268417257,0.8750630374147373,0,0,1.0393455397896663,-0.1828325319028197,0.033793616948662474,-0.5708967579998747,1.1832131442022689,0.0315126947912962
310,0.8472927104141035,0.7483362737895259,0,0,0.7676347038671644,-0.28990253438549096,0.13421277279997718,-0.5515316854659367,0.6885620117196843,-0.0648501380052995
311,0.7155160605020081,0.6265753247206863,0,0,0.6296344819552395,-0.24847073013107646,0.046014678168556526,-0.1909452599686999,0.260273093738783,-0.23946944996300587
312,0.6087804587734039,0.5203826670432956,0,0,0.5312505505019322,-0.1791008580819884,0.010783928109753243,-0.3514450191781336,0.17108252946257524,-0.41078735810758854
313,0.5339902891383921,0.43959458079450975,0,0,0.49764987645068276,-0.12500731330513493,-0.042886787476848265,-0.17466710660117135,0.1547776435528117,-0.41076904433559397
314,0.4957840892823251,0.39234558505813527,0,0,0.5506788682298521,-0.12845425232024088,-0.015656375749741415,-0.06076562258415732,-0.1278244044426492,-0.3073058012230326
315,0.49642398118429387,0.38419619212296247,0,0,0.6506655787713411,-0.07559804439163485,-0.062010446299409015,0.14207563941035795,-0.078855372773723,-0.21437650674758738
316,0.5357645250804896,0.4174389045927742,0,0,0.6471578920764673,-0.04452232979981128,-0.07614118565706876,0.09130964356932134,-0.12002415211467583,-0.2137180900676236
317,0.6112637237747164,0.4906844842439576,0,0,0.6770020627438782,-0.11129884610591866,-0.0728663498631973,0.04070370510929289,-0.40233868812945894,-0.2640658804534181
318,0.7180254050427294,0.598807148896142,0,0,0.6789538282983967,-0.16484135079558215,-0.07558331927911617,0.015625626292902546,-0.3187055309695941,-0.3074469102279303
319,0.8489021320572582,0.7332915144058773,0,0,0.6659124876044031,-0.1890869433723631,-0.06953060983233574,0.13036273257582465,-0.32456755699149525,-0.3643348244382476
320,0.9947254638251246,0.8829799134647135,0,0,0.6907514992704485,-0.12017534981369837,-0.08490321229054151,0.2706327711333192,-0.7369933055926968,-0.36682199751403566
321,1.1447469920093325,1.0351697811075737,0,0,0.9118536540316948,-0.04594696387049403,-0.12672571010634678,0.29916594477554104,-1.169471627238651,-0.3558116933415815
322,1.287354796585197,1.1769609807005141,0,0,1.0042494496897456,-0.044173658376946895,-0.2160368406788502,0.37712431891003534,-0.7227710049658651,-0.3625896273982266
323,1.4110721025570707,1.2967115168029533,0,0,1.1528761823892417,-0.11935426751871685,-0.03548565846574319,-0.1298247239990525,-0.8288780140720584,-0.29307843740883194
324,1.5057569204046408,1.3854306507759528,0,0,1.3668519925024865,-0.24910092766994046,0.6372661169027528,0.21436393155297118,-1.825319373492592,-0.0677740779365562
325,1.5638226723033848,1.43791138720705,0,0,2.6603600755927648,0.07318156962046136,0.45302879332994994,1.3673831085502521,-2.2586220032618014,0.47623145920002447
326,1.5812238072836002,1.4533874463255596,0,0,2.481749756417746,0.5654442478116044,0.07087907312132705,0.6345403767701215,1.5189889263520366,0.9367457361115362
327,1.5579496336727454,1.435543508212128,0,0,0.9883944186713066,0.1581022132515755,0.5436691929351329,-0.5257133608541218,0.8295163291729902,0.6202782348175329
328,1.4978839419503227,1.3918515950121813,0,0,1.1854067821689787,-0.3814833236232096,0.07096904294433103,-0.42809334834755564,-0.7648649985135051,0.45384466210185737
329,1.4080832552225178,1.3324027170610926,0,0,0.9180956172592841,-0.404919121500916,-0.08274694968439603,0.2733352313593709,-0.30038533008622226,0.08165569163102612
330,1.2976941974650398,1.2685354576447647,0,0,1.0535390290125928,-0.11802991453065245,-0.04518595117075213,1.1428771277142769,-0.2120004818470955,-0.033791342640794045
331,1.1767818811715396,1.2115539626918923,0,0,1.165433982801116,0.27511802110901035,0.029894871807517744,1.0765827702798876,1.1870293534034826,0.04203958885725111
332,1.0552820202009894,1.1717016743259847,0,0,1.0286848819689811,0.3498223945801139,0.059000335799437115,0.6452182052078955,1.239781042838736,0.2021051699777301
333,0.9421887983125414,1.157411874761961,0,0,0.8379001995744658,0.31467454247501353,0.20040660311454428,0.022907096089597467,1.1164932379234476,0.3855478086771971
334,0.8450087639604676,1.1747803401978933,0,0,0.6913516658116333,0.2840629536695601,0.09224124855857771,-0.46920534947721876,0.7542342441378129,0.4898117201409836
335,0.7694669383595097,1.2272144231361024,0,0,0.5779905617476289,0.29160466024421755,0.11784008369350327,-1.0012705295359046,0.5006587165221885,0.551197073061615
336,0.7194311347415111,1.3152569798284799,0,0,0.5940117139393054,0.3116387957902985,0.08372768440980298,-1.2961803433435406,0.08595187296763354,0.518022314624086
337,0.6970028090957603,1.436612407704426,0,0,0.7956552806515994,0.2712032567053052,0.07023490853361299,-1.2181750726904628,-0.03946946616672484,0.40514578768809667
338,0.7026999506701064,1.5864052167315312,0,0,0.9425786246497924,0.17196231181826666,-0.02543121382795486,-1.1803843697739125,0.22962786865357004,0.3315898271324243
339,0.7356409964751424,1.7576894144297344,0,0,0.9527067298621048,0.07273000787902138,-0.07602364108468376,-1.6320372956300537,0.26644386597703035,0.38999422947158197
340,0.7936479617585447,1.9421997768597359,0,0,0.9107436059796667,0.06974088249527753,-0.06469744541226165,-1.87848210871466,0.5068028401494347,0.4225855460819713
341,0.8732315882060293,2.1312891337522566,0,0,0.8163256226408965,0.12362088278277837,-0.08055403990562662,-2.194150306244246,0.4300574674363287,0.41011381846878864
342,0.969490267366696,2.3169422590923525,0,0,0.7995619600849709,0.1684119465456173,-0.17640289967013623,-2.4477336521638566,0.18097710115363122,0.4167631439845176
343,1.076020868633833,2.492724785339644,0,0,0.7928053879226503,0.1710219156452887,-0.09551949501501486,-2.68521878695477,0.23938316728836317,0.39666705507566735
344,1.1849759876872368,2.6545325271642564,0,0,0.8415727248772242,0.2617653040774987,-0.04658669269657689,-2.4643368158407437,0.12270229958287988,0.3124158383620416
345,1.2873930486787144,2.801046707871129,0,0,1.0139601549795416,0.250503456588492,-0.17246509652452321,-2.680391902721995,0.03729746434842286,0.18567010617309102
346,1.373865665420744,2.933849690926711,0,0,1.1311363989662753,0.2057392312784125,-0.09393197775266657,-2.9348803261037673,0.31295732749092997,0.02043200554284549
347,1.4355384397916662,3.057187796092155,0,0,1.3080307633112187,-0.105468877067491,0.043354822260586734,-3.4942212652717686,0.07041275123054862,-0.1068554533955717
348,1.4653022626937726,3.1773769589699707,0,0,1.6543516412003034,-0.44638152728561853,0.0065724923989586475,-3.48226067527071,-0.1061033596522047,-0.10611746293451318
349,1.458971869223025,3.301858859146596,0,0,2.0621191108646673,-0.7575460960085919,0.26025742393888635,-3.1917282954220303,1.7197591194871988,-0.32022359988687643
350,1.4161711269897903,3.437963936147695,0,0,1.9708795791991738,-0.7677278059140238,0.18401281014532675,-2.586421538351272,1.5114212656805113,-0.9041478983878366
351,1.3406704442082715,3.5915275810759524,0,0,1.4695768997950767,-0.1484800002807981,0.06784559185598156,-2.286050879477371,1.773453569510541,-1.2433089424242707
352,1.2400349736977907,3.765596837355399,0,0,1.1194090217426842,0.11740384032543069,0.06298133019801984,-2.7910071295479675,1.5914535898681306,-1.0049806086520405
353,1.1246236495175144,3.9594995359081855,0,0,0.7936159857513853,0.005485732617817535,0.08197851662214417,-3.1812436406483338,0.7248351416598768,-0.6690635828493787
354,1.0061527167039472,4.168492171317011,0,0,0.6490233763401343,-0.015334911228592457,0.02769806702454022,-3.927641844179349,0.4024542779550092,-0.45021682250877576
355,0.8961313531683949,4.384068208320451,0,0,0.5494944379783545,-0.14332367220018993,-0.12699663572569134,-4.811260398306771,1.4698668684144043,-0.18932413054767394
356,0.804468059230864,4.594844511958038,0,0,0.5258244492650084,-0.17936319156370753,-0.23480813348901947,-4.762647727734235,1.102114420115895,-0.13755705791687592
357,0.7384600734511688,4.7878187679848425,0,0,0.6889286781272353,-0.19659373926386767,-0.16574947379778238,-4.778112940423573,0.6166801998773882,-0.28352801867321886
358,0.702259179137495,4.949757306745511,0,0,0.7331050875178298,-0.11880257634588468,-0.0669462643596768,-4.658223131454422,0.7376199347616412,-0.5082099272091112
359,0.6967971119665574,5.068524190822916,0,0,0.7272001340672659,-0.050343513548618574,-0.19677374612479595,-4.962935567697319,0.7900667015678072,-0.5993758880702551
360,0.7200787902002219,5.134237403611754,0,0,0.7696205161195965,-0.19378037318550237,-0.2754265311756157,-5.294654697815616,0.6379196399556478,-0.5198515074590955
361,0.7677195035372563,5.140182404996656,0,0,0.8196965750859597,-0.31248967409965106,-0.25788176771025945,-5.146303102790551,0.49790856468621236,-0.44330671317158843
362,0.8336060853704368,5.083425923593373,0,0,0.7958646976292393,-0.3241124424103448,-0.2623887967660032,-4.987562254304922,0.472496689193664,-0.4708195971767066
363,0.9105897681080514,4.965082662875427,0,0,0.7464341711453654,-0.32972128966085884,-0.24546815437536554,-4.958092410788745,0.6630621437923698,-0.5774706538536782
364,0.9911570949837093,4.790208959066118,0,0,0.7204738887271486,-0.3625084763158125,-0.21515464998076664,-4.922804319223044,0.6456969585419264,-0.6742926454944719
365,1.0680596615490232,4.567324128285053,0,0,0.854433926507748,-0.41568460842060523,-0.24248389878046603,-4.713832717914247,0.4441466995047248,-0.6667817749808315
366,1.1348980722125903,4.307590130251776,0,0,1.0460445346740237,-0.5236548269017909,-0.25467012451135207,-4.313164505676293,0.5064143446075909,-0.5383550509474053
367,1.1866450816803906,4.023722059990019,0,0,1.1595554270724597,-0.5176290061882097,-0.22392176384454057,-3.7577301770298512,0.5661070250890793,-0.42824538271724044
368,1.2200693585610698,3.7287556016074612,0,0,1.1412871108145877,-0.4696235022881108,-0.1331527305197682,-3.379969952452463,0.5956245835682463,-0.4267824306914885
369,1.234005100098515,3.4348411775765446,0,0,1.1874392197014283,-0.5142353507548035,-0.15969378689213123,-3.218943648979527,0.45840895910656165,-0.44085482494122075
370,1.2294157934524375,3.152240416555114,0,0,1.2717584011814989,-0.5034852820339835,-0.22512093988755894,-2.9553202893517625,0.3722373857659766,-0.49737188739740423
371,1.2092205420157354,2.8886603662890478,0,0,1.265545732853915,-0.43491859733670285,-0.24775205109105167,-2.6606093987398607,0.5223191225807279,-0.5570741169603044
372,1.1778823725918148,2.6489913758893193,0,0,1.1367849413207065,-0.34091073789916276,-0.24260146763877774,-2.377904837290481,0.6688664362786036,-0.5538320973949264
373,1.140797484195437,2.435440052823966,0,0,0.974730791994682,-0.26579100168144904,-0.21297607672712085,-2.239329837358607,0.6304169711255411,-0.5173602070597548
374,1.1035677997920306,2.247983364424533,0,0,0.861433090029936,-0.2664506684522771,-0.20361126745201671,-2.2516207367274985,0.747404024788263,-0.4474495308833535
375,1.0712722140261626,2.085019164397156,0,0,0.8113553618503755,-0.28842949633071113,-0.14313183204015598,-2.165684191149965,0.8136017364129595,-0.4158969615835898
376,1.0478571929156293,1.9440601138753946,0,0,0.8569160124434062,-0.27516709881135687,-0.1213409781760958,-1.9709540643527157,0.6294424396851398,-0.4952426890134584
377,1.0357378534465576,1.8223242072473174,0,0,0.9739277320021086,-0.31631985138767266,-0.14572620106169637,-1.82641067379455,0.5289876158046201,-0.5971669192550229
378,1.0356459209646527,1.7171203977797536,0,0,1.0751186355708995,-0.3718660212217473,-0.18218768386172435,-1.636250719743544,0.5959593759748493,-0.6078229658193842
379,1.0467025309890152,1.6260001865771536,0,0,1.1122180288595334,-0.3655152798616305,-0.18737937297021273,-1.2354502196808113,0.5439891758571265,-0.5352130104571939
380,1.0666546045196321,1.5467219305142073,0,0,1.0759321249705809,-0.29475371334243045,-0.19807200675345027,-1.0204959352638314,0.5792442163327595,-0.47148583097177366
381,1.0922062639338685,1.4771286191773765,0,0,0.982082075536114,-0.28041525297761605,-0.09167249699457326,-1.089589056317135,0.6635245593679171,-0.3803808206460038
382,1.1193967195118848,1.4150521421771867,0,0,0.9501594812650666,-0.3235056118367933,0.011053634254496531,-1.1542090961537896,0.5768095258877143,-0.2677460522558279
383,1.1440036575042696,1.3583233535999348,0,0,1.0033427896337384,-0.37031595652427657,0.04153702069072696,-1.2437653523962147,0.4177748017944763,-0.14972845547123956
384,1.1619651875490251,1.3049048394832024,0,0,1.152826122464682,-0.29222239030592595,0.062414669192045746,-1.2131167530578326,0.4205909872921581,-0.010518409686558379
385,1.1698057590991378,1.2531000696607741,0,0,1.2252382681584937,-0.2510111310051538,-0.026064356390806214,-1.488568999865571,0.45179939224978677,0.0769391734568447
386,1.1650314708679284,1.2017505357381593,0,0,1.1649550880279702,-0.18018916044885494,0.054557226953492376,-1.4793744049704165,0.6222484037348661,-0.11704170608834669
387,1.146444807024014,1.150325621144015,0,0,1.1654383862256434,-0.12423315918913656,0.19454726877504147,-1.1126616128081674,0.40464501499554295,-0.3434457081124852
388,1.1143282197953281,1.0988472225551993,0,0,1.2405345269824628,-0.21929258309865843,0.1643006953998533,-0.8901280758843152,0.1198176799409606,-0.4171285656369837
389,1.0704593895576056,1.0476649649976502,0,0,1.1825308966695616,-0.26881851802187084,0.07596670720222058,-0.43401321144321764,0.39233837959079415,-0.4444999721610295
390,1.0179447978149725,0.997173812884647,0,0,0.9915322562541901,-0.27730980711574715,0.056329918492078884,0.19136915185221656,0.45846604515589573,-0.43441767479268045
391,0.9608914750472838,0.9475998594844639,0,0,0.7759340534248025,-0.2422417343370124,0.14821914969739458,0.6102964406463679,0.6409112242595607,-0.3695098414779812
392,0.9039745611957147,0.8989519763465058,0,0,0.6340689999368377,-0.22024232907115546,0.19269717486562452,0.6035340853622984,0.6125508589436887,-0.28616968523929454
393,0.8519853494359381,0.8511656973518011,0,0,0.6266920844737969,-0.22250005362674014,0.25621370835662977,0.5594951470120293,0.5190636215367765,-0.24277835016214372
394,0.809443152583186,0.8043908881145563,0,0,0.6734118734475149,-0.13247999555524942,0.22129945570052703,0.6173472656090025,0.4163001534577497,-0.2627166217386055
395,0.7803202820844467,0.7593246853744424,0,0,0.8250590643476042,-0.0019936737497409807,0.09823376103757267,0.8150606954182226,0.34182501850627295,-0.3570810520706831
396,0.7678769070244101,0.717469768886102,0,0,0.9238121789704462,0.08392372040872133,0.1257267624933604,0.9056802641925096,0.37811934238948425,-0.44925439277793233
397,0.7745555470804952,0.6812014371854462,0,0,0.9251284963544082,0.10402407955334622,0.08412772806355946,0.75961416453344,0.2633182709462278,-0.4651918820718587
398,0.801864159593322,0.6535606661655601,0,0,0.9112233225094362,0.16134435526781346,0.031674142497930796,0.6033552525586895,0.36835799250855134,-0.36458384715078684
399,0.850190676239808,0.6377599013771141,0,0,0.9388500991762021,0.2126244712705485,-0.03404707074982647,0.41287250767189554,0.33406289334285305,-0.21035118171388537
400,0.9185343360555793,0.6364803911781646,0,0,0.958699778627266,0.22406043424022493,-0.0780694111137133,0.3710972748968098,0.17260373701295154,-0.1739619308567689
401,1.0041949508207446,0.6511225217626447,0,0,0.9218057359053347,0.2150396933822777,-0.08466492595604183,0.2781093723571809,0.18156088884347266,-0.18331991472703432
402,1.102514359413095,0.681212265240768,0,0,0.8602164483955461,0.16069094469927447,-0.09654602977562346,0.1207438269921236,0.18057267028599103,-0.09430292269830073
403,1.2068009060591887,0.724151003549999,0,0,0.7300700726421392,0.0894352698652022,-0.08474407677283985,-0.21503162628692163,0.15989546518089776,0.08312477156241847
404,1.308572420096631,0.7754218057296656,0,0,0.8157134838060967,0.12072537241478717,-0.11372084301983476,-0.26216258118992464,-0.383325181328651,0.21949749293080198
405,1.3982087943391084,0.8292437994032142,0,0,0.9394497181231088,0.24164122786343303,0.12802775065733885,-0.7644823172536208,-0.9039602515060035,0.28921132608597255
406,1.466003612245953,0.879525946305654,0,0,1.682263714298609,0.20134269583071357,0.8775462918109591,-0.3322248307036282,-1.9592571590896264,0.12596135260342423
407,1.5034645993919165,0.9208663134430969,0,0,2.5943980112402576,-0.1662981292557079,0.5607815999749871,-0.3037748187688129,-0.82464455733668,-0.2852987993570542
408,1.5045935966249524,0.9493341450012133,0,0,1.3582243517687027,-0.4712127180293311,0.455466979769553,-0.8628759155673726,0.38917929944679513,-0.08707643752386697
409,1.4668524343818858,0.9628747559931664,0,0,1.1699062660562614,-0.07825767612962108,0.7394916380206732,-0.4313762083995338,-0.7067032724921145,0.10237442343477761
410,1.3916164984920558,0.9613301596935877,0,0,1.3658735300989533,0.0450479965544885,0.521139035141488,-0.6653718080266244,-0.06492169761185965,0.03617612510626114
411,1.2840723518738162,0.946181873524364,0,0,1.2020994437216799,0.043170648639499404,0.4450231804577846,-0.7196319119678779,-0.03705078263925619,-0.008133921331967673
412,1.1526400827441567,0.9201526973846975,0,0,1.0038784010079225,-0.0001596104746375243,0.3322624869297186,-1.0063187475447692,0.5843215188126417,-0.03035069635625439
413,1.008059029411514,0.8867688580933749,0,0,0.8145221709689968,-0.019142742144492263,0.2885725985700589,-0.7447359654659583,0.6174089651786675,0.027782528715026567
414,0.8622866446745024,0.8499284623442577,0,0,0.8130653270257192,-0.04272860401066397,0.26912358835856715,-0.7586714605374529,0.3481598201347892,0.07681595398234646
415,0.72734872975366,0.8134873809007757,0,0,0.7144220175104827,-0.13140709822040061,0.1771870322691148,-0.7909039226881914,0.2847093148075106,0.02442068931578107
416,0.6142556509581096,0.78087305696998,0,0,0.5339224285693774,-0.17262346887620966,0.08548881037572698,-0.7043677369981354,0.25053731931023404,-0.02446621799890367
417,0.5320726308720055,0.7547546727520232,0,0,0.38864994048062407,-0.1558573467950406,0.06903054751880772,-0.5597974950623822,0.15866299516718926,-0.030373909978451925
418,0.4872109383413311,0.7368115564118232,0,0,0.31489872557514753,-0.15926890798532925,0.1278496607542808,-0.6929850749447732,0.16305128146617778,-0.028086007958630615
419,0.48298882520634684,0.7276386388231999,0,0,0.3072296187058392,-0.21050380171627728,0.09050755614413045,-0.5666985611548419,-0.005155142843228275,-0.02113151574166073
420,0.5194873357526637,0.7268071421800848,0,0,0.3945254245192383,-0.22399419666605005,0.042675635860426366,-0.35930996277705873,-0.6729510735451596,-0.06625550686953224
421,0.593692373064308,0.7330664275506557,0,0,0.6239741315756638,-0.2677260495866791,0.0520899836179583,-0.3074542878565286,-0.9563773326032389,-0.16148904080252385
422,0.6998766663970729,0.7446416520047116,0,0,0.8126016465749137,-0.28042567363381005,0.0052562738086116955,-0.016029112414374172,-0.531776216811777,-0.24835029031510872
423,0.8301466181055615,0.7595664370095363,0,0,0.9086187148290664,-0.26126780000154165,-0.056602128751760794,0.22535885151570292,-0.6392575109656499,-0.2439300034559194
424,0.9750723904010187,0.7759948148475999,0,0,0.9777417344822136,-0.11051544754537485,-0.14716278700794505,0.34059192284478623,-0.7376628265621978,-0.08480887677304966
425,1.1243389388535792,0.7924503756519409,0,0,1.0302508653833014,0.041526280717158914,-0.08214432545044965,-0.06094544088351608,-0.9413971068077198,0.014309295990316197
426,1.2673902711595046,0.8079793132095064,0,0,1.2171055848982748,0.0203334930126966,-0.09670825991316293,-0.2817343291885069,-0.9268829985448673,-0.061948117976844234
427,1.3940692727943318,0.8221815661274665,0,0,1.3117391769957734,-0.042612186056110855,-0.30777931268350683,-0.18358432585228893,-0.6653645997801314,-0.22557080446057126
428,1.495266135061835,0.8351130260516854,0,0,1.2128173921810042,-0.08460893102104729,-0.2879451904111563,-0.33110768266349533,-0.5327600055592576,-0.3593526359263561
429,1.56357674654293,0.8470808320670629,0,0,1.253449419984787,-0.2956956291896011,0.17852598521491736,-0.7148513477495011,-0.7381956404317751,-0.37785742718674964
430,1.59394074989128,0.8583784329698078,0,0,1.6297628720642057,-0.270784893152752,0.5328993679475352,-0.4907957724741296,-0.7457581845189188,-0.2796788930080346
431,1.5841810649317174,0.8690206045956868,0,0,2.177277371178885,-0.08629786599946869,0.832097161973869,-0.10083205990464372,0.3756933189640261,-0.031091829612416515
432,1.5353213126259604,0.8785468157346504,0,0,2.1488254583386897,0.21972555148996692,0.5801260983193427,0.4092196579402175,0.5923302203513078,0.2948198044946958
433,1.4515576985094019,0.885960968537528,0,0,0.8444713136834925,0.22058743475066536,0.4128205715088757,-0.46928585397947825,0.417844148716038,0.39065546016819647
434,1.3398408260807562,0.8898490944619548,0,0,0.5945698717748981,-0.3745429574065124,0.38868409885183447,-0.9702873423217988,-0.16863979218822925,0.4308582571066498
435,1.2091495547823619,0.8886616488987248,0,0,0.9080949820612451,-0.6145679205403078,0.24952472983926308,-0.7655881138626224,-0.690467141872734,0.19380895612819746
436,1.069626101141811,0.8810910715472623,0,0,0.9559064217072049,-0.41520611874524854,0.07613242481383357,0.4139464168123398,-0.15482477168119185,-0.22169338477757408
437,0.9317320107143996,0.8664469205533224,0,0,1.0087505617454942,0.0009649841482658079,0.20533269445669372,0.9425536901579645,0.7925847966166752,-0.5000624783728026
438,0.8055082473396046,0.8449317228786406,0,0,0.9009048617569122,0.129176366994418,0.16118291309882712,0.8415938624914537,0.841592001607477,-0.40549521189762083
439,0.6999508725896283,0.8177399000729053,0,0,0.6419761943263345,0.2259301479347946,0.15334657111351524,0.7131420046684832,0.6188304842035057,-0.15327620098016553
440,0.6224857979706365,0.786943916014087,0,0,0.5177541921260043,0.17604135495486817,0.13483961357333843,0.1614304602180107,0.07838293530254777,0.1258768207876745
441,0.5785337963309118,0.7551997761741039,0,0,0.5093000936553037,0.2010820731759575,0.059579717098144996,-0.4056746010263237,-0.07175616672711209,0.320004442594485
442,0.571174375698127,0.7253664848176704,0,0,0.6053568378418402,0.162132369395282,0.08896866166774539,-0.8595116604215777,-0.13422940672510897,0.30591440387399654
443,0.600926563380694,0.7001447590019015,0,0,0.632669417553506,0.11813486182136565,0.028274422667814915,-0.6965029947891667,0.09049856383507975,0.15469228386950862
444,0.6656651400256777,0.6817972486226354,0,0,0.606720747445429,0.07569750216631224,-0.08367442522464613,-0.6497201746977886,0.038463149993273604,-0.03173246899239314
445,0.7606906537484642,0.671961242806461,0,0,0.6282898596465566,-0.024745959182127516,-0.07195164527696164,-0.5621933959089009,-0.10767201033958344,-0.2228551208777594
446,0.8789734813046876,0.6715403684959311,0,0,0.7253303413704096,-0.0356473477442458,-0.021822452456081252,-0.25473489447749587,-0.4847874483984964,-0.3134807195033602
447,1.011588169533992,0.6806582732973426,0,0,0.9838799141396172,-0.05805237967223429,-0.08169586929373504,-0.2787396059177794,-0.8063225962570245,-0.27078865601891805
448,1.148334895025216,0.6986563411014589,0,0,1.2011544164607375,-0.15322243653585335,-0.13049538052013412,-0.20922920431904998,-0.7384490146695651,-0.1506603561350095
449,1.2785125172185803,0.7241186332947939,0,0,1.3900395179373448,-0.19223325034667718,-0.22813592745457806,-0.06015404377439984,-0.8261012017500315,-0.005068411035195699
450,1.3917779524114688,0.754921775852114,0,0,1.3479968106240443,-0.21997865387899723,-0.19238794312681173,-0.03522278679674766,-0.3873318641761361,0.16785557516111924
451,1.4790150775765394,0.7883345558664302,0,0,1.1372554796697607,-0.09593815150330544,-0.1303506842830016,0.08281927767576037,-0.22023051848578729,0.2792206913455477
452,1.5331416976068524,0.8212080982945918,0,0,1.179803095646694,0.11057257759925168,0.4828745720396993,-0.03298760009359359,-0.5786848313990939,0.1836347423597071
453,1.5497841713727183,0.8502737972642922,0,0,1.9616714992080155,-0.009171015797873038,0.9797589455488555,0.5607362299727952,-1.754522557082131,-0.20741084872892954
454,1.5277302604961553,0.8725045035692581,0,0,2.344973577333068,-0.27337885573199283,0.1724497812279853,0.11160772718441869,0.12121117644448941,-0.6674302005818349
455,1.4690548916989592,0.8854428625269961,0,0,1.0834009301025012,-0.3033662763050562,0.3350726877349956,0.07172404946035361,1.0994821304719016,-0.3564411149401462
456,1.3788511518269806,0.8874112352076573,0,0,0.9316658469154079,0.18604828474056498,0.490772534313458,0.2836203291658806,-0.5650649595786011,-0.2872762615178169
457,1.2646001483717824,0.877586296209764,0,0,1.121359620455125,0.22840497131249107,0.25549569212645334,0.2218150980081127,-0.17556007774428037,-0.29599042677118903
458,1.1353167726594613,0.8559906149972856,0,0,0.9719428412382403,0.2570948719988778,0.20626213732557394,-0.27568733361010156,0.588675118826123,-0.13499847539489274
459,1.0006453359473289,0.8234704442790985,0,0,0.8209551474776937,0.07525308976424143,0.22348617973854104,-0.7387526223293874,0.9929745903040909,-0.005015226422164571
460,0.8700453649885403,0.7816872723277003,0,0,0.8209790529350663,-0.07146222966899471,0.16033210100953968,-0.5798898000200605,0.6954161497498708,0.09610818300204907
461,0.7521462697762541,0.7330906542813629,0,0,0.7242176661836816,-0.23482073844216333,0.10778769929294302,-0.6739201918366029,0.788284014753539,0.0941088433677955
462,0.6542937281242421,0.6808155068835189,0,0,0.6211161886185759,-0.28346208738151796,0.0979832600818156,-0.3961110303683184,0.4593147429402295,-0.013382334562965162
463,0.5822709230188279,0.6284797933010547,0,0,0.5409539969499074,-0.2573104560665934,0.005448545942527522,-0.09072066165626305,0.04245905609655026,-0.161413475651155
464,0.5401561138721646,0.579918859781951,0,0,0.52608978651196,-0.1959568816366174,-0.0024082392194074145,0.28674359294203416,-0.16362874904202568,-0.2459982199225645
465,0.5302728646198435,0.5389287915311227,0,0,0.5243389810035366,-0.20065400549478057,0.04837614306225431,0.4499844975396408,0.11160190251975927,-0.23191734740663061
466,0.5531946981803909,0.5090729438375443,0,0,0.5467477024993479,-0.16833080592813066,-0.03168416364135269,0.7296690397720917,0.012572371849993722,-0.17939176342165747
467,0.6077757435254861,0.49354863319719927,0,0,0.6550189751814037,-0.10093289589562425,-0.13936839323960976,0.5716886037648808,-0.4062819121077898,-0.14165926875374515
468,0.6911904784645235,0.4950611636531052,0,0,0.7693800089130584,-0.06839368184458985,-0.08683036959630389,0.387095414087449,-0.2682896419884896,-0.1253485501922805
469,0.798979766736527,0.5156457937167478,0,0,0.8034589141476308,-0.039435178555818504,-0.1038933840016515,0.3945923563442082,-0.207869359531157,-0.11108855853131433
470,0.9251185637305783,0.5564123448052664,0,0,0.8751541010694138,-0.013548419104754364,-0.12705263008259832,0.2463264269878417,-0.6579767395195865,-0.0719757517237503
471,1.0621414462554484,0.6172327216165447,0,0,0.9851176581988068,0.061454811280372695,-0.09975529736043627,0.14854906030259846,-0.6327455726142153,-0.03925020934459169
472,1.2013789043431788,0.6964260559799841,0,0,1.0091124477236249,0.17135960823316457,-0.16227991520313725,0.1869370574797039,-0.6271324964331214,-0.09302238658338957
473,1.3333610210023428,0.7905183978713837,0,0,1.1289715898039268,0.1627258290412536,-0.34344224077622687,0.17625348942723076,-0.5855816146861025,-0.09850861782821158
474,1.4484289376267074,0.8941681245637526,0,0,1.022848286160651,0.11531849494181512,-0.2494799763328935,-0.1856405584437396,-0.24153440191125508,-0.12107405739843083
475,1.5375546688778141,1.0003453145834675,0,0,1.2125038601596645,-0.14993859027275205,0.2299998091298929,-0.5758843947040774,-1.1445035346987513,-0.07732224177374428
476,1.5933042021857196,1.1008178908912343,0,0,1.6137776010616773,-0.1393958524029369,0.816364640364743,-0.3872441524114709,-0.8184884695977108,-0.020083014305420067
477,1.6107936159491358,1.1869312544782484,0,0,2.61492850831033,-0.20829794145779512,0.8793187165546652,0.11171718769801313,0.24564179334683037,0.6649515654227224
478,1.5884166069872467,1.2505930948003894,0,0,2.2713763036635277,0.6690589679787254,0.36281362543241086,-0.1317717815737562,1.1351928065844545,1.1415263422095314
479,1.5281264287232,1.2853097432074412,0,0,0.5753519785926309,0.14266575243121749,0.4758641712238091,-1.9337260510113579,0.47484628883442626,0.7150326007040584
480,1.43517394960113,1.2870778545546726,0,0,1.0126092363600168,-0.6100509187087751,0.1821789063676549,-1.3353837998011882,-0.2528847014341416,0.6155775930596434
481,1.3173847181072489,1.2549433239218546,0,0,0.9526999202956532,-0.5387995293099139,0.04181037330115583,-0.6199761324701523,-0.9306135620023258,0.1291075772437181
482,1.184186130529806,1.1911204889254647,0,0,1.08868123667157,-0.2618707785005652,0.05341982441114744,0.6255508620777436,0.4549479369250034,-0.10330675575554225
483,1.0456049040324424,1.100685796255199,0,0,1.0543742012342658,0.1104127924588236,0.18362382763543295,0.5189447547157411,1.3858173970936434,-0.014791157103299304
484,0.9113820117722492,0.9909500959049047,0,0,0.8831257513082692,0.07189601282774048,0.08975567609253791,0.571889216543286,0.6856691947274064,0.17226700049350152
485,0.790272015222337,0.8706399398479674,0,0,0.7064596677662421,0.05242091511765177,0.12194855164466037,0.4641174180290326,0.4963416717889583,0.27713340702382083
486,0.6895440196137717,0.7490082379125571,0,0,0.681793000434915,0.05269754803762724,0.05234801717511469,0.054513391812742576,0.18552446848148546,0.37898558354780437
487,0.6146777199204725,0.6349796674631758,0,0,0.5667516080147892,0.07391559397535134,0.06075692843218174,-0.5670965350600381,0.06916149406988953,0.4122317818646981
488,0.5692340589452943,0.5364140099247486,0,0,0.5832516023657371,-0.0021146295428191926,0.010691669979885472,-0.7125656757964081,-0.3015497204595477,0.3132939950097136
489,0.5548674265059305,0.4595343114627503,0,0,0.6276367561240195,-0.015319079811337847,-0.061890794993354016,-0.34560142179531494,-0.34225820956643976,0.11562978077837774
490,0.5714361682533307,0.4085358876228641,0,0,0.6709938928411081,-0.01795094701910881,-0.04614835968400075,-0.1609333193009532,-0.1059467970412094,-0.049867286388633913
491,0.6171657449204325,0.3853896184094455,0,0,0.6379488261563526,-0.030937469009074438,-0.056346062043990015,-0.07499634406021051,0.0608278633546311,-0.05276342307066403
492,0.6888282441871285,0.38986803199620207,0,0,0.6687403163981286,0.004850588447957696,-0.14186802275384855,-0.0006651056086470643,-0.23313654549168217,0.041570439991562444
493,0.7819215764743845,0.41981934357705075,0,0,0.7723174900421524,0.0047783113219477535,-0.07432538586981337,0.00839126094623186,-0.4046464652540227,0.14019177667163743
494,0.8908536835154357,0.47167348793023106,0,0,0.8581263997897127,-0.02303596320454255,-0.04210905269270063,-0.040108345110861046,-0.41822083193026965,0.2101194273581338
495,1.009152547787715,0.5411020272622348,0,0,0.9547541490951713,-0.15466121426924853,-0.13285155454142505,-0.19449137310609796,-0.8026118209495776,0.2426951406065808
496,1.1297280316493927,0.6237047544185476,0,0,1.0929274369981172,-0.3008982108055825,-0.22168444356734512,-0.15813455395634576,-0.964801698277542,0.3617431273895617
497,1.2452085906534571,0.7155868337379588,0,0,1.1037155800415963,-0.2772907980874186,-0.27662313660226345,0.05764176394981017,-0.5370170178178468,0.481730488165157
498,1.348368021256929,0.8137314805478707,0,0,0.9136296474316963,-0.03460593295677442,-0.2986868802678309,0.6411113962181064,-0.5042420150453667,0.48922118521113556
499,1.4326430246731783,0.9161527057584747,0,0,1.147030423602494,0.24533598012347976,0.35099930101636595,0.314069185290791,-0.2232128434652994,0.294685962263234
500,1.4927118701759396,1.0218952239458188,0,0,1.3556742436924314,-0.04107923939442063,1.0824604606792532,0.11199672020120509,0.1414420581244608,-0.03463735727399505
501,1.525052365797551,1.1309874930255812,0,0,2.184888264970913,-0.42994930959923,0.6001877097836944,0.8323966556096846,-0.8883696381055597,-0.7252745301377117
502,1.528346638748693,1.2444178782555626,0,0,1.850430846988614,-0.8043373131630238,0.13296583256573827,1.3605160881279905,-0.2983405065416544,-0.9671135927235255
503,1.5036015273589147,1.3641104299489206,0,0,0.8176952358544468,-0.24285060648208653,0.45200786894584427,1.7687603133414456,0.5703609394470399,-0.5627429785822735
504,1.4539354221177183,1.492797704563458,0,0,0.9433983120109858,0.2879418994789946,0.3462174150000322,1.4420962252415872,-0.41562093962208635,-0.5842322496077094
505,1.3841027929708307,1.6336952336534252,0,0,1.4336404064607198,0.15279865165711828,0.2736469779953795,1.1760454926295645,0.03868422409909637,-0.29701900291581806
506,1.2999015380923,1.7899751372724064,0,0,1.2756263630045694,-0.11694959816730725,0.2787803665863447,1.1135873566637355,1.2208015989301568,-0.031039876807670272
507,1.2075961269801967,1.9641417634916192,0,0,1.0858661048676637,-0.36581338737858754,0.11029026329409451,1.66987416032074,0.533245688433895,-0.026397547652352773
508,1.1134300689669923,2.157457158959273,0,0,0.990501550146697,-0.4467379169892078,0.23589120631968438,1.9879130600438728,0.8295890175368122,-0.16341864908789877
509,1.0232514157440533,2.369535566773071,0,0,0.8384735347391669,-0.4342470632200392,0.20566393110331577,2.3432554466354136,0.3033031421706213,-0.2153548280851425
510,0.9422512780634633,2.598162309285654,0,0,0.7962031129604158,-0.34703823402766504,0.13075897138809006,2.6626431388256,-0.07116001729853569,-0.2051762181488693
511,0.8748031689367844,2.839336438642157,0,0,0.8482198730510282,-0.371331328626315,0.09080721976543643,2.772199909848333,0.2994858460520542,-0.06397052378080198
512,0.8243784361894331,3.0875068701275437,0,0,0.8202180416638846,-0.36652624962558206,-0.002278908272435114,3.0389859732150866,0.2313813977850821,0.16859754686471246
513,0.7935011326899729,3.3359635419324953,0,0,0.8458214089721794,-0.31016926615689294,-0.09012578320907039,3.2887837729408305,0.2303186770751747,0.3257591639342555
514,0.7837021487564304,3.5773444279927524,0,0,0.7969887195208591,-0.22331840216522666,-0.12012368920253119,3.5484088919619237,0.4077491046285742,0.38921863035698095
515,0.79544359396807,3.804215685253299,0,0,0.779562842267667,-0.15400819200403013,-0.16834875683169942,3.7573687837753984,0.26537975845886824,0.3548685875256932
516,0.828008807733614,4.009674915717199,0,0,0.7833951355003852,-0.0766937358635043,-0.21718565525640177,4.046147981522828,0.13422224562036703,0.2826993246003909
517,0.8793818857197706,4.187921186159869,0,0,0.8194244903291921,0.014419475916719795,-0.20095105963904508,4.286933258045775,0.10246164064339625,0.20589504216248228
518,0.9461628298870449,4.334734773880171,0,0,0.8699669875336334,-0.01482513293916886,-0.10637969900434982,4.41301614308253,0.28669547183780664,0.21890080414755708
519,1.0235743524556888,4.447818095126283,0,0,0.963065875873368,-0.07905614114512971,-0.07322937268043757,4.426720434255127,0.1874747424736396,0.32287322609597835
520,1.1056131441270436,4.526968159573781,0,0,1.0261424570210422,-0.26513403221323195,-0.05124145658400902,4.333575199032477,0.43331342363980907,0.6072450260751809
521,1.1853844215194118,4.574074429067748,0,0,1.0600870235958304,-0.29620202307299764,-0.13796448013533405,4.2534456207528315,0.3833653039129589,0.951628766290479
522,1.255637236629153,4.592950184602561,0,0,0.9481120655628194,-0.14481293624167077,-0.2588435686832987,4.448351430930272,0.5755987589160124,1.0989421647849436
523,1.3094902210602515,4.588998456081582,0,0,0.9167618801063777,0.21800475192331914,-0.1472074114033182,4.914005375688314,0.429464667144822,1.0650872140206222
524,1.3412971294884468,4.568692259931907,0,0,1.1247643655373387,0.45240283378007806,0.09289184600630007,4.944076611471473,0.3685008233302222,1.0116879523206894
525,1.3475404590629607,4.538845268180135,0,0,1.9976549424889478,0.6301999121278606,0.04965817475076585,4.685765207716599,0.03890386438713301,1.0164053555774795
526,1.3275695238292249,4.505698292342331,0,0,2.109884999285634,0.3631627141915082,0.10584558146982181,3.586545568370409,1.4646324306545515,1.4117481654296677
527,1.2839614144265876,4.4739480253669015,0,0,1.302414726649532,0.1725814911634895,0.18407431698290408,3.212561470681425,1.080680049042995,1.3916220127326453
528,1.222333138043732,4.445941877734617,0,0,1.270417596762642,-0.09522841646248024,-0.21762645010305254,3.7088699820155995,0.07508605267738573,1.0203290624139236
529,1.1505743959154517,4.421279114180975,0,0,0.9837077424075064,0.10688361680585097,-0.2468353954039126,4.3252746724895905,0.04158586063005798,0.7741753840119807
530,1.0776377835459834,4.396958207214213,0,0,0.7338495728364878,0.28125332757530647,-0.252938090759377,4.459788520280989,0.3629711356919229,0.6697100338001176
531,1.0121391982525243,4.368036148974269,0,0,0.5496873455500288,0.3052233790857119,-0.1970180112690305,4.694337732405448,0.9741495981003682,0.7204427556535637
532,0.9610537699099516,4.32860910644448,0,0,0.6150150791613453,0.28375327187083393,-0.24001635898774595,4.565707346401927,0.7057075100140897,0.8026833291593849
533,0.928752527689958,4.272858360203646,0,0,0.6921051178179757,0.30008354815175503,-0.09227006300910161,4.260793987619028,0.4234102680254104,0.9297985190136638
534,0.916537497310775,4.195943243199719,0,0,0.7363379348658651,0.2300188216093034,-0.0054027809418063025,3.9402203837880005,0.3862570694871653,1.0849916754931732
535,0.9227251580894418,4.094622512183546,0,0,0.7921546426763333,0.2379450746944321,-0.05135046697013381,3.8897199192498713,0.2362620069549235,1.1619996616991106
536,0.9432247416057229,3.967587368447225,0,0,0.9568315086548796,0.2945858761480951,0.01883405246184205,3.6536508992051253,0.10831229533596565,1.1040336101858288
537,0.9724744514979883,3.8155508388252195,0,0,1.0893500108153706,0.30243117987507073,0.04473745809752112,3.5915633862949226,0.07653865612136818,0.9677654714458991
538,1.004543353468403,3.6411511286432305,0,0,1.242009798071959,0.3423056829243226,-0.07682373288098385,3.6133652101227276,0.02105177629180833,0.9023962047690544
539,1.0341865495996911,3.4487074881226065,0,0,1.2092835386335439,0.4183854033834958,-0.0859913399174784,3.4256724235526805,0.5111068666285828,0.9025679638600463
540,1.0576626066470658,3.2438405847076384,0,0,1.0789772026417919,0.5022769679972455,-0.042650529285158605,3.2441633371518237,0.4964729424816754,0.8555298454151647
541,1.0731827885206502,3.03295747694856,0,0,1.03451001429264,0.5336693565013909,0.0004355348462130662,2.993748258685539,0.6678464523785225,0.8005718204576368
542,1.0809458374963623,2.822616270202126,0,0,0.9620360117067176,0.47910961147723824,0.06265785275131561,2.6684633290839934,0.42441224050098103,0.7924077037959598
543,1.0827964643225632,2.618823813430714,0,0,0.9349721628101694,0.4267979237097421,0.058690459116165244,2.3412867205156793,0.1801972517124062,0.776126931182919
544,1.081610653604676,2.426363892980298,0,0,0.9416544059189728,0.347811955358025,0.0873212816899505,2.0281765560153873,0.1111006807752881,0.779305462206607
545,1.0805473276612985,2.2482803712580797,0,0,0.9345426393957038,0.24088396831386275,0.07104048325032956,1.8354175614678072,0.01824480668523953,0.8139912628773024
546,1.0823141219930354,2.0856313207169292,0,0,0.9239271584606679,0.17385890626462996,0.02258305005239733,1.7441291550686977,0.08371042761201009,0.826429589076591
547,1.0885797268865414,1.9375820089386642,0,0,0.907600368643297,0.16087741018552157,0.04397766259736279,1.694476648458827,0.20984684359676134,0.7958191072164088
548,1.0996316065825988,1.8018294360836984,0,0,0.9390185555969028,0.15946789316290386,0.12664300785746702,1.6543746765668768,0.08071432757526877,0.6999754467227115
549,1.1143301440609465,1.6752724433101958,0,0,1.0332828394196358,0.17626048651460832,0.11167730785792848,1.7280001592353307,-0.06557417255750925,0.5613236979977888
550,1.1303534754602305,1.5547815715183926,0,0,1.1268143524185903,0.2004102211106646,0.1429644053654566,1.7527925539048703,0.11081367960293129,0.4887999893467941
551,1.1446702771908097,1.437896634500617,0,0,1.2198273274855929,0.250648927581789,0.23135564081667884,1.742694453475966,0.07738607241197874,0.4803383193148795
552,1.1541329725373164,1.3232955577079202,0,0,1.2758328669691965,0.2321288240257642,0.1540406632754012,1.3990505418089028,-0.04709169629375341,0.4870902911486105
553,1.1560631023209411,1.2109368524741726,0,0,1.263606864636015,0.24849613248438107,0.13312745038879936,1.1175352134399585,0.010528805433292581,0.5534457361064906
554,1.14870975756356,1.101868446999868,0,0,1.2381915910686443,0.3072194299584801,0.21310036457596698,0.7936950823809927,-0.011470240561792546,0.611371447785494
555,1.131498004809374,0.9977898646653858,0,0,1.174479729465919,0.4123348175410051,0.28955543742740714,0.43725774858414534,-0.07008922426296664,0.5549331170076918
556,1.1050377017924462,0.9005198777303444,0,0,1.018414239747411,0.3504244325104974,0.3543457915769489,-0.19218102777093027,-0.21734436617251418,0.4687062695378209
557,1.0709227043301703,0.8115350472623103,0,0,0.8126237332577667,0.2176682926586089,0.28051476793963664,-0.45420894345773094,-0.42556770267622424,0.35806226102703004
558,1.0314037582167268,0.7317026365278737,0,0,0.6952274548508897,0.1548972380487278,0.2295028078379179,-0.6417756626829955,-0.25292680922280597,0.2952250805538087
559,0.9890490311487348,0.6612524582425607,0,0,0.6574423308760644,0.005942662645315737,0.26390045185852495,-0.7084005475903646,-0.1350438849701412,0.25994959382148225
560,0.9464975029030512,0.599950428454045,0,0,0.8681873199530686,-0.1358803029657777,0.25523994992093246,-0.6211956808951062,-0.30146901441909113,0.2793980830615749
561,0.906358463219695,0.5473845160515308,0,0,1.0631204996735175,-0.2265195168392957,0.2126935582389409,-0.44783312239989453,-0.2376621239414275,0.3523760999923664
562,0.8712353461780338,0.5032638889155973,0,0,1.043486880881666,-0.22326126421664086,0.11874850416748664,-0.22362662496434457,-0.12384082484194862,0.3826956373487103
563,0.8437913582038062,0.467653968454664,0,0,0.922783604467087,-0.19220793110040849,0.19954854899400995,-0.1546856583225135,0.24091219846043246,0.42681387550453803
564,0.8267579490275834,0.4411026638727348,0,0,0.8185657070894939,-0.1751105866820438,0.1825469951749781,-0.11586949898582069,0.03778194747051785,0.4386588960714011
565,0.8228169458931485,0.42463941184252196,0,0,0.8151294407129928,-0.22520347228947035,0.0895631274040936,-0.055327712494288535,-0.18218037281023944,0.3886193788395012
566,0.8343394602789254,0.4196442697416958,0,0,0.8297613195358118,-0.20557436190057665,0.06714693234642245,0.2153409590010567,-0.1196176867129885,0.37347363510836123
567,0.8630127460395461,0.4275937890557698,0,0,0.8120722796749179,-0.09852828345100989,0.06870064935802088,0.37629352179811226,-0.09786229642738105,0.3674200783591865
568,0.9094175179393335,0.4496997008312922,0,0,0.8696758188554876,-0.0523328809386354,0.0006249778565798197,0.4105764043212387,-0.194818848976123,0.36366827728976137
569,0.9726333204031757,0.48647067113284737,0,0,0.9750680404826496,0.030693896644716608,-0.07844791776052719,0.48525937058168667,-0.03373427535859947,0.3466098501200822
570,1.0499525985152607,0.5372513322800675,0,0,1.002438911452739,0.03489903099498446,-0.1185411048865899,0.3188364639735368,-0.057408036885747256,0.33937624265626226
571,1.1367789136678226,0.5998263165363302,0,0,0.9670317917659282,-0.012248743857227795,-0.09993457819936569,0.14233908309279317,0.065113124356986,0.2450562897989497
572,1.2267734570424331,0.6702077475896202,0,0,1.0009330093755717,-0.059465006428631784,-0.15129488342436415,-0.16534280111407895,-0.1652332878643445,-0.020041504829115195
573,1.3122937788892293,0.742728360765775,0,0,0.9735179974019892,-0.15763139900177464,-0.13584090449924707,-0.06428779939637048,-0.18305273454458396,-0.3577255824333934
574,1.385130253694275,0.81051686356712,0,0,1.005283518647035,-0.13234320646960934,-0.17122676371572437,0.31260526535642197,-0.688414285926771,-0.6310876851994777
575,1.4374804070351879,0.8663380339451907,0,0,1.4522483349354978,-0.3554792989989836,0.8310790970473786,-0.1800733996610296,-0.3292119004914758,-0.6731472092365847
576,1.463014062295835,0.9036694092254275,0,0,2.412863911451724,-0.39685259661305905,0.5639151979160305,1.1459253962996132,0.08054428570723332,-0.25808645188563806
577,1.4578077270041647,0.9178032696174053,0,0,1.6993956214324664,0.8416530876214694,0.2998468473847144,0.9228963524197451,0.7252080648743635,-0.29568177897781495
578,1.42092288356116,0.9067344248413254,0,0,0.5317265191419872,0.4806465157503542,0.7224627118780775,-1.0705693668049605,-0.977550781988518,-0.4489924341314372
579,1.3545021180358265,0.871626816705548,0,0,1.143096250298768,-0.28444169515162027,0.42544531243194716,-0.7810335807986449,-0.8162018696538537,0.032903789581817104
580,1.2634137825527796,0.8167414161533002,0,0,0.9614603542270979,-0.3638465590215714,0.34077975632691515,-0.28953009716672146,-0.6431636006944816,0.12189128267343025
581,1.15459586189298,0.7488379962107015,0,0,0.9780365912029736,-0.2855023058441485,0.15365865576471877,0.046965642937249745,-0.013045964137227225,-0.09967204056568753
582,1.0362792639727962,0.6761914257893387,0,0,0.7770279539759519,-0.13086405340049942,0.35878297242219565,0.13060589241949747,0.898309376398031,-0.23225515529046423
583,0.9172303409149004,0.607435123257909,0,0,0.8968527763590264,-0.10392014992764945,0.311643026560782,0.2771307977941264,-0.35427876168284617,-0.20856604588023192
584,0.806088987744842,0.5504402087415662,0,0,0.8922935832296462,0.04088131784003692,0.2675360079618425,0.348329297329945,0.13194001597721505,-0.12369683581175232
585,0.7108227563944877,0.5113898020196025,0,0,0.6897945502505048,0.1160904635175035,0.1705785611909918,-0.0793595019775194,0.16020259597856804,0.049335054984590024
586,0.6382833273671489,0.49415377237925817,0,0,0.5990693814099781,0.12429896086434963,0.10612634366864777,-0.4464020396270688,-0.19182201513168773,0.16483453186307778
587,0.5938434203431611,0.5000178772605846,0,0,0.5887080630128717,0.11366180958207228,0.08865627513408884,-0.5161841045235142,-0.3637710646771591,0.12719872991358122
588,0.5811013467032496,0.5277652787866541,0,0,0.6025723152792567,0.1431643044051262,0.15080213545229537,-0.3875994386361615,0.0987706104663148,-0.020094806706344726
589,0.6016528858371291,0.5740570357672653,0,0,0.5787976550085764,0.15879233611466237,0.06634286121798415,-0.5024763156112789,0.05387544903116405,-0.1469173193820979
590,0.6549393168697524,0.6340270576455881,0,0,0.6076320209978858,0.12155152105358186,0.02116990963023511,-0.6627259460391561,-0.28947389355775405,-0.19038340364929385
591,0.7381876296703346,0.7019949551735725,0,0,0.7062618555337964,0.059112863191237756,0.03020395677319478,-0.6465027981601943,-0.31337563138647717,-0.15527775683844225
592,0.8464645853303928,0.772196237188181,0,0,0.8065646725171858,-0.022426727473499206,0.017662389887731868,-0.5971827936569287,-0.5123407749239692,-0.12400793981077113
593,0.9728669965750215,0.8394311036870381,0,0,0.9163105872142339,-0.08964120957138055,-0.10853087501623655,-0.41042596824405053,-0.8805474143084816,-0.15427262162317232
594,1.108864021679229,0.8995450857707803,0,0,1.0755346895870141,-0.07314538916543446,-0.23783503126650238,-0.19568735948424407,-1.102950647016427,-0.29331037299090207
595,1.2447950293505157,0.9496796058302394,0,0,1.2068912174455602,-0.1553916757228467,-0.24974848318552453,-0.0028314279257220785,-1.123601393703583,-0.2958838086057919
596,1.3705124848365398,0.9882711408445071,0,0,1.2850176469431045,-0.18258606802654564,-0.2595370544551411,0.01195449754246556,-0.9029935094007114,-0.05424208119187961
597,1.4761461716650492,1.0148344530580693,0,0,1.1641982009064138,-0.11731625761295485,-0.2844743225568668,0.10742619780515875,-0.28882365747847244,0.26129160586562283
598,1.5529504478391127,1.0296211029794549,0,0,1.116001379235178,0.10736877728871476,0.13249064814215547,-0.09786047333305707,-0.8365197354458032,0.41753654160110304
599,1.5941695566963712,1.033264964689024,0,0,1.8422023482309984,-0.06460161096330982,0.9958057674785168,0.5231184428300611,-1.5369371470639235,0.1811353077635687
600,1.595810312919718,1.02649534378538,0,0,2.516499583819172,-0.3530813748808059,0.5429412387089658,0.612060558267307,-0.251676419716402,-0.33560253627984243
601,1.5571701500929986,1.00994617059621,0,0,1.4016674979078114,-0.48697787164417966,0.22861062491264164,0.41309608189675306,0.9071783425661376,-0.3233804149509174
602,1.480984214509583,0.9840631246770281,0,0,0.7512051433691107,0.10036115521164674,0.6524428856884978,0.5841057122970347,-0.35140627566223315,-0.18936610684088406
603,1.3731498665089923,0.9491149906405607,0,0,1.2327071668213394,0.27207767160805807,0.294309622124916,0.5635659170740156,-0.9193880363047136,-0.2845289977649066
604,1.2421046199840158,0.9053181859697776,0,0,1.343916829669628,0.40614432384776833,0.11212279286366511,0.36132352762083747,0.2714818423239095,-0.1342322737902075
605,1.0979945116703573,0.8530631863818428,0,0,0.9618059518137556,0.19946108772196147,0.2496413802887629,-0.6832494301515427,1.2443003623659952,-0.052470674405393186
606,0.9517601543514842,0.7931982164680392,0,0,0.8315449525605734,0.017530332274951998,0.21220822449973287,-0.09468803529276881,0.5492718574295538,-0.02766059603341816
607,0.8142340641015483,0.727299941916162,0,0,0.7701521408514286,-0.023208345065010714,0.06676652525690265,-0.24138392572535577,0.8326035527635667,0.027888904054631018
608,0.6953195762495358,0.6578567918818781,0,0,0.6433045669724569,-0.09640940589846249,0.16496614408134966,-0.2372145115492442,0.7549541480359764,-0.005934879039861491
609,0.6033054466321283,0.5883078040928924,0,0,0.5579218889880471,-0.11427450906912603,0.10959826063959863,-0.4884825987814103,0.5071765471971024,-0.08275934887388735
610,0.5443510857802012,0.5229092198361145,0,0,0.46289516609846343,-0.1433682258889828,0.02253174131877775,-0.44348258028583026,0.13270305015007502,-0.14099007340729938
611,0.5221568564672253,0.46643560852491794,0,0,0.4854385726185717,-0.14729592583492981,0.016101355964104468,-0.33348317668827493,-0.1809972608116801,-0.15150078844614048
612,0.5378160847590032,0.4237569696087465,0,0,0.5715106260676615,-0.13842132748885308,0.042203148389646346,-0.10598042789317144,0.21672107149865763,-0.14391085536793224
613,0.5898309752102149,0.399356975808471,0,0,0.6173156577717721,-0.05728246269831183,-0.0653605993416892,0.13791312177208184,-0.21221840128237685,-0.2255044062768617
614,0.6742648884170751,0.3968594622753403,0,0,0.7633163770459072,-0.06308925164389972,-0.13717536643528988,0.013522345569358909,-0.49723844167964837,-0.2879347741289202
615,0.7850024981096382,0.4186128764163046,0,0,0.7976610133479483,-0.11210331978917337,-0.07660595179930903,0.12000892811736971,-0.31018182751382256,-0.2493714633038501
616,0.9140995922442533,0.46536173987811547,0,0,0.8275897488866487,-0.11352306064445476,-0.12033204181328075,0.11584897816560492,-0.3011804654417324,-0.10021014497177491
617,1.0522220574203396,0.5360250891068864,0,0,0.909655759563158,-0.08172020144055069,-0.0987918536356723,-0.030099020976854116,-0.5296284776381186,0.040734287447838045
618,1.1891888384600315,0.6276037278528572,0,0,1.142758958886576,-0.06061681284902755,-0.08230944608524264,-0.15279392961416813,-0.8638866264611876,0.13236226812491034
619,1.314634909654641,0.7352402032911219,0,0,1.1553449357671077,-0.014108581088947688,-0.2565811780844636,-0.08059519403326867,-0.16949096520140491,0.12747852346496144
620,1.4187921170762046,0.8524520251043939,0,0,1.0721200013909165,-0.05614246791421419,-0.14875285920649875,-0.3683190851578303,-0.5563803633204876,0.05405017619108189
621,1.4933495284683438,0.9715463922359721,0,0,1.2354003732899552,-0.02322635501679785,0.2821694502138423,-0.44055256416520105,-1.1994848832129088,-0.030890761218711146
622,1.532302680773837,1.084195553176496,0,0,2.1950764366019753,-0.020946203471848987,0.8090395079927154,-0.021333454633014053,-1.0691207904636602,0.04225949464336312
623,1.5326426682783925,1.1821103325859263,0,0,2.607307908573849,0.15402434241939653,0.22452974746117293,0.742859348930293,1.0700347630776925,0.5591878515286125
624,1.494710087542973,1.257722514799594,0,0,1.0489961311420017,0.2977575410180363,0.34664691036116824,-0.19121861654627428,1.367324221400631,0.46139115010535836
625,1.4220979673928487,1.304798069247514,0,0,0.7869111352722011,-0.32770117424502276,0.43122088668261804,-1.03567203827851,-0.6951073713259743,0.3633512511034214
626,1.3211291860068586,1.318947700142935,0,0,1.0098482377145754,-0.4951239892930601,0.14654117854333387,-0.6116015135512327,-0.32682293047956473,0.29285670195294944
627,1.2000703852487966,1.2980507268538062,0,0,0.8878638533058103,-0.3572907599519171,0.013290984142422154,0.590970257869706,-0.5848183443230267,0.03605100680406057
628,1.0682857199683018,1.242624343037131,0,0,1.0525286854665774,-0.0422489924861754,0.07450713801338352,1.3148040110584502,0.35130150686533285,-0.1227856374002857
629,0.9354761898476028,1.1561254521741429,0,0,1.0332219730574832,0.05353228281042389,0.1514648617830382,1.2907505672285626,1.3284302801719525,-0.16795653321642603
630,0.8110582503020245,1.045085924109259,0,0,0.8910285176666455,0.07333099621345858,0.13044430644494787,1.0501940361399476,0.8074515168480971,-0.0617590923405981
631,0.70366688373153,0.9189236065327328,0,0,0.7397486898487646,0.11204156177650079,0.07253176223605638,0.9663282144617652,0.8904125573850877,0.11535293890391791
632,0.6207425997324232,0.789302016297463,0,0,0.5429399721921504,0.22328895073033278,0.10957779726009553,0.5155815329949381,0.655739778278359,0.269054045204115
633,0.5681699063521417,0.6690272199090015,0,0,0.530303077229757,0.22757606229534755,0.05010274575330903,-0.053126212208166275,-0.04063964804275953,0.32274923509426706
634,0.5499563760278631,0.570611110407036,0,0,0.5343400999172372,0.20362472297388376,0.029325362550040188,-0.26640396936214567,-0.07207726507839105,0.3155831885105991
635,0.5679598006215584,0.5047318181939819,0,0,0.5563161122299028,0.19486163308169713,0.01740914178098293,-0.11598484569017936,0.09627328276287848,0.21335549341298002
636,0.621681368924533,0.4788512449964721,0,0,0.6274792802388007,0.15100996551743864,-0.06211103183895638,-0.10116825123916401,-0.19068699905557313,0.04870954505645456
637,0.7081493635282977,0.49621096294504996,0,0,0.7001703577155728,0.04908935303192195,-0.11153643222153375,-0.23477460800765382,-0.41048515189935075,-0.05368123004751859
638,0.8219248316727339,0.5553491382361003,0,0,0.7738381027195733,-0.023638193309771127,-0.11655058440942696,-0.06614790134378351,-0.42481842416059173,0.03191688545820018
639,0.9552678484334046,0.6501933372506838,0,0,0.8202230999906988,0.0016783779593051863,-0.10836076253555588,0.015715073872922636,-0.452120181166183,0.19167229128595462
640,1.0985059723687496,0.7707064601444745,0,0,0.9717806972733445,-0.06804299756385104,-0.1557854947517633,0.07637181202557856,-0.8964133073720916,0.22103126010344507
641,1.2406388538648228,0.9040024335724873,0,0,1.051642143620244,-0.14699458869675014,-0.13860848983735324,-0.13387882648803212,-0.6054066758006393,0.3428170078300527
642,1.3701889171857604,1.0358034503876925,0,0,0.9554879222167834,-0.028669680656877656,-0.09623422023616236,-0.08674959064609093,-0.5118879875442833,0.4786352661828609
643,1.476263234836442,1.1520748953223727,0,0,0.982456346181194,0.11609227465975747,0.37096898273172163,-0.4814490590368667,-0.9439767301307977,0.480528263854019
644,1.5497222435054305,1.2406378272127496,0,0,2.031160648380385,-0.024811806689759866,1.0930083569389641,0.24533664322900445,-2.524267215135105,-0.13309182424846655
645,1.5842648515404907,1.292526878649987,0,0,3.0966774836047377,-0.4921103639357467,0.319692770419268,0.2526690004842496,0.2252561349621962,-1.1658017285106543
646,1.5771828608474223,1.3028717396265723,0,0,1.2837714015173785,-0.40484286244557116,0.43905685070082645,0.6174245111335612,1.5895209358945233,-0.7295292665831807
647,1.5295836596094208,1.2711721206354993,0,0,0.6741696061934421,0.3679903621502352,0.42051898599869186,0.4479164562498511,-0.417541999202733,-0.2732624593068828
648,1.446045558900014,1.2009886322144685,0,0,1.1593815653198916,0.2945458949114257,0.048144361730918364,0.2659061668565903,-0.9784481738298992,0.020317947349884784
649,1.3338586618438284,1.0992070084492158,0,0,1.199803292540302,0.346571081432808,0.13025482833328847,-0.5968229390796711,0.46287498507445285,0.0786932271790554
650,1.2020910555219073,0.9750841711350966,0,0,1.0323695319277677,-0.022199721203147015,0.22396341706633058,-0.6772013955228376,1.133251291622292,-0.04043478947146889
651,1.060680634958054,0.839249030180469,0,0,1.0974971477479152,-0.19987673660415062,0.05450991685556055,-0.31800261330387974,0.6066737500602328,-0.02855926259311483
652,0.9196594468848136,0.7027588886011976,0,0,0.8254569904977875,-0.3472649446645136,0.14106755674389,-0.41730096783373555,0.6781521234035022,-0.058201825103548536
653,0.7885401165518098,0.5762577770383845,0,0,0.7596378156728586,-0.2827484052642709,0.07678766181209352,-0.18659669739373513,0.25409118012068416,-0.21613783542737863
654,0.6758518503971049,0.4692623012493532,0,0,0.589348083734652,-0.20054209374204962,0.003698228017558755,-0.001977307523997488,0.2741086467854553,-0.34143616183405445
655,0.5887968444500645,0.3895948071588127,0,0,0.5617011169805641,-0.12377561634957616,0.009981288591912317,0.28403963264800897,-0.02862546133323199,-0.3246653926182582
656,0.5329930394180995,0.34297239121221407,0,0,0.62027717266297,-0.08755414105228031,-0.018985950506784803,0.3854434199284862,0.06590257953687764,-0.2298901858047305
657,0.5122673219799126,0.33274322743284335,0,0,0.6774678264132723,0.01847688286019342,-0.08374152981854535,0.3537938393361509,0.06439329564339906,-0.14431777519210157
658,0.5284650325959032,0.3597521100802679,0,0,0.6542692071899683,0.040601439228410016,-0.07078143238002382,0.08781789737769882,-0.20706928214535644,-0.09066016037067708
659,0.5812554381611187,0.4223227968186559,0,0,0.6368213118568455,-0.0004447112651479278,-0.07213361568819732,0.08157661938847922,-0.4502171677186057,-0.07625256807977106
660,0.6679446506481524,0.516358460428702,0,0,0.6046661664886609,-0.015379143249666735,-0.13023144541159262,0.03270151533034691,-0.40905073811286863,-0.11556038110206138
661,0.7833509859834039,0.6355696731850256,0,0,0.5761123098688947,-0.08218724490008818,-0.025413017942399675,-0.0684042178570588,-0.5724862548408532,-0.19502508268134172
662,0.9198350603271687,0.771835828138674,0,0,0.6502496582654953,-0.11044988686811842,0.04378409060478266,0.008392332039173396,-0.8703743053232933,-0.2604286415348734
663,1.0675880592586566,0.915695552886066,0,0,0.838161346822347,-0.06061010384647762,-0.1505354006503378,0.14199141166723256,-0.8550222293650775,-0.29054280589315834
664,1.2152544463052801,1.0569532694863644,0,0,0.8911426782001888,-0.018996520172319096,-0.1794209295666889,-0.0372534149486959,-0.5959171644527725,-0.30164649681803907
665,1.3509001843655504,1.1853850060176994,0,0,1.0244435673788368,0.057230859798953836,0.09797162777058,-0.28582167233763517,-0.9531672806428594,-0.2051570223093334
666,1.463244418499335,1.2915158306035974,0,0,1.4201775985825729,0.17682612980072432,0.7078807949381782,-0.3504290660423475,-1.6809940732059803,-0.10561806324639011
667,1.5429688736735483,1.3674114834548246,0,0,2.778368500163692,0.3832831640289908,0.5830998984802321,0.6946987864890146,-0.9533913249006521,0.5489166141576719
668,1.5838399472094504,1.4073894678904715,0,0,2.2315648335813174,0.49895648501020373,0.22876408321481248,-0.30523985748895577,1.5229818863933864,1.0211350789464926
669,1.583381576927232,1.408543046412748,0,0,0.8386760296640074,-0.21535014611785008,0.44013506349635945,-1.2511900752087075,0.4584280232054672,0.5952043467456979
670,1.5429592288553413,1.3710046625369878,0,0,1.1119680813868578,-0.6370551271228246,0.06973479763519748,-0.9377333746591016,-0.5550189056670376,0.16357248193612997
671,1.4673262752226133,1.2979377912619132,0,0,1.0980674792904581,-0.4908828341684467,-0.10279889968672438,0.12989885339390222,-0.778383212463386,-0.3160705494806398
672,1.3638264918756173,1.195298575835456,0,0,1.3495520106362362,-0.06608721209895105,-0.025651135112182293,1.0546054194917163,0.4349635470810731,-0.2462017455371057
673,1.2414692605195778,1.0714142473954977,0,0,1.2498580710068115,0.2566589565472396,0.1602571856116889,0.9227698543750298,1.6303687215344949,-0.083386112247131
674,1.110030330716625,0.9363856246648158,0,0,1.009761848873826,0.3089748335427007,0.11181048871753559,0.6741067053956267,0.9749564332191493,0.03417187938166576
675,0.9792560994071736,0.8012880906322745,0,0,0.9213180743507826,0.17725368321583854,0.126319043305938,0.2971484302889153,0.46251522187143584,0.14272266804514314
676,0.8582037094278756,0.6771740887343818,0,0,0.8127248100940192,0.12122743321331335,0.06502734675002762,0.09791043129461219,0.562660380905021,0.22967422990704933
677,0.7547291045988616,0.5739622436875357,0,0,0.6823814115248249,0.08529680239434655,0.03134840131116685,-0.15600219685814415,0.2511354183109432,0.25058143023956414
678,0.6751231395551317,0.49937081679094775,0,0,0.6756146289270141,0.0839612591607636,0.014944676995030853,-0.3087982333087281,0.09222299336688938,0.15232174373380672
679,0.62388227776425,0.45806986849311926,0,0,0.6837096116678671,0.0775441285073052,-0.00899799294361074,-0.20751660874022082,0.22247866589410442,-0.023379572975964043
680,0.6035861736864486,0.45119179863661724,0,0,0.7186397625764835,0.07741670036263183,-0.02964409489657115,-0.2978271818021376,-0.05915876083206788,-0.09085345084305732
681,0.6148463984966087,0.47628078053057255,0,0,0.7368752389170041,0.04828815940951905,-0.058131963613749484,-0.31978242915634836,-0.08966425772954151,0.02001212385729128
682,0.6562965870753569,0.5276960139592708,0,0,0.68288110713258,0.07697700866289602,-0.06421348647117292,-0.3101276257852615,-0.08646789496565785,0.198620593873743
683,0.7246172090807346,0.5974181485005837,0,0,0.6208147811357827,0.06546463891022057,-0.05723045977942478,-0.36338173272286295,-0.2955828247932409,0.35567193496752
684,0.8146208290775979,0.6761457549755028,0,0,0.6318702762800815,0.0446804666236729,-0.07946565079092369,-0.4682013220078275,-0.5793691881328744,0.4316062511720324
685,0.9194498820657497,0.7545162870381743,0,0,0.776711592691595,-0.09517966322842819,-0.05541827478388441,-0.5723209553847738,-0.9324296776581399,0.4362338752460845
686,1.0309420684661814,0.8242588269871166,0,0,0.953734695872991,-0.14712646148850145,-0.13969980448808614,-0.23797204922242485,-0.7815805949025134,0.43210983067118597
687,1.1401930202940633,0.8791013876387168,0,0,1.0745287820555929,-0.11168240609464822,-0.2724965760860345,0.02939653550135218,-0.8975456759260395,0.36340227897432564
688,1.238301818903303,0.9153154355829047,0,0,1.1410424720814858,-0.08089337200172107,-0.23309254368257243,0.11984417972349329,-0.8236659931580833,0.34663782078851135
689,1.317238960637158,0.9318613965555959,0,0,1.1705345172975539,-0.07081740897918562,0.006707702255388741,-0.1994775555010354,-0.5860191879026941,0.5062233453062986
690,1.3707381888690464,0.930167694308748,0,0,1.3250672058548818,0.09749020603301087,0.22967286872474754,-0.6574143085474546,-0.3063644304769552,0.5762116505967052
691,1.3950819358906448,0.913613085573191,0,0,1.703776896312489,-0.1587911156073219,0.43225768349354193,-1.205689652332347,-0.6939504967993144,0.3559229421399358
692,1.38962535710715,0.8867938392106608,0,0,2.2426420416620987,-0.3283236395715906,0.15511088198444437,-0.25341856169037597,-0.42344126742019816,-0.10846204719279484
693,1.3569056613029071,0.8546670124702854,0,0,1.5576285641819174,-0.1402808820143354,0.20977845466370937,-0.13349330642315593,1.2683107038511447,-0.3297544259307092
694,1.302244846405678,0.8216863661803041,0,0,0.9961104348189304,-0.16713658603727002,0.2901655315886387,0.06415261227428201,-0.14649579006491,-0.14081533149641484
695,1.2328824618778946,0.7910802381395646,0,0,0.9366841915771223,-0.023665460374955392,0.12533705695623085,0.04228248657197962,0.09786854544071366,0.08959806972577043
696,1.1568208830219613,0.7644289228165331,0,0,0.6539270698943114,0.007744957101506989,0.22137861964275762,-0.3645266354806739,0.21506424806836769,0.13161359959035956
697,1.0816510445197585,0.741648078764653,0,0,0.7679475312348831,0.027416408740726737,0.050535227509692755,-0.8651609168958395,0.6221024728975405,0.019832489639800815
698,1.013610260643636,0.7213695697936383,0,0,0.9166724505375803,-0.17148745197013826,0.11384726256831643,-0.7483119879816513,0.9066811376563095,-0.0918462148293456
699,0.9570257649332202,0.7015806884037246,0,0,1.0265085073684963,-0.3257928104755218,0.19243313453290042,-0.43118497393743893,0.717543053118819,-0.022687315494519297
700,0.9141722507190516,0.6803117457284009,0,0,0.9016001422350612,-0.3805151474244156,0.15892053600341183,-0.17720429962597678,0.8309273901032027,0.13009969881442027
701,0.8854709437252604,0.6561848000635051,0,0,0.7717477919190989,-0.42259136829726535,0.1514550469861769,-0.08424494984450709,0.698591790233698,0.19747335868693808
702,0.869908110412322,0.6287213339651471,0,0,0.7970440859600972,-0.44019949136548636,0.12791655563836032,0.12040844855485194,0.4770457882202681,0.16795197084135133
703,0.8655469489787702,0.5983980788953682,0,0,0.8923714063141847,-0.38666569642751286,0.14408194111596176,0.24781899125082474,0.36981595816984486,0.11418255433823873
704,0.8700259655145518,0.5665020003993495,0,0,0.9530302781082758,-0.3156046050462614,0.09760501368979603,0.3721796315748066,0.403495220122309,0.06627038084888065
705,0.8809632796714401,0.5348583637565502,0,0,0.932608551580927,-0.19726925287686412,0.04389604026052929,0.49298486040450856,0.40277635772250775,0.026884099573058148
706,0.8962181113963732,0.5054984731056317,0,0,0.9094131196905734,-0.09838575537980024,0.04902139617379243,0.40770935824040866,0.3514368052744174,-0.0005964458260685342
707,0.9139991161951754,0.48031640773199097,0,0,0.8765463063470085,-0.0531437154434026,0.04808096822484476,0.32312605289361157,0.26118309277618074,-0.04444159591346818
708,0.9328480167998161,0.460755399132502,0,0,0.8500662866224487,-0.04864729726944569,0.026777880117911636,0.3328697953582417,0.08936818180324699,-0.09989066984769367
709,0.9515549855456574,0.4475661094437781,0,0,0.8337053294926813,-0.07835258791678858,0.014783550678651223,0.34924246212675664,0.02083150839009462,-0.14970326811787948
710,0.9690712045405578,0.4406781847266967,0,0,0.8273528169766472,-0.1125780488899571,0.03580890368251276,0.32865544250208356,-0.0668686607316694,-0.2154921083905246
711,0.9844719403591856,0.4392125791062815,0,0,0.8865537050733986,-0.13689825877370898,0.16529151997901906,0.22684413712642124,-0.104377803984777,-0.2659894280741638
712,0.9969937498363447,0.4416368348765132,0,0,1.0390047935332674,-0.1106539767320841,0.21945756758233034,0.2469498976650458,-0.24970783516250072,-0.26718888860079254
713,1.0061308574060208,0.4460372585985454,0,0,1.1794219771081922,0.007516587024983601,0.10840511810039569,0.42603241087918065,-0.2896774093447035,-0.21978477981350186
714,1.0117428497683916,0.4504585288800786,0,0,1.1311074899730944,0.029437007557500738,0.13081563886970998,0.30377750115359226,-0.19065553605373756,-0.12953406673967305
715,1.0141145924322608,0.4532478118506867,0,0,1.0275078056494258,-0.08615772358113112,0.12134597907544575,0.18318884833702775,-0.42708851564217126,-0.07497692816071569
716,1.0139266246452634,0.4533382888440781,0,0,0.9829738515655178,-0.1599654998160081,0.03746355898173613,0.21708673636288167,-0.584022486055993,-0.07740502459664259
717,1.0121308441232626,0.45041351051143175,0,0,0.9365367756502698,-0.20126509030696355,0.08242814633576992,0.3094667367356503,-0.5805192647203581,-0.12460471981851684
718,1.0097623326591376,0.4449090814254496,0,0,0.9140791768483839,-0.18001878378980415,0.13544941783581882,0.371569750652185,-0.3385131652639134,-0.16952524298136468
719,1.0077379986828168,0.43783806344614457,0,0,0.9280545021666704,-0.0933113411448638,0.16864092395176442,0.33605683023811445,-0.17223774310475057,-0.18038503318034682
