id,ASVM,GSVM,walking_nonwalking,normal_abnormal,ax,ay,az,gx,gy,gz
1,1.0026458513556888,0.05975024466053698,0,0,0.994573394214746,0.0140192561464162,0.04574161681322623,0.00679556660085628,-0.0033911944930247774,-0.006419385698585599
2,1.0032796633056662,0.09821876015055865,0,0,0.9945250993401469,0.014457875816929014,0.04606486385164855,-0.00912624508948096,-0.02082263952235728,-0.0035186824859209033
3,1.0039158330549798,0.14230912287726036,0,0,1.0011363707342018,0.012728797272148951,0.033901080662065944,-0.04452476092159321,-0.03108032267184555,0.009635151069051757
4,1.004530458069053,0.18940623742285645,0,0,1.0104622409262907,0.002849676815147858,0.05091357583161857,-0.06725729217600063,0.008658965286602994,0.028330731675676894
5,1.005108380499495,0.23630272752584647,0,0,1.0171748007941208,0.019568906314827435,0.0352815786266901,-0.15545574706016946,-0.01828056342367164,0.08308608081611847
6,1.0056417381726854,0.27957644115662456,0,0,1.0236255458409946,0.033298979104956036,0.056971331580678145,-0.27328504382278856,0.06427272339110703,0.14879160483903864
7,1.006119284481465,0.31604896594700244,0,0,1.026866302408183,-0.005450876530583391,0.04696114553031442,-0.3551585698489921,0.10441654561874378,0.17777681599238113
8,1.0065055703701584,0.3432436637307377,0,0,1.0184502758024858,-0.08639840170519698,0.049206929476511986,-0.35549456328948903,0.34347088046968033,0.15656548625846395
9,1.0067143800794691,0.3597488270611286,0,0,0.9645375427834098,-0.145063334153389,0.08294470870508414,-0.2504987519406052,0.4567844968963457,0.10257260546775937
10,1.0065873465404018,0.3654038477880456,0,0,0.9421438488188417,-0.15312792949742965,0.07015059170405918,-0.15962759708039007,0.42121152332464024,0.048396394892529664
11,1.0058935301604237,0.3612639004840603,0,0,0.9274356352190462,-0.1489249051067043,0.048236063520507515,-0.09538192934609725,0.39894779461819424,0.0022387516971206427
12,1.0043649552841447,0.34935199235736936,0,0,0.9369161142631168,-0.15283994558783837,0.007509952764283685,-0.028357245852586883,0.2900402765896663,-0.031523812857085505
13,1.0017738568979955,0.33226050695995746,0,0,0.9832338041911002,-0.15081803129257482,-0.017257073598150787,0.05285346699284575,0.17872078579848005,-0.04350614276941614
14,0.9980406589325842,0.31270163218872005,0,0,1.0639112187684858,-0.10257042519388031,-0.033456539770138745,0.09490826418982039,0.01642407984045525,-0.025485921118740564
15,0.9933431797787968,0.29311594195080026,0,0,1.10076237827828,-0.028139370909260327,-0.004150408254404742,0.044377334280034576,0.09096311644405163,-0.00279996654686895
16,0.9881860807138575,0.2754262470059487,0,0,1.0700386080962088,0.010165769310844485,0.04368901249552179,-0.05738623659432869,0.22032378195250715,-0.015940893310944587
17,0.9833928966612205,0.26097408991560317,0,0,1.020268803424872,0.02301377816481474,0.05206108782289535,-0.15181094006976134,0.29990820924654316,-0.0718062396159049
18,0.9800025479690938,0.25061460536801866,0,0,0.9768489789895843,0.021977615504476803,0.056820568408154616,-0.22065358484939399,0.2996417275028899,-0.12680570205077846
19,0.979081199050618,0.24489511104811854,0,0,0.9528865090726373,0.010401971001986966,0.05864173614929452,-0.26217632795438556,0.29042474111390537,-0.15483956389863587
20,0.981487649711111,0.24422346761662206,0,0,0.9162210443036607,0.004972202120040645,0.07509798738881883,-0.25855468301069995,0.24796088091234386,-0.1489299369119138
21,0.9876472144070518,0.2489497895715963,0,0,0.8867457304826853,0.021733511365161585,0.07012073079466456,-0.23043169704008457,0.10023264186670257,-0.08685585087247658
22,0.9973913649372586,0.2593297771294365,0,0,0.8861789501118108,0.04905658440658683,0.060323650758759395,-0.1937160626452097,0.00962206313138391,0.006276793756359439
23,1.0099079826648232,0.27539045835108994,0,0,0.9303945649450754,0.04429163665699224,0.05550847994266146,-0.14397203840129752,-0.08138421702994111,0.08237851367737534
24,1.0238217349452627,0.2967590045068646,0,0,1.0499169763324983,-0.02133680414935476,0.048721288436105605,-0.0417006148123446,-0.047716228050141155,0.1072436464633748
25,1.037391078837808,0.3225287832018856,0,0,1.1593549737338558,-0.08689216865248513,0.07874594250647847,0.1353828912541087,0.1492920243963551,0.06198672134186704
26,1.0487779094885243,0.35122145703670266,0,0,1.1331266173694692,-0.059624635428050285,0.07193559745599575,0.3108203957956684,0.29753645699400816,0.003304829772210328
27,1.0563303197928322,0.38086853402597687,0,0,1.038846290600405,0.04273354279321304,0.04641732797981316,0.3571715721791937,0.3888471447604128,-0.01646260189866664
28,1.0588245551669038,0.4091979175023656,0,0,0.9952389590611008,0.09897273726578956,-0.010137276302687319,0.27465082926715795,0.22715139149713137,-0.015904490348850726
29,1.0556323145216746,0.43388917175782915,0,0,1.084497998933834,0.09256435931659304,-0.016957212749333997,0.23978254517895753,0.2465078444624842,-0.07279804817077162
30,1.0467992252013265,0.45286069664133366,0,0,1.131474721952704,0.11293524883509357,-0.015672169020171427,0.20829068737609058,0.22197799032701085,-0.19077578470852272
31,1.033030865494427,0.4645593665859528,0,0,1.1030900019442182,0.14247492049977067,-0.012947429942744702,0.20379272701828274,0.3540085645149171,-0.29792874919436424
32,1.0155889429691838,0.4682213697779974,0,0,1.0051271473168204,0.14391317969644363,0.047423227519188725,0.232962103528262,0.44629638743360955,-0.33592603887730177
33,0.9961118472719896,0.464060836611,0,0,0.8963233469464605,0.1329810366474096,0.03690289830301519,0.2179645168943251,0.4585941871450547,-0.3001398883127045
34,0.9763916014902985,0.4533355443352696,0,0,0.8764604692766963,0.08864029656651272,0.06830602753324626,0.1885295127230457,0.4193073588523021,-0.25472545621648074
35,0.9581529376847807,0.43825095599591996,0,0,0.9081958566603092,0.0650010254639478,0.04063754885935527,0.19830421954902902,0.33351406169952896,-0.21374553214333747
36,0.9428789141213434,0.42169486710219006,0,0,0.9229818882502149,0.07649791572185548,0.030138344904938268,0.22430396406344003,0.352658847780663,-0.16770197237277115
37,0.9317102042664201,0.406832123826642,0,0,0.9207070211163083,0.10399427576829014,0.0513405061669926,0.2513378816760085,0.30586199661559965,-0.12238916498716075
38,0.9254209354489474,0.3966191206781527,0,0,0.9288341817512654,0.1381060506950982,0.03938003433403588,0.22165100639178298,0.25456622153869113,-0.07100558222034002
39,0.9244533764627706,0.39331588161967507,0,0,0.9547852576473207,0.15371871803392512,0.026350204806439598,0.1304867818532904,0.24105352450030382,-0.02010021650762741
40,0.9289824166487641,0.39807939823015687,0,0,0.9678999590881455,0.13855858898114556,0.022473840069864394,0.03488858713007952,0.2785035961496241,0.02310431805368357
41,0.9389792611219486,0.4107144029441587,0,0,0.9702153884830567,0.12732250387402153,0.023237753869612,-0.0467582837424647,0.2998137264048359,0.07029152441400366
42,0.9542507798703046,0.42963493693269283,0,0,0.9656063599363843,0.11711010954199223,0.036100953530667376,-0.13766652167615578,0.3459617537460941,0.11500085236484339
43,0.9744441550038766,0.4520543466522207,0,0,0.9463716050314077,0.11122064364152166,0.05370226312718272,-0.22242231662183787,0.3506528030645468,0.14704609998038962
44,0.9990218409795828,0.47438112983400144,0,0,0.9522490061300629,0.11975773125522472,0.04915118996711523,-0.3049475306168883,0.30244757026966845,0.14574805035237987
45,1.0272241558241122,0.49276313055566345,0,0,0.9801882062957523,0.12888680197877742,0.03900601756458232,-0.3913683594651229,0.27061139409510215,0.13631494627629953
46,1.0580416771980679,0.5036984662221609,0,0,1.004718365033728,0.16283839315881557,-0.0022955720221760705,-0.4736963003304022,0.29827095807362264,0.13143960121461046
47,1.0902155667469469,0.5046188322060787,0,0,1.0575409427067897,0.18187326840064202,0.0003764184252561817,-0.5475286130988556,0.33111019259925695,0.10448257313442161
48,1.1222730276179926,0.49434959011197743,0,0,1.1464235889814787,0.14509158418852489,0.0771761736345396,-0.5594367445614049,0.33207626404986956,0.025064322514862493
49,1.1525920170472392,0.4733644250626797,0,0,1.262979171834797,-0.02656289769208794,0.2184104328024617,-0.4565842931639592,0.3496023010569885,-0.12024288074378899
50,1.1794804751199677,0.4437835538943609,0,0,1.1603055583706408,-0.1343359618722374,0.20446183592229486,-0.17419774538963523,0.41449235162751114,-0.18783966807845354
51,1.2012566466071022,0.40911023086789244,0,0,1.0890370529166002,-0.0977850099294513,0.15564875393202585,0.15634550258769367,-0.0017001308654259156,-0.19875693741759604
52,1.2163286868975565,0.3737483361802235,0,0,1.1040077301321827,0.0377789701433891,0.055642760203948705,0.34919568792876066,-0.10682539622000506,-0.16327240090712847
53,1.2232839421433468,0.34237845295312375,0,0,1.163507378017406,0.1933846200602704,0.16515131094382168,0.15964635477838396,-0.40619280842237454,-0.12436632698907837
54,1.2209980216630727,0.3192837003842089,0,0,1.2826743433966976,0.12178514883423344,0.2695927597991434,-0.08549774983174141,-0.27875786495811156,-0.08004199538596554
55,1.2087584571576466,0.30771722798822915,0,0,1.1935419179889108,-0.0746630935082401,0.5496795301796334,-0.10673107259652558,-0.017056223578868972,-0.059137049415441914
56,1.1863799075164203,0.3094024323065413,0,0,1.0696578002138992,-0.15623992077614443,0.4914740904276035,-0.06763372773360518,-0.14253857478689988,-0.031322421238185925
57,1.154283214419214,0.32425317663381836,0,0,1.0317488027343003,-0.08734176087435004,0.40731637966246853,0.09639141534129508,-0.04621897324285507,-0.032345694632517304
58,1.1135222437430583,0.350380707131991,0,0,0.954123066804883,0.023238220902689684,0.3722056710435937,0.20385590866603126,0.0008735633543281033,-0.07590586619742519
59,1.065758481431224,0.384408286431432,0,0,0.9958188977574993,-0.015418560120151414,0.33883554024503637,0.296833327420258,0.19586260059257354,-0.06138491880535084
60,1.01318970260159,0.4220513592742812,0,0,1.1176335121160532,-0.03168538417464898,0.36819916372104,0.44166910722235475,-0.1032510482674084,0.14089032545001512
61,0.9584336686737592,0.45885818081718166,0,0,1.04799253952997,-0.03963159139982657,0.24098864930681307,0.49084977977464084,0.16103181782537743,0.4114980968854101
62,0.904362761771331,0.49096237581993835,0,0,0.808069508157751,-0.1124837047616012,0.2297144612043038,0.35784113506986487,0.4194989032795495,0.5566277166557093
63,0.8538940616350091,0.5156896253614617,0,0,0.6912346958984866,-0.08758438743174446,0.23914787822866504,0.32962551200507256,0.15067872572023958,0.5889232550008678
64,0.809760190961598,0.5318919507438625,0,0,0.7009649883812941,0.012736035390594185,0.2479248315361521,0.2688587008171573,0.10631779986317724,0.5963448466591341
65,0.7743024664193597,0.5399488643495076,0,0,0.6985381216274501,0.03445774015469325,0.222669449785243,0.10066509957409428,0.003585302440752409,0.5646242990181474
66,0.7493248090365126,0.5414564393593752,0,0,0.7046175900768024,-0.03204603130586244,0.16879718324837376,0.000228810479157512,0.1044119888063608,0.4645807934024861
67,0.7360261745470733,0.5386995858785562,0,0,0.7265028382036723,-0.09500771661929618,0.17850156893540808,0.019315772004243024,0.2368369758470568,0.31648746636253594
68,0.7350039789388889,0.5340510074660004,0,0,0.7545223535236543,-0.15018821274416946,0.13618117100875515,0.09010860240291994,0.071612062996656,0.2145204094292326
69,0.7463025191767457,0.5294524224573233,0,0,0.7933961240969671,-0.19689496199427833,0.11796436637444731,0.21988503355208203,-0.007553714623589455,0.16620233841973334
70,0.7694737833535802,0.5261062206766205,0,0,0.8154859829421552,-0.1989771610536638,0.09785001888907581,0.3540564207739674,-0.1321022034251292,0.09488094606123035
71,0.8036243321995502,0.5244426303412579,0,0,0.8057005445402194,-0.14058760632346753,0.0523664764058229,0.48716316386212116,-0.14418402940957675,-0.039254413772386344
72,0.8474391587930983,0.5243436411721685,0,0,0.7687163586191293,-0.1035626969141684,0.03362152035796674,0.58515605224745,-0.1805196418737754,-0.18975235458048284
73,0.8991952379657405,0.5255253322392257,0,0,0.7765537900861714,-0.08903872876731415,0.03804877854785704,0.6382662605626084,-0.35323302630635106,-0.2815403420093248
74,0.9567933243056939,0.5279306587562501,0,0,0.8541196343451389,-0.05349971013426177,0.018329496273271174,0.6119761043545289,-0.53854216709053,-0.2887681011442688
75,1.0178364106963154,0.5319820306645626,0,0,1.0149982833459976,0.005722470091943301,0.07038270536660442,0.5692585634937991,-0.5550736352864173,-0.21394144365299583
76,1.0797647456092312,0.5385909978643554,0,0,1.1492497772804386,0.06446696706626609,0.13810168811783616,0.4051348456611532,-0.4064295555281926,-0.0942062305309612
77,1.1400292989322514,0.5489096649857155,0,0,1.1927061476716594,0.011257935493011439,0.11907083216366038,0.24282138250927873,0.04170757872453175,0.013354598664962814
78,1.196263401222329,0.5639062608211627,0,0,1.2484385204151698,-0.11909203896439657,-0.03333693357242528,0.2777360660110221,0.004269246557177654,0.04615288223332261
79,1.246407301932335,0.5839153985648924,0,0,1.3187995131667178,-0.12606128956549442,-0.1508343031945368,0.3700158017660122,-0.06166499396859145,0.05619229494146015
80,1.2887532843772653,0.6083210237135417,0,0,1.277621199150065,-0.216926632487119,-0.18010938204818006,0.3701364246190419,0.11778312634982395,0.10081333316899399
81,1.3219029885597082,0.6354764618663816,0,0,1.5225801434690103,0.1240444886990186,0.1380166788143938,0.3954569305924482,-0.7553837898435496,0.31365629490729624
82,1.3446574289017266,0.6628817985089319,0,0,1.1347547715148822,0.2986273049914873,0.17778678615072996,-0.29889964532923746,-0.0011864344829242775,0.450047443834126
83,1.3558897504617746,0.6875633625037982,0,0,0.7740598707293016,0.14726133144894743,0.19796507675013109,-0.1141519333564257,-0.46439908493129745,0.2547376474726402
84,1.3544713439302536,0.7065562244859439,0,0,1.3286550572115565,0.3089855650373887,0.7674226514212628,-0.37909596559048736,-1.1213852561798094,0.34417051941579735
85,1.339315853965234,0.7173778206775386,0,0,1.1377907506044393,0.06976424032436838,0.7173314178487802,-0.637068778745176,0.557549911941975,0.3761754156728437
86,1.3095660136619012,0.7183931169973587,0,0,0.9785281942654623,-0.17874621179934266,0.4162837267403188,-0.48248450041718827,-0.09400733449851259,0.09361471164331321
87,1.264894730176066,0.709010711222702,0,0,1.2129899190113964,-0.32067795071645777,0.32064884709899244,-0.4159711634743317,-0.46909233519243604,-0.1662375375079659
88,1.2058499154431859,0.6897060597422033,0,0,1.402236054089997,-0.12371666821887263,0.5063747700501552,-0.20416405313737473,-0.6867804690515477,-0.1879530594848539
89,1.1341489575180304,0.6619131968118087,0,0,1.3369421622346223,0.0626584804198249,0.42570907476927516,-0.317411296227687,-0.49745122859538327,-0.14926456374830738
90,1.0528247238355686,0.62783917740007,0,0,1.135522112796167,0.052255902228904284,0.2748930685062909,-0.39188551826323537,-0.015015298965708471,-0.22481112203282513
91,0.9661516944026345,0.5902438951150216,0,0,0.8990102202865698,0.04912119677604122,0.2592071694314243,-0.40123534768612534,0.1826841995287128,-0.32001875484286124
92,0.8793400826223591,0.5522073724142361,0,0,0.6740788761885521,0.02758756788443697,0.22869194619883856,-0.3669808439867341,0.6589249291452848,-0.30451757673531443
93,0.7980531836217452,0.5168840136710693,0,0,0.6226456639893083,0.05211326162641727,0.25655250373161814,-0.25344537805954515,0.6484151799696143,-0.27426092853614326
94,0.7278454562379287,0.4872292019265691,0,0,0.6384930976690207,0.0760846078391119,0.24153027065198038,-0.19214001840705275,0.1726801640162104,-0.2825725655741273
95,0.6736211176069888,0.4656942028060864,0,0,0.6286130895809494,0.08374198882935119,0.22944754532369743,-0.20917167489820224,0.21061842292466093,-0.2715076338868962
96,0.6391856305446352,0.45392018306242177,0,0,0.5839184287660697,0.07958214982476502,0.216259302288838,-0.2481701723436878,0.11591768365774714,-0.23243705207553103
97,0.6269275484790519,0.4524964678667922,0,0,0.5953810924493907,0.09325804623339631,0.17635407954718554,-0.24131344464264373,-0.07337315268553621,-0.18256494953797847
98,0.6376422307848655,0.46085679855946354,0,0,0.6129651470475379,0.11047329973286386,0.11474471102900162,-0.25945444586060334,-0.10023482092731692,-0.09347349788361277
99,0.6704954413536545,0.47736547089633335,0,0,0.6447894438085074,0.08922103905420693,0.09134963634094526,-0.30215425068402757,-0.18135127059780182,0.0173696336688818
100,0.723119143337494,0.49960214194297753,0,0,0.6887140144135803,0.07605868051685313,0.06655669538266434,-0.37492795542145385,-0.30369419137998754,0.13654017576394914
101,0.7918285189347124,0.5248010170805268,0,0,0.7412910085150608,0.08765334229080263,0.009633244139997641,-0.4515525964016064,-0.4123461501808484,0.26036581555251537
102,0.8719448517029837,0.5503501754099553,0,0,0.8157614567318803,0.13362696249979616,0.03622144722085683,-0.5499451722205989,-0.3572527742000919,0.3694927016373342
103,0.9582012438130927,0.5742271044788334,0,0,0.9459645372589695,0.08171499620283894,0.08466978918436337,-0.668188124777824,-0.42010854100999906,0.3730892639104573
104,1.0451967256461194,0.5952524979551415,0,0,1.1085698149306422,-0.05508147133592283,0.09049478377244605,-0.7876839710885497,-0.25785466136590135,0.28829996029450256
105,1.1278518689401935,0.6130916940285909,0,0,1.1822680231172884,-0.19650914371143263,0.09325111711881272,-0.6983640330663393,0.1282702162149533,0.1288905232902118
106,1.2018115000327012,0.6280137645223608,0,0,1.1951220267471039,-0.14218197378206363,0.011332717950299298,-0.20788503618813725,0.047761623274293515,-0.06727597285733934
107,1.2637429051836069,0.6405081790117153,0,0,1.2599229755776575,0.009356429193889288,-0.1597274138403991,-0.10705721408266469,0.20575665472597876,-0.09948843289206716
108,1.3114906292957729,0.650919614715139,0,0,1.4092720020881198,0.12576288281429418,-0.1596486989147465,-0.1951743571057987,0.1729033681260914,-0.16112062068534092
109,1.3440664251329306,0.659256458393795,0,0,1.6264946075316427,-0.10535200647590548,0.10854862582055902,-0.3175510645213605,0.014363252590846871,-0.42309009242451906
110,1.361473942359912,0.6652515232503777,0,0,1.3245817171448115,-0.46490881060558203,0.25017030761950565,0.10766886675106194,0.6759436816319079,-0.565495441720874
111,1.3643989547819682,0.668639296025375,0,0,0.9956221388212273,-0.2518153522447904,0.3577372959552607,0.7083724440158223,0.15727765099593624,-0.5339014367705521
112,1.3538387198350468,0.6695177482837384,0,0,0.9401346648156398,-0.08978470250443978,0.41361352355164843,0.4789533978543411,-0.6614092333045939,-0.5212515232034746
113,1.3307788796594813,0.6686264442830787,0,0,1.0263129393362813,0.16625785267706705,0.341085798766454,0.3728494364943036,-0.7861699168680472,-0.4694621229544297
114,1.29602197737214,0.6674062383334131,0,0,1.2379155448100005,0.28272245412719066,0.4376933695171368,-0.007085261058675155,-0.6510214089502302,-0.29696747237178206
115,1.2502174533311075,0.6677900115454295,0,0,1.3583195696686905,0.11243911078106426,0.4166078173427871,-0.2723685411028008,-0.5464594697948467,-0.09928528201756698
116,1.1940652672425744,0.6717745383850598,0,0,1.224686906051529,-0.148303382291507,0.31283976802584984,0.01915317896136125,0.3831078917206958,-0.03972927292074847
117,1.1286067556865496,0.6809042770638986,0,0,1.0926197342078858,-0.14428537936680846,0.3811770305028537,0.3514250929284523,0.06486216854701739,0.01652255494444427
118,1.0555010751858773,0.6958298549331914,0,0,1.1627374329959226,-0.073299335491457,0.2571636555124854,0.33882316742582397,-0.3407560172959538,0.21994025524264468
119,0.977206594082325,0.7160765503698068,0,0,0.9747429881639236,-0.13621332836532177,0.19182279263931037,0.4272275626071901,0.26913024253259143,0.35786130170771413
120,0.8970226012902588,0.7400843222009811,0,0,0.8265872152448032,-0.15440988375705586,0.2003059501659868,0.5591332475737094,0.4169911081762701,0.4250748163087397
121,0.8189821554148288,0.7654922706435092,0,0,0.7719583586669382,-0.12414306844507116,0.20635735205256087,0.598633323215156,0.6150105883546096,0.5040366881378788
122,0.7476146130292215,0.7895711549710541,0,0,0.7007857473985029,-0.10171790533945521,0.20435011635629596,0.568288415598391,0.4619073512924421,0.5503502550055902
123,0.687612398194938,0.8096800298145757,0,0,0.6483508639401954,-0.1164884852433006,0.1620375597057823,0.5899329073761765,0.4675291615781379,0.5076687124500465
124,0.6434408587571306,0.8236399860780125,0,0,0.6227479899471277,-0.12164613246630747,0.1699769768262839,0.7074828081658314,0.41343944295803725,0.384958315518746
125,0.6189276001049685,0.8299644298668001,0,0,0.6345554766124754,-0.09581494871431148,0.1520301380396522,0.7250933091887783,0.3166846682723567,0.24411006117438344
126,0.6168647240192292,0.8279389989695674,0,0,0.6224897944375105,-0.08101457652486467,0.09260890641648749,0.6801456091606145,0.2418102900139494,0.1076856492697641
127,0.6386578157937759,0.8175871717505929,0,0,0.6044250976595028,-0.04747313373720339,0.062356874536367825,0.6590873431059867,0.08375044104848982,-0.01158671523122735
128,0.6840598655150749,0.7995794105554149,0,0,0.6132312758227949,-0.021561705204381915,0.03471231075959491,0.5864738899557131,-0.17989336314697407,-0.12192912413480785
129,0.7510331254317931,0.7751387908291452,0,0,0.6395013573562994,-0.03519229534415289,0.011782182375466277,0.5569244505486954,-0.3767815339877351,-0.2736924074691869
130,0.8357805160136017,0.7459654523875492,0,0,0.6986953689499116,-0.08786503252635346,0.015044666120299402,0.5902853110585499,-0.5262500308150546,-0.4379779120481487
131,0.9329742521882445,0.7141582891997318,0,0,0.8311516566404537,-0.0744450232038761,0.022712346352390136,0.6652345430493044,-0.601577681805245,-0.5333681354220355
132,1.036180791273725,0.6820792114181676,0,0,1.0559076360046509,0.02228387930816883,0.05118738397556038,0.7051344426797097,-0.43752480185628007,-0.4677474863328902
133,1.1384424899841783,0.6521089137737366,0,0,1.2389240275798177,0.17060645093921534,0.119412256896768,0.6561284647697683,-0.17168374237590328,-0.28756702747237767
134,1.232938825912954,0.6262930067348713,0,0,1.319222763148937,0.2058115216548385,0.05888138428662859,0.22427100702050576,0.18522689794553682,-0.02836763589184999
135,1.3136279578898369,0.6059535407342655,0,0,1.2953371568439562,0.07521419493673334,-0.2173155947514514,-0.0909366814611239,0.18310097960599286,0.08700023356072492
136,1.3757711329562181,0.5913991231686124,0,0,1.4712169610314123,-0.09978534079829766,-0.25498553000167246,-0.13901581637850546,-0.11869599994051101,0.11574033500800607
137,1.4162646427327275,0.581864808123548,0,0,1.7218847010335656,0.1492483924412276,0.025914498809560853,-0.0548174376329878,0.15763181772057652,0.3389432799822364
138,1.4337383851344352,0.5757400585371893,0,0,1.4264259797282748,0.3567424030459939,0.3540895666812837,-0.46594601684820086,0.554596764085224,0.5642664421863711
139,1.428424344760679,0.5710300952178604,0,0,1.115654110348895,0.21917964983956595,0.46482493577273737,-0.5891846772764922,-0.10226393691442105,0.5642808385600913
140,1.4018513155842829,0.5658985466273649,0,0,1.069196542253442,0.027240670227167578,0.33803635182248215,-0.8408098477673123,-0.06329729488726826,0.5356748300897863
141,1.3564676921028063,0.5591065353225815,0,0,0.998053463364808,-0.25668099721790705,0.45302856598531516,-0.7100745983816242,-0.18534993570921934,0.34656199840142676
142,1.2953039871916134,0.550210430583445,0,0,1.1902256233190647,-0.2692964187735858,0.4661130903336077,-0.32422348968013176,-0.45138501707121165,0.04568342383831995
143,1.2217483904081134,0.5394834726415181,0,0,1.2361434332696797,-0.20916035368757252,0.37005792409164456,-0.21405229736782122,0.06536391830326382,-0.01848946603205926
144,1.1394424379478243,0.5276377269027542,0,0,1.2245465506246718,0.003745052170627555,0.3994999793106982,-0.10529567467181884,-0.15382216024453044,-0.006116701348272359
145,1.05224741951766,0.5154932381607774,0,0,1.127280496687804,0.05004858902644963,0.2992499438123871,-0.28538885029759553,0.09807387240258043,-0.06484961346542562
146,0.9642117944224329,0.5037415269598008,0,0,0.9747802960728956,0.028247099932800068,0.2580018380469641,-0.2782404494150213,0.12591246355546037,-0.198923596546844
147,0.8794866886224179,0.49288600835697444,0,0,0.8302197389792636,0.05073204906152199,0.22764505936738463,-0.28917427654575645,0.36289847047834606,-0.24648282203835437
148,0.8021730540556061,0.48334789328093425,0,0,0.6540616279551135,0.04592826482479595,0.22964072724250123,-0.2647176968010506,0.8737249506563614,-0.22171240346688834
149,0.7361186565368931,0.47564708610374257,0,0,0.615418065674123,0.07145796921426184,0.2602093424148901,-0.18048470117919976,0.6503236678563089,-0.25617096787113974
150,0.6847005241025603,0.470538006273789,0,0,0.6554674677841454,0.10741335982933564,0.2348222441314385,-0.1744951451705827,0.26159749804393456,-0.29171520129827033
151,0.6506252769937186,0.46901141127179247,0,0,0.6429438207593643,0.11078915323735312,0.19528946726527646,-0.2572152555003887,0.315044033050659,-0.2632056270973355
152,0.6357641240066095,0.4721443690791468,0,0,0.6422300100277221,0.10812219133931321,0.18421461942099032,-0.2942327078656598,0.17627908149523555,-0.20436844812602564
153,0.6410249532978665,0.48085026592481095,0,0,0.6513864313213755,0.10960314331863402,0.16413334824254985,-0.3270325271988576,0.10337327171878208,-0.11662691465731584
154,0.6662601776860062,0.4956183887469262,0,0,0.6438589896649045,0.04747286830799082,0.11639136440725663,-0.32400497778894,-0.018075296472209193,-0.0039043641698155193
155,0.7102157427272944,0.5163332602367942,0,0,0.6639154581557959,0.0010404255873893015,0.08207473631824633,-0.25345516473396923,-0.15326339837762168,0.13102444975704028
156,0.7705372754153876,0.5422358385567436,0,0,0.6868253233306163,0.0179904375783292,0.024537500101349505,-0.2175989575793286,-0.33558929536174803,0.2711988643171718
157,0.8438555362153318,0.5720406579054343,0,0,0.7405685305333234,0.0994721386111944,-0.0038921365156140784,-0.2487019433700877,-0.44325758434475254,0.41382304302053174
158,0.925968862596427,0.6041667354345492,0,0,0.8577026446032644,0.1329970619783538,0.03877600085590313,-0.34902980399534383,-0.6228889036720041,0.48397598511270645
159,1.0121232485650862,0.6369953204478314,0,0,1.092633608958175,0.0882382279743037,0.0681365257945763,-0.5229030409704529,-0.663799401936805,0.4537939062507792
160,1.0973656826932299,0.669056942926976,0,0,1.1933710168126648,-0.06312781104699981,0.11682056913348957,-0.7492246979708509,-0.13865379832327235,0.3772871236089513
161,1.1769243280309556,0.6990861229200742,0,0,1.1705775773892222,-0.12069922284071245,0.08341873722332684,-0.4940766866849972,0.25498496579987745,0.15469481256314824
162,1.2465614139416428,0.7259541815145746,0,0,1.1763240796323016,-0.08513064308851394,-0.06966431831370823,-0.21627067785611792,0.15195289248551586,-0.1375919439682208
163,1.3028531239499301,0.7485636274353148,0,0,1.3325804936653871,-0.01730104692962041,-0.04286575676433238,0.035097595797112774,-0.23925382666058173,-0.3171071353145991
164,1.34336559836561,0.7658173800213771,0,0,1.606172028231825,-0.1898445283028154,0.06808153661750661,-0.015072027988019715,-0.6097753742672462,-0.513303242286754
165,1.3667091588165141,0.7767396237762134,0,0,1.4405096190947613,-0.402960779471914,0.25095757761813553,0.3418008874727642,0.131329512035979,-0.6086238817499398
166,1.3724695642890086,0.7807408815434432,0,0,1.0335338784767245,-0.23743869932684378,0.44372493179920897,0.597637021827609,-0.186887296055935,-0.6145662546222352
167,1.3610449793261494,0.7779342320054058,0,0,1.024304711366649,0.08064146668527518,0.3091821291659779,0.45756791372701655,-1.1117552307645362,-0.6149149363348336
168,1.3334507720249897,0.769363330815385,0,0,1.1728290229870875,0.29914218440368495,0.336812611880648,0.18465193305148678,-0.8456385891981106,-0.4778201320279014
169,1.2911633275116514,0.7570154981544308,0,0,1.2834654705356574,0.18342631884011262,0.43601761592080907,-0.17637454117301382,-0.9187404487446533,-0.30635029992610724
170,1.2360444631772984,0.7435636582127346,0,0,1.3167800288554508,-0.016426206694731906,0.2743592501777608,-0.05658346171810862,-0.04626467965811103,-0.23939780425171658
171,1.1703397014146373,0.731883240774382,0,0,1.070324038507727,-0.09845001990049922,0.3070130915650655,0.27285846899614546,0.8012739127581555,-0.16037596862285408
172,1.0967098185007977,0.7244763347736551,0,0,1.0960325261166337,-0.034126821650727016,0.3878429577716941,0.2704955985816641,-0.11783521493337307,0.041952368087809784
173,1.0182491773536235,0.722965685935349,0,0,1.112880135890018,-0.09443446800852168,0.11532358707616569,0.2735343773221261,-0.21701277721528173,0.32116466680349365
174,0.9384565872664615,0.727790303250572,0,0,0.880568429642287,-0.18647650155809106,0.15400962950061414,0.4455499978774314,0.49371641343687633,0.43418055472194206
175,0.8611421071754957,0.7381641253349636,0,0,0.7720920930728032,-0.2107026285383961,0.1663651239853912,0.555344230514116,0.38502378342226024,0.4337612449587416
176,0.7902709116386419,0.7522789278911459,0,0,0.7561964241274199,-0.13702909907776456,0.16943042495379526,0.6183103649658298,0.44893306767382235,0.43890901730606113
177,0.7297590817482906,0.7676717957282477,0,0,0.6891792168306577,-0.09868619387159656,0.16049513700325782,0.6232377172973967,0.4018643757967949,0.44389235726086407
178,0.6832414209273736,0.7816553449928683,0,0,0.6802919105233929,-0.09540615201879249,0.12148650079696978,0.6693022534493058,0.2470757648024046,0.3842397749338881
179,0.6538287114328986,0.7917233001463364,0,0,0.6722376980603163,-0.0948864534562666,0.12152439440433276,0.7206488890683048,0.3389794128515419,0.2833019658845158
180,0.6438672248410721,0.7958768090082283,0,0,0.6530097054228832,-0.10726147576044479,0.1040079083998645,0.7157499156041572,0.15071356468213284,0.16216391938709
181,0.6547123748262654,0.7928497982194985,0,0,0.6771849572297309,-0.09343822321696416,0.06974854548090034,0.7511996694122549,0.05952343480897883,0.04578216438306908
182,0.6865330583831901,0.7822343873548308,0,0,0.6628572036935656,-0.033024591945386116,0.0335996094541953,0.7218119676073036,-0.13139531054728754,-0.05555964025910411
183,0.7381718969492161,0.7645163533242615,0,0,0.6738908112189893,-0.008347401163423637,-0.010813005020595755,0.5994275279776954,-0.4546966247219365,-0.17427584931050646
184,0.8070947775649779,0.7410272715278975,0,0,0.6778907198700711,-0.05406164303498871,-0.0696970432983278,0.5392384135509111,-0.4002416807603119,-0.3250899752332233
185,0.8894643224517802,0.7138100738270984,0,0,0.7654297721519048,-0.11919998563681389,-0.001200127408827639,0.5618818702581845,-0.4642959603444525,-0.4572646246519964
186,0.9803602079261533,0.6853872277298972,0,0,0.963727573851091,-0.06003952011224682,0.02247186394847797,0.6579305896818475,-0.25016211225604856,-0.49764600243906393
187,1.0741433722317395,0.6584252050605297,0,0,1.1228975019186764,0.0629426497582455,0.11178775662848485,0.713791889957924,0.1788503390036893,-0.405162322455276
188,1.1649280479031627,0.6353128818230359,0,0,1.2275998103247758,0.1400415541180584,0.10072203943551142,0.46766089827679164,0.23107496424788826,-0.1959063971459389
189,1.2470983023767264,0.6177144589915698,0,0,1.2252049196563004,0.1159463089744801,-0.16528941507938333,0.12114243408714011,0.38278776766300476,-0.01608974169094998
190,1.315794790343268,0.6062037965325938,0,0,1.2694361967541505,-0.05650787121544287,-0.28511641713687363,0.009044564879829553,0.010920654661930656,0.016686828928011658
191,1.367302670798558,0.6001069897841474,0,0,1.5775097329626724,-0.11893443108775639,-0.15047517419282008,0.082446171695018,-0.2511038599471426,0.1515727559450377
192,1.3992861367925205,0.5976450132657387,0,0,1.6226011774296993,0.272756204336807,0.08295872389920234,-0.011861813494002688,0.44669552920025135,0.4333331996921559
193,1.4108370225135556,0.5963749902575746,0,0,1.2533945443155272,0.33998780957766656,0.46295048161688096,-0.42128181801753545,0.7557625506971279,0.5833359914435686
194,1.4023405183004118,0.5938136549272611,0,0,1.139800510019715,0.25878096503269926,0.548062645242887,-0.4947869339923724,-0.10121618144696472,0.6665212809392793
195,1.3752085781319259,0.5880500684235548,0,0,1.0122252032080425,0.05857430670594949,0.45814101919554445,-0.7474472583636209,0.0034687413755219564,0.6617329762791858
196,1.3315705260438575,0.5781587069875819,0,0,0.9856865393107708,-0.27426189095765413,0.4007065122562997,-0.6312031566487939,-0.22842358189537698,0.34471974229077285
197,1.2740144178461463,0.5643044688759924,0,0,1.1895208975266074,-0.3431049934263745,0.3606548032732085,-0.2770119950536798,-0.3290796999552033,-0.015521793635093296
198,1.2054344462756927,0.5475474101406264,0,0,1.3008651210673734,-0.16674115376945023,0.3857722233388581,-0.06881941270002627,-0.22177478118531793,-0.09602832577221294
199,1.1289792022310183,0.5294569842457294,0,0,1.2207642231794664,0.06637825125867823,0.3107756716202901,-0.1891212496577793,-0.017447626772069968,-0.06546322514755694
200,1.0480471882218425,0.5116932380574533,0,0,1.0677057768618623,0.07019567382589643,0.30326271033651275,-0.37639230954714886,0.007012230006488029,-0.15791224855509015
201,0.9662638607489556,0.4956909683490519,0,0,0.9853389638737353,0.03544380891023459,0.21788749233077476,-0.3741215608312172,-0.1301733646546253,-0.3040505053919055
202,0.8873972236332824,0.4825110460064261,0,0,0.831494562078029,0.024769117807362614,0.15919540449293287,-0.3568866912959265,0.2886550637352605,-0.3469034934123892
203,0.815205851177962,0.47284212716918494,0,0,0.684642751336059,0.04638265378245865,0.2087538426290907,-0.26952699109422246,0.6269861075524386,-0.31476811278655836
204,0.7532426858464099,0.4670836957668027,0,0,0.6776230288298117,0.0926611413126713,0.2070385453584058,-0.18617127878911666,0.2822916340834127,-0.3003777080511474
205,0.7046491166478347,0.46543371685118756,0,0,0.7022807194720476,0.10008618417873001,0.18624240448781154,-0.23403831095198419,0.2487122995415856,-0.29304344729828613
206,0.6719673643807487,0.46793221470356805,0,0,0.660963797122582,0.10173872509083885,0.1774670332681459,-0.3149001057703256,0.3023082266858654,-0.24895193909875563
207,0.6569844378022605,0.4744518178327374,0,0,0.6666836348813614,0.11977651773585743,0.1586420612554609,-0.3856569466835885,0.18135955762165623,-0.16958149961574695
208,0.6606096665866257,0.48465622369369993,0,0,0.654160690080013,0.08701014651968772,0.13154443972112095,-0.40743454643515137,0.20903157419586393,-0.08402729873388469
209,0.6827862604456296,0.49796133701314976,0,0,0.6633689598022346,0.02696638260198846,0.09653684453531602,-0.37778590725903827,0.06365275708724505,0.015130132371867382
210,0.7224434582306916,0.513535584826068,0,0,0.6918585204116264,-0.006345018560559383,0.04768328916728096,-0.35236650931595326,-0.057997167045564145,0.12828794831378312
211,0.7775033636403539,0.5303673876138949,0,0,0.725229884224236,0.02348932409807607,0.0062319623390149174,-0.3208695027203722,-0.21545044605681835,0.2441475055859871
212,0.8449597495400386,0.5474064925842217,0,0,0.7670631865343724,0.10402173286230998,0.019744445837093227,-0.3679019009752745,-0.2029574759395242,0.369521077165548
213,0.9210415959084343,0.5637533190710465,0,0,0.8398456760387926,0.13982423086038298,0.05599040828585447,-0.5141142986838929,-0.3023975509330018,0.4154134203465949
214,1.0014611487339908,0.5788378054810427,0,0,1.0304190376097477,0.10739654023409437,0.09836276825433973,-0.6629527138672859,-0.342076095547345,0.37536958373909374
215,1.0817271762204532,0.5925145170534182,0,0,1.1568179042775932,-0.0808982888775183,0.14112324309222612,-0.844280977119341,0.16697340745485595,0.27998798748046116
216,1.1574853462125663,0.6050197822599765,0,0,1.1835747598227708,-0.24611226699036898,0.07131041269644542,-0.5430925102681972,0.18930028382575434,0.030646341166845847
217,1.2248381628328637,0.6167916267841888,0,0,1.1481847606687057,-0.1713369732499939,-0.11797592021644243,-0.1365858323671011,0.16030672838437282,-0.14189441702390215
218,1.280601116136884,0.6282234909980347,0,0,1.276465089755737,0.06978003379307343,-0.0956061037467572,-0.06298503222988934,0.039353632886857066,-0.1795787763802041
219,1.3224645162907545,0.6394675362973957,0,0,1.5125524922561273,0.07033137819785173,-0.05169986829966431,-0.39345101168303653,-0.40489494941316384,-0.2998921954872811
220,1.3490437234653212,0.6503883883963858,0,0,1.474104307254881,-0.21968800381336032,0.11010201338559279,-0.4032749127589475,0.1326351278170551,-0.4668350310675478
221,1.3598149366598509,0.660697023482607,0,0,1.2084933134720295,-0.3741931150232807,0.510740230996727,0.010704027442375455,0.05998220624781464,-0.6072408917257767
222,1.3549577871209189,0.6702080042887605,0,0,1.0084710285079161,-0.2987932160847012,0.38120668539534674,0.19985300857882446,-0.7810256205903606,-0.6673921866342503
223,1.3351584528710119,0.6791042126515681,0,0,0.9452767304215498,0.08752548825010768,0.38758641261998,0.49675092197901727,-0.40041641016529145,-0.5979137406376084
224,1.3014475155018905,0.6880814424996348,0,0,1.1392899796077631,0.2432543635552847,0.4364590026459069,-0.05522873153078383,-1.060726559389184,-0.41078840034403324
225,1.2551320768242389,0.6982830931449758,0,0,1.3981809780040086,0.1608328191121094,0.237106541739264,-0.2067538377293711,-0.5198722640942611,-0.2172306159309195
226,1.197832284064404,0.7110142989574614,0,0,1.2412594589412556,-0.05395841978916043,0.34591483955670344,0.03763173513485019,0.4687646177628107,-0.16967029029370237
227,1.1315780417607166,0.7273187608814552,0,0,1.1439482785595902,-0.16851980162110342,0.371887024956321,0.28129528044679825,-0.06459315698897365,-0.10157055147502847
228,1.0588956643663194,0.7475674153310852,0,0,1.113997511549991,-0.13150328646296947,0.2076575771983152,0.4403944626762868,-0.1207871391908488,0.15445529945361866
229,0.9828254614927632,0.7712097542619034,0,0,0.9536438247351553,-0.20559233106085412,0.18658667795550016,0.5024065895066994,0.24153848644532355,0.36567226176179696
230,0.9068440584327861,0.7967731433066628,0,0,0.7967585343641757,-0.20677466215479248,0.19302418607808433,0.6871783591228577,0.6416852162774209,0.43660879632394384
231,0.8346991567977223,0.8220974327402841,0,0,0.7370219291784617,-0.13227560220610757,0.1996867415072395,0.7305612833538845,0.5659594258756082,0.4763134328643033
232,0.770186641721817,0.8447119566967379,0,0,0.7408629723004603,-0.07596563317720578,0.1949496423406215,0.7066254598109306,0.3104743293878378,0.5169351406316076
233,0.7169059335078186,0.8622348659476591,0,0,0.6782190157930924,-0.0719207204491117,0.14912966698061506,0.720123903014775,0.3698537540820302,0.4970671351638309
234,0.678022194097315,0.8727013086215863,0,0,0.6663443584754373,-0.0892984746494417,0.1551156536775482,0.7364095991461124,0.2412138565041033,0.3725735400601466
235,0.6560517398843863,0.8747799054153018,0,0,0.6811313321908329,-0.08996245656115673,0.14523750040316166,0.7437841042897139,0.21019556574582,0.21146389268025653
236,0.6526777970061767,0.8678853092572139,0,0,0.6584743347665202,-0.0722489735989471,0.0763961982162483,0.7694909286057035,0.10535699811162458,0.05348847167908786
237,0.6686012622153834,0.8522212567801836,0,0,0.6658816916276307,-0.05144887379772364,0.05021283343237171,0.7565057841107896,0.010507209191147388,-0.07485609323143726
238,0.7034350010188487,0.8287901293554153,0,0,0.6809487488594608,-0.028116790783760243,0.0405661687774496,0.6917387701387304,-0.20935793702800026,-0.1944845509001338
239,0.7556570668366059,0.7993862382717956,0,0,0.6909946895715814,-0.03176170781873957,-0.011507537633390685,0.608609947464538,-0.42285209309722643,-0.33638454740243723
240,0.8226428743781042,0.7665600537242361,0,0,0.7366605678689149,-0.06208654577515695,-0.04267390266910442,0.6216970906007645,-0.42437195196832683,-0.4719316089231704
241,0.9007938379897293,0.7335119086552127,0,0,0.823660672896926,-0.02170091659943597,0.005806048169288946,0.711619898619964,-0.4693616610476326,-0.533736151691716
242,0.9857675922352573,0.7038609985053681,0,0,1.013261742286877,0.05173808498922969,0.0016006662731316568,0.6847839172997952,-0.44331303183993237,-0.44941351240874944
243,1.072794115752944,0.6812522099350272,0,0,1.1670120408272622,0.0779078894357693,0.005419580965789001,0.7035714619528157,-0.22160108573836387,-0.29238957160140844
244,1.157040091145648,0.6688135220861686,0,0,1.2180435743492115,0.036678180368798476,0.03350705817203588,0.4959168582424701,0.11037627478443487,-0.12127528903357795
245,1.233971356205551,0.6685469730983913,0,0,1.217157404057409,-0.02287247136826329,-0.15175046406052078,0.3400794944349585,0.3198814775176635,0.014329064685509686
246,1.2996666888958903,0.6807970831279342,0,0,1.2130504130507875,-0.11613054020944645,-0.2620239888511926,0.2153385078310825,0.011767782362409687,0.04301943924310863
247,1.3510509500818608,0.7039607850747861,0,0,1.4013734539590212,-0.07897311204264557,-0.1804974080803068,0.35992835210375296,-0.3457200767010496,0.15755898692219994
248,1.3860307147132591,0.734565664551501,0,0,1.466496464784215,0.3466065818315808,0.0011460461479917386,0.22858189138123644,-0.014778246470562547,0.35388722087990726
249,1.4035254729023299,0.7677548893912288,0,0,1.3346431418293014,0.40005771099301274,0.44063318596559736,-0.3319340262406961,0.4346695535833689,0.5598093871832975
250,1.4033979306154178,0.7981030625239903,0,0,1.2493950702286947,0.49924878451311716,0.6913583657013116,-0.5700536572177973,-0.0037721299007613383,0.7975584510980873
251,1.3863061241659176,0.8205818281652815,0,0,0.9631849318726514,0.29636798820967974,0.5876368977493792,-1.1926967736273362,0.26577885605094775,0.8984537912799749
252,1.3535257829828922,0.8314333272287087,0,0,0.786126414091145,-0.24265379096638842,0.40597460153488046,-1.2327206444604695,-0.23280061905918803,0.5724679196526414
253,1.306806553906563,0.828724871160036,0,0,1.1570922856017993,-0.5197574527525468,0.31811639856760526,-0.6891345142735104,-0.571780854921708,0.0003105543301176438
254,1.2483089019948843,0.812459008927101,0,0,1.334621214866413,-0.4404490003983292,0.3396116613679658,-0.20836609415973073,-0.42486880493783197,-0.2485189202420088
255,1.1806173263049073,0.7842653402063092,0,0,1.3864626736467318,-0.016795628446650213,0.31253213828915755,-0.03173243752898495,-0.5738320487962667,-0.168552137390467
256,1.1067702086198385,0.7468340768137366,0,0,1.1959162937400036,0.2208547741303933,0.2196911442585472,-0.25168933497934026,0.08092183732464578,-0.08168404224087732
257,1.0302277925997536,0.7033066585016009,0,0,1.0022795249698981,0.16837439335564128,0.20181213548201682,-0.42057400872708894,0.008314922355594955,-0.19290675864770135
258,0.9547298414440537,0.6568033884656505,0,0,0.9042712509915485,0.07842415438565795,0.18961343661233734,-0.49199658654716777,0.18810059182754726,-0.3034048130572248
259,0.8840493522639788,0.6101721283907054,0,0,0.7269403027618407,0.024421830239462258,0.1702620506065032,-0.46961808962753077,0.7659376327004195,-0.3183982852314321
260,0.8216942403618688,0.5659336304628486,0,0,0.6709884536789273,0.03340879190478372,0.21345437304482645,-0.35747541928562504,0.6302489935890914,-0.32974726239603297
261,0.7706258047159248,0.5263257413366125,0,0,0.7226847741418826,0.06306561350249035,0.1998384135823672,-0.2843830917635169,0.15800803729819052,-0.3865299332513088
262,0.7330506471616675,0.49333780203896777,0,0,0.7304592199675135,0.0543617104812432,0.17496890349430896,-0.29388766838989716,0.3873241420200878,-0.36200020101878116
263,0.7103136301232639,0.4686683299786695,0,0,0.6781373934830879,0.07930254728019409,0.16114235577808314,-0.2867203232517477,0.2714674765180821,-0.3002960196850344
264,0.70288972963205,0.453598183987565,0,0,0.6991470678885926,0.05814685019219864,0.15004262267829638,-0.2997676075078617,0.20702610503162183,-0.1999462324510765
265,0.7104536219520422,0.4488187542872616,0,0,0.7260886630835659,0.03834537276992015,0.107231624179116,-0.27615278517120345,0.038923007110055835,-0.047601392430245075
266,0.7319990624745476,0.45428074020025133,0,0,0.7620899736344426,0.02499142295264063,0.04494335943688671,-0.2710198175571535,0.022348576778331287,0.11841901556622196
267,0.7659813172813759,0.46913205330874697,0,0,0.7700924393400755,0.012837013041685908,-0.00014081117405270147,-0.24773813940441153,-0.17174922852600835,0.2192531497209998
268,0.8104613669120138,0.49179163839101514,0,0,0.7993656230045936,0.047579094183405606,-0.0525582416368535,-0.22682153842314928,-0.311517088124727,0.2767216660974299
269,0.8632380659447227,0.5201643065237526,0,0,0.8505429438147593,0.11049635748229591,-0.0033489676748916838,-0.28368092811861434,-0.26485966637877634,0.31814744131626843
270,0.9219613609001208,0.551954360230914,0,0,0.9236383660080918,0.16749716296196357,0.07496637554867727,-0.43518182165637376,-0.35571122802096555,0.3460718671565832
271,0.9842240011040534,0.5849991768305264,0,0,1.0090859163533126,0.17700899942004877,0.06479224321150395,-0.6522844392505679,-0.349372547514208,0.36391417834845863
272,1.0476315290329647,0.6175296103009841,0,0,1.0263472746466358,0.04556035322329058,0.006065739008692919,-0.8678241341083273,-0.1376450403196481,0.32113452048089364
273,1.1098532485673291,0.6482798656699919,0,0,1.0741259429224719,-0.09323261743798564,-0.045239992227999674,-0.7111416129711785,-0.12050279950190632,0.11606535773311476
274,1.1686611396196094,0.6764184517913977,0,0,1.1230625033552826,-0.08999097881510315,-0.12571321394404159,-0.4743939029243328,-0.10112016560438405,-0.05142702817386774
275,1.2219664521486187,0.7013426710815981,0,0,1.203018295683393,-0.021923216292051132,-0.20899099346154898,-0.40759707773722637,-0.11482899011942081,-0.0659320587615066
276,1.2678614872631493,0.7224412777404798,0,0,1.2117665796912707,0.13632413730849707,-0.2938417375377573,-0.48924660721751423,-0.07764354363470559,-0.027456139142604925
277,1.3046670821840298,0.7389492507182209,0,0,1.3543282596826611,0.06692401486165082,-0.013056381299433425,-0.618528665071296,-0.1612170524558523,-0.08182305228607643
278,1.3309787065037566,0.74998308831798,0,0,1.3503476579636253,-0.27379874299854384,0.10222485122340537,-0.4619206199147138,0.012558239155353727,-0.23841660104941523
279,1.345700864471639,0.7547718940019893,0,0,1.2596786169040535,-0.560308287437841,0.3429026295689618,0.11046237177771584,0.5737712556079533,-0.5124679801826931
280,1.3480642298385748,0.7530177028545845,0,0,1.0880336009547915,-0.6025681171908661,0.615329117007298,0.7796405011776256,0.05027160868502629,-0.731149570072216
281,1.3376330178412175,0.7452527601306048,0,0,0.8919987009504287,-0.11513903771088539,0.5184965427410042,1.1006393282758988,-0.22121461310706203,-0.7091555646930335
282,1.3143254239802455,0.7330351662248706,0,0,1.0003965208343546,0.3184961024965953,0.44954231624020874,0.6268603126545285,-0.6548593484033981,-0.5210233155192642
283,1.2784734567655507,0.7188603624179056,0,0,1.33047071914597,0.39285866872955383,0.23739416449477882,-0.05626300963791088,-0.7128428914862611,-0.2536165369991857
284,1.2309280774161462,0.70576628325379,0,0,1.3340055862923306,0.1761041265498379,0.24432929927956085,-0.17005250802500985,0.025727764478206513,-0.1294053010374366
285,1.173178663993165,0.6967354925184602,0,0,1.2189510940207242,-0.17502518401441047,0.29538899499603827,0.02634228498445393,0.2620587937864586,-0.21503311704947456
286,1.1074291430329797,0.6940830930236392,0,0,1.1089345576369745,-0.2615743723673643,0.27652781784950936,0.4140170994973333,0.16373530193720104,-0.13491788148553768
287,1.0365770798650504,0.6990187905198911,0,0,1.0992043623138463,-0.16678590000876461,0.12976508331337314,0.5351616723203624,-0.19576845147242655,0.15427521559990431
288,0.964072323700053,0.7114917357201757,0,0,0.9164395116686591,-0.15280074991645468,0.12244753910553083,0.6792425700918419,0.38051791204945107,0.35997121762471823
289,0.8936699018680813,0.7303167559725646,0,0,0.7458026476324108,-0.12650068940960849,0.13424119360751885,0.7385376510449153,0.3246953104404267,0.4462754141153051
290,0.8291221342174481,0.7534939416168508,0,0,0.7437595591951022,-0.08627662409123012,0.14566676737167236,0.7007538874534334,0.2331969297714805,0.5092338030561585
291,0.7738684133464258,0.7785993513759552,0,0,0.726709973810596,-0.06485117603697427,0.14319009738023483,0.6765014739417928,0.08401150281498201,0.5310245874946106
292,0.730774647837574,0.8031419018747576,0,0,0.7106835922339614,-0.0791830603800945,0.11922773921626907,0.6727641540826844,0.1486837367756352,0.4658644111567247
293,0.7019533997704921,0.8248288416646031,0,0,0.6936471446762474,-0.09179612783152741,0.13643034804496426,0.6925350235721329,0.14002499415598857,0.3293687684938744
294,0.688672121547846,0.8417328930156105,0,0,0.6712924935933213,-0.07727940905326973,0.102413853961949,0.718938552280225,-0.015383920833374483,0.16644363249207722
295,0.6913401849941218,0.8523890246858078,0,0,0.7018816588931198,-0.06000059188662913,0.04931379813710942,0.7614632120016753,-0.19240458830609602,0.03147350431343362
296,0.7095576989300459,0.8558601721753697,0,0,0.7300762521238116,-0.01813145520105913,0.039261972028667845,0.7171328755093848,-0.3688846796109737,-0.07013513804085043
297,0.7422077391731283,0.8518009608946702,0,0,0.7295307389937048,0.0011444725693507524,-0.0405387229614597,0.5789247031642532,-0.6226376065377656,-0.16725472977661374
298,0.7875755126566881,0.8405255646684302,0,0,0.7437794608040267,-0.0182024533027372,-0.08154631155274247,0.5427477366407462,-0.5428631297485725,-0.30537095968833816
299,0.8434806938510452,0.8230619065217222,0,0,0.8264674624015032,-0.08554269341514976,-0.07869982921449997,0.5131535213344314,-0.5716491784742146,-0.43088054393715475
300,0.9074101774795512,0.8011584062099117,0,0,0.9901547877231232,-0.13171184446532772,-0.09054568092383362,0.538985048790218,-0.6572010166918117,-0.5084739405124469
301,0.9766371446164545,0.7772061002256664,0,0,1.0822976831565394,-0.07895918165235559,-0.060648340924368514,0.5997414175660444,-0.24792304871974002,-0.5108362754608516
302,1.0483130050026612,0.7540510476551613,0,0,1.028578956238889,-0.019118603792227,0.02213397051323382,0.6853404140042113,0.16552148660937546,-0.4614644824634892
303,1.119528011606953,0.734699744979269,0,0,1.0467747027187755,0.04393025346378662,0.029825452087631623,0.6157376926831332,0.16604619654691044,-0.32030166905012697
304,1.1873538897114724,0.7219572327457111,0,0,1.1006506833289447,0.08158441054069747,-0.08483988529056172,0.4478198239955575,0.3835810694905089,-0.15971700159807736
305,1.2488970379879234,0.7180705841315249,0,0,1.1330207126829008,0.01667991168167224,-0.22962939802337165,0.400582958378131,0.33373531983189325,-0.12016613986936019
306,1.301391585317989,0.7244656645373273,0,0,1.2414744409112066,-0.1613896162964099,-0.42452430227160237,0.4570006562819647,0.07145091350046012,-0.08420909468315319
307,1.3423454248087003,0.7416529535633056,0,0,1.2257429410342093,-0.2077547270586555,-0.3769584360482675,0.7930204608142856,0.08593355510582411,-0.030337035052232637
308,1.3697276147571835,0.7693382010070583,0,0,1.4127478859374585,0.13707648692043278,0.0562925221679548,0.6896301173164646,-0.26582875568942854,0.16533909408465694
309,1.382163378389492,0.8067178446149216,0,0,1.3789954299765976,0.36676338038046996,0.17205814438476932,0.12337172865202399,0.40386056742275245,0.390038114418313
310,1.3790908706014133,0.8528861559378064,0,0,1.4102795821138228,0.6386290569051057,0.5826382810180184,-0.26126872912590854,0.6611636560619901,0.5698308100060159
311,1.3608365971397456,0.9072417640511876,0,0,1.2002025383854529,0.5288837786770247,0.7484131083373556,-1.0564087192378966,0.5911298809590152,0.8806487090179546
312,1.3285881807912037,0.9697595677727409,0,0,0.7690175724783321,-0.16343755808453694,0.43462056720770237,-1.3986355150541618,0.16084285466087025,0.8240084332592809
313,1.2842808902528866,1.0410073591954316,0,0,0.9472281158376433,-0.4777427103565529,0.2697027526063052,-0.8226563844937098,-0.6367644680569327,0.3647944907704382
314,1.230446409457005,1.1218607143067152,0,0,1.1827089859015758,-0.3281550819454538,0.3840171870679674,-0.30582948422124295,-0.34789294603219156,0.017582334067434886
315,1.170070504497604,1.2129946481321163,0,0,1.2752400255278256,0.11710807612996782,0.37987262979417963,-0.3779557369740679,-0.8768966848522685,-0.07944633727266956
316,1.1064691783640783,1.3143387931574115,0,0,1.210281728900435,0.3814297401945627,0.09677464134720853,-0.8995760413118923,-0.41699021768881533,-0.05790573519962805
317,1.0431545248977554,1.424702947282092,0,0,0.9462737000276601,0.2954838792224417,0.18535968136136113,-1.355016093778119,-0.021423303587955377,-0.12155425147750651
318,0.9836551162380602,1.541704500600293,0,0,0.9605725271195376,0.18179956839584388,0.19979655595104343,-1.5931289731054292,-0.5210951559492214,-0.26291440535364646
319,0.9312812451821272,1.6620143064771076,0,0,0.8955788081222377,0.11165589943995696,0.09113832709964026,-1.7105355323810005,-0.047799241914494264,-0.3645172186375768
320,0.8888581596529632,1.781845425365616,0,0,0.7849091175592771,0.1022974301088507,0.20923643536360392,-1.7594628042377642,0.12283458972735956,-0.42296895846804944
321,0.8584702074513229,1.8975680281277625,0,0,0.7659147931873238,0.16224678014173993,0.19810995710152512,-1.804018000901719,-0.031002951101282834,-0.4391546708154346
322,0.8412611676784617,2.006335583667855,0,0,0.7910255210825226,0.19439009863586823,0.12366632128419128,-1.9510805937659288,-0.07756584240333426,-0.4758148599309118
323,0.837325726333544,2.106626637432014,0,0,0.7892989086718105,0.15525120965577435,0.13974922666127212,-2.113195912694934,0.10207689180374153,-0.5140027611085497
324,0.8457103759979747,2.198622514008556,0,0,0.7875795814672691,0.1566100346469257,0.13193659257366022,-2.2500507596476536,0.017235227655777362,-0.5153248374623945
325,0.8645246495684361,2.2843514633372672,0,0,0.8360421911041976,0.15699885342603165,0.10823886874922467,-2.4277362339780852,0.009547443061315473,-0.483069696203479
326,0.8911490187176118,2.3675446066645525,0,0,0.8927160405253003,0.1062585897714911,0.08326458550240219,-2.5214682497369276,-0.04633319828749242,-0.44492818678968304
327,0.922514741630925,2.4531796718983623,0,0,0.9550424719928394,0.04935463397691946,0.024728377649152315,-2.5048652309392723,-0.16449184812533507,-0.4192047190016905
328,0.9554236895715713,2.5467380321485393,0,0,0.9761717604305448,0.03619458971527494,-0.008526283265654496,-2.4770748411451184,-0.13124529085206582,-0.379135040066519
329,0.9868739038515787,2.6532609739685387,0,0,0.9548306710748106,0.07621713062374823,0.009699708652856695,-2.497514597682014,-0.20433740279141643,-0.3505837049493032
330,1.0143594967356693,2.7763451667880763,0,0,1.0084787345115338,0.1353575208685149,0.015784640778290754,-2.584087305213867,-0.25103321962990555,-0.33340094143898763
331,1.0361187972733203,2.917246339700336,0,0,1.0411573832395091,0.20991927067077057,0.03085308509792392,-2.7125569284358466,-0.05801156201269247,-0.3271060937148701
332,1.051308716624085,3.07425425131586,0,0,1.0072652228941752,0.2558359694345729,0.033024271999175146,-2.9055315941234388,-0.033199551841842756,-0.3775394267492369
333,1.0600852300258408,3.24246394148507,0,0,1.0763319911128681,0.25728871223288274,-0.05288691928067623,-3.0751017810874983,-0.21355987407726107,-0.47040609465023275
334,1.0635718715745663,3.4140092647029707,0,0,1.1326775997177427,0.26259428560832104,-0.12686428694630505,-3.2053980207431465,-0.10228311804197952,-0.5293124795610505
335,1.063703451424193,3.5787573515828806,0,0,1.0822512639649546,0.2648255551407084,-0.1377286826158901,-3.4342794701969868,0.08595498395192894,-0.5423771974690506
336,1.0629439593448837,3.725395553674922,0,0,1.0373708041603655,0.3138515640677518,-0.13289868233527388,-3.654784712081546,0.12818755115107366,-0.5107775283922267
337,1.063897381364442,3.842780214908692,0,0,1.0065219991330028,0.3414581714054203,-0.1487434709641949,-3.9080103433979505,0.12096362095748925,-0.4660275478158618
338,1.0688549700625325,3.921364608443686,0,0,0.9811566688312008,0.27277177391794005,-0.20333124648462422,-4.123676254568686,0.13447165843933775,-0.4734318451343452
339,1.0793451666197909,3.954491721151469,0,0,0.9723447213072705,0.22353721501177415,-0.2146753678686606,-4.239249522587179,0.1895802158724408,-0.4979644999457479
340,1.0957659090897423,3.9393393884874697,0,0,0.9246223313250944,0.09709698460109059,-0.16158797969740202,-4.262889581755018,0.3719716389916591,-0.4987290382042732
341,1.1171791770845374,3.8773501197332676,0,0,0.9188239565076401,-0.07681825180021593,-0.07996303925739547,-4.03783473802544,0.3295321204202665,-0.5270368279479225
342,1.1413310528602083,3.7740646529861657,0,0,0.9715222001442825,-0.20521006028666966,-0.0019069828280672738,-3.731886371112425,0.32402482180940884,-0.5639852123575048
343,1.1649248712488052,3.638390437441985,0,0,1.0999504317124844,-0.283578171211339,0.09767857749439823,-3.4258859174064087,0.26607808661657095,-0.6062199902449089
344,1.1841229598096699,3.4814440425388224,0,0,1.2137907665869265,-0.2859551487993781,0.20950241670918485,-3.157525729375628,0.5661113042475842,-0.657025598692433
345,1.1951962589684955,3.3151781244414242,0,0,1.2502558882126553,-0.2579745369577614,0.31955257900148254,-2.9753312999378294,0.7478335309694006,-0.6815710053756026
346,1.1951992507035147,3.151021256274087,0,0,1.3211706286705085,-0.24013241493599646,0.29922495541650673,-2.8320688144333026,0.7791731511457841,-0.7060133903048234
347,1.1825350287647742,2.998727046614279,0,0,1.3198339786158515,-0.16441156622916472,0.2888882529448819,-2.605848665812294,0.8580859026877357,-0.7143816787912984
348,1.1572959641433418,2.865567275624852,0,0,1.2543141747319866,-0.058152223230607966,0.21111852351938779,-2.5238636095236875,0.7644575820256665,-0.6035068688432382
349,1.1213126564685962,2.7559323571709506,0,0,1.13962404775646,-0.013237003938328074,0.049460140625659614,-2.589494767276201,0.6490721336198457,-0.38215625213498144
350,1.0779047228220093,2.6713326325860804,0,0,1.0769841939164044,-0.08191874941578824,-0.016126717350274062,-2.6594176453451484,0.6153166045331827,-0.14587832970190448
351,1.0313859089583102,2.6107319446433648,0,0,0.9577929760712237,-0.1782548022233848,-0.03933243109637217,-2.6343929744886863,0.7338379680704583,-0.039398259418600104
352,0.9864195348840915,2.5710992451541963,0,0,0.8664369253871099,-0.1933962867571952,0.0037953074095046974,-2.611913849481136,0.7021081914160746,-0.026314750346305583
353,0.9473414312527073,2.54804520506408,0,0,0.7980430508008866,-0.1962073142994398,0.03013877995435634,-2.6149762892255857,0.7158448502913819,-0.13461557856356154
354,0.9175658748380562,2.536423558848216,0,0,0.755172377628342,-0.22214675277856796,0.02489145464478345,-2.572517902569698,0.6148140621117866,-0.32728391336062557
355,0.899168389362794,2.530815928092652,0,0,0.7542059071640165,-0.21637479411712907,0.0205561885507415,-2.456137833446535,0.3051125970826611,-0.48623221139574807
356,0.8927019558378433,2.525871767137141,0,0,0.8643054684959606,-0.18186284125261415,0.07486768887160442,-2.334264640828993,0.011071561682040557,-0.6017836895126518
357,0.8972570540918826,2.5165258748641706,0,0,0.912638578723019,-0.1559745862787266,0.14534057840356135,-2.27283349820607,-0.08268431888719494,-0.7126219051093937
358,0.9107312070699409,2.4981479584939534,0,0,0.9344034418950244,-0.11386043226596007,0.1665730336095356,-2.2565392294343205,-0.19925509979275774,-0.8151829290233389
359,0.9302413207279256,2.4666814242419437,0,0,0.947206987303511,-0.08611653558448197,0.1413801396012778,-2.2587644826631355,-0.3186237062709065,-0.8641219057180679
360,0.9525984911767974,2.418804690044318,0,0,1.0017871699809997,-0.08875670420419107,0.0892988214143949,-2.2625959456408395,-0.6014544240403658,-0.8408396699069127
361,0.9747685160763572,2.352113181269988,0,0,1.0490694485470529,-0.1569007289701718,0.0786219309088629,-2.2249561286888366,-0.5164357068665696,-0.8089138133859757
362,0.9942558702167328,2.2652922054535685,0,0,1.0071088337089211,-0.201411992486168,0.10351042377577273,-2.146849280250897,-0.41640569745434614,-0.7820675420152956
363,1.0093693662496808,2.1582416289201687,0,0,0.9785447149772573,-0.22253776955573906,0.12603611599549336,-2.042768031930992,-0.4393370653872244,-0.7552533243363692
364,1.0193511483356603,2.032123225243016,0,0,0.9595300002657158,-0.22564260738057074,0.1270088328884181,-1.886770200951036,-0.3754838892944774,-0.7210612713789145
365,1.024372876400737,1.8893231409691205,0,0,0.9780894765805042,-0.23600097900372505,0.11983403860752448,-1.6658039525186605,-0.37724154285257994,-0.6705473706697075
366,1.025418442497296,1.7333450545262685,0,0,0.9706847598137816,-0.23600210055287021,0.16887418707906807,-1.4490583871884006,-0.1569559404298988,-0.6082675276598497
367,1.0240785644302999,1.5686645694972312,0,0,0.9921040180256986,-0.20628775325887477,0.22241796937760083,-1.3132195856790574,-0.2988912472345572,-0.5254956181655682
368,1.0222815406219894,1.400573525547816,0,0,1.0684914537936416,-0.08709732116020795,0.303455704448865,-1.250360439473405,-0.1823225227497484,-0.39342766931136025
369,1.0219821941956582,1.2350205290278378,0,0,1.0376035374085155,-0.11247617885307322,0.23096562834746265,-1.3701709182637944,-0.12803827787270394,-0.2854909582254988
370,1.0248337060711525,1.0784188127621275,0,0,0.951679814812098,-0.23231260481369267,0.16238364997325946,-1.293180986915993,-0.14551140418065187,-0.2609389522548229
371,1.031877287155074,0.937364779308989,0,0,0.8670944007316165,-0.306201500805873,0.18279246756226886,-1.1365932854980154,-0.17856772926326403,-0.2609857027341947
372,1.0432979148118686,0.8182133052832647,0,0,0.8530954718607889,-0.2871083467122513,0.12846374483330614,-0.8267670359294016,-0.3887470480861476,-0.1910615068758268
373,1.0582998252315832,0.7264987128616002,0,0,0.9411839083964461,-0.17556017011299835,0.188260205743175,-0.5774842450140348,-0.24555624655255873,-0.04899084708757016
374,1.0751437936045136,0.6662596470891693,0,0,1.0231482337232378,-0.07205071045428131,0.24278248658470775,-0.46871508029445474,-0.21939439116981624,0.05722118089180685
375,1.0913595998513237,0.6393913573366787,0,0,1.0465932585332158,0.02842653272147056,0.22824955331833666,-0.3333912931153459,0.08484631820336248,0.09416277261883672
376,1.1041111753389174,0.6451801470070221,0,0,1.0484358138069052,0.07537025775999305,0.29531496393416384,-0.2404515339930863,0.26115206841358973,0.06656931612138184
377,1.1106604286117396,0.6801575823959504,0,0,1.0823691569087825,0.13024802636199018,0.2454942482420439,-0.2678559308494561,0.5608439168722884,0.06707652190912282
378,1.1088547874082955,0.7383513607373673,0,0,1.155755282337453,0.20691152779977687,0.21497844462636456,-0.49503270583824743,0.27044730404955,-0.0419751599138463
379,1.0975535828293546,0.8119249825894866,0,0,1.2794012394029872,0.20987666778227304,0.18317604745743438,-0.7441639636956823,0.14308761099684453,-0.2582475364415673
380,1.0769105756926822,0.8921137581799391,0,0,1.1891888074197514,0.19726690393130164,0.1840038301409769,-0.8641602201515375,0.49006071537417545,-0.45898827915036244
381,1.0484489895837537,0.9702996611315176,0,0,1.0829518921112542,0.15376451682175618,0.22666259555430368,-0.9373458455028624,0.4230240480520798,-0.6114998899379843
382,1.0149042304260867,1.039035170811166,0,0,0.9344247650723134,0.10920021026067743,0.17004804387263828,-0.9890618334295407,0.45805652258721385,-0.6519413146533479
383,0.9798602973700749,1.0928352191255324,0,0,0.86772497020327,0.0860088380106397,0.15998912006725272,-1.061952600894182,0.27461889592674765,-0.6304509388094975
384,0.9472508526906772,1.1286065446275864,0,0,0.8769607303542428,0.05847384407903336,0.13751802947171454,-1.0843875923028656,0.31504173544283326,-0.5933848689857419
385,0.920818645166542,1.145661632925261,0,0,0.8491858884068696,0.035997271972413446,0.09448083077450507,-1.0137775349985454,0.4295070492051896,-0.5171480595041786
386,0.9036235776920817,1.1453494238222364,0,0,0.8307469443287093,0.023932439019275147,0.11124541864067045,-0.902542627262674,0.31010632412113615,-0.44151178586958045
387,0.8976683242124478,1.130408933252071,0,0,0.8410272241041458,0.020945302284235554,0.0892897689918874,-0.8354501830557131,-0.044983016681076356,-0.35737875644325307
388,0.9036820984353637,1.1042006826606252,0,0,0.8925148018830372,0.015066017475858985,0.0501787785106466,-0.8225334409139698,-0.2857769177043717,-0.2649722666163456
389,0.9210750894597945,1.0699829982188471,0,0,0.9112497328672715,0.021424565229279505,0.011242700584731471,-0.8071240815574804,-0.3948157275946972,-0.134292232709623
390,0.9480516841505552,1.0303720780385313,0,0,0.926955351549523,0.03251064416248315,-0.011186900395462463,-0.7635019889569887,-0.5259567848092583,-0.01383989315613939
391,0.9818519531978945,0.9870658443638829,0,0,0.9735313634108457,0.02611960873808645,-0.010435979891485139,-0.693910763608364,-0.7008475288159111,0.04939226065527348
392,1.0190784779586644,0.9408419843459566,0,0,1.085750567574748,-0.020962072823587485,0.07970914328968838,-0.5955456212453363,-0.8259760543940207,0.026218349752505133
393,1.056058715217178,0.8917808495758587,0,0,1.16547079422449,-0.04320392598723387,0.1725495970210391,-0.5115104582698558,-0.8486896719814618,-0.07977577548602252
394,1.089192955620724,0.8396278598173259,0,0,1.1716211061160038,-0.019032259845015036,0.36264078202417227,-0.45112540395611644,-0.6606004381578418,-0.2169659558464199
395,1.1152489754407204,0.7842013038672782,0,0,0.9818733022565741,0.002355335264428507,0.395996492584703,-0.5883743896580875,-0.21554980146147232,-0.30753534034180624
396,1.1315887619222587,0.7257618617273355,0,0,0.8277631228119275,0.0609558639914681,0.38846092473219435,-0.7329004353207196,0.05833812448007938,-0.4064537913466922
397,1.1363413138562373,0.6652755058373876,0,0,0.9012799371533085,0.08487968471681542,0.28968860323010015,-0.8635374715457823,-0.12831722758740263,-0.41648398401476877
398,1.1285490547013763,0.6045155160336141,0,0,1.147194316216606,-0.07004784334743777,0.08846683218016224,-0.7017071009710769,0.012711438745191378,-0.35673942330082153
399,1.1082994034690885,0.5459721158732532,0,0,1.2897163613430902,-0.2441092991557793,0.12126382694892894,-0.3248591556641953,-0.0004992075976122885,-0.1584671152556487
400,1.076815922743443,0.4925804321600778,0,0,1.2516493517529867,-0.2369314323135262,0.15146589102015467,-0.131909170218417,0.05737285353556651,0.1810353964904625
401,1.036454615467982,0.4473268615226831,0,0,1.0975274958839039,-0.15430658591213695,0.19375505962700132,-0.09203627210266152,0.2739338513194585,0.3916759509005816
402,0.990556473904054,0.4128201146182457,0,0,0.9425770322197644,-0.08933288884007765,0.19676685112366524,-0.12084118702414488,0.19017768940271834,0.41933407764368197
403,0.9431473554836588,0.3909020399677327,0,0,0.8184575080120099,-0.01104556048970913,0.18942679522014416,-0.1310753418626804,0.2131883886373196,0.3680209793894283
404,0.8985262887291363,0.3823442334733403,0,0,0.7816221460103914,-0.03207594216826152,0.13568907559262217,-0.16565222903142862,0.11634592362937596,0.29611722625892134
405,0.8608158058765999,0.3866580649647213,0,0,0.7845659516165916,-0.10393984830796987,0.10910438524610074,-0.15298001548534143,0.12676893059661226,0.25044219171743287
406,0.833550657299374,0.40204531454413694,0,0,0.7764504470340278,-0.1591907242995406,0.1428484741848368,-0.0996450553114772,0.1861336213363886,0.20802705680225375
407,0.8193601969393717,0.4255199025288212,0,0,0.7720303822371696,-0.20923208073518457,0.09337311883466308,0.09071365229992658,-0.02341787419650795,0.16354127812434885
408,0.8197696259045583,0.4532215905236465,0,0,0.8257198971817973,-0.20258261491502147,0.03722250014902728,0.32173890326540877,-0.14759448671338932,0.13626814308620935
409,0.835119237231854,0.4809125938179315,0,0,0.8598711257197746,-0.1678027538380748,0.0016142771185582942,0.4580548185868726,-0.1886526175525411,0.09526184451433263
410,0.8645853910336309,0.5046017956055103,0,0,0.8607333945529675,-0.14309465933953627,-0.02044690840911149,0.5810431408767878,-0.13556273808312938,0.010159665271243146
411,0.9062829286733141,0.521193763966349,0,0,0.8775601720459998,-0.11120432143094026,0.01858960368715949,0.6733355595223766,-0.17728155893523653,-0.0846668767220799
412,0.9574328308235143,0.5290309637916932,0,0,0.9241277334663404,-0.09752250073532324,0.007347252761355499,0.6858551083327081,-0.1951535826878411,-0.13731950317837274
413,1.0145851452109607,0.5282010123017038,0,0,0.9890120036998556,-0.08519104053177895,0.02198027313402479,0.7288444278818984,-0.12583490602402156,-0.16325775858795138
414,1.0738897030859422,0.5205182573905173,0,0,1.055484231954158,-0.06293023818522107,0.051020150824860215,0.7076691449340321,-0.04965830882824823,-0.1476202144003509
415,1.1314036717925333,0.5091534514728381,0,0,1.119124460283058,-0.020680661850597234,0.03665975225032036,0.5862686992043123,0.00367381531440331,-0.0836458118408273
416,1.1834173779256563,0.4979653186485204,0,0,1.1615346943863565,-0.003372807287697357,3.873557010446755e-05,0.3305128194932387,0.03274709801120064,-0.024581803008820777
417,1.226771188946176,0.4906667496954386,0,0,1.23580091814267,-0.019517763583505647,-0.06599886906089465,0.15572812025006205,-0.08839581321053253,0.0073708856182221
418,1.2591285300853587,0.4900132113373459,0,0,1.2494201374803908,-0.10669322645576072,-0.17625712612261368,0.015698049660476505,0.04822967116253109,0.013718774482347127
419,1.2791645198473331,0.49720766415152745,0,0,1.459661386508662,-0.11500819202759352,0.04776508021801754,0.16891400334053525,-0.31207497380464133,0.05837672116462913
420,1.2866293457627946,0.5116633944452386,0,0,1.5493043626717926,0.18546357387481052,0.2790677115310399,-0.16666098322126766,0.010574077138883302,0.2348211546835845
421,1.2822576334356157,0.5311668392121504,0,0,1.1263332350364383,0.10890862162516271,0.07150158319248144,-0.5802001643650786,0.6135175875161221,0.22706828699684736
422,1.2675264275864089,0.55237213541989,0,0,1.1541059151543558,0.09528643636813781,0.25184548421664626,-0.5963493811055541,-0.19689282313155027,0.17608948492523593
423,1.2443088890718947,0.5714786412699235,0,0,1.141478871143821,0.0227311691847781,0.3212219470993604,-0.7365468508446879,-0.36972732425957167,0.26410865186679305
424,1.2145065200184562,0.5849185266426828,0,0,1.0341670231343716,-0.11694660634698849,0.35044165607402206,-0.6683851732810105,0.0418250414306925,0.20096687632454055
425,1.17975017344496,0.5899139666492337,0,0,0.8881755292644262,-0.17717797637756036,0.4378080162209152,-0.4952016279051968,0.09563696942311516,-0.022330301327477934
426,1.1412386149577984,0.5848289802063199,0,0,0.9330387835496281,-0.03189113317418319,0.4280818663720312,-0.29239722433451726,-0.40666460824633466,-0.22288826665525519
427,1.0997439543265684,0.5693069318461922,0,0,1.093365712363106,0.03580526483791404,0.42452017634884387,-0.3768470482064836,-0.44325979648893904,-0.2054396207991884
428,1.0557662538280121,0.5442273154108151,0,0,1.1135957563031331,-0.001460357555534635,0.4197202261906744,-0.40999736046260493,-0.1738536273258603,-0.14154083503587303
429,1.0097770365353962,0.5115303014598263,0,0,1.0248703225255587,-0.08487406340419443,0.39587179192998906,-0.4524068122936693,-0.12558721817485044,-0.1726595938182541
430,0.9624690354361158,0.47395538835370626,0,0,1.0343522551197122,-0.14957342109617464,0.3613288101530376,-0.3448480031885951,-0.2262241656771028,-0.28374691199842644
431,0.9149368558479989,0.43473290530965114,0,0,0.8979293781515638,-0.06611427296624972,0.26845401272617925,-0.167958640399815,-0.08780441900345885,-0.35324723339097486
432,0.8687449492032461,0.3972592062711034,0,0,0.7296135496071606,0.03848193063711426,0.2311433331402392,-0.09832004428700833,0.08705125041143467,-0.32253805934514485
433,0.8258792021810856,0.3647795287879713,0,0,0.6884841583849973,0.1223116719171506,0.23950980483481257,-0.05928505760378801,0.31423507988190785,-0.29862673949634266
434,0.7886087479755057,0.3400967638392343,0,0,0.7797552975959923,0.13154729658141598,0.2308688802158887,-0.05036500053619594,-0.050584203052713626,-0.3267379786068228
435,0.7592944879763497,0.32532002810137284,0,0,0.7748417566110225,0.10058254324451305,0.1733482693691721,-0.08390571338750034,0.10020429956646679,-0.33065523923578405
436,0.740173020032745,0.32166588466489027,0,0,0.7248887246007637,0.08379152149084773,0.1627823099045936,-0.12383987249389992,0.005233197603357902,-0.28978925553827173
437,0.733132963656342,0.3293286248144462,0,0,0.7376802765087392,0.08107156247855116,0.1548502555702261,-0.16679588674842882,-0.10177559971260128,-0.20500133402574314
438,0.7394967817159194,0.347441404305197,0,0,0.718550264050925,0.09736154146741523,0.12229348572050035,-0.17807395334320625,-0.053903670178038966,-0.10108938767228645
439,0.7598259048572689,0.3741510198137973,0,0,0.728052104860639,0.08578355467411458,0.09550985796084274,-0.1932156431487229,-0.18619097655819936,-0.02469083896047256
440,0.7937741425322011,0.4068192514991431,0,0,0.7544657582071052,0.06283155288715074,0.040705845707430584,-0.2265475333359333,-0.31459639381952886,0.043404990156695494
441,0.8400184437418867,0.44234023719614435,0,0,0.7414811115146838,0.09286175977855708,0.012049411054279693,-0.2593912739270415,-0.3248300774048259,0.15876104770466468
442,0.8962937406150362,0.4775314104354567,0,0,0.7548464415490603,0.15633459233279484,0.07341607568550172,-0.35225892134200537,-0.40036950982762703,0.2815761616946745
443,0.9595472536948709,0.5095276990654561,0,0,0.9025908723761003,0.13139295332331288,0.09863816396215823,-0.4274838911245789,-0.5031400922610078,0.3208329894235682
444,1.026205934816904,0.536098764974514,0,0,1.1272642333165404,0.08371565540923859,0.14773643919583984,-0.49357292577573175,-0.23522981206683874,0.31434429890325255
445,1.0925225518234971,0.5558254947863198,0,0,1.1734200691575545,-0.02507979514245094,0.17609129383625882,-0.5561415449560049,0.30204168988018654,0.2137469380094157
446,1.1549425971454175,0.5681131278283953,0,0,1.156278695783724,-0.10435168353145692,0.06418782098439245,-0.3763099552533588,0.22693335032137799,-0.008521680357395818
447,1.210427860818898,0.5730705663209267,0,0,1.1906359848442438,-0.039623013281697435,-0.11099815528333422,-0.3046798810028085,-0.016569101017230893,-0.12440951622277326
448,1.2566845403476092,0.5713262017961415,0,0,1.2884774228781857,0.13222172502149235,-0.23496260051874138,-0.3566985372384537,0.03911712158556796,-0.14754761349077386
449,1.29226381521936,0.5638593158094725,0,0,1.4617925713658233,0.21067197736933463,-0.11259007482128919,-0.5209873612635859,0.12316948955076709,-0.2354972862567769
450,1.3165222805336552,0.5518970636861129,0,0,1.462091553795537,0.04274946593308473,0.0486132789724762,-0.5686608600606102,0.3502956532623184,-0.3182225200095944
451,1.3294518395756267,0.5368775887063196,0,0,1.2008602522975678,-0.1682329767511449,0.09767815238881368,-0.38046125318666435,0.36361046817291187,-0.35166065678799374
452,1.3314201636013274,0.5204411208377936,0,0,0.9835434711707669,-0.21264379818340184,0.1966671851129289,-0.13170440634346534,-0.005392995335994399,-0.3010548441061882
453,1.3228959482959086,0.5044027634252669,0,0,1.0932038241833253,-0.31539992396427385,0.5363814553680615,-0.07793077685277189,-0.5722817268335881,-0.4117831994284223
454,1.3042455317601727,0.4906762047920641,0,0,1.129064690399586,-0.22714877164350034,0.6402868477595327,0.14026265756556547,-0.2816625682070443,-0.4864523615464717
455,1.2756647344221055,0.48113811389865013,0,0,1.0078069995908516,0.08717052340650969,0.43878863698806125,-0.007903208919860447,-0.16859039821939745,-0.3076128584335616
456,1.2372630750204296,0.47744109760135484,0,0,1.2119193580575365,0.1883599962073459,0.47225885001495493,-0.23939440115840496,-0.6409629139174082,-0.10638307760229557
457,1.1892703582068582,0.4808019024237876,0,0,1.2240725818768514,0.09420731414470675,0.2856437329206294,-0.23761933668080767,-0.24667548321959512,-0.0644565754299628
458,1.1323024475442058,0.49181006305387476,0,0,1.13196803891795,-0.12957753827271806,0.37375886337069986,0.040692413652084015,0.03503355564759892,-0.10467968353117973
459,1.0676078193614706,0.5103118554811085,0,0,1.2401722980559169,-0.15077115143301015,0.3183732660836618,0.21935150451700458,-0.4768592696586035,0.05823614329865748
460,0.9972216725750974,0.5354138245070591,0,0,1.042316050314296,-0.15992551636168328,0.1783916412525934,0.33973783318304845,0.3635934579429857,0.24399417967757156
461,0.9239805201510666,0.5656147742013236,0,0,0.7611558223848394,-0.20099092043961997,0.22561315516194547,0.4280559238748005,0.36685319926508964,0.3148952447778894
462,0.8513904523269994,0.5990291143836732,0,0,0.726131927936148,-0.16102489921881977,0.20286761689307578,0.5066360839692307,0.40403036803747827,0.3507182264563137
463,0.7833810335517787,0.6336341232848189,0,0,0.7061994251750336,-0.08877139401106042,0.20580869143168076,0.5082532138090237,0.3996239663815593,0.39502092431618174
464,0.7239969768294532,0.6674742820447245,0,0,0.6963895912121131,-0.07825955728944725,0.16968337187614962,0.48516701730874945,0.23441011881772517,0.40907668907433287
465,0.6770758918528912,0.6987826823871668,0,0,0.6709535133863151,-0.09152414295014617,0.15883944167003125,0.5553128866829614,0.2664275706951735,0.3576705407946103
466,0.6459430101197622,0.7260175853492545,0,0,0.6622996037102981,-0.09646332909793706,0.170506950197974,0.5821477408515737,0.3002306799181558,0.2640985588289138
467,0.6331381809255389,0.7478462476450086,0,0,0.6207502612953102,-0.09419400708723173,0.1336802857888165,0.5824563106153423,0.1509311928851677,0.16416941975640664
468,0.6401847445091423,0.7631277056652265,0,0,0.6386024795885766,-0.0688320537785977,0.07346999874548174,0.6161945200584839,0.04877498682869069,0.06599943952349908
469,0.6674133135232416,0.770946678804841,0,0,0.626866268446623,-0.02037192037271852,0.06699015934174998,0.6506870267837634,-0.004283527083803437,-0.033110981311127254
470,0.7138604487184806,0.7707311037220368,0,0,0.6421001040952266,-0.006674949002338526,0.03143920789258343,0.5863282157197256,-0.3058170224185615,-0.1644765138681996
471,0.7772661441586838,0.7624486173727607,0,0,0.6864284149201424,-0.04677219418376749,-0.012881879684753723,0.5847400365658801,-0.34744062017038396,-0.3333315724493782
472,0.854189666954987,0.7468311427351519,0,0,0.7771638308760596,-0.09212337536892523,-0.03172393405538241,0.6278798461482509,-0.5377877135202073,-0.4491364068309022
473,0.9402482763687933,0.7255363525462587,0,0,0.9960072679125507,-0.09405838867941008,-0.03066760658721695,0.6659556931351941,-0.85989250848708,-0.48031819809764037
474,1.030460286949811,0.7011392943151029,0,0,1.096300526626746,-0.02482559955860231,0.07609731799008337,0.7989550075519669,-0.08299481628065046,-0.4443224988236553
475,1.1196513493954814,0.6768752170087751,0,0,1.1176022312319287,0.11123462562239976,0.1934476313146245,0.7922121677973013,0.2175367927714936,-0.31828282976542327
476,1.202870992285884,0.6561302710994856,0,0,1.1880705607685886,0.1834640633434505,0.07263427898661565,0.3974299060786468,0.09979281042138036,-0.12503904827063284
477,1.275769243952312,0.6417782398126939,0,0,1.2381150883000316,0.17472274306853716,-0.17624519564224395,0.13821585391851807,0.021316807740362428,0.059177865188986975
478,1.3348945310901377,0.6355441871818527,0,0,1.2751284499571554,0.027940750998075504,-0.36239932651308726,-0.1332236154761425,-0.17118372904607373,0.1145071440494293
479,1.3778847288957523,0.6375955709023922,0,0,1.4991425068168198,-0.1580811595834017,-0.252776240723143,0.05713331836836733,-0.4451339248054549,0.18864074780147141
480,1.4035302822682958,0.646501214313205,0,0,1.6280292296903482,0.13385845527288692,0.011911572260634634,0.1585007205209566,0.16834248556551518,0.38013491307378544
481,1.4116984083610846,0.6595820799195887,0,0,1.2179820276092754,0.170386922174032,0.31542793402831953,-0.07823888819853579,0.9831125206898794,0.4115218433069456
482,1.4031297807579584,0.6735547686663277,0,0,1.2918907067903949,0.3181160484990431,0.7358247837130321,-0.07022775050807512,-0.19046491963418266,0.5771176461870837
483,1.37915312705278,0.6852851576776953,0,0,1.0060458003395059,0.3435744086021131,0.6317504534126859,-0.7986963783582199,0.3136496771203686,0.738492782233262
484,1.3413946081939976,0.6924478392669013,0,0,0.7561876924426465,-0.12192315211165393,0.46828999518685277,-1.039899786955222,0.13073802083752767,0.5074416941625857
485,1.2915692793135114,0.6939262380156731,0,0,1.027701998544075,-0.34091027299282783,0.3623509272501175,-0.5596460903794729,-0.4486566378023623,0.020332152778117694
486,1.231418162203003,0.6898752270444598,0,0,1.2920555591376075,-0.3409594947346773,0.3651444217034967,-0.2134097221962605,-0.4112241818644928,-0.1975768121086202
487,1.1627966237218612,0.6814782363232882,0,0,1.3294873762205892,-0.09200278771314618,0.36148500251979127,-0.14289770118264167,-0.32763510894447995,-0.17494992488257988
488,1.0878517077808227,0.6705236967421188,0,0,1.2328949698018798,0.1046032862059422,0.30444106509718744,-0.31585861008857546,-0.11230978955378859,-0.17025234915742085
489,1.009187122904545,0.6589601045425819,0,0,1.079156491776483,0.11934206616993931,0.2253629178281609,-0.45408575247023003,0.05573987558581305,-0.22189127997516386
490,0.9299270798584937,0.6485535874532049,0,0,0.8651419952270182,0.08774510496318859,0.19264049193837132,-0.5485359532998482,0.46597688172813323,-0.26537337297582475
491,0.8536406649307565,0.6406932600441272,0,0,0.7021910479727657,0.029689234840081957,0.23621940198034358,-0.5438517036496252,0.7476794700366927,-0.2845408696182389
492,0.7841435679242271,0.636313406340576,0,0,0.6793956764231234,0.05046280775330568,0.22856152017335138,-0.4148277934669075,0.4391146448548984,-0.3416285448186586
493,0.7252268203258119,0.6358660937709562,0,0,0.6811848548747484,0.08618596084879986,0.1989816104849422,-0.3795456591174949,0.28298409238646505,-0.39225158624953416
494,0.6803653115278974,0.6392934414809741,0,0,0.666581072072333,0.11224050906304019,0.20220670585751233,-0.3763801492245103,0.35479900800960895,-0.3738149978947825
495,0.6524425776672252,0.6459929700603634,0,0,0.6460961402052294,0.12430606179326198,0.18397754856939044,-0.42323638990333595,0.24469211469813332,-0.29879783552204897
496,0.6435097892560542,0.6548084155008309,0,0,0.6482043325747648,0.09965665271916363,0.13657311305880146,-0.4655689512568139,0.1462403988855717,-0.16339573176414834
497,0.6545876352789621,0.6640929942167129,0,0,0.6487041305710785,0.07467702027120861,0.10273044315153859,-0.5148606103355206,0.07847013915148669,0.008107975847753223
498,0.685521381796049,0.671881293480737,0,0,0.6552261117778798,0.05163481113068572,0.0948198900808374,-0.5493609856628159,-0.04451960944124624,0.16800953029072122
499,0.7349065083623277,0.6761751250062171,0,0,0.6727505997892749,0.06255668624306832,0.03572233090425978,-0.5771282756271378,-0.2523157119375456,0.28653066829992047
500,0.8001081468613765,0.6753057430464334,0,0,0.6942651504261977,0.10342412093798703,0.004996319259996189,-0.6097564909070023,-0.3427349863165558,0.4016002646806225
501,0.8773962026307265,0.6682934378333106,0,0,0.7423772536300217,0.10713475788879559,0.03170584805940404,-0.6336430784235585,-0.4036561682040501,0.4577334493796198
502,0.9622054441745372,0.6551031950142732,0,0,0.9361291471448527,0.02519418086589482,0.076519861202015,-0.6558960009595532,-0.4361471109641838,0.44063186820457445
503,1.049505394716043,0.6367057341421053,0,0,1.1775196351841943,-0.12916549320661178,0.11562870587420805,-0.7901703409593309,-0.2514616953050313,0.34964104959756576
504,1.134234829410982,0.6149004933272386,0,0,1.247247431830669,-0.23401116649002882,0.00013097982672295854,-0.5647047205451203,0.05429157233550393,0.11766683789966297
505,1.2117338664218595,0.5919313344999456,0,0,1.1582712445327399,-0.19198450839639544,-0.11959020532693626,-0.22491717188362007,0.12006741155000558,-0.12245973147170124
506,1.2781056762829628,0.5700025224429641,0,0,1.2228107540380484,-0.04643249186535382,-0.20274599077497482,-0.051502174387706774,-0.08535331143520722,-0.1908140004457136
507,1.3304585144828824,0.550847351836739,0,0,1.399296652149293,0.1807866226036188,-0.23068655219278103,-0.10435481714509685,-0.24692540463897972,-0.18398075087744784
508,1.3670029300759792,0.5354875775787219,0,0,1.5990629917184243,0.07110395406163025,-0.019076899181074036,-0.349285304203329,-0.13066469479299167,-0.28351455067107867
509,1.3869992176797694,0.5242506357273671,0,0,1.3775098994977661,-0.2177128995555509,0.21929513601915343,-0.2278439849333526,0.5862617968320867,-0.35533612894000033
510,1.3905724110043518,0.5170172743555213,0,0,1.1373328880915758,-0.4033249921440256,0.4925916289343644,0.05823408887840889,0.014725820599010743,-0.4072608525624449
511,1.3784437984283768,0.5135964931741122,0,0,1.0027818358155733,-0.3631099589588964,0.5395667242296118,0.36644212487995653,-0.31749558153332064,-0.5299622479626855
512,1.3516593479511276,0.514090105847647,0,0,0.8641363604905816,0.009457232645142734,0.5785262838868492,0.5238922399486188,-0.24346063942871868,-0.5212468217563291
513,1.311403614566971,0.5191146792318068,0,0,1.1045440947387717,0.284206002999894,0.429485309804747,0.01471022632136161,-0.9731200515144534,-0.32768598015673633
514,1.2589579017611459,0.5297882169283911,0,0,1.3410858044083354,0.3000104211527637,0.3096838148311464,-0.17483092297671066,-0.4748757354117218,-0.11100461029953389
515,1.195802204255712,0.5474621280180935,0,0,1.2759359178678686,0.03206469919418751,0.28251321947886165,-0.11895015062681923,-0.02761104820137701,-0.09229836972795152
516,1.1238007283184646,0.5732723984928063,0,0,1.2063227805048218,-0.1595746396243476,0.30879396036731,0.1854438560485987,0.295600035873781,-0.08787617443811702
517,1.0453808301671386,0.6076570808986976,0,0,1.1073176128222102,-0.140756979201669,0.2790736029870777,0.32287329940416665,-0.004091822896458674,0.1105515991597288
518,0.9636253705466623,0.6499982304271298,0,0,0.9533214747989265,-0.17114335033415906,0.14841423123982705,0.40546193640901185,0.30289737755237867,0.2878618566772397
519,0.8822358173851208,0.6984911017357482,0,0,0.7775931720785317,-0.16092149028892327,0.18414039436147497,0.5533324151675132,0.4784178071198826,0.399885858981149
520,0.8053661555322961,0.7502581356401924,0,0,0.7336380676463427,-0.12103735208327615,0.20542474864113713,0.5848007940801755,0.4141114485395606,0.4967521987739012
521,0.7373587150053391,0.8016547734712324,0,0,0.6956290453708172,-0.1151585730723723,0.18093805771940633,0.5654729400005608,0.36052493510433953,0.5432568713254363
522,0.6824252110974136,0.8486837167700514,0,0,0.631693561574668,-0.13779425349413751,0.12628041283745645,0.6136434499450504,0.3041905277596158,0.47793359000161445
523,0.6443127599052618,0.8874421689470204,0,0,0.6310493880901927,-0.14166396973083947,0.14555503082678345,0.7233585204015085,0.3388769481664849,0.35051396570513466
524,0.6259846143322159,0.9145524322254974,0,0,0.6269399754489666,-0.13218695009622863,0.15667350368197716,0.8013777952298571,0.2391966603654479,0.22538298316823385
525,0.629337104782665,0.9275480768949065,0,0,0.6403795366589078,-0.11309735279523551,0.09487080735456734,0.8547693743846481,0.06596621732979575,0.11512206120632361
526,0.6549717002704077,0.9251952641526131,0,0,0.6331456225310569,-0.057813248420957725,0.05793598288300683,0.9075704891328034,-0.11366170540602642,-0.00524909775217108
527,0.7020443342903074,0.9077227170665515,0,0,0.6376782775457425,-0.0033894846234199653,0.016272207837883714,0.8331940949709055,-0.4723851476742607,-0.15170632200157366
528,0.7682195452799121,0.8769211974335981,0,0,0.644218670857576,-0.004764554475530986,-0.028218544261357618,0.7688307359477681,-0.49835882458630343,-0.32276908812251875
529,0.8497575663714318,0.8360638735550672,0,0,0.7370335858159288,-0.037290809685657365,-0.05372428808444142,0.7521199301115176,-0.6212090935128206,-0.484730053539115
530,0.9417511827418567,0.7896036078716332,0,0,0.9458025439888308,-0.006138795381083983,-0.04643571293523522,0.791174235450972,-0.3764864228117146,-0.5271489255776947
531,1.0385042357935355,0.7426311812623664,0,0,1.1047613379438517,0.08280872003101093,0.041252331623762406,0.7317870126253608,-0.14285914181633513,-0.43019875202644625
532,1.1340124236642202,0.7001325843115581,0,0,1.1898251421982569,0.15104317298830255,0.08918106684392157,0.5942059372995943,0.14414036355449153,-0.27164188329227157
533,1.2224830036591978,0.6661544095970091,0,0,1.1926181460784606,0.15796975544719893,0.0014835746853514408,0.2601259443799541,0.2771668047716895,-0.08986772969663455
534,1.2988228147802465,0.6430506017892818,0,0,1.2487418276573883,0.06681063415152716,-0.250282436922694,-0.06475802791071353,-0.08465691516576268,-0.017414623562455763
535,1.359031575834173,0.6310101928577441,0,0,1.4446294703148856,-0.11283673207589763,-0.24813019844756137,-0.040446362089306846,-0.17606078792441274,0.009489508112409437
536,1.4004502475682634,0.6280283116702136,0,0,1.6927326487695538,0.14444312223144024,0.03611231548352628,0.06944241354572916,-0.057157407830205974,0.24675025015410798
537,1.4218294712027084,0.6303762894920453,0,0,1.4674193880933757,0.4022734859536355,0.23054072313512788,-0.37076273428755,0.766275324823806,0.5348200840686406
538,1.4232097369134442,0.6334782236154725,0,0,1.1563365164447053,0.28902038041875394,0.6046088894060867,-0.6103508275124061,0.3840691978258972,0.6677657682020381
539,1.4056498943013394,0.6329680460379533,0,0,1.0317431552316407,0.16359132414159658,0.5718870768768114,-0.8419147277628138,-0.12670897109067347,0.6808780197465443
540,1.370890425237959,0.6256429929867737,0,0,0.8697393749075668,-0.19684852832504807,0.3851508747278376,-0.9250247262553121,-0.1072861589489125,0.43379673067217744
541,1.321061849690688,0.6100721011254807,0,0,1.1030359456711805,-0.36990696425607483,0.3360273030231817,-0.39249535261735014,-0.6675733326784358,0.03819385077655885
542,1.2585236801750426,0.5867395492587021,0,0,1.3358101120267365,-0.2949219354841636,0.2977821755370854,-0.022536404326147876,-0.4322643248707455,-0.10643092421507645
543,1.1858523035153272,0.5577505293304094,0,0,1.3321039124027048,-0.07078903886958364,0.37751399871342406,0.005956060294291387,-0.19754095177277298,-0.015003251101728194
544,1.1059232079423236,0.5262470591220425,0,0,1.2266649533558627,0.07520717264551842,0.3607777313088176,-0.21253058850435094,-0.11001898915543785,-0.01228556865897699
545,1.0219949631028982,0.4957331733445594,0,0,1.051229117612547,0.03524247361988649,0.23202825685499054,-0.32310481062803376,-0.16750076944577505,-0.13136819176507045
546,0.9377151632956144,0.4694835454389817,0,0,0.9059742983669886,0.03980764793930707,0.17772153657358017,-0.32886575202089074,0.03470045585334808,-0.19534404006697537
547,0.8570151548485474,0.45013188326159603,0,0,0.7202093953522236,0.039571319412284006,0.18041335545161225,-0.3115254974020809,0.5781042006594699,-0.17437279507527478
548,0.7839092515464354,0.4394496802047744,0,0,0.6734522771725686,0.07596943209314594,0.21309129837483906,-0.2162313348440957,0.5273456677777246,-0.19391344850559378
549,0.7222417927885038,0.4382700648302659,0,0,0.692885701590214,0.11929953278468329,0.19822880268628176,-0.19768340535243722,0.12079030958277112,-0.26499449523230595
550,0.675426242672922,0.4465002440801085,0,0,0.6896950962677489,0.12790425501032834,0.19285099090240335,-0.2656606812402583,0.23175460657873856,-0.26622451973014044
551,0.6462047410602899,0.46318744960570607,0,0,0.6361312196033743,0.1325696217476688,0.18105445643888493,-0.3746434886680542,0.144191716860405,-0.21157143449169544
552,0.6364405410665868,0.4866307136785091,0,0,0.6221253466365482,0.10093240940826506,0.12937666175022675,-0.46477116203904656,0.08069290996224261,-0.12196399148667195
553,0.6469504626073517,0.5145450223372767,0,0,0.6176476306747403,0.053892152955514964,0.08681219969050298,-0.4534195605832036,0.025276822479939696,-0.018963015722099557
554,0.677389253904177,0.5442844493722615,0,0,0.648363356925087,0.03336619199437602,0.051837037555901244,-0.4076483221535224,-0.09260706807858543,0.0922351086913538
555,0.7262046968373336,0.5731230443976196,0,0,0.6614462102065236,0.017208996616243796,0.005272289114163603,-0.40176765744611687,-0.21269838803817487,0.1925827904223476
556,0.790684093911477,0.5985776164387301,0,0,0.7081291190769966,0.06445862208651527,-0.020779035229203286,-0.391466039429239,-0.4278361987234774,0.292038220600152
557,0.8671061229508774,0.6187342049455459,0,0,0.817689084816365,0.14646425145765002,0.04157789053420315,-0.5042666453539993,-0.41688403167744037,0.37366902555865417
558,0.9509969290121685,0.6325167565888552,0,0,0.9593508128466686,0.11463474115657686,0.09730336036117038,-0.628297745105948,-0.4731243750118614,0.36612669166495215
559,1.037468863653614,0.6398275497856397,0,0,1.1144155497317618,-0.011549173954101823,0.11574645943890861,-0.6963935494214195,0.022824533429815937,0.3494813215434136
560,1.1216013672972092,0.6415078456394181,0,0,1.1351086846171494,-0.13335825801108722,0.08308516098761425,-0.5850722807739662,0.5480582705101168,0.20849676249601864
561,1.198814208051287,0.6391152085077987,0,0,1.2011842546236497,-0.17889332642385597,-0.07020228461220984,-0.2834547947805704,0.22749637061423783,-0.05545533658183206
562,1.2651869378043161,0.6345757960668539,0,0,1.1981168624126606,-0.05612845064171764,-0.1864930148007514,-0.11015492220380613,0.3064002732409982,-0.1618983883772034
563,1.3176903094245163,0.6298180394634264,0,0,1.3964088748224415,0.12473786217885123,-0.07896254849649235,-0.1811585262594172,-0.15027571996418848,-0.24572969121410887
564,1.354307679177135,0.6265002100685289,0,0,1.563431611133575,-0.051693100678411374,0.01362810019399894,-0.38508369508174195,-0.20782867329992252,-0.3898500167245753
565,1.3740355259659816,0.6258987970432318,0,0,1.381829261325314,-0.2868756961921924,0.25770315324852455,-0.030284019726895223,0.6870461120702229,-0.5050849442751367
566,1.3767694755450839,0.6289490418705632,0,0,1.1032988937730572,-0.35435279240437756,0.4655334436068152,0.29517503122459915,0.08771628352934585,-0.5601288025905812
567,1.3631106099034773,0.636364182470826,0,0,1.0404120615420211,-0.1873172495095439,0.49726176714778475,0.4989149273074232,-0.4468969106223778,-0.6148421800510196
568,1.3341554258566994,0.6487366472920799,0,0,1.0106266844455107,0.13754227364579752,0.43525757477908733,0.3822723978967274,-0.4252724529337449,-0.5136990504228182
569,1.2913392211187302,0.6665464343609193,0,0,1.2802304462150043,0.1894871996178954,0.3460153834180367,-0.04142949027784083,-0.8762444227504514,-0.3161396598285466
570,1.2363750956569868,0.690054502131776,0,0,1.3397784717918828,0.05480856984561175,0.3043772192306049,0.05073658016343461,-0.10513964637563135,-0.1471161357524444
571,1.1712825868707082,0.7191211043045089,0,0,1.1283780745657839,-0.1655636675598768,0.3517496254450084,0.40787164102618084,0.36920083180942775,-0.13671277579054103
572,1.0984600659639696,0.7530333713170598,0,0,1.0881115241497914,-0.10860233626862092,0.3568112249864784,0.6974267403586564,-0.11129812661939643,-0.011118213577838777
573,1.0207431930437443,0.7904272709173987,0,0,1.1070037570303808,-0.06699516076838752,0.19291003968626477,0.6917135749569348,-0.15598870742456078,0.23233798420750557
574,0.9414055871494023,0.8293455416038811,0,0,0.8726795744876474,-0.1380418447386969,0.15099199989630896,0.7268762726316673,0.36657098612924044,0.3868241362992941
575,0.8640825944080583,0.8674149393149388,0,0,0.7802327066388298,-0.11750914475738351,0.2027450169580849,0.7864316966049345,0.4640547021951718,0.4736358162963399
576,0.7926220752276111,0.9020863815173228,0,0,0.7666061666309587,-0.052577765450841224,0.22262763839286023,0.748311800457771,0.4109976579330137,0.5432867306732198
577,0.7308804766556294,0.9308740236208632,0,0,0.7088722342289207,-0.058381584735154896,0.1855359723937156,0.6951087078240392,0.2655723311624349,0.555811786490361
578,0.6824859080909321,0.9515495958313324,0,0,0.6647301237449771,-0.09367467991465388,0.15890275853721306,0.7332753173236383,0.23645046925796048,0.47139345846834946
579,0.6505864462392683,0.9622820089681808,0,0,0.6514448650519681,-0.10911229169963928,0.1495927822307722,0.8123704850850674,0.23209388904778222,0.3380812152233935
580,0.6375984984574948,0.9617409480264618,0,0,0.6470537152962477,-0.10440451307241728,0.12511518629807425,0.8422165672981629,0.16655898324548266,0.2292482214649852
581,0.6449708833889033,0.9491941306960221,0,0,0.6464347808835547,-0.06081022024441619,0.08123554224358225,0.8923220429173618,-0.006268599947547411,0.12673727205363816
582,0.6729853373598027,0.9246200426175858,0,0,0.6371578414643636,0.0016613486834412372,0.025666587462710028,0.8265015607133885,-0.23327569013956412,-0.024514818220074074
583,0.7206211352973156,0.888837959326459,0,0,0.654435644796625,0.018502610834902834,-0.0066052075209106585,0.7317871628218204,-0.32823493585756525,-0.1984002131846734
584,0.7855162904468291,0.8436319837987541,0,0,0.6829949820705837,-0.013199158723125739,-0.011923363907622489,0.7131647596703663,-0.3252614414451468,-0.3619777048662069
585,0.8640549955170482,0.7918206606087071,0,0,0.7780856989237106,-0.04952554885997597,0.010409218544522222,0.7732909474067617,-0.397493196105513,-0.49758722256600446
586,0.9515966981591275,0.7372048398775994,0,0,0.933742638422881,-0.07060612443041263,0.04503692900307321,0.8172521368581714,-0.2792808624908921,-0.5432394388549804
587,1.0428372220109479,0.6843256314557308,0,0,1.0594598523780243,-0.008818464115893548,0.06018963778582347,0.8722757898760591,-0.14394061471443714,-0.44402613525761153
588,1.1322632024143717,0.6379955473951371,0,0,1.2002285739384941,0.19937822875422867,0.030693974165848126,0.7089014729039455,-0.1880051247065457,-0.17603595706179212
589,1.2146378030252387,0.6026334988444687,0,0,1.2470091072429705,0.22011901772910702,-0.11426408125278453,0.32765056142465643,-0.0011092980524956845,0.07167913934227761
590,1.2854464964437726,0.5815208221446138,0,0,1.2753930408509384,0.10572100024707881,-0.35177793968894505,0.10235546865437832,-0.0611971516159119,0.10593436667094676
591,1.3412386504052396,0.5761626885158438,0,0,1.334054724636008,-0.14072109921653972,-0.34752252648476867,0.050484906687563266,0.015013397195099702,0.029527713323183682
592,1.379819362504012,0.5859458235612433,0,0,1.5422759999575975,-0.0010284845196965708,-0.10447612713247686,0.33071909036657104,-0.14459619176768881,0.16975076261163685
593,1.4002705844733487,0.608212273803697,0,0,1.4328723643775385,0.2941061901995409,0.17096729386919263,0.01110864363785918,0.6303134635446227,0.429602094423136
594,1.4028091784064696,0.6387439456313413,0,0,1.227991281690045,0.29545619037378057,0.5603088538212746,-0.20271423598583094,0.44991538461412045,0.5750576491872937
595,1.388522556072998,0.672528225085127,0,0,1.1029568833035197,0.37030874262408114,0.6146762319104668,-0.5794743845573888,0.08966614650698422,0.678360717259857
596,1.3590547075137287,0.7046022110226962,0,0,0.8489412202804882,0.06642997020708018,0.5074061935084683,-1.0580229381910249,0.2159291361511447,0.591267608947538
597,1.3163323732239363,0.7307723743945153,0,0,1.040831644738522,-0.18997650404763886,0.4134825856020083,-0.732901618242678,-0.48808849732906234,0.19672615982165365
598,1.2624068446887733,0.7480690510799142,0,0,1.226360478309701,-0.33013322035678505,0.31639960818811785,-0.5232282561050852,-0.2100006698219501,-0.10489168896741928
599,1.1994378360468303,0.7548957015834009,0,0,1.3007239039188436,-0.23061769404346655,0.37679017780016705,-0.35836341067179933,-0.33529565483572416,-0.1774586663852469
600,1.1297812510080394,0.750931981899426,0,0,1.3027953317432674,0.026872994364296642,0.33616968982565737,-0.43752772951494673,-0.42644026593472867,-0.1648273110217508
601,1.0560969964068312,0.7369048929414554,0,0,1.1351464909439233,0.10485825046816054,0.19657800962707458,-0.528335226331959,-0.19694106989773724,-0.22265324920273613
602,0.9813910393761704,0.7143362813091721,0,0,0.9825292075082209,0.10516787368191535,0.19928585324964135,-0.58035361596008,0.16869610971221743,-0.2713428356613805
603,0.9089441127659782,0.6853268130412594,0,0,0.8112302351760582,0.04980466459262363,0.21054035323407558,-0.6273237781356548,0.3421300518035706,-0.2754916294742776
604,0.8421322225950212,0.6523801934413552,0,0,0.6927194893217755,0.005742360507150776,0.22785643704262834,-0.5236168031725806,0.7475481537398344,-0.2711738175501215
605,0.7841840693376216,0.6182333325323537,0,0,0.6652674231814555,0.024994312762552963,0.2512564346611711,-0.3985418048250628,0.4415241007943782,-0.3081066021280471
606,0.7379334479886378,0.5856527814669935,0,0,0.7222562910841543,0.0506972501180435,0.22623961347334884,-0.34533243955874726,0.17509257528304845,-0.3181819534997337
607,0.7056127138636158,0.5571848620227671,0,0,0.6770505570245029,0.07622570981484297,0.18210823075860055,-0.357889446735394,0.34756955764798525,-0.25685328224560616
608,0.6887097277861571,0.5348878075809753,0,0,0.6683868085997214,0.09599129450528139,0.1752570250460895,-0.3536932094348322,0.1554433190607547,-0.1815149712607878
609,0.6878899990381123,0.520103153897644,0,0,0.6860064944841623,0.06384945384996904,0.1335683545475112,-0.38494138176136367,0.039771265152979504,-0.05730345870106478
610,0.7029753234237015,0.513327144779839,0,0,0.7273952922315139,0.02761885861093922,0.06949625617531756,-0.3888783031014769,-0.022627765418647264,0.08706744339617231
611,0.7329688797240679,0.5142233214313985,0,0,0.7316700670832164,0.004377526875429063,0.05977816292979341,-0.3912949329528575,-0.05357562421532291,0.20042450387651672
612,0.7761203080915232,0.5217825606728683,0,0,0.7404818272590566,0.0012418118672421598,-0.012914263979619933,-0.3897636410215205,-0.3597917144117853,0.2734942984700479
613,0.8300292742087507,0.5345959649758685,0,0,0.7822552562664703,0.052227025100049736,-0.04648104968771878,-0.38288737609237256,-0.34568913005569807,0.3227729925681303
614,0.8917889907528909,0.5511718950795683,0,0,0.8440472268719206,0.08033077085405671,0.003458697064739915,-0.44528348670843493,-0.4207371303480905,0.3142420579785135
615,0.9581686436470918,0.5702137104052075,0,0,0.9812998366678419,0.10030724500590177,0.019386530446994735,-0.4847193369699225,-0.33252373703208343,0.29990112789724443
616,1.0258249876121395,0.5907849387165527,0,0,1.0842309242195274,0.02982619631398649,0.0846340574729567,-0.6989025090609783,0.06574802208924223,0.29262355433992276
617,1.0915228772228263,0.6123201708062543,0,0,1.1069182045708166,-0.07697523354470732,0.09882858251240509,-0.6418801755559459,0.28153153286937826,0.18015838609926138
618,1.1523391408216535,0.6344851034959007,0,0,1.1113696819361618,-0.10617373262208177,-0.04672862132397476,-0.46431480985407514,0.2670263337760426,0.0019539554044251343
619,1.2058273076789092,0.6569385496007338,0,0,1.1349382257537541,-0.055854636461968116,-0.17817796700759247,-0.3530126586096795,0.23466088598738277,-0.041930904026247405
620,1.2501280282374578,0.6790891616813489,0,0,1.271676486300463,0.04621840222210897,-0.11447401035371285,-0.3477972144858631,-0.171375331838424,-0.14012765700370916
621,1.2840141435471002,0.699951548485647,0,0,1.4662417486270125,-0.1427709590559344,-0.05911286966329128,-0.3361542968278968,-0.4542984861065832,-0.33509032526078275
622,1.3068594282428792,0.7181783860453611,0,0,1.3763009293959663,-0.33939498136015495,0.2049355766973524,-0.015181160322088934,0.19660068351460372,-0.4928472429192867
623,1.3185257409944544,0.732284184413029,0,0,1.2392979013607996,-0.44074614022526465,0.46840325424542023,0.46187900161853024,0.04444566045498372,-0.6010835902312934
624,1.3191853728584668,0.741005378071397,0,0,0.9400258938474112,-0.2622224111515225,0.32901624494903203,0.8272193171261266,-0.10559388323430098,-0.5646804902897615
625,1.3091297680670966,0.7436846366314546,0,0,0.8331562592937006,0.14267502949188232,0.5001479454508162,0.7100537538308873,-0.5631741202701342,-0.5615138518210457
626,1.288639082666578,0.740544563620925,0,0,1.1108891539647643,0.3701552861356037,0.2883373203476656,0.002976211566845344,-1.0707619883417503,-0.46689605173214827
627,1.2579732413982598,0.7327424579846944,0,0,1.385516333505105,0.2480170777476035,0.3255173865810865,-0.3165762170242033,-0.4977551992338772,-0.3004468755726049
628,1.217492826832252,0.7221738411254908,0,0,1.3100035884105736,-0.07008910092259274,0.2979948652479449,-0.148117896382265,0.06585878296026003,-0.2860542502339593
629,1.1678584046524516,0.7110895404235726,0,0,1.1350373915998941,-0.24564917179405873,0.3200547604396252,0.2540823432096992,0.4330671610158662,-0.274650948138191
630,1.1102270051833023,0.7016598620382869,0,0,1.1498290473382342,-0.13428586243233623,0.2878969025502271,0.419260766450983,-0.3107140255327233,-0.018774708625728966
631,1.046374961097443,0.6956240692966287,0,0,1.1192164240071905,-0.11699569570369275,0.0970580683523952,0.4770687551118687,-0.06050779577460545,0.24549132728724576
632,0.9787099029879776,0.6941096924406114,0,0,0.8952791533021076,-0.1538929753736838,0.159630787142935,0.6216523319471221,0.3480664103311333,0.35816698551148407
633,0.910170531824949,0.6976300759180116,0,0,0.837308682292052,-0.13556014081676576,0.1493501382916854,0.667927154180969,0.34737600326297485,0.39986350072374105
634,0.8440399498443074,0.7062055895371886,0,0,0.7933865560770156,-0.07544688324495624,0.1696320860904149,0.6628899263255174,0.3112569071538351,0.4601763668117109
635,0.783712193157576,0.7195248290027423,0,0,0.7461912348867259,-0.0514609498168958,0.15135720405360725,0.581753678028856,0.1848710266357582,0.49543750509833545
636,0.7324510866764332,0.7370720760689723,0,0,0.6954785653166656,-0.06969564257385626,0.13329827177796938,0.5918640784679134,0.25264930451672013,0.43557389403679264
637,0.693170139766506,0.7581854195541212,0,0,0.6718414822305561,-0.08906590044807267,0.1607789302507289,0.6179906955427222,0.25234993574861614,0.32110861427398135
638,0.6682493675638461,0.782055234856269,0,0,0.6571377617078935,-0.09971891112170526,0.12331162815514624,0.6195029655476725,0.07740618008696626,0.1933404134185796
639,0.6593947402022093,0.807706278179782,0,0,0.6750384759003009,-0.05582936388967954,0.07175593014348475,0.6543106223697798,-0.07838209783605023,0.0676150758819586
640,0.6675401627469343,0.8340179571714129,0,0,0.661489132036391,0.0028536307917591502,0.03158191511108708,0.6334431678229452,-0.289149769465831,-0.058480246721994325
641,0.6927904431433263,0.8598231715984904,0,0,0.6617206697909419,0.006141518777718165,0.010239293884699033,0.592931465989406,-0.5256022534233581,-0.184774140752976
642,0.7344049860370578,0.8840903484649851,0,0,0.6880575497534371,-0.037189658857168614,-0.054508926862411426,0.5945827242666112,-0.6539313102529541,-0.3034905531068219
643,0.7908225894862089,0.9061481273140705,0,0,0.7901874070565283,-0.0986289348667026,-0.09420985768360375,0.6314631096165877,-0.7617337362345954,-0.42325650280218813
644,0.8597247313629098,0.9258755353529562,0,0,0.9274181697141322,-0.11847698109141645,-0.08904705926771146,0.7102159745175415,-0.7795594790005848,-0.4819339284925301
645,0.9381291038902893,0.943769410620444,0,0,0.9832667134182624,-0.10091545924041932,-0.07787925001405092,0.8503284802719902,-0.4618981755621504,-0.5102325076651523
646,1.0225025525262676,0.9608241249238383,0,0,0.988593059278997,-0.05634490771477502,-0.05152616270836993,1.001492846537008,-0.10593169009864291,-0.488779147346911
647,1.1088880678965407,0.9782126581864886,0,0,1.0756354800534855,0.030765921350000558,-0.05661016496574312,0.9528637541592454,0.008335120652227747,-0.35317136656733183
648,1.1930519586192703,0.9968277231761767,0,0,1.1401266129084264,0.06684522238157502,-0.1337361899514469,0.75466245156235,0.12940617609005936,-0.15685559385420653
649,1.2706662981845018,1.0168057770353158,0,0,1.1985046141162166,0.047712541125701,-0.23165594722623883,0.6552191777113358,0.013203703947008887,-0.04939782937956311
650,1.3375410382498354,1.037192413335237,0,0,1.1439103473910133,-0.08521059460045313,-0.35911249897037995,0.6353787324330125,0.24552211400733295,-0.03999614212410502
651,1.3899082464038865,1.0558947741207603,0,0,1.2226714351080672,-0.07904580802886008,-0.21901826863132373,0.8400067452095282,-0.3184469715098054,-0.026492849884520903
652,1.4247388626625375,1.0699985116455315,0,0,1.6472359069223443,0.3356370354383041,0.07331992917873897,0.5728940657390772,0.047653305497925603,0.23160253627458524
653,1.4400439250450758,1.0764180468367002,0,0,1.493720460023343,0.6680751579589811,0.5794535082791828,-0.018741881698490594,1.544389427853694,0.5926067691458115
654,1.4350913067123756,1.0727311503355412,0,0,1.331197079409973,0.8393545335286657,0.8386255222945744,-0.6703874839278637,0.5715099215463116,0.9046837814893409
655,1.4104786299506027,1.0579624857356151,0,0,0.8340679429251254,0.06095564839067634,0.31816978073912017,-1.6292104648398602,0.49154896656028674,0.9114153550072596
656,1.3680514311166687,1.0330663336491723,0,0,0.9415544406074474,-0.51945851248773,0.21272459223899212,-1.2376595507810337,-0.6785561946646902,0.48631061487490673
657,1.310713355146441,1.000939223048017,0,0,1.2473341400472417,-0.5390813874494125,0.2717857829619663,-0.3924864118395215,-0.3366589650867547,0.09767610010025293
658,1.242194678177239,0.9659495177508194,0,0,1.3248300672130242,-0.17576795453094193,0.43266541197730796,-0.03648629229112284,-0.733824863945287,-0.037910416166279395
659,1.1668137722689391,0.9331364324666058,0,0,1.294445943558555,0.2368954376179814,0.1338536086411096,-0.24182379183051875,-0.46181902257001256,-0.03328862467349797
660,1.0892213196732392,0.9073255032439265,0,0,1.0224479296314286,0.2671710169383007,0.1897912839425791,-0.5986930564488803,-0.027296110322476568,-0.08277484611627076
661,1.014103063579796,0.8923940460711369,0,0,0.967268007870942,0.17351459472545125,0.21249373565589502,-0.7961714397917996,-0.5091748094958705,-0.1873720323380406
662,0.9458386563353097,0.8908263561721393,0,0,0.9365855036780841,0.08997931732019128,0.10120131788167173,-0.9025428540919477,-0.17634545867807588,-0.2855053103313162
663,0.8881461506784363,0.9035849850530345,0,0,0.7760267115482046,0.04607037644737005,0.23091438961257812,-0.9250627590053966,0.021176466926302342,-0.30777409758871765
664,0.8437615895003345,0.93024141978126,0,0,0.7346447416179309,0.050084831934315406,0.20690168776328063,-0.9090019712870018,-0.13281784590066026,-0.3067583018005661
665,0.8142057029410883,0.9692754357280621,0,0,0.7451690534651235,0.08717531770226014,0.18256408446426095,-0.9284869421956544,0.011862159558595459,-0.3003282331878019
666,0.7996785468856578,1.0184562499071377,0,0,0.7346286265448017,0.13082805522252813,0.19788024673271776,-0.9921553221784852,0.10779247709448153,-0.2956627753219965
667,0.7991028312180339,1.0752374653510175,0,0,0.7143429092498349,0.15197207926889938,0.16599012935972934,-1.0706179391259525,0.1497824076707606,-0.28250337765321576
668,0.8103130826862764,1.1371159385547929,0,0,0.77178212358081,0.12977498723639924,0.1558198613653247,-1.1531650296787441,-0.021010650685474277,-0.22463914761180673
669,0.8303657968840503,1.2019187830274805,0,0,0.8533628138775621,0.09979311078957426,0.1479371442087128,-1.2276426273327723,-0.026118897958763414,-0.1266240497465366
670,0.8559283876892261,1.267995679584317,0,0,0.8969874003633168,0.07501118871605707,0.10323381092567485,-1.3160919209147628,-0.09338855272562502,-0.04894204809839056
671,0.883694153915289,1.3343080955482232,0,0,0.9176445578039676,0.07142701230248669,0.053313054983494375,-1.340940363428675,-0.11294147653445191,-0.014941831201967792
672,0.9107690601034244,1.4004228820936113,0,0,0.9277783069124421,0.07466040018497357,0.04450283716742502,-1.3230617594112062,-0.21848724251510085,-0.0006484774132866689
673,0.9349842059248621,1.4664325662424553,0,0,0.9500376679850521,0.07236230579944646,0.022261292339592214,-1.3488813959847,-0.3522828606240156,0.039115087890584745
674,0.9551018016647826,1.5328338788685663,0,0,0.9695652013172456,0.10652904595027024,-0.016071064577219487,-1.4212501692651986,-0.4204886637852684,0.11633950399231385
675,0.9708971727561713,1.6003947992661804,0,0,1.0007114534257284,0.14648245822875566,-0.04173948937196083,-1.5349316665688686,-0.40870901258162556,0.19771223263945067
676,0.983112088528723,1.6700280715878513,0,0,0.9991790240164122,0.14650280764328177,-0.07518981810711992,-1.6498657664075977,-0.36587412389099366,0.22688042871183817
677,0.9932861283988635,1.7426719536485271,0,0,0.9975058009654519,0.11440645284902781,-0.09627727400189437,-1.771597810787623,-0.3089856991315081,0.21566416972030403
678,1.0034844648378,1.8191664444816085,0,0,0.9976333939321448,0.07521430452713769,-0.07596347465322813,-1.885577328403754,-0.18162906922714434,0.19224698198919324
679,1.015952401181912,1.9001124821499453,0,0,0.9980984240387395,0.062189979472219256,-0.05881002032274075,-1.937779960012882,-0.05146101896924195,0.14251527016997917
680,1.0327372208751178,1.9857139997162891,0,0,0.9888976073147683,0.09219213346732441,-0.0810955857078512,-1.9425343801265411,0.015796938447890558,0.10033594553339484
681,1.0553237718437838,2.0756235710900057,0,0,1.015025524050965,0.1189665454639472,-0.10522413555450075,-1.9821052181350325,0.053589330821795636,0.05663533671022841
682,1.0843301618848695,2.1688319369496742,0,0,1.045719903668589,0.12815836055948715,-0.12710335858208735,-2.034548526660092,0.02085458394604836,0.007110986783527781
683,1.119304164695434,2.26364863848746,0,0,1.0790248891885916,0.18595751047752718,-0.21541332544110198,-2.1344321639106476,0.004311717331369368,-0.02320717071386083
684,1.1586513366772246,2.357807930404054,0,0,1.04526862245444,0.2377989374218884,-0.27921635609226775,-2.2828642615986245,0.1518547675250696,-0.06031779815369299
685,1.1997148358026881,2.4487019110199517,0,0,1.020469404470713,0.25725185896888375,-0.27955538343406805,-2.4791017763974077,0.16066411389088803,-0.1195504681985065
686,1.2390147802858331,2.5337008669056194,0,0,1.098062250646781,0.14316794577178452,-0.18875006451650211,-2.7065085570378797,-0.02060180704336451,-0.21533889503164508
687,1.2726381733461067,2.6104847978555967,0,0,1.1763931228788422,-0.04725688305756303,-0.12833592165099802,-2.777578494660694,0.24329502565461783,-0.33565058955937743
688,1.2967444022305696,2.6772968204512786,0,0,1.2366510664834234,-0.25759423193930286,0.14614998792893763,-2.7546697743233373,0.7316010236371342,-0.49118893784620604
689,1.3081169814789568,2.733049712581722,0,0,1.576642817329774,-0.748322371173768,0.41568532806948777,-2.647447206716593,1.1508023759920973,-0.8059361834914242
690,1.3046619097036976,2.7772710445641744,0,0,1.3380840835332617,-0.7137578234613462,0.3915235427117081,-1.706974078220534,1.8117174488792942,-1.0825227330024443
691,1.2857492179952317,2.809946599388278,0,0,0.9675514048310362,0.038138670065071406,0.274773863486039,-1.3612841636364126,0.8651090369192291,-0.8579579060975066
692,1.2523316932708157,2.8313848325061413,0,0,1.0407772417495402,0.4774092690060899,0.2008256900553626,-2.129432808403972,0.09705432893656098,-0.4653367121066879
693,1.2068365504065723,2.842228304741748,0,0,1.1920177654710338,0.2985353098677079,-0.10540514489486992,-3.2751131797522777,-0.6163833775846084,-0.34119291347712494
694,1.1528719113023247,2.8436497508300045,0,0,1.3530285143901704,-0.23968130268105456,-0.013358538096247884,-3.321456021630837,1.023716851824968,-0.484618412837132
695,1.09480041328942,2.837631167192069,0,0,1.040418517499759,-0.41254354827310075,0.2945872928310016,-2.988973309336569,1.1316552916910947,-0.6476379096995242
696,1.037227626269367,2.827137430469347,0,0,0.9023353326464698,-0.2659055704157046,0.07315301419924183,-2.6734538494991487,0.4440836800890214,-0.5945605111165612
697,0.9844612545490592,2.81603078491914,0,0,0.7126429292247319,-0.10202323616528969,0.14764387992686318,-2.4782778778817263,0.49514448561191,-0.4201905098400762
698,0.9400168387407063,2.8086935188724405,0,0,0.8167021912082175,-0.0470543853190294,0.11970196104594913,-2.6288718750771785,-0.4829615275348558,-0.26360504383336203
699,0.9062516595018938,2.8094382206303594,0,0,0.9392845386077321,-0.1124678432343109,-0.010489590163809223,-2.8093946161555925,0.048588787172794266,-0.19408027015325494
700,0.8841847209492083,2.8218281162090144,0,0,0.8440126219629898,-0.18213771705156734,0.0012205800732580019,-2.924611158832954,0.25547566079220696,-0.22266237779082107
701,0.8735176056759558,2.8480147583362934,0,0,0.838319277510646,-0.19628730645641596,0.06885109827041433,-2.8932027640714306,-0.05682419470362259,-0.29229655890895107
702,0.8728319839491153,2.8881722524663793,0,0,0.8409245945456837,-0.16863389642652502,0.07748329923147003,-2.790536426862145,-0.1577771687524732,-0.3399061199423656
703,0.8799171889796114,2.9400971593856573,0,0,0.8617309131297691,-0.1392326664023792,0.12328511821966455,-2.7111668153082196,-0.2352267711075934,-0.3472402990519791
704,0.8921719908397255,2.999048514942659,0,0,0.9317948726413249,-0.09770363230269011,0.12864991561571731,-2.7639177533125565,-0.30530005374986285,-0.37801698697043573
705,0.907021162974918,3.0579002661693586,0,0,0.9504396888172236,-0.07110294125701352,0.06443817718368718,-2.8633672655337437,-0.23662967822821454,-0.4283958679296468
706,0.9222879640074598,3.107650260039919,0,0,0.9832103577542086,-0.04045464941353568,0.07460510405628819,-2.9771817788788644,-0.13368210693405452,-0.46754228900374295
707,0.9364706331208926,3.1382756012645032,0,0,0.9818761203158556,-0.03956106289237705,0.09828928522110983,-3.074186677655569,-0.10429829236129078,-0.5197186567828521
708,0.948885685761601,3.1398589998739594,0,0,0.9847506138932427,-0.07827786559774305,0.10297448160179651,-3.1047146546128688,-0.026045275250908502,-0.5801120009905707
709,0.9596613918087695,3.1038529970038593,0,0,0.9701901052479206,-0.1358583571183506,0.10477388702197984,-3.1174144380450883,0.019121447482395176,-0.6413238654821275
710,0.9695877393907415,3.0243108311001596,0,0,0.9874849477114521,-0.16911265095068545,0.13544089337716417,-3.0787865817290982,0.15978170745322617,-0.6826606785810757
711,0.9798511233103087,2.898898966249374,0,0,0.9524003547965529,-0.1670358238792679,0.19060756859340625,-3.051134160447874,0.44104568755029233,-0.741081105212575
712,0.9917008865943817,2.72951853897382,0,0,0.8727621760090525,-0.19565132936075882,0.19309796350899308,-2.927228320509295,0.5391497497924788,-0.8185546450684775
713,1.0061088448683597,2.5224039727472958,0,0,0.8098976434341119,-0.21575985642708795,0.18573613947402426,-2.629190200700579,0.43700565223435367,-0.8642632798577895
714,1.0234880943593834,2.287639914998963,0,0,0.8849159239615203,-0.23387590525475332,0.20217927360835497,-2.2198667335466418,0.08168231621142386,-0.824843253430124
715,1.0435280939901819,2.038137952620304,0,0,0.9670166412231032,-0.22398140505989445,0.1967024675735358,-1.766718166719749,-0.058047131546776466,-0.7298906865709244
716,1.0651775086650115,1.7882219982768068,0,0,1.057462641644478,-0.22554514092075312,0.15830882607572902,-1.3714981410487799,-0.09924585109635489,-0.5895462765328421
717,1.0867719942838208,1.5520531939051676,0,0,1.0816326304935204,-0.2343362660806995,0.17730569609617075,-1.1114919770798357,0.24553013974173998,-0.4459746076183034
718,1.106274181882358,1.3421524811328518,0,0,1.0779264791241212,-0.20143542522266258,0.23749331748588312,-1.0130309221164677,0.18754078657390888,-0.2702088016995399
719,1.1215770911922547,1.168241990053362,0,0,1.09108593234104,-0.14340059751218875,0.26989791361933885,-1.0361978919041805,0.42966168447756026,-0.04696611145754674
720,1.1308203388325222,1.0365401232608766,0,0,1.113564255886926,0.0338523853917852,0.2126549703179716,-0.9365559600175264,0.358393662790662,0.1012359394403056
721,1.1326745952096293,0.9495418653985201,0,0,1.143966026516689,0.2054368742774316,0.09649964352875098,-0.9082080703094304,0.5029636511239531,0.03362400673168498
722,1.1265575565164845,0.9062289490901426,0,0,1.1169750511660694,0.1603590212452876,0.08201220451058555,-0.8723932454024351,0.28502342647607043,-0.18009944944167122
723,1.112751952372627,0.9026032016924511,0,0,1.2429916224359043,0.1432396772163662,0.042429584807369206,-0.869802297404647,0.06068860080275494,-0.2550839211898028
724,1.0924045350087375,0.9324202115654615,0,0,1.1352169557213179,0.14433632676675448,0.06041266929035443,-0.9163587686957414,0.5302170089541091,-0.25082380723974207
725,1.0673983160217952,0.9880072398100711,0,0,1.0246877581766283,0.15811377235420948,0.12664336137185278,-0.935763601447622,0.24583380886575487,-0.27423347129467524
726,1.040110518109046,1.0610675695001321,0,0,1.0074776797250677,0.1902203609738499,0.07042207353835558,-0.9858503137553614,0.28043067925055665,-0.30184011601824007
