id,ASVM,GSVM,walking_nonwalking,normal_abnormal,ax,ay,az,gx,gy,gz
1,0.9305596593322089,0.25377324516912136,1,,-0.48866121458398126,0.13118483885934545,0.7813924224888215,0.17803955,-0.10934448,-0.14912415
2,0.9338065713814004,0.25943819831505294,1,,-0.49927077940639597,0.14147298825580157,0.7616489743673761,0.17803955,-0.10934448,-0.14912415
3,0.9372211946992518,0.2657679019538557,1,,-0.490456645229701,0.14155824935002476,0.7857569357132871,0.17803955,-0.10934448,-0.14912415
4,0.9409028157290449,0.27290567420469747,1,,-0.4750397861504546,0.14290697384628573,0.7983639280786123,0.17803955,-0.10934448,-0.14912415
5,0.94489530181945,0.2807525772260465,1,,-0.46213276617054216,0.14167057440087924,0.8096652763336808,0.17803955,-0.10934448,-0.14912415
6,0.9491709764965692,0.2889022659469921,1,,-0.46845496724441965,0.14271484583263222,0.806777174684874,0.17803955,-0.10934448,-0.14912415
7,0.9536263029151464,0.29662895640172443,1,,-0.48239511042858857,0.16046732112261267,0.7820011673317899,0.17803955,-0.10934448,-0.14912415
8,0.9580908348087632,0.3029366839674161,1,,-0.48011822789884734,0.17855193899556998,0.7946327867366911,0.16430167287529365,-0.1603895738617572,-0.19238540393609288
9,0.9623486936049732,0.30666781929370274,1,,-0.5009540996584639,0.17122592170765608,0.8342104572998251,0.16360474,-0.16297913,-0.19458008
10,0.9661686529837533,0.30665743961421865,1,,-0.5247486612726516,0.14686262712600556,0.838827927973998,0.13369353206242937,-0.13084961957907576,-0.26197332349292896
11,0.9693361922863121,0.3019103543155884,1,,-0.542927895321456,0.09891369301817936,0.7888211073925749,0.13171387,-0.12872314,-0.26643372
12,0.9716810317810681,0.29177195265512823,1,,-0.5400961428231298,0.062119046066951615,0.7702124853931099,0.13171387,-0.12872314,-0.26643372
13,0.9730970666229019,0.2760637779391514,1,,-0.5231283964308806,0.056200479627403994,0.8073209925275878,0.08549958033338903,-0.20070378920302462,-0.22993255229740128
14,0.9735552229314266,0.25515977967639764,1,,-0.5124318371248321,0.0799010821993442,0.8424473657278367,0.081329346,-0.2071991,-0.2266388
15,0.9731102844362195,0.2299890237323559,1,,-0.5207714900105043,0.11611903737965575,0.8327787565070721,0.1112573585322238,-0.07902284838789032,-0.14217591868616478
16,0.9719006094484637,0.20196401519431678,1,,-0.5166596087675002,0.11242650225547016,0.8113004745910074,0.11445618,-0.065322876,-0.1331482
17,0.970138144948496,0.17284758848625928,1,,-0.5252348076909618,0.07437413888894764,0.8213064207324913,0.11445618,-0.065322876,-0.1331482
18,0.9680872143001897,0.144581118878296,1,,-0.5212867794549285,0.05364575782261066,0.8293239823064287,-0.0239037695461104,-0.06447428785507446,-0.09154053485517882
19,0.9660333583579566,0.11910025032862401,1,,-0.49063686674204443,0.05978170808108374,0.8135952914978439,-0.042282104,-0.06436157,-0.086013794
20,0.9642463832475392,0.09816282645213209,1,,-0.46893292610912496,0.0923522910509055,0.8163935041614768,-0.009638124632964169,-0.04868927975392881,-0.02625489189329834
21,0.9629436767064685,0.0832096040223949,1,,-0.46706097921051576,0.13939948974119293,0.83857099600423,-0.004714966,-0.046325684,-0.017242432
22,0.9622600875699997,0.0752720507909769,1,,-0.4735974893219888,0.1829119293242393,0.8178533820470207,-0.004714966,-0.046325684,-0.017242432
23,0.9622291097201637,0.07493249361270739,1,,-0.47380101507164823,0.19423375291264425,0.8115877617543352,-0.09159103467011172,-0.045704399238218785,-0.017734281022646237
24,0.9627778811893449,0.08233098348918846,1,,-0.46938839281001193,0.1875450357988741,0.810573980126734,-0.10713196,-0.04559326,-0.017822266
25,0.9637368642550539,0.09720388509047455,1,,-0.4915275016214224,0.19773902557879422,0.7925358035347034,-0.11447884496066897,-0.061229268718628826,-0.007164824267773715
26,0.9648639451062296,0.11893566070165612,1,,-0.5060578971599348,0.16916482619438064,0.7919205692481532,-0.11593628,-0.064331055,-0.005050659
27,0.965881092460962,0.14660937502407104,1,,-0.5170489266223416,0.14948100785546703,0.8094996839522357,-0.11593628,-0.064331055,-0.005050659
28,0.9665192098501028,0.179050540068293,1,,-0.5123500059744739,0.1540107525405358,0.8144885681227921,-0.1557208888973146,-0.039409796813751084,0.07592169874219497
29,0.9665641578595269,0.2148680411073865,1,,-0.5163945128192818,0.1435632885109857,0.8244627503466714,-0.16482544,-0.033706665,0.094451904
30,0.9658955215356264,0.2525011537722008,1,,-0.5132592685163757,0.11378465149984912,0.8183131445114584,-0.2052783753755989,0.02818119595286928,0.14402322875905735
31,0.9645105653930378,0.2902822120400534,1,,-0.5076196393346939,0.0852844633957999,0.8170106105774521,-0.21539307,0.043655396,0.15641785
32,0.9625287577879824,0.326521598625112,1,,-0.48832668756423786,0.08360529958672645,0.8272319573661812,-0.21539307,0.043655396,0.15641785
33,0.9601759936719199,0.35961664328457865,1,,-0.4688476181622251,0.07667325801847298,0.8438376192976276,-0.25751078849462083,0.09393030175817454,0.2282034716208434
34,0.9577509167284138,0.3881787473522364,1,,-0.46437128076137985,0.0669683293758411,0.8506661301403242,-0.2694397,0.108169556,0.24853516
35,0.9555782439887753,0.411163691670305,1,,-0.47393834310949823,0.05654278038553891,0.8216772919290491,-0.3284259814390787,0.13879570172964495,0.3019148232858167
36,0.9539562606168512,0.4279811001248499,1,,-0.46769220986657417,0.04595347724237162,0.8027842002758411,-0.34649658,0.1481781,0.31826782
37,0.9531077115532991,0.4385552209115291,1,,-0.4514537861609571,0.043400520356288226,0.8068240061837741,-0.34649658,0.1481781,0.31826782
38,0.9531438407141994,0.443314583130247,1,,-0.45590241961122185,0.05333443001910007,0.8339127506814463,-0.30071950097097944,0.1002530902689147,0.3260640165046702
39,0.9540487618544169,0.44310265691876755,1,,-0.4711997745390756,0.06114553461478807,0.8355547235034889,-0.28503418,0.08383179,0.32873535
40,0.9556860348185634,0.43902061486412886,1,,-0.4795139558986806,0.06726462204351616,0.824564596841086,-0.2414880799265362,0.11706023008554539,0.31392253801907116
41,0.9578237972017037,0.43222978826273717,1,,-0.49086911811420525,0.0648389504184927,0.824663834931235,-0.22546387,0.12928772,0.30847168
42,0.9601715310978107,0.4237504506996721,1,,-0.5058951485390866,0.05272951855596161,0.8264424228595235,-0.22546387,0.12928772,0.30847168
43,0.9624210151419273,0.4142940452775659,1,,-0.5149966979852891,0.04678823774458435,0.8206949130325952,-0.1986711177509654,0.12051938101260817,0.28545071652251774
44,0.9642852889434219,0.404159649199656,1,,-0.5046241747317345,0.04983388260656454,0.8123965195863461,-0.18774414,0.11694336,0.276062
45,0.9655315735255987,0.3932145933484272,1,,-0.4941513162486671,0.062353172457368766,0.8220237805177908,-0.17321566631417035,0.15911526319819339,0.2742871362666701
46,0.9660062238757161,0.3809650732871143,1,,-0.48857151541274524,0.053604502568403024,0.8254326034289803,-0.16688538,0.17749023,0.2735138
47,0.9656510175368065,0.3667064076326872,1,,-0.5031321789352289,0.03627519900665956,0.8292380584850432,-0.16688538,0.17749023,0.2735138
48,0.9645099782286579,0.3497266198941364,1,,-0.5146453558243307,0.04003010655601822,0.8299452232255021,-0.17131965447546227,0.18337853435853577,0.2882912727182108
49,0.9627251928892436,0.3295246479159874,1,,-0.5258686780806822,0.052011706645299235,0.8199660114177818,-0.17344666,0.186203,0.29537964
50,0.9605200996341403,0.30599887797792985,1,,-0.5249192165665929,0.06520993866236884,0.8053754922814507,-0.1722344435400215,0.15948380444305296,0.2662259155671935
51,0.9581704388505146,0.27956479445023735,1,,-0.5188036474699693,0.07239228888417708,0.7954213214457264,-0.1716156,0.1458435,0.25134277
52,0.9559660972014371,0.25117251837605015,1,,-0.5030864341134802,0.07073696410619977,0.7984968012914767,-0.1716156,0.1458435,0.25134277
53,0.9541699350957293,0.22221418542545374,1,,-0.4847053037769884,0.06288611687436883,0.8114087054588697,-0.11709757925584854,0.11123028451961381,0.15429462204304167
54,0.952980866336587,0.19433449253681007,1,,-0.47461115409071647,0.05649812601029616,0.8192381275532035,-0.08660889,0.09187317,0.10002136
55,0.9525075172984402,0.16918095946277162,1,,-0.4758206070678321,0.04862239518267114,0.8191426124390297,-0.026244629235305975,0.06070475812082972,0.001192123526256746
56,0.9527564408582878,0.1481469400293869,1,,-0.4863523670326326,0.041179428014924906,0.8129030735879692,0.0095825195,0.04220581,-0.0574646
57,0.9536361434067788,0.1321631711284351,1,,-0.5024396780304881,0.03332715672211925,0.8027783086007155,0.0095825195,0.04220581,-0.0574646
58,0.9549757081664381,0.12158008609677512,1,,-0.5186557151121736,0.02826382868490477,0.8008198158181365,0.024888990278273005,0.011703986520248207,-0.10427295482519389
59,0.9565546455269192,0.11615798300869466,1,,-0.5288168997001544,0.025192140361996983,0.8030563398528863,0.034805298,-0.008056641,-0.13459778
60,0.958138794589733,0.11515498977832732,1,,-0.5331616989665116,0.022791351303699685,0.8062646070762098,0.039465698885553,-0.02697877504647128,-0.13699585100346237
61,0.959515999725628,0.11748263219264075,1,,-0.5320330735713045,0.023566501888333598,0.8092727110667032,0.042663574,-0.03996277,-0.13864136
62,0.9605254395881099,0.12189021663714839,1,,-0.5278585352895547,0.030087688874081225,0.8063192760759675,0.042663574,-0.03996277,-0.13864136
63,0.9610760895003583,0.12714151857678108,1,,-0.5237216249945669,0.03928794848549781,0.8034648617430067,0.04502164251061575,-0.0447051064278649,-0.13555839945659484
64,0.9611523539251494,0.1321565455114269,1,,-0.5224581431999593,0.0455475411844005,0.8075663652353502,0.046783447,-0.04824829,-0.133255
65,0.9608074768060921,0.13610312760748117,1,,-0.523962740593701,0.04650365075517673,0.8072812970034304,0.0461783071682813,-0.0420860921321138,-0.1267348332787593
66,0.9601472079747128,0.13843472286758535,1,,-0.5260790219830107,0.04636685478084676,0.8008510934927116,0.045700073,-0.037216187,-0.12158203
67,0.95930729370472,0.1388803541148732,1,,-0.5272968815275246,0.04760681358599239,0.7950024704243787,0.045700073,-0.037216187,-0.12158203
68,0.9584289423706649,0.1373990975818638,1,,-0.5244479925995323,0.05181202106887878,0.793006873076008,0.05537655202207159,-0.03869351250550841,-0.10681698833605283
69,0.9576365488894194,0.1341147338243602,1,,-0.5202038833313886,0.05807800251365295,0.7946714040523621,0.063690186,-0.03996277,-0.09413147
70,0.9570213967739146,0.12924635014770425,1,,-0.5167306828745655,0.0645399874456809,0.7990348537112874,0.0648577295365985,-0.044912832724413515,-0.08185627414409162
71,0.9566336593766831,0.12304843486145205,1,,-0.5115182537544001,0.07107895760759667,0.8035449760905765,0.06591797,-0.04940796,-0.07070923
72,0.9564830693519446,0.11576990267294156,1,,-0.508377338972408,0.07182597416732395,0.8080078629946745,0.06591797,-0.04940796,-0.07070923
73,0.956546683369619,0.10763617013774851,1,,-0.5107501952924347,0.0688508585699952,0.8126106162929495,0.06270725487566275,-0.049231293460585274,-0.07054792544006207
74,0.9567807938418781,0.09885276836259627,1,,-0.5129354432653075,0.07065143973875325,0.8114360186190328,0.059539795,-0.049057007,-0.070388794
75,0.9571335923588357,0.08962416952867165,1,,-0.5104449831116048,0.07664308761162564,0.8060433834753842,0.05186744374032916,-0.04433555950605314,-0.06931302198373218
76,0.9575557366409679,0.0801785050413053,1,,-0.507480717043923,0.08001216803135941,0.80586741243052,0.04386902,-0.039413452,-0.06819153
77,0.9580071744319262,0.07078814420381169,1,,-0.5071124660953926,0.07733460957155001,0.8107059927842664,0.04386902,-0.039413452,-0.06819153
78,0.958459801036501,0.06177761959905293,1,,-0.5071595588451457,0.07462888500875452,0.8151364513164113,0.03579112705949242,-0.02517518295136884,-0.0592836673812064
79,0.9588963372436851,0.053513789654666764,1,,-0.5054189551310619,0.07516298251479102,0.8138245229706386,0.026641846,-0.009048462,-0.049194336
80,0.9593063272816396,0.04637786684162813,1,,-0.5050033466171637,0.07780060069166056,0.8066529755441098,0.01937798365561935,0.00473620916372213,-0.03400689196365791
81,0.959680700445872,0.04072395350593361,1,,-0.511000104462626,0.07917975714189711,0.8020901007450045,0.010681152,0.021240234,-0.015823364
82,0.960006842848879,0.03683248101040753,1,,-0.5191548614501761,0.0743778639190118,0.7999580843225846,0.010681152,0.021240234,-0.015823364
83,0.9602661066548404,0.03486819388496184,1,,-0.5245208878889439,0.06884425209843147,0.7999009257534094,0.0026007875825658205,0.023633188627468077,-0.0031692082922326133
84,0.9604348658983963,0.03485089095873706,1,,-0.5279645394042426,0.06761232885149236,0.8020700047836523,-0.0079193115,0.026748657,0.013305664
85,0.9604889340533121,0.03664391015679499,1,,-0.5283388320650849,0.06671309417753091,0.8022414097550089,-0.014266904093611286,0.02165261224196978,0.0229842985761714
86,0.9604100453724307,0.03996157683664012,1,,-0.5262462731490695,0.06243210194599046,0.8013502252095109,-0.023010254,0.014633179,0.036315918
87,0.9601926215070985,0.044393591301378404,1,,-0.5266706153161511,0.0583057318843022,0.7987777160027385,-0.023010254,0.014633179,0.036315918
88,0.959849165863198,0.04944227352746311,1,,-0.5296616271330141,0.058136587010566836,0.7977315778495364,-0.025774666923540225,0.008976201080388362,0.03972108898659501
89,0.9594129719472131,0.05456784637936572,1,,-0.5290895604256309,0.0584507760904139,0.8045025680369278,-0.029922485,0.00048828125,0.044830322
90,0.958937092632074,0.05923708038408977,1,,-0.5212634178358451,0.05579990946170745,0.8126483921454104,-0.030376166516996116,-0.004785028817207415,0.05028039109353486
91,0.9584888194642724,0.06297096077248207,1,,-0.5078952332760243,0.0535958132754044,0.8145295824657958,-0.031097412,-0.013168335,0.058944702
92,0.9581396947421292,0.06538721129197038,1,,-0.495123482382979,0.05625495350644146,0.8118138176108047,-0.031097412,-0.013168335,0.058944702
93,0.957952450557399,0.06623368376746401,1,,-0.48887988696232876,0.061158722324450035,0.8130845000155714,-0.03209555726531651,-0.005021461403973435,0.06144285368279153
94,0.9579676419608246,0.065409156988698,1,,-0.4915401506015746,0.06272401578413614,0.8181658209087549,-0.033828735,0.009124756,0.06578064
95,0.9581932218347883,0.0629691654670794,1,,-0.500274098284565,0.0621376243966122,0.8158639737036881,-0.028543480509719287,0.013776853128484224,0.059121755543950806
96,0.9585996034707083,0.059116071792691544,1,,-0.5066084108849203,0.060153732863539165,0.8091836772258809,-0.018798828,0.022354126,0.046844482
97,0.9591214476187506,0.054174530276885596,1,,-0.5094278276041778,0.0562248421280678,0.8041372029757884,-0.018798828,0.022354126,0.046844482
98,0.9596662004258452,0.0485553521267567,1,,-0.5103052375506169,0.05700469169205589,0.8040721738325187,-0.012577222034283818,0.02054622441474183,0.04332462859375389
99,0.9601283953873011,0.04271206353717037,1,,-0.511282847240313,0.059349923790513265,0.8115964851404938,0.0,0.01689148,0.036209106
100,0.9604075963981741,0.03709497796374822,1,,-0.5175502503170869,0.054835706482727314,0.8190081369376452,0.0012437553008785647,0.011408309876090055,0.03271981631442962
101,0.9604266389652693,0.03210760061516978,1,,-0.5242745574267641,0.048533991558658014,0.8144879855534574,0.003921509,-0.00039672852,0.02520752
102,0.9601462186247867,0.028069804137339092,1,,-0.5245752818369527,0.04670985586644943,0.8053548496675965,0.003921509,-0.00039672852,0.02520752
103,0.959572602372161,0.025191376239797413,1,,-0.518782137066524,0.050161548870866664,0.8008516188821241,0.0032519896049929024,-0.005454313821568818,0.021294450805349856
104,0.9587571659357641,0.023558210949526114,1,,-0.5152645745020449,0.05467866840015129,0.8046339677006593,0.001663208,-0.017456055,0.012008667
105,0.9577885420269735,0.023131816248495328,1,,-0.5139533100380764,0.06048695232630386,0.8089606187046332,0.002914061835808765,-0.019504867292904383,0.007755764127855619
106,0.9567794009130218,0.023761265086080015,1,,-0.5060382587908965,0.06500538399086768,0.8125749185498715,0.006088257,-0.02470398,-0.003036499
107,0.9558501905425746,0.025205443890699866,1,,-0.4951542057359521,0.06666399800204265,0.8132885477054512,0.006088257,-0.02470398,-0.003036499
108,0.9551121626334734,0.027162560093566056,1,,-0.48910135940798394,0.0655456992632714,0.8127012422152317,0.007535371197255778,-0.02259327184760327,-0.00968842741308781
109,0.9546521288446971,0.02930340534537464,1,,-0.48860047473798607,0.06174021097929512,0.8119131272735953,0.0116119385,-0.016647339,-0.028427124
110,0.9545214065677857,0.03130480354982862,1,,-0.4920279213896994,0.06012394719682338,0.8091098936564272,0.010756062265327132,-0.01339803909963779,-0.02946856602279531
111,0.9547308523235483,0.032879949050568784,1,,-0.4940245992147654,0.06122529686141538,0.8141203528924509,0.008163452,-0.0035552979,-0.03262329
112,0.9552526059258442,0.033802966929226304,1,,-0.49718241741190694,0.060505883438629386,0.8161531416395907,0.008163452,-0.0035552979,-0.03262329
113,0.9560275607673259,0.03392594091102819,1,,-0.5082477951602734,0.056599654298747935,0.8118358762472273,0.008538355267091702,-0.00043804617365159054,-0.033046792062035715
114,0.9569762834765375,0.03318759196810234,1,,-0.5182751363759257,0.05623002447670475,0.8075925001624892,0.009811401,0.010147095,-0.034484863
115,0.9580106433186034,0.031613511764411746,1,,-0.5183031770447354,0.05832405532287674,0.805886072791042,0.010985302188417784,0.010297093423450528,-0.031080549681809743
116,0.959043868477403,0.02930841931735808,1,,-0.5188169495864315,0.057156456903922494,0.80360710185211,0.015304565,0.010848999,-0.018554688
117,0.9599977875366692,0.02644153387710847,1,,-0.5168737910997048,0.06620731405227355,0.8054162523861225,0.015304565,0.010848999,-0.018554688
118,0.9608071166609472,0.023226840913527648,1,,-0.5155961175642947,0.06767703327299228,0.8095652963386865,0.01397632460319851,0.011087552199953494,-0.016534348558245964
119,0.9614214127279301,0.019900519142422194,1,,-0.5148058161377878,0.06740526078007263,0.8072974570942738,0.008422852,0.012084961,-0.008087158
120,0.9618056366208657,0.016697930916560234,1,,-0.5130307650043261,0.06753923789549662,0.8072514178426573,0.00845293259569624,0.010731328709676524,-0.007750800895861854
121,0.9619402800592366,0.013832423227828853,1,,-0.5147535298554411,0.06893569417974969,0.8076935268753069,0.008590698,0.0045318604,-0.006210327
122,0.9618217799924279,0.011477835467030802,1,,-0.5163210341406465,0.06870205195017642,0.8073013294834859,0.008590698,0.0045318604,-0.006210327
123,0.9614634592522905,0.00975609052953585,1,,-0.5166483701156085,0.07063147361516751,0.8089556637845748,0.007516717592737639,0.003915047298291993,-0.0060119792763387156
124,0.9608965742977624,0.008730647267102013,1,,-0.5163446825084653,0.06976865326016385,0.8112522780958232,0.0018157959,0.00064086914,-0.0049591064
125,0.9601704887601709,0.008406056220624023,1,,-0.5156551955208284,0.06897550063041523,0.8093447958395839,0.0002544680315717031,-1.5021064143799253e-05,-0.004128753823079069
126,0.9593508183041808,0.00873338723610957,1,,-0.5161430923031055,0.06992021931915164,0.8072507623091142,-0.008972168,-0.0038909912,0.00077819824
127,0.9585147253499253,0.00962071890892291,1,,-0.5148397134666745,0.0667252287161632,0.810496923945676,-0.008972168,-0.0038909912,0.00077819824
128,0.9577432720564356,0.010947127720289596,1,,-0.5067994975763511,0.06659049091973625,0.8085197824380855,-0.0102970224645698,-0.0025150351678083376,0.0011472648394268822
129,0.9571116396410576,0.012577909906154969,1,,-0.5040435055146759,0.06432013041772866,0.8081828433197494,-0.01965332,0.0072021484,0.003753662
130,0.9566788458309897,0.014378460258797012,1,,-0.5048120722062203,0.06407692981151285,0.8062988717204377,-0.018738225868671063,0.007094490274684262,0.002444942768059997
131,0.9564790679641425,0.01622458305821107,1,,-0.5059041890629458,0.06427991059260982,0.8044645145328673,-0.011352539,0.006225586,-0.008117676
132,0.9565165661725403,0.01800810106842165,1,,-0.5133337321851803,0.061941062964124036,0.8037930986544954,-0.011352539,0.006225586,-0.008117676
133,0.9567654734122678,0.019638162152970078,1,,-0.5132899475852682,0.0580250513094098,0.8038933593784046,-0.011166705476717846,0.005841621082350983,-0.009031813111944783
134,0.9571746303005781,0.02103991423971655,1,,-0.5112809727304477,0.06116267080748148,0.8050427015792441,-0.009277344,0.0019378662,-0.018325806
135,0.9576765505908936,0.022152617642943222,1,,-0.5141298835182827,0.06349675712854015,0.8079248873306558,-0.009655334066150448,0.0021713646524565175,-0.018114270228341493
136,0.9581987549666123,0.02292879366177244,1,,-0.5057103663793164,0.05891121296264674,0.8121613026357225,-0.014266968,0.0050201416,-0.015533447
137,0.9586752055323822,0.02333514898614375,1,,-0.5132601096205199,0.05499921375066693,0.8150028140571229,-0.014266968,0.0050201416,-0.015533447
138,0.95905548452796,0.02335518720054288,1,,-0.5184230067906731,0.05508499400316142,0.814568872088777,-0.01472655575025639,0.005555347105574236,-0.015336840926477174
139,0.9593098296160943,0.02299273850385428,1,,-0.5166915468727586,0.05954165841029931,0.8055718288641605,-0.022613525,0.01473999,-0.011962891
140,0.9594292643751983,0.0222751274449861,1,,-0.5163360265780573,0.06547768884479105,0.7994360224433579,-0.02204112152534555,0.014403726581225813,-0.012027121074069978
141,0.9594216060659727,0.021254557738773622,1,,-0.5130494535288239,0.06347872265287069,0.8048363671635924,-0.008743286,0.006591797,-0.013519287
142,0.9593053972373183,0.02000678861787636,1,,-0.507799969469048,0.06140267624440733,0.804115448774335,-0.008743286,0.006591797,-0.013519287
143,0.9591040918461131,0.018627169127325125,1,,-0.509068273083215,0.061959472323945886,0.8154028818245501,-0.008689596968360651,0.0066954074011059,-0.013446131768671604
144,0.958842060622483,0.017224938045300765,1,,-0.5059048836121588,0.05486059650608602,0.8129789707624578,-0.006134033,0.011627197,-0.009963989
145,0.9585427807882141,0.01591684927140619,1,,-0.5108199499640015,0.05219306801800491,0.8082930740899115,-0.006122132723491843,0.011648927944723116,-0.009912352142536787
146,0.9582286723842914,0.01482074863277911,1,,-0.5190606667888407,0.05125665436347259,0.8066396667994853,-0.004379475459721367,0.014831172377814623,-0.0023507341687975564
147,0.957921726588561,0.014049201221783516,1,,-0.5181685746331003,0.052319546122266476,0.8015454320653886,-0.0043792725,0.014831543,-0.0023498535
148,0.9576441516139086,0.013703004110125807,1,,-0.5150552753613015,0.055427911917920215,0.8081008858732595,-0.0043792725,0.014831543,-0.0023498535
149,0.9574184497369252,0.013864491959230864,1,,-0.5131740097611162,0.058849444349076296,0.809136970051342,-0.002750671990481963,0.009945741471445889,-0.004800225012125411
150,0.9572665383986648,0.01459085142014426,1,,-0.5148520529057703,0.059772959600430366,0.8030178500495395,-0.0027160645,0.009841919,-0.004852295
151,0.9572077992787618,0.01590797963681547,1,,-0.5111066167711328,0.06302379264984166,0.8081078549822267,-0.012615161535986002,0.014305350953903534,-0.0029814834662233694
152,0.957256303513802,0.017805509098466774,1,,-0.5106126936363156,0.061815086005885755,0.8050900624807175,-0.012969971,0.014465332,-0.0029144287
153,0.9574178009776682,0.020233466187709912,1,,-0.5142795861965814,0.062093855205365624,0.8052666200852465,-0.012969971,0.014465332,-0.0029144287
154,0.9576872214192302,0.02310091580187534,1,,-0.512811718714622,0.06228587095136057,0.8060837764119413,-0.012119481865587478,0.016829401939105315,-0.006619099887059738
155,0.9580473744239718,0.026277072231740185,1,,-0.5094579287786144,0.06539398095223592,0.8039214454012773,-0.012069702,0.016967773,-0.0068359375
156,0.9584693098704075,0.029595542545118293,1,,-0.5145491122128629,0.06480566155028215,0.8077451914585588,-0.011899247564558678,0.023175171415534053,-0.018029140486761807
157,0.9589144579589406,0.032862277412130686,1,,-0.5179679612051107,0.06003099276472923,0.8088104545840268,-0.011886597,0.023635864,-0.018859863
158,0.9593382798957666,0.03586737852222275,1,,-0.5209580014113013,0.05671356105068109,0.8032229087788744,-0.011886597,0.023635864,-0.018859863
159,0.9596949124556612,0.03840039022918207,1,,-0.5185927454330209,0.0581808923862043,0.8010523454960277,-0.013997700253457198,0.022885867366409983,-0.02930426885717313
160,0.9599423192654164,0.04026827733164104,1,,-0.5171557563120375,0.05690122950429012,0.8052387574375615,-0.014205933,0.02281189,-0.030334473
161,0.9600475967426138,0.04131494915826817,1,,-0.5200967296938183,0.05548648008480889,0.807445041364793,-0.018227366907906207,0.01883149080267173,-0.028583644638030113
162,0.9599920046975726,0.041440880763429125,1,,-0.5189410862469146,0.05328006923104718,0.8068628002565812,-0.018692017,0.018371582,-0.028381348
163,0.959774982800275,0.04062107494310559,1,,-0.5181602671028175,0.05222896153048669,0.8062889444628658,-0.018692017,0.018371582,-0.028381348
164,0.9594161849642625,0.03891919838637831,1,,-0.5196879038590886,0.05522723951071311,0.810145797688191,-0.02803248138976525,0.025868006893859808,-0.022635424785574457
165,0.9589546640595048,0.036495175069999074,1,,-0.5207121077534488,0.06106709389570139,0.8056176830792559,-0.02935791,0.026931763,-0.021820068
166,0.9584447917634603,0.03360315604890399,1,,-0.5204581340463302,0.05902827064998375,0.8019438494738931,-0.021769136747797947,0.02878621176164862,-0.011732391794397381
167,0.9579492172381098,0.030577190635477085,1,,-0.5161501978636795,0.05588636302844673,0.8007851919584663,-0.020553589,0.029083252,-0.010116577
168,0.9575299545650787,0.02780341948291758,1,,-0.5170334080880274,0.05324317148767878,0.8034297638069032,-0.020553589,0.029083252,-0.010116577
169,0.9572391984357422,0.025679966526014748,1,,-0.5184828534075878,0.04874262642899403,0.804063060712776,-0.0075246579294863895,0.0217408399507912,-0.003300456616775727
170,0.9571114693645276,0.02456839617666465,1,,-0.5207663626366839,0.043840216250804254,0.7997934465142426,-0.005065918,0.020355225,-0.0020141602
171,0.9571583137890125,0.024743055061579724,1,,-0.5234408630756485,0.042153069816501125,0.7989405556433645,0.004049977702246822,0.017047240466266406,-0.0010672181085906846
172,0.9573663349122719,0.026346202623052994,1,,-0.5275774016252,0.04392681980828006,0.7959363632960236,0.0059509277,0.016357422,-0.000869751
173,0.9576989327262384,0.029356991659516753,1,,-0.5320856351101184,0.04526456107577832,0.7927131619203402,0.0059509277,0.016357422,-0.000869751
174,0.9581017043671218,0.033580909516468985,1,,-0.5338710296544079,0.04513536005838617,0.7923601764381729,0.01983678730667207,-0.005727003686654502,0.005568462202628413
175,0.9585109193527602,0.03866343226721932,1,,-0.5322969474585455,0.050439668752832165,0.7965321345662046,0.023162842,-0.011016846,0.0071105957
176,0.9588638751166421,0.044127727288289814,1,,-0.5287969692374909,0.05448426993757807,0.8001616358696432,0.033834749922139286,-0.023431105734286906,0.030523455203376203
177,0.9591094028638897,0.049431819603006195,1,,-0.5269940373604223,0.05135652445476465,0.8043237490190498,0.036621094,-0.026672363,0.036636353
178,0.9592165505013112,0.05403672170335875,1,,-0.5254434694325633,0.049422551230970016,0.8043552458855924,0.036621094,-0.026672363,0.036636353
179,0.9591797028517226,0.05747483474258512,1,,-0.5249927452399632,0.05337209186427969,0.8003235593139513,0.041711752339157644,-0.019519515696588767,0.04853812527009943
180,0.959019103371162,0.059408062753284564,1,,-0.5226776119907538,0.05795047299717375,0.8025088787760938,0.04321289,-0.017410278,0.05204773
181,0.9587766677379485,0.05966711934901636,1,,-0.5153977249207655,0.061054753485630726,0.809876123353441,0.03938207985974811,-0.01281562146239911,0.05343654259687818
182,0.9585078164148971,0.058266617304229086,1,,-0.5057414696944328,0.062380357747909725,0.8136519845986754,0.03816223,-0.011352539,0.053878784
183,0.958270694170309,0.05539417505974318,1,,-0.5007590545200425,0.06272002534685385,0.8117189519484709,0.03816223,-0.011352539,0.053878784
184,0.958114683142494,0.0513756863276648,1,,-0.5050150227903893,0.06799951341848749,0.806721553293779,0.022367667923861266,0.0021229361425266166,0.03905238482552202
185,0.9580705274470361,0.046622760397013054,1,,-0.5128279808443865,0.07496170074977729,0.7979129608985601,0.01675415,0.0069122314,0.03378296
186,0.9581443675655108,0.04157152879779307,1,,-0.51970795700604,0.07583485926191351,0.7956446111944181,0.022178333817902903,-0.0038808993162691547,0.012450783792751378
187,0.9583172165978192,0.03662357903763882,1,,-0.5237617564340957,0.0717463060956018,0.801249337113561,0.024246216,-0.0079956055,0.0043182373
188,0.9585499526974266,0.03209894460521171,1,,-0.5255944132925047,0.07066124299302208,0.8032626770304067,0.024246216,-0.0079956055,0.0043182373
189,0.9587922843478268,0.028207966604624594,1,,-0.527497423266595,0.07407713655962164,0.8024819435460109,0.016047364537895594,-0.013425734963553223,-0.002882586222068975
190,0.9589931053766687,0.02504448696479894,1,,-0.5306172582589554,0.07540024257375103,0.7988347445367511,0.012588501,-0.015716553,-0.00592041
191,0.9591096486756452,0.022598481954542435,1,,-0.5294618037740576,0.07058470749691363,0.79575301203021,0.01940610268417081,-0.020103806047372084,-0.007130324095137163
192,0.9591137247886733,0.020782737047638722,1,,-0.5235352820841422,0.06730607835419554,0.7985695857310714,0.022476196,-0.022079468,-0.007675171
193,0.9589944976439181,0.019466015425304992,1,,-0.518690808183357,0.06780279766481487,0.8067328412663338,0.022476196,-0.022079468,-0.007675171
194,0.958758132402062,0.018504877457971493,1,,-0.5146934521726896,0.06840986960173154,0.8079335572057924,0.020384119292806525,-0.01827290821016938,-0.0005723136517686404
195,0.9584250856587347,0.01776812051617608,1,,-0.5112093253804191,0.06526764228622697,0.8037329000567623,0.010742936495003418,-0.00813623188781549,0.004631647864120649
196,0.9580259937899182,0.01715118655314834,1,,-0.5122839254852132,0.06289988976027673,0.8041187503170713,0.0063476563,-0.003921509,0.005493164
197,0.9575971983325664,0.01658143629810883,1,,-0.515603465080613,0.06381081303260365,0.8045228869091772,0.004963123692673647,-0.007877316356915359,0.007194161519939354
198,0.9571768138900547,0.01601739895041585,1,,-0.5182236624065149,0.06588178728215713,0.8015626308435398,0.004211426,-0.010025024,0.008117676
199,0.9568018025835209,0.015445311774203295,1,,-0.5193022043834696,0.06814285388615395,0.8011173674944895,0.005082538605325565,-0.013209424812882552,0.006346413554495554
200,0.9565059605243404,0.014875000112490686,1,,-0.5187966813764883,0.06811703237366899,0.8033593128889015,0.005584717,-0.015045166,0.0053253174
201,0.956318344540538,0.014335553356051385,1,,-0.5168319483432343,0.06679776848738371,0.8040708028168322,0.005584717,-0.015045166,0.0053253174
202,0.9562616221096949,0.013870205326883813,1,,-0.5127822093114878,0.06879128798845412,0.8039139949823146,0.008290708811002545,-0.012676252507387372,0.0067672646579544265
203,0.9563500937285855,0.013529612059118993,1,,-0.5097983455864387,0.07175892285077695,0.8032348765188185,0.009994507,-0.011184692,0.007675171
204,0.9565875571631515,0.013363206164274576,1,,-0.5101155031276805,0.07290647157036413,0.8050859959821857,0.009070073723616906,-0.004347548456126428,0.007812463142017856
205,0.956965497565309,0.013409200978228565,1,,-0.5120557620091084,0.07328387573786166,0.8074849176434322,0.008453369,0.00021362305,0.007904053
206,0.9574621214081638,0.013684766385746325,1,,-0.514389579884788,0.07454225298040637,0.804482987561286,0.008453369,0.00021362305,0.007904053
207,0.9580425978395938,0.014178535404896725,1,,-0.5152436474108016,0.0767903289962314,0.8011994800341866,0.006465028910658474,-0.0038867761902256766,0.002283677971402451
208,0.9586607513767783,0.014847639935920535,1,,-0.5143524103058074,0.07669377240711493,0.8032464949321686,0.0050201416,-0.006866455,-0.0018005371
209,0.9592623999264777,0.015620789089573742,1,,-0.514824854239491,0.07383012977547929,0.8048025788648017,0.004131604145192056,-0.012327078590951106,-0.007321546378087304
210,0.9597903652538854,0.016407561807531255,1,,-0.5164843908853242,0.07333640156412075,0.8059783468271234,0.0034484863,-0.016525269,-0.011566162
211,0.9601907884653387,0.017112436541860756,1,,-0.5175205333681074,0.07512940132378534,0.806973456106982,0.0034484863,-0.016525269,-0.011566162
212,0.960419906953328,0.017650757387458006,1,,-0.5176537160703277,0.07381090999300424,0.8055249138527659,-0.0015712618466418341,-0.015985063928492454,-0.011059200753235741
213,0.9604501378551344,0.017963395726573957,1,,-0.518015738020926,0.07166649741363995,0.8068878527094355,-0.0057678223,-0.015533447,-0.010635376
214,0.9602742830001029,0.018027348391685592,1,,-0.5185333164334739,0.06982126447640001,0.8092828959888347,-0.009169969859315438,-0.016149073689581,-0.006463695237967695
215,0.9599068921903822,0.017860485847746292,1,,-0.5182164060439972,0.06913001955528418,0.8092133775111147,-0.012176514,-0.016693115,-0.0027770996
216,0.9593822717118754,0.01751969616196253,1,,-0.5146110964610158,0.0694951415617744,0.8068976771518073,-0.012176514,-0.016693115,-0.0027770996
217,0.9587493250801823,0.01709263752742451,1,,-0.507582900100678,0.0700435843277914,0.8055558767043778,-0.0074590368042624505,-0.014303238147155582,0.0040889311422766484
218,0.9580642463386925,0.016684277235737576,1,,-0.5042036154293631,0.07128122542087477,0.8087245000751206,-0.0029296875,-0.012008667,0.010681152
219,0.9573826914711849,0.01640033237666226,1,,-0.505947112886069,0.07051927179395437,0.8104478850169272,-0.007019715112813147,-0.005434326645905003,0.009181475398913353
220,0.9567530942213905,0.016330420155796475,1,,-0.5064210115591,0.0694375330780525,0.8077731698597994,-0.011169434,0.0012359619,0.007659912
221,0.9562123147747928,0.016533914051691103,1,,-0.50589585800143,0.07095982494553699,0.8045748105878213,-0.011169434,0.0012359619,0.007659912
222,0.9557841565485344,0.017031084785142692,1,,-0.5042366331943328,0.07319230914640258,0.8058696995845009,-0.010821031248991156,0.0060047235911698015,0.004328311314247901
223,0.9554806725998497,0.017801183821515982,1,,-0.5022667235211095,0.0718999173505318,0.8115241946108772,-0.010437012,0.011260986,0.00065612793
224,0.9553055745155539,0.01878790264689862,1,,-0.5048373112823528,0.06734399784036339,0.8139986650710936,-0.012206034638917035,0.01370660706419445,-0.0012890922332055217
225,0.9552584980499379,0.01991132296946867,1,,-0.5077354577010071,0.06346331947750078,0.8094942238628176,-0.014266968,0.016555786,-0.0035552979
226,0.9553386727628077,0.021084293204362867,1,,-0.5061875299752617,0.06351809440560195,0.8053127392148104,-0.014266968,0.016555786,-0.0035552979
227,0.9555469114822324,0.022230381022342573,1,,-0.505292398152234,0.0655206917989384,0.8070453658325984,-0.008201288793802424,0.0206018160170127,-0.004268907187232723
228,0.955885555393459,0.02330030772529582,1,,-0.5071712368278211,0.06603673714231258,0.8093088488613542,-0.0005187988,0.025726318,-0.0051727295
229,0.9563565970137294,0.024283993200164868,1,,-0.5082380938128643,0.06834479797666675,0.8104959597995117,0.004235500568641768,0.024917630919856174,-0.00907921150929092
230,0.9569584510291647,0.025215852181127266,1,,-0.510142777702101,0.07078498012702904,0.8074572158063505,0.010604858,0.023834229,-0.014312744
231,0.9576819810855051,0.026171714879016667,1,,-0.5129361592347502,0.07047150217156004,0.8016112329007982,0.010604858,0.023834229,-0.014312744
232,0.958506660419536,0.02725675225224454,1,,-0.5182462460710704,0.06930848333664519,0.7997163441825179,0.014527010661600663,0.015344506196540474,-0.0196808801721923
233,0.95939801331454,0.02858508163606592,1,,-0.5209589125330528,0.07171847837255248,0.8017046937252997,0.020248413,0.002960205,-0.027511597
234,0.960307410841836,0.030253204532791397,1,,-0.5201859743889681,0.07630616063178579,0.8035681517853008,0.020961871258878217,-0.0005231498160029274,-0.024471904888914025
235,0.9611747756852207,0.03231094524680879,1,,-0.5202635471900263,0.08426936746711734,0.802272110502429,0.022064209,-0.0059051514,-0.01977539
236,0.9619340420037567,0.03473499332982373,1,,-0.5176339852029258,0.08991589560693845,0.8042804992707843,0.022064209,-0.0059051514,-0.01977539
237,0.9625206132005815,0.03741124412120604,1,,-0.5185613962569127,0.09178978591141988,0.8083605790477194,0.012278066352992077,0.0007969080892505586,-0.00880786766518328
238,0.9628796508933719,0.04013228868285045,1,,-0.5209960584255318,0.09214964891958143,0.8073206604746407,-0.0042266846,0.01210022,0.009689331
239,0.9629738099860449,0.04261475462425043,1,,-0.5224564131450042,0.0842189336683969,0.8037475524448218,-0.014366620678395791,0.01942897614184234,0.020343373656190506
240,0.96278906887674,0.04453712191615163,1,,-0.5253027635027747,0.07805359930645567,0.8037599153648257,-0.03251648,0.032546997,0.039413452
241,0.9623376074930544,0.045592740444980705,1,,-0.5294816397966353,0.07574153558808491,0.8048325410213573,-0.03251648,0.032546997,0.039413452
242,0.9616571434885638,0.045547328262799405,1,,-0.5326091404382549,0.07440962414770022,0.80133763809924,-0.03002734634539559,0.03311903399815828,0.041196557877393125
243,0.9608066761140635,0.04428790746333,1,,-0.5294698654547261,0.06861786694307727,0.7955833325412662,-0.025146484,0.034240723,0.044692993
244,0.9598592537853252,0.04185200073933264,1,,-0.5200760334160626,0.06417834286722829,0.797811897500689,-0.02196319529097328,0.024290474025880443,0.04035304335195267
245,0.9588930656751693,0.03843089466521577,1,,-0.517134353187939,0.06431279920054572,0.8061896024187529,-0.015319824,0.0035247803,0.031295776
246,0.9579824826261132,0.03434686569375978,1,,-0.5152866853713483,0.06425155622515602,0.805021523563674,-0.015319824,0.0035247803,0.031295776
247,0.9571904076369676,0.0300096661094137,1,,-0.5129267754460687,0.066564861100144,0.8043203826494809,-0.012668404452876474,0.0009936694599986069,0.02370707083360309
248,0.9565626943251412,0.025861129388206217,1,,-0.5085319128014654,0.07117294912496057,0.8086374612496837,-0.006576538,-0.0048217773,0.0062713623
249,0.9561248939512984,0.022318087220856875,1,,-0.5061424003693403,0.07166781817887262,0.808945310178269,-0.003899975997728681,-0.0028430647598914702,-0.0010958085382635767
250,0.9558813799827368,0.01972299150378193,1,,-0.5041812151902935,0.07063536602859058,0.8045708217318033,0.002670288,0.0020141602,-0.019180298
251,0.955816868464434,0.01830894042783131,1,,-0.5052668219345465,0.0691704826426062,0.8039557893571281,0.002670288,0.0020141602,-0.019180298
252,0.9559002755885166,0.018181894519438104,1,,-0.5073299122982635,0.06838536698608173,0.8096991453843438,0.0018049700272206785,0.005750201402538537,-0.018651264665180585
253,0.9560905206446823,0.019319117273457927,1,,-0.5112680047576682,0.07316538933977106,0.8088044387540798,-0.0005493164,0.015914917,-0.017211914
254,0.9563433363925873,0.021580577280752952,1,,-0.5164231383564497,0.0737429120746359,0.8035312889421375,-0.0003975852280857537,0.017237701518261584,-0.016838421816735817
255,0.9566177753725749,0.02472946990510298,1,,-0.5187688382357137,0.07246046754034607,0.8013580459335713,4.5776367e-05,0.021102905,-0.01574707
256,0.9568812566492318,0.028458569264654385,1,,-0.5206095752391998,0.07125649293687315,0.8015650490037125,4.5776367e-05,0.021102905,-0.01574707
257,0.9571126170388807,0.03242007959005045,1,,-0.5198420934682763,0.06749485611112441,0.7974367011636249,0.0008787065317748599,0.020738274739012543,-0.01936835025074809
258,0.9573033268422939,0.036257452840546406,1,,-0.51653933226122,0.06490887276222765,0.7964205830480764,0.0036010742,0.019546509,-0.031204224
259,0.9574574209838729,0.03963790948832688,1,,-0.5213178196951826,0.06129181523986687,0.803782073718093,0.0050342730649230215,0.018934203483923995,-0.033024319613818784
260,0.9575905804078603,0.042284105799255275,1,,-0.5205066956696122,0.06035668790350064,0.8077731330202457,0.010101318,0.01676941,-0.03945923
261,0.9577283030670081,0.044002845055090216,1,,-0.5205458186423977,0.060060315649477496,0.803567397524957,0.010101318,0.01676941,-0.03945923
262,0.9579027313053604,0.044708311113758795,1,,-0.5222485495389326,0.06218960426124664,0.7994537731589333,0.012994422048702482,0.013528767734511598,-0.03932814058324997
263,0.9581479068325524,0.044437160450701625,1,,-0.5184353091934001,0.0671053137772562,0.8021100241679505,0.02458191,0.0005493164,-0.0388031
264,0.9584938896018125,0.043352856049303494,1,,-0.5175745319778898,0.073119517325724,0.7997385909603154,0.025260213694086747,-0.0016757470795165346,-0.03969142237217278
265,0.9589607515965902,0.04173678228729817,1,,-0.5171935897981594,0.0819365835981098,0.8024058914950802,0.02822876,-0.011413574,-0.0435791
266,0.9595535468634309,0.03996412924531326,1,,-0.5150564846188261,0.08849975483823175,0.8064274298553711,0.02822876,-0.011413574,-0.0435791
267,0.96025901400623,0.03846376599188674,1,,-0.5242179871201731,0.09039650369013923,0.8025270660833564,0.027358547444138095,-0.010893968889755851,-0.041493112388387474
268,0.9610443249382555,0.03766382214687956,1,,-0.5287768766783159,0.09179716221054983,0.7952166240647107,0.022964478,-0.008270264,-0.030960083
269,0.9618579812850923,0.037928442554733065,1,,-0.5319890321379205,0.0945221502465532,0.7924968861078697,0.019369527698117266,-0.006492439689991083,-0.024281104661980808
270,0.9626330165704948,0.039495297222861235,1,,-0.5351426146701946,0.09283082005972496,0.791212602057566,-0.00076293945,0.0034637451,0.013122559
271,0.9632926924242193,0.042426319424538506,1,,-0.5399988292903617,0.09353213941558426,0.7915617056957533,-0.00076293945,0.0034637451,0.013122559
272,0.9637585640519739,0.046584062305346785,1,,-0.5461520737152432,0.08897478152725873,0.7919060753361438,-0.004057226173001058,0.002878628488646722,0.018486795844202566
273,0.9639601608498236,0.051641961843728386,1,,-0.5490123508278223,0.08439003589602116,0.789804348267522,-0.025848389,-0.0009918213,0.053970337
274,0.9638449421527544,0.05712923525238169,1,,-0.5461534536720141,0.08400425912539489,0.7882758249248091,-0.02729022922548122,-0.0014060813816236042,0.055686557544668266
275,0.9633869763668007,0.06250260909112129,1,,-0.5392076022265014,0.08102941686065677,0.7956864063853374,-0.038116455,-0.0045166016,0.068573
276,0.9625929639728811,0.06723080852793717,1,,-0.5340117257752232,0.07756825847031712,0.8018938563993241,-0.038116455,-0.0045166016,0.068573
277,0.9615045775937288,0.07087570728619028,1,,-0.5307432243311555,0.07258423656425408,0.7987451839244911,-0.03908575913775974,-0.005048536863446691,0.06890693689164513
278,0.9601965230860725,0.07315592869741624,1,,-0.523794063163018,0.06852575664430648,0.8023638641204133,-0.04812622,-0.010009766,0.072021484
279,0.958770276482001,0.07398286262274542,1,,-0.5166532039963524,0.06565805893314586,0.806569076308319,-0.04840118241584549,-0.009894459191166879,0.07120546671139816
280,0.9573440889377245,0.0734640594018389,1,,-0.5079172384900612,0.06772342166974497,0.8092799222387704,-0.051437378,-0.008621216,0.062194824
281,0.9560404294802137,0.07187411941732329,1,,-0.5028318090625207,0.06918742333305365,0.8085977497818837,-0.051437378,-0.008621216,0.062194824
282,0.954972458070367,0.06959831661343382,1,,-0.4976806245194228,0.06759142550887885,0.8105111030300999,-0.05050788707549376,-0.008495634831265085,0.05937115064607315
283,0.9542313585530315,0.06705902524909498,1,,-0.49667575142666387,0.064435827205177,0.8090704593497502,-0.03652954,-0.0066070557,0.016906738
284,0.9538763407130374,0.06463896958620188,1,,-0.4988470384105057,0.06029783361368067,0.8065721160457635,-0.03493590402662241,-0.0070123178432655005,0.014307725839540066
285,0.9539287539890793,0.06261721546762984,1,,-0.49949608631091036,0.058233903030367906,0.8109017769032334,-0.0037078857,-0.014953613,-0.036621094
286,0.9543710539587316,0.0611321714344194,1,,-0.5017086577525499,0.06224404814410914,0.8103214382968216,-0.0037078857,-0.014953613,-0.036621094
287,0.9551505023209587,0.06018005986063369,1,,-0.5052537818336835,0.06498215500959204,0.8076823421577684,-0.003018298409760149,-0.015124521805969014,-0.037663127575594806
288,0.9561867419102497,0.05964855858969375,1,,-0.5123204599593032,0.06466598012778271,0.8039698006540503,0.02104187,-0.021087646,-0.074020386
289,0.9573819606973197,0.05937603809485308,1,,-0.518254774118818,0.06183274545223005,0.8023800680290477,0.02111120390793811,-0.02135854197359356,-0.07399355403004468
290,0.9586321985359741,0.05921971458929356,1,,-0.5241110108956856,0.06142289873704481,0.8017847971832277,0.025970459,-0.04034424,-0.07211304
291,0.9598382960023043,0.05911342464013973,1,,-0.5280249730795198,0.062026315514414454,0.8019955554726784,0.025970459,-0.04034424,-0.07211304
292,0.9609149915410309,0.05909865840440026,1,,-0.5259852676875769,0.06546445497805074,0.8043381239398331,0.025970459,-0.04034424,-0.07211304
293,0.9617968601258282,0.059320095157598854,1,,-0.5270752655589235,0.07051426676645224,0.8057244572527734,0.01891085359959888,-0.03257716691807273,-0.03427114204910712
294,0.962440288638781,0.059986853941880254,1,,-0.5307835057224545,0.08113667645844316,0.8022269370136509,0.018814087,-0.032470703,-0.03375244
295,0.9628215183546406,0.061310114163187934,1,,-0.5338722740851877,0.0882096086640832,0.7917259062010626,0.009626905368191422,-0.04039631647090154,0.0033970181521697385
296,0.962931797810031,0.06343390230453115,1,,-0.534977235988962,0.08585944509477347,0.7906711559272779,0.0093688965,-0.040618896,0.0044403076
297,0.9627715285496905,0.06637703989114592,1,,-0.5333080123277882,0.08316882452915078,0.796671818448203,0.0093688965,-0.040618896,0.0044403076
298,0.9623455412023999,0.07000070231729992,1,,-0.5194221294753085,0.08931419034975839,0.8029189984801028,-0.02572649531426903,-0.033835143189712674,0.04812070582537968
299,0.9616611730283876,0.0740093070800057,1,,-0.5012453278193038,0.09558978573773436,0.80975164257992,-0.027496338,-0.033493042,0.050323486
300,0.960729885157668,0.07798456459058627,1,,-0.5005188589234123,0.09439302884815501,0.8109631192090637,-0.05274931448690066,0.008466413641548185,0.06685817662656783
301,0.9595720765313233,0.08144547327678085,1,,-0.5122970799831097,0.08662002081791623,0.8107831754635253,-0.05441284,0.011230469,0.06794739
302,0.958223664348998,0.08392230163256198,1,,-0.5162210070512316,0.0816945191791896,0.8084976125122674,-0.05441284,0.011230469,0.06794739
303,0.9567420964995044,0.08503070181219938,1,,-0.5092900911076397,0.07471390602272737,0.8091287016312694,-0.06345684991690233,0.038656492977215316,0.07028538948163666
304,0.9552091293536228,0.08453270625162718,1,,-0.5075010379002874,0.05738222851659825,0.8161773816050055,-0.06427002,0.041122437,0.070495605
305,0.9537282402560583,0.0823738963397982,1,,-0.5080932726922491,0.045667099390292995,0.8147894933430488,-0.047998385168480213,0.054057007493879934,0.05630618603099423
306,0.9524159020491108,0.07869017646300178,1,,-0.49796788031670536,0.044514374241198564,0.8046333398949617,-0.04626465,0.05543518,0.05479431
307,0.9513878068451261,0.07378303736417585,1,,-0.49137186369531727,0.04731888374362585,0.8004923848479211,-0.04626465,0.05543518,0.05479431
308,0.9507428764851421,0.06806824019835436,1,,-0.498516098929417,0.04701981182786154,0.8040853594514065,-0.028829569214198762,0.028339397100054363,0.013510631240182642
309,0.9505486711745761,0.062008401693101865,1,,-0.5051950889403745,0.04146214930499162,0.8074364333020482,-0.026519775,0.024749756,0.008041382
310,0.9508311371012088,0.0560435564484925,1,,-0.500781981702914,0.04788363751929787,0.8095049652230796,0.0042510705509297,-0.00820953404587513,-0.033910422564570435
311,0.9515700981138586,0.050533746834242305,1,,-0.4968019206232895,0.05716424938330224,0.8076844023967119,0.008880615,-0.013168335,-0.040222168
312,0.9527006183137929,0.04572340083998887,1,,-0.4985410798654106,0.0634617534856457,0.8026604731257223,0.008880615,-0.013168335,-0.040222168
313,0.9541198290492482,0.04173030425482897,1,,-0.5062488184311411,0.06768478363782252,0.8034635380290441,0.01922571585429419,-0.021156979612658094,-0.05011410393135454
314,0.9556985702037822,0.0385554012328563,1,,-0.5155451142550412,0.07158164769510023,0.803506199093052,0.021072388,-0.022583008,-0.051879883
315,0.9572966584003824,0.036105994046970034,1,,-0.5209096029812833,0.07636798738861184,0.8026605732533756,0.010920943347775682,0.012252877569787926,-0.021667553374231954
316,0.9587797998985994,0.03422497365776205,1,,-0.521694702914805,0.08060633768461536,0.8007786981692939,0.008911133,0.01914978,-0.015686035
317,0.960035613877932,0.03272131676764549,1,,-0.5257980362846579,0.08308662194025719,0.8022226288509983,0.008911133,0.01914978,-0.015686035
318,0.9609862575957159,0.031399720660143786,1,,-0.5280840935067338,0.07870773462803851,0.8055745588512181,-0.0037462062819944614,0.03368274040533732,0.004113571301629331
319,0.961595690067744,0.030087992178674326,1,,-0.5258111765671877,0.07587355009167625,0.8014630106866637,-0.0066375732,0.037002563,0.008636475
320,0.9618704917579668,0.02865988268560943,1,,-0.5304865422960046,0.07320769018230042,0.8011783035507754,-0.016479512977500825,0.026489026984428305,0.012092143489161804
321,0.9618542416489246,0.02705015599794461,1,,-0.5323660426624371,0.06963314046993989,0.8030962666335014,-0.018936157,0.023864746,0.012954712
322,0.9616165838305429,0.025259074770256084,1,,-0.5270793984486916,0.07066423517490782,0.796485382720197,-0.018936157,0.023864746,0.012954712
323,0.9612391096111013,0.023345235665495272,1,,-0.5247796452912789,0.07501696985113715,0.7967325782694915,-0.012619854807243808,0.01125593192488856,0.013894425246114684
324,0.960800852840476,0.02140809223574971,1,,-0.5194862082194581,0.07358972204392727,0.7977240481574916,-0.01083374,0.0076904297,0.014160156
325,0.9603662851636452,0.01956381812473187,1,,-0.5159753793746976,0.06964471141147123,0.8053077131091266,-0.009828862799368988,0.004594006100840943,-1.5999768857012355e-06
326,0.959977994153109,0.017919704926406408,1,,-0.5158528083457797,0.06533136113128014,0.8079829267394432,-0.009521484,0.0036468506,-0.004333496
327,0.9596549032435745,0.01655253091183971,1,,-0.519521672655288,0.06353389003422936,0.8038080180100358,-0.009521484,0.0036468506,-0.004333496
328,0.959395503370213,0.015495155313300405,1,,-0.5231190120303305,0.05876908452838813,0.8013003875728739,-0.004712447134843273,0.0027373400477720814,-0.011996122687509896
329,0.9591846017512015,0.014733404420953661,1,,-0.5222755191513417,0.06026697579311569,0.803541681862003,-0.0030670166,0.0024261475,-0.01461792
330,0.9590016438103043,0.014212872399158093,1,,-0.5227328218215143,0.06328243837498893,0.8063872796263141,-0.005745030647616992,0.001600426500765967,-0.01432780145927671
331,0.958828584254946,0.013853271309708521,1,,-0.522355390684798,0.0650779429066623,0.8067462394099297,-0.006729126,0.0012969971,-0.014221191
332,0.9586555391673575,0.013566815343469344,1,,-0.5226183591273958,0.0683272103206502,0.8021981959500514,-0.006729126,0.0012969971,-0.014221191
333,0.9584831381320899,0.013276824328574997,1,,-0.5231117042006527,0.0694552609876541,0.7983883093417982,-0.013527471485556757,0.005287094449047806,-0.006381951072857566
334,0.9583215345288069,0.01293307238091546,1,,-0.5215453356745718,0.06796959129567176,0.7974715036058511,-0.016296387,0.0069122314,-0.003189087
335,0.9581870205457178,0.012521172665006455,1,,-0.5209404542156257,0.0698790782916418,0.7974688009093006,-0.015275698924570296,0.00496654508718719,0.0007341822150814982
336,0.9580976595620917,0.012064375424498544,1,,-0.519382128512087,0.06925265710391873,0.8035288663807403,-0.014831543,0.004119873,0.0024414063
337,0.9580691358185662,0.011617533207382227,1,,-0.5181835343254283,0.06432600203244578,0.8050815775993566,-0.014831543,0.004119873,0.0024414063
338,0.9581114153178344,0.011254561488352174,1,,-0.521244814093483,0.06382369124727584,0.8040618207674831,-0.0015027153168750927,-0.000842329841562454,-0.0007566870857442716
339,0.9582263091955738,0.01105221819365399,1,,-0.5218962187618739,0.0686164344659087,0.7995529612045399,0.0048828125,-0.0032196045,-0.0022888184
340,0.9584059447799702,0.011073953578834027,1,,-0.5187716423486861,0.06970147395819569,0.798210383775095,0.006055101459769143,-0.005685453714076571,-0.0018643689022311432
341,0.958632372567176,0.011357471457786622,1,,-0.5187854196642403,0.06398198395111825,0.8023124158200469,0.006652832,-0.006942749,-0.0016479492
342,0.9588786797268066,0.011908493053382273,1,,-0.5203386442349218,0.06053448786130121,0.8082325972444893,0.006652832,-0.006942749,-0.0016479492
343,0.9591117919484454,0.012701593995877513,1,,-0.518997756961274,0.05833727407319487,0.801337875143037,0.005536748719167174,-0.005875616774025323,0.005851346886415466
344,0.9592967696570959,0.013687500119468307,1,,-0.521735379446953,0.06195589074709935,0.7970321375567286,0.00491333,-0.005279541,0.010040283
345,0.9594021060014302,0.014805061302441988,1,,-0.524098649866049,0.06830268253984828,0.8004760075000176,-6.812101056147155e-05,-0.006342889220390543,0.016190459407407005
346,0.9594052760614599,0.01599520420543308,1,,-0.525888954277099,0.0700865096628263,0.8062198022293312,-0.0030212402,-0.0069732666,0.019836426
347,0.9592974009815859,0.017213572644292168,1,,-0.5299988141185902,0.07028929968252211,0.8037345898184788,-0.0030212402,-0.0069732666,0.019836426
348,0.9590856030432546,0.018438578020290076,1,,-0.5289318542419252,0.07041235194549043,0.8013300477119568,0.0016755966475653621,-0.01160525543485407,0.020660919889236417
349,0.9587919800966217,0.019672401166107044,1,,-0.5242596883477052,0.07008393318779568,0.7965190476601567,0.004714966,-0.014602661,0.021194458
350,0.9584492684630265,0.020934028571813458,1,,-0.5169094247873467,0.07148283067554671,0.7920363272750003,0.004959409981523975,-0.012574679653293628,0.018315448930954437
351,0.9580945695300721,0.022245382718353104,1,,-0.513803646644443,0.07281989502977756,0.8033953389649324,0.005126953,-0.011184692,0.016342163
352,0.9577630619209985,0.02361364296711797,1,,-0.5144986873931652,0.07059242683400829,0.8123943464933783,0.005126953,-0.011184692,0.016342163
353,0.9574830649817334,0.02501446999436751,1,,-0.5153017912580368,0.0665610922280828,0.8084359120797543,0.002776497765257824,-0.009454617210895598,0.0022132177437060746
354,0.9572728043204376,0.026381470087378244,1,,-0.5126171410672203,0.06438017987647063,0.801673217724782,0.0010223389,-0.008163452,-0.008331299
355,0.9571387265518765,0.027606341602379098,1,,-0.5117919542130747,0.06569439067665257,0.8017309487875081,0.007306930282707556,-0.013552681359092874,-0.01840199474087044
356,0.9570754321939309,0.02855154689063571,1,,-0.5130231846358303,0.06982868559080727,0.8024196299414255,0.012268066,-0.017807007,-0.026351929
357,0.9570675721581977,0.029073629708804165,1,,-0.5126398674999001,0.071265308461485,0.8040820020674883,0.012268066,-0.017807007,-0.026351929
358,0.957093766304495,0.029051857293617596,1,,-0.5141505749692228,0.06976232324998795,0.8088728081349712,0.010896741576413314,-0.01976956139554681,-0.029505154978970095
359,0.9571318696195389,0.02841512600145999,1,,-0.5155330460841243,0.07060641985612993,0.8057352158326502,0.009719849,-0.021453857,-0.032211304
360,0.9571643113778932,0.02716052027419415,1,,-0.5151367875435352,0.07252322924596864,0.8019459250150676,0.006455426268754578,-0.020189693721163623,-0.025074380127087913
361,0.9571821662871011,0.02535910602855681,1,,-0.5155793950098833,0.07318271076073192,0.8054740396248639,0.0034942627,-0.019042969,-0.018600464
362,0.9571870191646654,0.02314765546565421,1,,-0.5171081562189285,0.07366488757543553,0.8042413027107949,0.0034942627,-0.019042969,-0.018600464
363,0.9571902373685113,0.02070819925617935,1,,-0.5163839033646784,0.07416624304728864,0.8035431157565927,0.0010119107150447393,-0.01350186750396977,-0.01073840183841596
364,0.9572097774329298,0.018239867230629574,1,,-0.5145255517736911,0.07268435098298566,0.8043398057906821,-0.0014343262,-0.008041382,-0.0029907227
365,0.9572651423396688,0.015928949667474615,1,,-0.5142928915842271,0.07107359630743255,0.8030088316849516,-0.003901013335980367,-0.004662768040528873,0.0022565935995869837
366,0.9573715757173032,0.013923221480359448,1,,-0.5139348056336587,0.07018947003770103,0.8026774872822947,-0.0064697266,-0.0011444092,0.0077209473
367,0.9575348979378568,0.01231522963883581,1,,-0.5144701880740352,0.06952688166814489,0.8004516249015728,-0.0064697266,-0.0011444092,0.0077209473
368,0.9577483943452858,0.011136804345126563,1,,-0.5125892360498056,0.06926000642054164,0.802782882215728,-0.004765866965846748,-0.0021824749360056664,0.009231512029841082
369,0.9579927717934937,0.010364361233408996,1,,-0.510339596840815,0.06776902320800876,0.8077507591381071,-0.0028381348,-0.0033569336,0.010940552
370,0.958239446924383,0.009932444074757114,1,,-0.5117873673633263,0.06754670135805656,0.8071141467992676,-0.0052145505978141785,0.0018614528030920167,0.010627865507090226
371,0.9584565142439911,0.009751772480635763,1,,-0.5112126707134299,0.06637574156692516,0.8075541464449348,-0.008056641,0.008102417,0.010253906
372,0.9586159478112326,0.009727775512167748,1,,-0.5140315834900139,0.06334323118044743,0.8118497911917978,-0.008056641,0.008102417,0.010253906
373,0.9587001450214424,0.009776099221402075,1,,-0.5196379576879147,0.06387891586063346,0.8104415352263523,-0.006398428864153646,0.006178891103249404,0.00850946708312351
374,0.9587059675142665,0.009832764381306128,1,,-0.5192759190470959,0.06647231779954509,0.8055364157088442,-0.0042419434,0.0036773682,0.0062408447
375,0.9586450743289324,0.009858250452221972,1,,-0.5162491817232532,0.06853624095649395,0.80223422367922,-6.7410939381523e-05,0.00474990193466361,0.005502273590806771
376,0.958540489552082,0.009836283355115433,1,,-0.5115862626004641,0.07079231819553797,0.8029279113641054,0.0056762695,0.006225586,0.004486084
377,0.9584205406695786,0.00976900135505441,1,,-0.5076033834922248,0.07218926922861418,0.8086707051621904,0.0056762695,0.006225586,0.004486084
378,0.9583119464425353,0.009670329093782376,1,,-0.5104248901103502,0.07263041823468044,0.8100256037265866,0.006635009022814472,0.004253147035571358,-3.8923007792513325e-05
379,0.9582337217129786,0.00955908107288734,1,,-0.5135363838729758,0.07326479062255815,0.8036641056420225,0.008071899,0.0012969971,-0.0068206787
380,0.958193042045121,0.0094529055851539,1,,-0.5142840455452112,0.07259375448490757,0.8012260352589888,0.0053007173528492576,0.0025587692568512462,-0.007044731703064876
381,0.9581837033340577,0.00936385391100244,1,,-0.5161363826017804,0.07170293621009231,0.8031167952518742,0.00090026855,0.004562378,-0.0074005127
382,0.9581873943423427,0.009296148541910805,1,,-0.5183379597333948,0.07155009346051068,0.8042182207036693,0.00090026855,0.004562378,-0.0074005127
383,0.9581775219742499,0.009246592222212963,1,,-0.5204047024030659,0.07091771989272912,0.8021165511686654,-0.0011309956014896522,0.0036583537868954906,-0.005129291513547046
384,0.9581248133114528,0.009207906050157554,1,,-0.5214680441873422,0.06971235495276257,0.8009849888618047,-0.0046539307,0.002090454,-0.0011901855
385,0.9580035878020727,0.009174953114669312,1,,-0.5215008231513796,0.06871774225387504,0.8019939400145397,-0.004455244189581896,-0.00012194709167241707,0.0032722060145933965
386,0.9577975673099263,0.009153154546286941,1,,-0.5224874915520218,0.07226822100322,0.8004946875658812,-0.0040893555,-0.004196167,0.011489868
387,0.9575042823475113,0.0091674587896094,1,,-0.5226088678805234,0.07585044017984269,0.7980263303391547,-0.0040893555,-0.004196167,0.011489868
388,0.9571374003334473,0.009269305032570736,1,,-0.5200688266868284,0.07585285617701659,0.7994649135007083,-0.0036850218881082342,-0.008987519996185755,0.007325232115495685
389,0.9567265549825709,0.009538643777766283,1,,-0.5165852142604518,0.0735630729515811,0.8047028478829521,-0.0028686523,-0.018661499,-0.001083374
390,0.9563144529668399,0.010078593923941314,1,,-0.5111915472010674,0.07111100617196402,0.8098374664406217,-0.0039197307729305665,-0.015392015221833099,-0.0026042894346769655
391,0.9559512428396826,0.011001732294026628,1,,-0.5046745314004796,0.06744523890681937,0.8121573316420827,-0.0061798096,-0.008361816,-0.005874634
392,0.9556865472325469,0.01240908731108244,1,,-0.5027322291506565,0.06287953748098155,0.8095082331023477,-0.0061798096,-0.008361816,-0.005874634
393,0.955560295571391,0.014365190753787218,1,,-0.5036386635485386,0.0627266975945172,0.8023259008532597,-0.004432023124654598,-0.004304778097730215,-0.0038280031403059274
394,0.9555943138749512,0.016874351367124944,1,,-0.5054601017676587,0.06676054040386012,0.8000216900548802,-0.000289917,0.0053100586,0.0010223389
395,0.9557869763477335,0.019863956017377338,1,,-0.507085419232521,0.06848811624534391,0.8040787409224998,-5.245703596581095e-05,0.010085162792322435,0.002205321234897836
396,0.9561126418193879,0.02317967714343842,1,,-0.5042563222533518,0.06571957182572757,0.8124431907994863,0.0005493164,0.02218628,0.005203247
397,0.9565261836653973,0.026595089659776017,1,,-0.5009317618338036,0.0646470891107827,0.8152149760948598,0.0005493164,0.02218628,0.005203247
398,0.9569713605394047,0.02983508390774141,1,,-0.5061700356537862,0.06720598628195927,0.8103052133296418,0.0013776720362186285,0.02564776548619916,0.008336592311330052
399,0.9573908220603566,0.03260955966519179,1,,-0.5164476940975219,0.0720087382146842,0.8051084684821752,0.0037078857,0.03538513,0.017150879
400,0.9577354523542871,0.03465183396240476,1,,-0.5242835637361585,0.07583648010718767,0.8013675493905025,0.005793061045628253,0.03547611997865809,0.01874698608628754
401,0.9579712629596883,0.03575520769678047,1,,-0.5259191392602508,0.07627607624016274,0.8007791037960273,0.01210022,0.035751343,0.02357483
402,0.958082817855283,0.03580134592286011,1,,-0.5225205184172159,0.07854161456078254,0.7988069663760378,0.01210022,0.035751343,0.02357483
403,0.9580730517217684,0.03477562613076416,1,,-0.520492211485475,0.08030557137820028,0.7960651726482072,0.01231222497991704,0.0322723755042578,0.022243716395779666
404,0.9579601912799975,0.03276718466731689,1,,-0.5252934888208867,0.07566704644393087,0.79582069504034,0.013031006,0.020477295,0.017730713
405,0.9577730330074938,0.029954455913898514,1,,-0.5296649448646079,0.07333551318714368,0.7950847091345532,0.013514226288583661,0.016732338116535617,0.01641165229320817
406,0.9575458507274072,0.026579739437347514,1,,-0.5298533748503714,0.07358378490809567,0.7950023606394631,0.015289307,0.0029754639,0.011566162
407,0.9573138201770219,0.022917967739641634,1,,-0.5249424557684268,0.07663435126911496,0.7952266836887301,0.015289307,0.0029754639,0.011566162
408,0.9571094053455034,0.01924500592835261,1,,-0.5203628490530429,0.07826200856587391,0.7968477389556542,0.014227571289246992,0.0011852595124455408,0.011288931038925195
409,0.9569598567761921,0.01580974685219644,1,,-0.5203789823595377,0.07801381598892085,0.8004804133315403,0.009796143,-0.006286621,0.010131836
410,0.9568857511019877,0.012812669568100333,1,,-0.5208272033984084,0.07545381342421405,0.803286242395219,0.008191220398746282,-0.005106208712572725,0.009625162501529595
411,0.956900273606776,0.010392108129309371,1,,-0.5177067186891051,0.07511820772864444,0.8014135186381871,0.0008544922,0.000289917,0.00730896
412,0.9570088421626833,0.008618564660139608,1,,-0.5173141067703354,0.0793121242562603,0.7992286508717019,0.0008544922,0.000289917,0.00730896
413,0.957208839242417,0.007496884986131975,1,,-0.5172428096266828,0.08010491679513472,0.8009710010482123,0.001167064328932031,0.000226917965917087,0.005988403328917287
414,0.9574895369112573,0.006975679896035913,1,,-0.5162873905524378,0.07798012030542738,0.8020381852770199,0.002822876,-0.00010681152,-0.0010070801
415,0.9578324805497537,0.00696279263626389,1,,-0.5177049061083957,0.07560947094958852,0.8026283297022079,0.003710108286897328,-0.0003789551113842187,-0.0022084945386942837
416,0.9582125260904875,0.007344836298475014,1,,-0.5183193539120353,0.076546314560015,0.8012535237475763,0.00894165,-0.0019836426,-0.009292603
417,0.9585995268015273,0.008007962267209004,1,,-0.5209022616608078,0.08127949998110837,0.8008946679741289,0.00894165,-0.0019836426,-0.009292603
418,0.9589604871291867,0.008856393737007527,1,,-0.5212369220294452,0.08234755459408025,0.8029423236098409,0.008899920130996861,-0.002262474296903243,-0.009491768391236928
419,0.9592619029375893,0.009825330629896387,1,,-0.5206813771478755,0.07927159590702376,0.8042258517435642,0.008605957,-0.0042266846,-0.010894775
420,0.9594720385939222,0.010885837032095058,1,,-0.5229979887281192,0.07799301250826556,0.7989475458102117,0.008641369837680393,-0.004007462563051122,-0.010409113904974622
421,0.9595631037100733,0.012041014774195337,1,,-0.5244421723437384,0.07927680685328747,0.7967688368566579,0.008926392,-0.002243042,-0.006500244
422,0.9595136002099092,0.013314635931681902,1,,-0.5204744123690291,0.07924223226248982,0.7969583882047128,0.008926392,-0.002243042,-0.006500244
423,0.9593112294853804,0.01473497538132744,1,,-0.519826171263584,0.07955861927308668,0.7995135602217333,0.007821697927382363,-0.002758383166118235,-0.006899085181119729
424,0.958956399997062,0.01631749892405908,1,,-0.5247201093415796,0.07862810339216321,0.8029390804874468,-0.0033721924,-0.007980347,-0.010940552
425,0.9584655912505402,0.018050149393310462,1,,-0.5274964069868258,0.0771069418393004,0.8053851687503998,-0.0028420276637179482,-0.008024430721063722,-0.011278140439493529
426,0.9578730761815419,0.019884315809586994,1,,-0.5243909704329265,0.07865614216466069,0.8051025561098243,0.0036010742,-0.008560181,-0.015380859
427,0.9572294358460584,0.021733442797024945,1,,-0.5140020882861634,0.07930094145732078,0.8004135959154696,0.0036010742,-0.008560181,-0.015380859
428,0.956596224507511,0.02347991361467205,1,,-0.5076843193952557,0.08070952203007652,0.8021573202971879,0.003680444230324739,-0.008572002065520563,-0.015922939432593004
429,0.9560376232860331,0.02498946330056255,1,,-0.5073721133200598,0.08096172585702929,0.8051297915238825,0.0050354004,-0.008773804,-0.025177002
430,0.9556110584250721,0.026130998801346946,1,,-0.507096224330213,0.07570169176348333,0.8033147775882514,0.005370718572220894,-0.008555752101407486,-0.025363994180539425
431,0.9553589768929138,0.026798458313981966,1,,-0.5090487705973125,0.06981226242783477,0.8032753740205993,0.0131073,-0.0035247803,-0.029678345
432,0.9553034010046386,0.026930561974694418,1,,-0.5104545573779234,0.06820830775972128,0.8048817066348091,0.0131073,-0.0035247803,-0.029678345
433,0.9554440124178303,0.02652434910073529,1,,-0.5098489202234909,0.07052333945380931,0.8035637334934809,0.013163291920836538,-0.0034439737810584214,-0.029578768463113015
434,0.9557597045005758,0.025639393011706143,1,,-0.5113009583350866,0.07504337563152391,0.8048734173333546,0.015792847,0.00035095215,-0.024902344
435,0.9562129353143664,0.024391363088268343,1,,-0.5153152979783505,0.07666259813283503,0.8030921382282104,0.015721693227870304,0.00038884341654908894,-0.024824946779003997
436,0.9567558519299161,0.022935795378159214,1,,-0.518441325936731,0.07976868972103354,0.8002859845296666,0.005706787,0.005722046,-0.013931274
437,0.9573370331445634,0.02144505875631173,1,,-0.5217434823404166,0.0839670806189617,0.7972279555929327,0.005706787,0.005722046,-0.013931274
438,0.9579077593068535,0.020083006109013816,1,,-0.5255705204947906,0.0867013298833887,0.800852236316797,0.005706787,0.005722046,-0.013931274
439,0.9584268911689352,0.01898218085173245,1,,-0.523788220616791,0.08321674753983034,0.8009437720063955,-0.008581066702481122,0.008442118523759437,-0.007594402048220074
440,0.9588637160088787,0.01822759201981606,1,,-0.5240539191036965,0.0824921956198868,0.7982585672956858,-0.008880615,0.0084991455,-0.007461548
441,0.9591985694221958,0.01784937751673161,1,,-0.524821266660321,0.08379158058781087,0.7969597258352363,-0.01394944307793005,0.00798342188143222,-0.008109886677201177
442,0.9594216311084747,0.017824751515002086,1,,-0.5225911374480292,0.08269867601508554,0.7965790938362125,-0.014129639,0.007965088,-0.008132935
443,0.9595307636155189,0.01808794356603245,1,,-0.5243898853079425,0.08096567305850179,0.8008938110875186,-0.014129639,0.007965088,-0.008132935
444,0.9595293466073225,0.018545649761655084,1,,-0.5209598154788139,0.08127311946369636,0.8019037400299688,-0.010928570094687286,-0.005242924969062429,-0.015544417597622139
445,0.9594247728446813,0.019094911376758044,1,,-0.5176542826774989,0.07815487683870168,0.8016724591282302,-0.0107421875,-0.006011963,-0.015975952
446,0.9592278735349558,0.019640215725833274,1,,-0.5167947584807632,0.07643780431995886,0.802168511130601,-0.005641250486062048,-0.012462729657928844,-0.02106268054549556
447,0.9589532099329069,0.02010685121625744,1,,-0.5150277600824604,0.07243458197137398,0.8068057263260957,-0.005264282,-0.012939453,-0.021438599
448,0.9586198625479135,0.02044816854801336,1,,-0.51548792990361,0.0747479640354237,0.8060148580339571,-0.005264282,-0.012939453,-0.021438599
449,0.9582520200009377,0.020645537709406386,1,,-0.5207993830030497,0.07316029163780484,0.8072244084868231,0.000529099525246289,-0.014064786222551787,-0.018826714067556406
450,0.9578784824679134,0.020701461932566684,1,,-0.5203137527628009,0.07537807385608668,0.8035111616537954,0.0010986328,-0.014175415,-0.018569946
451,0.9575304230405901,0.02062824470004762,1,,-0.522711248378416,0.0744102114101368,0.799974500277496,-0.00017384076172367313,0.0015731557726408442,0.004662958300556243
452,0.9572374776253467,0.02043623182265992,1,,-0.5126824891665054,0.07268123197407086,0.7973409439934537,-0.00032043457,0.0033874512,0.0073394775
453,0.9570231638634877,0.020126152740132745,1,,-0.5106272024679913,0.07267551106880979,0.7975484596968114,-0.00032043457,0.0033874512,0.0073394775
454,0.956901168295249,0.019688734572066293,1,,-0.5174373555180943,0.06915150429513665,0.8060409676511788,-0.008527634775536284,0.01671412662136402,0.02257760172117977
455,0.9568737263009554,0.019111676501943377,1,,-0.5225025549557029,0.0668708343279679,0.806529303471761,-0.009689331,0.018600464,0.024734497
456,0.9569323456689317,0.018390681460709397,1,,-0.522054147974313,0.07263604612230953,0.7933133823734388,0.0034801108283864413,0.004102237340658251,0.02128754999224876
457,0.9570602727900294,0.017539484295595455,1,,-0.5202658497146054,0.07410989397586949,0.7971325349571043,0.005584717,0.0017852783,0.020736694
458,0.9572358930869931,0.01659454640475255,1,,-0.5156133048186241,0.08196756839498046,0.8052034706523536,0.005584717,0.0017852783,0.020736694
459,0.9574364227208951,0.015612491254193391,1,,-0.514974998864187,0.08179923174714825,0.8044319842319115,0.011388645124235458,-0.0034793470879227366,0.0053665557064883455
460,0.9576413000660442,0.01466098404070939,1,,-0.5179318548153492,0.08461887283684794,0.8032566012214916,0.012481689,-0.004470825,0.0024719238
461,0.9578346415414628,0.013805704440862336,1,,-0.5217527512637415,0.08280925975063376,0.8011136822690952,0.007328625171787132,-0.0029046978497909554,0.001991981534044777
462,0.958006304079935,0.013097043845456645,1,,-0.521326252130817,0.0820373117279038,0.7960718693078626,0.0062561035,-0.0025787354,0.0018920898
463,0.958151544478368,0.012560113427651187,1,,-0.5234478504115034,0.08178654839008263,0.7964445098579017,0.0062561035,-0.0025787354,0.0018920898
464,0.9582697033636063,0.012190626536401638,1,,-0.5245277618795285,0.08317782073009981,0.7987522146043463,-0.0030781540981901943,-0.0049553998636263,0.009970286416432394
465,0.9583624854488367,0.011957485441776019,1,,-0.5235089997428019,0.0851681151733403,0.8000998927411648,-0.0053100586,-0.0055236816,0.0119018555
466,0.9584322494687499,0.011810978060619702,1,,-0.5220818296087353,0.08437985653302374,0.7979774684161933,-0.007270879647791507,-0.00927586990139382,0.010243629957994833
467,0.9584805108306846,0.011694021745588128,1,,-0.5212670068924755,0.08696076360560862,0.8001815690703836,-0.0077819824,-0.010253906,0.009811401
468,0.9585068095153196,0.011553363346990668,1,,-0.5180143803852217,0.08258418535381072,0.8020510438285153,-0.0077819824,-0.010253906,0.009811401
469,0.9585081732289065,0.011348142130241505,1,,-0.5158391813793216,0.07637997192038369,0.8029190247882225,-0.0054715152615063545,-0.008697877202254477,-0.0006328533939796362
470,0.9584794590691872,0.011054437447932889,1,,-0.5095347806650992,0.07512401062618818,0.8051411316481715,-0.0047912598,-0.008239746,-0.0037078857
471,0.958414780284841,0.010665825416076075,1,,-0.5080086542773079,0.07253078667464698,0.806748780475052,-0.0009938044738276352,-0.005079059207650568,-0.007123279966578613
472,0.9583099544979587,0.010191023004453946,1,,-0.5110631060403924,0.06949324402859058,0.813016481436678,0.00021362305,-0.0040740967,-0.0082092285
473,0.9581654569163158,0.009650113481531485,1,,-0.5123169945410855,0.07259014782186357,0.8084161064688661,0.00021362305,-0.0040740967,-0.0082092285
474,0.9579889383171558,0.009070695334994584,1,,-0.518326807386208,0.07175488129707785,0.8023013629752926,0.0019817369901599705,0.0025591458149534954,-0.005832973520280878
475,0.9577962945520826,0.008484848601461517,1,,-0.5242771875630303,0.07818281440817781,0.8021520622697774,0.002609253,0.00491333,-0.004989624
476,0.9576106636979115,0.007927277339059704,1,,-0.5272189991562625,0.07772702886161631,0.7961410658833208,0.006930342854969691,0.0037639863512922036,-0.00018227300287407833
477,0.9574593871321203,0.007434439794765087,1,,-0.5202968526874319,0.07962118106058441,0.7941211835085985,0.008575439,0.003326416,0.0016479492
478,0.9573696173142472,0.007043987558573783,1,,-0.5156327944710732,0.08187365044549125,0.8016778312343925,0.008575439,0.003326416,0.0016479492
479,0.9573636363748882,0.006793560851731598,1,,-0.5133986678780889,0.08688713234065573,0.8045290954497641,0.00727642619476183,-0.0015690384712337899,0.0059529431517099775
480,0.9574549040217089,0.006718102831361226,1,,-0.5111972658202241,0.09097127192637898,0.8048323122101069,0.006729126,-0.0036315918,0.0077667236
481,0.9576454795914803,0.006845415856444797,1,,-0.5112593539752448,0.08758131143566497,0.803808364671762,0.0033821264818802706,0.0001574642231091877,0.001704234004411895
482,0.9579250816531519,0.007190555904540502,1,,-0.5127368653798625,0.08422345233982174,0.8027973342454852,0.001876831,0.0018615723,-0.0010223389
483,0.9582718412974797,0.007750505567599474,1,,-0.512809129509146,0.0832805435863399,0.8054456478276424,0.001876831,0.0018615723,-0.0010223389
484,0.9586546663291409,0.008500904511485273,1,,-0.5141983148904649,0.08238188345330788,0.8055055872010383,0.0002331144601350849,0.0008610491515418695,-0.008209770076246467
485,0.9590369299840302,0.009396153549792709,1,,-0.5186201102907387,0.07967899374135276,0.8040923230243868,-0.000579834,0.00036621094,-0.011764526
486,0.9593809835366162,0.010373161475941214,1,,-0.522138877472331,0.07835448691897307,0.7990712950100146,-0.004299435724864297,-0.00039370769696427365,-0.010134700908493785
487,0.9596528927559653,0.011357988248420459,1,,-0.5240469646713288,0.0811432471962287,0.7986009227449009,-0.0062561035,-0.00079345703,-0.009277344
488,0.9598268048821931,0.012274138430888405,1,,-0.5245137065988743,0.0847519609036997,0.8015327260137411,-0.0062561035,-0.00079345703,-0.009277344
489,0.9598883435317882,0.013051262394162537,1,,-0.5233673411381232,0.08248420040115026,0.8027786992780597,-0.010255262387503636,-0.00538329096672802,-0.00685654534615984
490,0.9598363839309111,0.013633191708964728,1,,-0.5221244361215525,0.07840486160185725,0.8046587253082996,-0.012557983,-0.008026123,-0.0054626465
491,0.9596826516030933,0.013984336170915044,1,,-0.5202157120854087,0.07911622012861919,0.804859132260705,-0.011894893888346091,-0.009456501162568829,-0.00023371411095219114
492,0.9594489898849656,0.014093561079209909,1,,-0.5164585759708723,0.08067679438414482,0.8024056824941584,-0.011489868,-0.0103302,0.002960205
493,0.9591628077233131,0.013974921707494661,1,,-0.5145212549868107,0.08183419163329811,0.8021885145775063,-0.011489868,-0.0103302,0.002960205
494,0.9588518603515276,0.013665116595462299,1,,-0.5148652824153045,0.08046254918538177,0.8024874637395085,-0.009374608586269434,-0.006777296560453536,0.004956423986144944
495,0.9585397862932588,0.01321812338387551,1,,-0.5142560369222166,0.07914626905449913,0.802494747544725,-0.007965088,-0.00440979,0.006286621
496,0.9582435589171049,0.01269800194344205,1,,-0.5139898500774026,0.07869223082887654,0.8032003002931339,-0.00884184260482759,-0.0027010127996004393,0.006599747761844552
497,0.9579733226767114,0.012171086458926516,1,,-0.5129626176708814,0.07891596143846757,0.805602379502801,-0.009460449,-0.0014953613,0.0068206787
498,0.9577342507863281,0.011698646509753947,1,,-0.5122400337202435,0.07900501734051255,0.8078234345531758,-0.009460449,-0.0014953613,0.0068206787
499,0.9575293648161769,0.011330688265512845,1,,-0.5155556208390524,0.07830602657710302,0.8086182750400739,-0.011436889101188289,0.0017670592133523352,0.0029713677530204398
500,0.9573619406813912,0.011101141043170134,1,,-0.5196924970241454,0.07897462429708425,0.8049352082628756,-0.012954712,0.004272461,1.5258789e-05
501,0.9572363732266104,0.011024445561849667,1,,-0.5202120759221798,0.08154070695802815,0.7969343033225543,-0.00834041419667395,0.006377523696299838,0.0014972230502530847
502,0.9571571705858786,0.011093606145407612,1,,-0.516918610417839,0.0845910814677168,0.7951189809073609,-0.0045928955,0.008087158,0.0027008057
503,0.9571267358364693,0.01128001420128567,1,,-0.5143010806179744,0.08645551197123849,0.8007696247155851,-0.0045928955,0.008087158,0.0027008057
504,0.9571431785695602,0.011535578239012613,1,,-0.514355578975174,0.08459301781085805,0.8037766367732069,-0.005370929055111592,0.004950710426813369,-0.0027616379636758895
505,0.9571992442399494,0.011797651891963188,1,,-0.5162788407868514,0.08066996245102494,0.8018528834811687,-0.0060577393,0.0021820068,-0.007583618
506,0.9572827897699978,0.011996805711452002,1,,-0.5194031941161869,0.07805124346421971,0.7996905218213411,-0.006136679457242597,0.00040585106333441593,-0.010622817959778572
507,0.957378592850537,0.012066722564482426,1,,-0.5207579665018687,0.07735927019434866,0.8001515053601564,-0.006210327,-0.0012512207,-0.013458252
508,0.957470944175075,0.011954688361826008,1,,-0.5195182410777769,0.07603898034187238,0.8023228955615996,-0.006210327,-0.0012512207,-0.013458252
509,0.957546384239373,0.011630669291732062,1,,-0.5181763453499179,0.07302652518249453,0.8019816434843782,-0.0045734164720269855,-0.004176440572703703,-0.013139963898346032
510,0.9575959933654236,0.011093077939020701,1,,-0.5173916417130792,0.07083681383481726,0.8015971044563542,-0.0029144287,-0.0071411133,-0.012817383
511,0.9576167779574623,0.010370037309519993,1,,-0.5175647027438607,0.07090265816310176,0.8039224157728391,-0.003923817321997676,-0.005564404195692609,-0.005722192054759546
512,0.9576118649140004,0.00951601544942825,1,,-0.5177823980306225,0.07428937112833633,0.8048958121458396,-0.005004883,-0.0038757324,0.001876831
513,0.9575893753195799,0.008604746817474297,1,,-0.5159103783964893,0.07858859626960575,0.804222307695483,-0.005004883,-0.0038757324,0.001876831
514,0.9575600561575255,0.007719981318709757,1,,-0.5140979124182362,0.08107988036806785,0.8025212724930213,-0.004849737526508724,-0.0012594166670749224,0.0048598541863122
515,0.9575340853210438,0.006945598493350632,1,,-0.5144679177413408,0.08185365921948057,0.8000151963636742,-0.0046691895,0.0017852783,0.008331299
516,0.9575178341394627,0.0063561654269722,1,,-0.5155678115027315,0.08120395810547537,0.8001236817836163,-0.002760390516069655,0.0019152681968914688,0.006798786460589629
517,0.957511505958802,0.006008551366928354,1,,-0.515917642939523,0.08158944758498465,0.8033046769016946,-0.0004119873,0.0020751953,0.00491333
518,0.957508301185421,0.0059350896725054525,1,,-0.5162235906858538,0.082519235217601,0.8043871005698354,-0.0004119873,0.0020751953,0.00491333
519,0.9574952367596918,0.0061389760530356574,1,,-0.5174604918660664,0.08177367181425003,0.8022247751774455,0.00031890655231592573,0.0003001674096050929,0.0019440737784262158
520,0.957455326396858,0.006592787613629391,1,,-0.5189273697839446,0.08054680455043035,0.7989863573598531,0.0012969971,-0.0020751953,-0.002029419
521,0.9573707274319234,0.00724085864716212,1,,-0.5201996673590887,0.08016542154588917,0.7961154874930778,0.0031789705628163696,-0.004923416964513732,-0.0026925304687689822
522,0.9572265537888403,0.008005630275227871,1,,-0.5209570606158515,0.07889092322146854,0.7980344875283779,0.005844116,-0.008956909,-0.0036315918
523,0.9570150214258246,0.00879719079727057,1,,-0.5197886940321151,0.07664072780976322,0.8023364374179263,0.005844116,-0.008956909,-0.0036315918
524,0.9567392783561289,0.009524481033706669,1,,-0.5195139125297327,0.07597994187238932,0.8025141023349059,0.003972237073473625,-0.008704925343720363,-0.002413670519415012
525,0.9564158759313663,0.010106441086754169,1,,-0.521724279784128,0.07665870327269177,0.8020377035634724,0.001083374,-0.00831604,-0.0005340576
526,0.9560747418334936,0.010481711361897857,1,,-0.5212270358253687,0.07876329467977952,0.8021215725249323,0.00225856557070781,-0.009439129516876043,0.002007366759568239
527,0.9557559525368026,0.010615983389837477,1,,-0.5154480045978779,0.08004103664551376,0.7999824771636199,0.004180908,-0.011276245,0.006164551
528,0.9555034988231997,0.010506378470063303,1,,-0.5078149944772105,0.07885269765299677,0.8017048546780768,0.004180908,-0.011276245,0.006164551
529,0.9553572504117791,0.010182352437438211,1,,-0.5031043169580086,0.08053759970605222,0.8060519571169358,0.002692147065760631,-0.006311883876378275,0.0073413287693040626
530,0.9553450043763813,0.00970287578871504,1,,-0.5011889677066494,0.08224771455749881,0.8064295813872747,3.0517578e-05,0.0025634766,0.00944519
531,0.9554765436231388,0.009150150553554042,1,,-0.5043981959211029,0.08333849982448166,0.8036246690875388,0.0010778338255885479,0.004473907735763631,0.005750637350758705
532,0.9557410717384344,0.008620694014326375,1,,-0.510516423982413,0.08337234169379963,0.8047512647351661,0.0030670166,0.008102417,-0.0012664795
533,0.9561085180615864,0.008214953139224058,1,,-0.5146889059161062,0.08138923088697331,0.8027029424367956,0.0030670166,0.008102417,-0.0012664795
534,0.9565343455015651,0.008026635898378053,1,,-0.5168788557202579,0.07931822344063463,0.7988116730870012,0.0036606757957031704,0.005332007437343448,-0.003482807148828374
535,0.9569668709702159,0.00813280812745031,1,,-0.5190578280310677,0.0785798820765812,0.7990987872087152,0.0048980713,-0.00044250488,-0.008102417
536,0.9573557752704379,0.008585689382945964,1,,-0.5230386430278205,0.07886249020335981,0.8016088049517314,0.003003403470127163,-0.0023134893821768815,-0.006027755720701641
537,0.9576603275939337,0.00940704810576924,1,,-0.5239631430589444,0.07946829278524228,0.8013212381685033,-0.0012054443,-0.0064697266,-0.0014190674
538,0.9578558299815995,0.010586063568054754,1,,-0.521723893867521,0.0791545227159002,0.8016083580398505,-0.0012054443,-0.0064697266,-0.0014190674
539,0.9579370365468123,0.012081308187555349,1,,-0.5195097455967349,0.07747972650007978,0.80286682790061,-0.003477804424150492,-0.006009949450537215,0.00248019653950541
540,0.9579179284594838,0.013826916115349487,1,,-0.5160909810198473,0.08035148783905649,0.8017916567168262,-0.009048462,-0.0048828125,0.012039185
541,0.9578280698100896,0.015742012062218005,1,,-0.5105014760322351,0.08554022546043986,0.8028621289533995,-0.01020212345449771,-0.002937587630187125,0.014700185358732762
542,0.9577064891275887,0.01774136770607149,1,,-0.5044303178547154,0.08839490051244414,0.8081293516929889,-0.01322937,0.002166748,0.02168274
543,0.9575943514857532,0.01974458032664952,1,,-0.5054713123418513,0.08807141580356273,0.8113080316549172,-0.01322937,0.002166748,0.02168274
544,0.9575275846170767,0.021681322888991016,1,,-0.5077943004460251,0.08676793381421645,0.8104578421836379,-0.013575998942950265,0.005796615890044391,0.018929181243995386
545,0.9575303648917697,0.02349149293498935,1,,-0.5121188899269906,0.08804119764217838,0.8003413046778605,-0.014587402,0.01638794,0.010894775
546,0.9576102817888738,0.025120982532942166,1,,-0.5157003813250369,0.08538496729187095,0.7949065756643878,-0.013272136510696095,0.013882671975915967,0.004473183931319661
547,0.9577560797056773,0.02651558414070558,1,,-0.5205617902558688,0.08291730045405055,0.8000950252308663,-0.009140015,0.006011963,-0.015701294
548,0.9579387433058699,0.027616529496762104,1,,-0.5230540590723755,0.07968431290207506,0.8013753109867308,-0.009140015,0.006011963,-0.015701294
549,0.9581160957611872,0.0283608812583429,1,,-0.520882073053706,0.07965165548981615,0.7983201025220878,-0.008705480811185119,0.0036506572974427704,-0.019096723493859463
550,0.958240280386992,0.028688407427509582,1,,-0.5177961544637252,0.08107958915519962,0.7968050954161154,-0.007171631,-0.0046844482,-0.031082153
551,0.9582669017431795,0.02855410232408276,1,,-0.5230667154047999,0.0799542282691256,0.7997242595510788,-0.008052710563203391,-0.007463480698903032,-0.030734774113554925
552,0.9581642273470741,0.027943058837027624,1,,-0.5308566373535745,0.07257607651620028,0.8049085317908086,-0.011428833,-0.018112183,-0.029403687
553,0.9579205329532333,0.026882945605537487,1,,-0.5280997760497456,0.07379157322773648,0.801149642890895,-0.011428833,-0.018112183,-0.029403687
554,0.9575476405801117,0.0254495176015098,1,,-0.5206430289809049,0.07660778671878832,0.8052127047161776,-0.012002968677267316,-0.017123077770812335,-0.025373367630162087
555,0.9570794275157386,0.023762353492354317,1,,-0.50877144535915,0.07343672229119882,0.8030061227783171,-0.014511108,-0.012802124,-0.0077667236
556,0.9565655800798885,0.021970761331706737,1,,-0.5074404063854645,0.07489200457029575,0.8020543180930856,-0.014395310426481966,-0.011480977561197763,-0.005879747494140461
557,0.9560624213892686,0.02023256608120676,1,,-0.5064199740941564,0.07646063878150304,0.8021929835379897,-0.013839722,-0.005142212,0.0031738281
558,0.9556234094397413,0.01869032046384423,1,,-0.50551594389095,0.07690120476174925,0.8065032378050196,-0.013839722,-0.005142212,0.0031738281
559,0.9552915648902897,0.01744987707703272,1,,-0.5085048773810561,0.07397587033441395,0.8059181062593922,-0.01325145027616459,-0.003588155821576947,0.0034031150736608326
560,0.955095020433932,0.016565428172581706,1,,-0.5092361297404591,0.07235154449466706,0.8054774123927636,-0.009963989,0.0050964355,0.0046844482
561,0.9550457631365611,0.01603362396851003,1,,-0.5060269824714198,0.07291236535250607,0.8038822940883947,-0.009574464188668893,0.006098672397111945,0.0033032141425427034
562,0.9551409160203708,0.015797676176286794,1,,-0.5071318154115679,0.07483559263411733,0.8070597308952893,-0.0071411133,0.012359619,-0.0053253174
563,0.9553655874408453,0.015760650324076284,1,,-0.5111637610727285,0.0742172298808421,0.8121621394302614,-0.0071411133,0.012359619,-0.0053253174
564,0.9556962541373522,0.015805580929605812,1,,-0.512963906973721,0.07340481209566554,0.8035569128631033,-0.007334412123147459,0.013191877841434324,-0.005545463278008053
565,0.9561038625410968,0.015818804379694157,1,,-0.5138621416899849,0.07921396233646413,0.7964145642475342,-0.0087890625,0.019454956,-0.0072021484
566,0.9565564028729356,0.015712218837351737,1,,-0.514062114279221,0.07871618440936298,0.8001907987244885,-0.008490572232607,0.019139093260181587,-0.007164244877431905
567,0.957021336560005,0.01544023832919851,1,,-0.5164010610219048,0.0803633984072264,0.7981121362740098,-0.0059051514,0.016403198,-0.0068359375
568,0.957468390408375,0.0150081225560349,1,,-0.5198072287650141,0.0803015328015048,0.8025253233318226,-0.0059051514,0.016403198,-0.0068359375
569,0.9578726926348727,0.014470023988044086,1,,-0.5242290164328464,0.08178824371434328,0.8030966286278775,-0.006059307895461684,0.015844696600717124,-0.006819510984115894
570,0.9582174591466248,0.013917104603252765,1,,-0.5260051583611237,0.08000055490243514,0.7986698198337066,-0.0077667236,0.0096588135,-0.0066375732
571,0.9584950827613767,0.01345799440741799,1,,-0.5285093871323817,0.07842336093690977,0.8014756683970016,-0.0073370638905888436,0.009193348809628445,-0.005998349073853824
572,0.9587058514283051,0.013195414702958938,1,,-0.5251148634519437,0.07170040301489003,0.7991735283668375,-0.0015411377,0.0029144287,0.0026245117
573,0.958854476129085,0.013203745058859725,1,,-0.5211341240646391,0.07309226695637494,0.7948991630166018,-0.0015411377,0.0029144287,0.0026245117
574,0.9589456879940395,0.01351233702976501,1,,-0.5163311575730508,0.07048165108533193,0.7975777573619436,-0.0013715468242435898,0.0028583899745764103,0.0033227836968210255
575,0.9589807969437826,0.014098162681217852,1,,-0.5152369378052823,0.07249917751094337,0.800402749832454,0.0019683838,0.0017547607,0.017074585
576,0.9589568309548305,0.014889053622592185,1,,-0.5190381463403155,0.06633560043690741,0.8055286265628586,0.001783455454850327,0.0019760424752384284,0.01705667170720153
577,0.958868691043744,0.015776115798954604,1,,-0.5238039981286864,0.07091568178646063,0.8088311930051695,-0.0033874512,0.008163452,0.016555786
578,0.9587132853358311,0.016631957818311366,1,,-0.5263029291368067,0.07579482400738848,0.7964353479464003,-0.0033874512,0.008163452,0.016555786
579,0.958493713604344,0.0173307288322681,1,,-0.5257493328206497,0.07952876337232487,0.8016444665807189,-0.0032134831892119023,0.007784691557703559,0.016317002239651532
580,0.9582216917691861,0.01776640497973641,1,,-0.5285809547866306,0.0865247647909106,0.8013286648358974,0.009185791,-0.019210815,-0.0007019043
581,0.9579172876590462,0.017866694859798474,1,,-0.5194426524278111,0.08418240096541083,0.7914895325027782,0.009185632193180115,-0.01921070192956116,-0.0007019748102298273
582,0.9576061498396023,0.017600959007533806,1,,-0.5152767180168608,0.08681547575101876,0.8032240259989755,0.005397246191378945,-0.016513371499875654,-0.0023840182379315828
583,0.9573153025599768,0.01698157675087898,1,,-0.5159323930337807,0.08637481777223492,0.8019945155769369,0.0053710938,-0.016494751,-0.0023956299
584,0.9570689525123391,0.016059224940534744,1,,-0.5137354010107643,0.0874701506272137,0.7940294541319013,0.0053710938,-0.016494751,-0.0023956299
585,0.956885532053048,0.014913422069209188,1,,-0.5187456677194177,0.07583192029299292,0.8037106429274968,-0.0017216823215819796,-0.009772935945381804,0.005275845454927012
586,0.956776571836649,0.013640280525641363,1,,-0.5150939353111856,0.0767455320562882,0.803537446111133,-0.0019226074,-0.0095825195,0.005493164
587,0.9567472301430736,0.012339614472329103,1,,-0.5090770426967208,0.07972246557286951,0.807993225086592,-0.007656765398788463,-0.005238017205192122,0.005873490868648299
588,0.9567976954154612,0.011103333241447253,1,,-0.511305383117989,0.07595563774329754,0.8085859342525028,-0.007904053,-0.005050659,0.0058898926
589,0.9569244943399232,0.010006469121198286,1,,-0.5126734795499713,0.06985850442369371,0.8072815921269664,-0.007904053,-0.005050659,0.0058898926
590,0.9571210600358667,0.009101484068851213,1,,-0.5140828251722088,0.07360211234660603,0.8004324723750794,-0.00598621559421521,-0.002832265466028285,-0.0011946551186801766
591,0.9573775452650203,0.00841594883138536,1,,-0.511637443174857,0.07530235152249871,0.8020533620457775,-0.005859375,-0.0026855469,-0.001663208
592,0.9576804331774579,0.007953348331412273,1,,-0.5104332287470479,0.07875007127943288,0.8025516364789221,-9.176855136392917e-05,-0.007057082338994487,-0.005414267549717259
593,0.958012633289412,0.007696485306217303,1,,-0.5120367984103923,0.07723022843217939,0.8121168045109417,0.00038146973,-0.0074157715,-0.005722046
594,0.9583543560073428,0.007612643458730089,1,,-0.5145615847958434,0.07835037099043644,0.8081537017455833,0.00038146973,-0.0074157715,-0.005722046
595,0.9586844934300173,0.007659472213322579,1,,-0.5167815621036445,0.07937767825992535,0.7995028378202041,-0.0011074174319719667,-0.003500549724784519,-0.006976571190736625
596,0.9589820167007211,0.007790651036029844,1,,-0.51937928560994,0.08064717997989694,0.8030349342096974,-0.0012664795,-0.0030822754,-0.0071105957
597,0.959227146770749,0.007960755805350949,1,,-0.5197001457023385,0.08252813276095218,0.8006747954123291,-0.0059636028755487465,-0.0017926027583167873,-0.003947503983614611
598,0.959402396351718,0.008129164089559658,1,,-0.5190327383707675,0.07932847813746245,0.8032654957571204,-0.0065460205,-0.0016326904,-0.0035552979
599,0.9594936737627677,0.008263098287001853,1,,-0.5188084495268308,0.07722584902696486,0.8029684343472412,-0.0065460205,-0.0016326904,-0.0035552979
600,0.9594915054164479,0.008339955415017666,1,,-0.5159972042344798,0.07607003763405776,0.804700341187919,-0.00625430552798453,-0.005371944457293822,-0.0004922919347581736
601,0.9593922551345124,0.008348963554276407,1,,-0.5139827020731398,0.07855745269657034,0.8078748789537568,-0.006210327,-0.005935669,-3.0517578e-05
602,0.9591990918397312,0.00829203270467521,1,,-0.5122214886895746,0.07956441216458265,0.809379160276661,-0.008050274645960982,-0.0029865326419668127,0.0023444505631991133
603,0.9589224197676974,0.008183526791339893,1,,-0.5099535533876955,0.07982216436111672,0.8055295772418604,-0.008361816,-0.0024871826,0.002746582
604,0.9585795713200339,0.00804864731987056,1,,-0.5107024608439986,0.07964756554291504,0.8050099443038881,-0.008361816,-0.0024871826,0.002746582
605,0.9581937191811403,0.007920225420322655,1,,-0.5168142920018574,0.0808895960344822,0.807569317176804,-0.008616486980046573,0.0008490048185448157,0.0011421559940139718
606,0.9577920519504575,0.007833965250831089,1,,-0.5193498981313788,0.082176252144905,0.8031451134817448,-0.008666992,0.0015106201,0.0008239746
607,0.9574032701974793,0.007822529453690679,1,,-0.5198155571572414,0.08039670993323125,0.797886144737034,-0.0038205719816947967,0.004328306286940976,0.0038545526168565856
608,0.9570545881926806,0.007909235216749886,1,,-0.5164805749176499,0.07877953660731617,0.797070270385264,-0.0027618408,0.0049438477,0.0045166016
609,0.9567687225219129,0.008102437583949375,1,,-0.5166865837220241,0.08060473028117014,0.8023608964299191,-0.0027618408,0.0049438477,0.0045166016
610,0.9565615307604268,0.008391810616523075,1,,-0.5133779135590054,0.08256381320918216,0.8029175835156852,-0.0038238771375004206,0.0028075677825008132,0.0012328341675008694
611,0.9564407776916829,0.008747620709607088,1,,-0.5107535489726702,0.08213591368606517,0.8022543172214446,-0.0040893555,0.0022735596,0.0004119873
612,0.9564060753133751,0.009123668694829487,1,,-0.5145706702947119,0.08260698332631948,0.8049004644889143,-0.007388481577827768,0.004624936806167499,-0.003558961375857677
613,0.956449668899188,0.00946384373355461,1,,-0.5154420517123477,0.08184785410873291,0.8048821057893804,-0.008285522,0.005264282,-0.004638672
614,0.9565575985401389,0.009711314083361799,1,,-0.5139489975152249,0.07991252254266999,0.8020577177540984,-0.008285522,0.005264282,-0.004638672
615,0.9567108962150573,0.009818604811637752,1,,-0.5147339524016292,0.07549862242309348,0.7992770449175902,-0.008729403341713732,0.004773676427400363,-0.007710797644682881
616,0.9568868134542169,0.009756503984449024,1,,-0.5188129051645984,0.07271905278432637,0.8007946627107968,-0.008865356,0.004623413,-0.008651733
617,0.957060367539388,0.009519986509951185,1,,-0.5198556155143835,0.07253040548535467,0.8001086525972045,-0.008050943904090812,0.005047825181884032,-0.0017464336876215915
618,0.9572064932258789,0.009130018123276204,1,,-0.5173217920847227,0.0763807944615832,0.8007959498952427,-0.0077819824,0.0051879883,0.0005340576
619,0.9573028112844342,0.008630971687699406,1,,-0.5166393385162812,0.08019846234414112,0.8021790193420475,-0.0077819824,0.0051879883,0.0005340576
620,0.9573326970495226,0.008084197715650238,1,,-0.5156566131541713,0.08043977036425554,0.8028172314196536,-0.007648124105611958,0.00278969292070643,-0.0009383841500000001
621,0.9572881036576706,0.0075588650123557,1,,-0.5160367911040663,0.08075746013152725,0.8033222622598679,-0.007598877,0.0019073486,-0.0014801025
622,0.9571714893203488,0.007121521935648774,1,,-0.5177172229283378,0.0815600375175219,0.803178893745787,-0.004665785480311381,0.002388900993650021,-0.0009000508378693301
623,0.9569962288033474,0.0068260047097222715,1,,-0.5166357982770955,0.08069699498389582,0.8031463063648822,-0.0035095215,0.0025787354,-0.0006713867
624,0.9567850991342995,0.0067053391338403314,1,,-0.5157153523354635,0.07831739497226752,0.8041415851819853,-0.0035095215,0.0025787354,-0.0006713867
625,0.9565668375186774,0.006767052905004461,1,,-0.5172385322195507,0.07640029666196058,0.8013353394819,-0.0051357026353280955,0.001388328161462428,3.0103256965582862e-05
626,0.9563713187677514,0.00699277870990216,1,,-0.5193913444781421,0.07552737689524361,0.7956966074983934,-0.005844116,0.000869751,0.00033569336
627,0.9562244309169954,0.00734226476257596,1,,-0.5219015831627902,0.07589988277703225,0.7928305093998749,-0.006490041083690437,-0.0020994205904890395,0.0009816184027246207
628,0.9561439886438307,0.0077611059807995,1,,-0.5208250727656673,0.07733079134017212,0.7950627102465667,-0.006790161,-0.003479004,0.0012817383
629,0.9561377780701048,0.008190833487951186,1,,-0.5161333122405822,0.07835159354496031,0.801579328898514,-0.006790161,-0.003479004,0.0012817383
630,0.956204063580673,0.008579531023852822,1,,-0.5123202318671806,0.07662967984557334,0.8068161028355577,-0.012003004328495461,0.002461212954765611,0.001988906959869372
631,0.956333938575525,0.00889091966414321,1,,-0.5136420112787411,0.0744538679479829,0.8066617386904062,-0.014663696,0.005493164,0.0023498535
632,0.956514264088317,0.009109971296060946,1,,-0.5188413757967263,0.07589177766016932,0.8024074255045381,-0.009796871747938881,0.0027629942707444784,-0.002586214173365306
633,0.9567299302740244,0.009243749754951954,1,,-0.5214125081952803,0.07910801716498118,0.7990611934459861,-0.007156372,0.0012817383,-0.005264282
634,0.9569647425999731,0.009317340843050451,1,,-0.5208541738597751,0.07720725324529644,0.7984437466121157,-0.007156372,0.0012817383,-0.005264282
635,0.9572010435976057,0.009366050215522512,1,,-0.5168804554141015,0.07514131751820088,0.7999543696804193,-0.0008552430697696586,0.0014349572264368245,-0.005541991406149273
636,0.9574188529895243,0.009425984395898491,1,,-0.5127803755848354,0.07903123283396993,0.80223184771145,0.0028839111,0.0015258789,-0.005706787
637,0.9575955950190866,0.009525374947681407,1,,-0.5142422953771486,0.08131576654585992,0.8007087648472165,0.0020035359418374647,-0.0040748059224103485,-0.005791078180433308
638,0.9577073091386393,0.009678588411582634,1,,-0.5196090436702777,0.07981337923245937,0.7977468857308959,0.001449585,-0.007598877,-0.005844116
639,0.957731679449156,0.009883923969438616,1,,-0.5235446643434186,0.07760057508593124,0.8010815189444824,0.001449585,-0.007598877,-0.005844116
640,0.9576524549532505,0.010125361043741262,1,,-0.522472580584626,0.07467857198914381,0.8025650161830545,-0.0008853041145301252,-0.006223283383720024,0.002789543840110161
641,0.9574641583881474,0.010377639125475041,1,,-0.518181304365937,0.07241615847931447,0.8007499831595383,-0.0024871826,-0.005279541,0.008712769
642,0.9571756928265754,0.01061347878807729,1,,-0.5164495809649409,0.07311290366720885,0.8051301416709805,-0.003636313273934412,-0.006296079797868854,0.01109942520225409
643,0.9568116440034059,0.010811310189733487,1,,-0.5172359353292322,0.0757547514027747,0.8064977863077729,-0.004470825,-0.0070343018,0.012832642
644,0.9564105903814002,0.010961635249210793,1,,-0.5160362020223063,0.07740031304359504,0.8019934623401306,-0.004470825,-0.0070343018,0.012832642
645,0.956020408737474,0.011070374926667024,1,,-0.5119497448492236,0.07965236430841427,0.8016095989812149,-0.0031070280783670537,-0.004366373785767269,0.010684661541191907
646,0.9556913210605967,0.011158391074925998,1,,-0.508292504131461,0.08436186553447966,0.8016010720170207,-0.002029419,-0.0022583008,0.008987427
647,0.9554680862248365,0.011257576437473198,1,,-0.508790620174875,0.08439545583459389,0.8027171913806915,-0.0018465276672561138,-0.0021419153915770745,-0.002293641700072163
648,0.9553829994670606,0.011404905093083288,1,,-0.5107582986258975,0.08081223493781346,0.8034061790874936,-0.0016937256,-0.0020446777,-0.01171875
649,0.9554511078691816,0.011636099229048067,1,,-0.5111864020030855,0.08056710939261134,0.8003082125371241,-0.0016937256,-0.0020446777,-0.01171875
650,0.9556684731621423,0.011980021546445887,1,,-0.5127828386827886,0.08019841412984297,0.7999330108394813,-0.0020856034081888947,0.00045854160818889505,-0.013974046919129839
651,0.9560136711183974,0.01245403151483728,1,,-0.5167641001845175,0.07769063394149651,0.8014733835357507,-0.0024414063,0.0027313232,-0.016021729
652,0.9564521067000843,0.013060009116158173,1,,-0.5186683765731206,0.07750105950654869,0.801042930177942,-0.0038430691016059027,0.004491188774275173,-0.01255650659182943
653,0.9569421732101833,0.013780876461829376,1,,-0.5173248762236645,0.07706617835793465,0.8027999667197147,-0.0051879883,0.0061798096,-0.009231567
654,0.9574419127000189,0.014578075552167799,1,,-0.5148826576738538,0.07540964839421756,0.8063802920949947,-0.0051879883,0.0061798096,-0.009231567
655,0.9579147933838791,0.015391138370254187,1,,-0.5143685811175024,0.0756820024710907,0.8062000040511071,-0.005210402106364782,0.007449927285197994,-0.004046499051095203
656,0.9583335329975196,0.016140739552161144,1,,-0.5147827970391248,0.07656465541880002,0.8073229246781852,-0.0052337646,0.008773804,0.0013580322
657,0.9586814684532319,0.01673616387855052,1,,-0.5130877605673875,0.07648189074764852,0.8064165675784595,-0.005763802273575128,0.014357351154601848,0.003165968773575128
658,0.9589516644517594,0.017086961788195083,1,,-0.5127290432191883,0.07521069021615075,0.8019620413408284,-0.0063476563,0.020507813,0.0051574707
659,0.9591445833196988,0.017117074079762082,1,,-0.5152329132759799,0.07401845374399246,0.802029675036185,-0.0063476563,0.020507813,0.0051574707
660,0.9592654476915414,0.01677855122929652,1,,-0.52212473904856,0.07581472937359104,0.8008757389676452,-0.005104491604856289,0.019660516075819416,0.001830789808646869
661,0.9593222152396662,0.016061791456493005,1,,-0.528973399713756,0.0797869494370581,0.7983502248765194,-0.003616333,0.01864624,-0.0021514893
662,0.9593244481194096,0.015000083336577156,1,,-0.5306738484933697,0.08107009058059239,0.7973001620845208,-0.0005925140931120137,0.015501199176556745,-0.0012557923671943348
663,0.9592827188215325,0.013667710058525948,1,,-0.5275414072295072,0.0811714510333377,0.799941151761652,0.0032348633,0.011520386,-0.00012207031
664,0.9592079668532665,0.012172328331404705,1,,-0.5219637764050046,0.08201888171132932,0.8013690502312192,0.0032348633,0.011520386,-0.00012207031
665,0.9591105029410933,0.010643342641772482,1,,-0.5204911667085582,0.08044448321394176,0.7969819718038966,0.004094986222917357,0.007874491668589957,-0.0008794919929732694
666,0.9589988982953237,0.009218413963742112,1,,-0.5219983306531942,0.07804449269772719,0.7967815295081073,0.005279541,0.0028533936,-0.0019226074
667,0.9588793777965822,0.008030147490479832,1,,-0.5245758463488535,0.07717633483008425,0.7989976144766913,0.005385082732705599,0.0001776001082710862,0.0005110609569812896
668,0.9587562337021913,0.007194540319083688,1,,-0.5218624386215133,0.07535067008036932,0.8026227603382939,0.0055389404,-0.0037231445,0.004058838
669,0.9586332251375749,0.006802063386122431,1,,-0.5185204098016276,0.07453947715811518,0.8049727876775672,0.0055389404,-0.0037231445,0.004058838
670,0.9585153275736433,0.0069114798890792944,1,,-0.5161713341947646,0.07497026329442547,0.8038148824324024,0.002492465304505136,-0.0018198341555460882,0.0067340791112286405
671,0.9584099464807522,0.007545927809256292,1,,-0.517740640666989,0.07784327023401018,0.8041900966739645,-0.0023498535,0.0012054443,0.010986328
672,0.9583268760607289,0.008690623995600121,1,,-0.5202105158847401,0.08136511409764974,0.804600902097016,-0.00440677778515174,0.0009213387408547844,0.009287376656364052
673,0.9582766818493359,0.010291814882652007,1,,-0.5205361620482418,0.08310811873305655,0.8009514234786808,-0.007873535,0.00044250488,0.00642395
674,0.9582676759487495,0.012257190611865285,1,,-0.518367336880112,0.08378547125015995,0.7986280053045809,-0.007873535,0.00044250488,0.00642395
675,0.9583021892979815,0.014458655747068932,1,,-0.51756482138976,0.0837111910995192,0.8003940537683005,-0.007862802451506362,-0.0004322143798348702,0.0003867771728151103
676,0.9583732841723624,0.01673874583154948,1,,-0.5170523744558877,0.08305307520043416,0.800483518142106,-0.007843018,-0.0020446777,-0.0107421875
677,0.9584631506289019,0.018921738738670757,1,,-0.5165510185131746,0.08158458691714134,0.8003501294929524,-0.006316875801986779,-0.002374654359499174,-0.014609101716089135
678,0.9585440874941513,0.020829532243056424,1,,-0.5175867656067905,0.07962881050318031,0.8010877420802301,-0.003326416,-0.0030212402,-0.02218628
679,0.9585823026168068,0.022300935742295035,1,,-0.5208685937483295,0.07943799384964502,0.8008067367562619,-0.003326416,-0.0030212402,-0.02218628
680,0.9585439862450762,0.023211693959480244,1,,-0.5245370544190736,0.07964112926372288,0.8005070920203925,-0.0037233082790322503,-0.00657391000322582,-0.024306265400000103
681,0.9584024180861614,0.023491779862321607,1,,-0.5255423681544498,0.07472917611810523,0.8014813693799021,-0.0045776367,-0.014221191,-0.028869629
682,0.9581444733177311,0.023136460843099706,1,,-0.5246503035237199,0.07027109950535634,0.8018910026856525,-0.0031424422889035513,-0.015619348355032937,-0.02425848819959697
683,0.9577749637771148,0.022208411553958776,1,,-0.5211144175919912,0.07042374956039613,0.8008593270253139,0.00015258789,-0.018829346,-0.013671875
684,0.9573177878427397,0.020829691548823505,1,,-0.5175490647583141,0.07258557550656045,0.8009395279034781,0.00015258789,-0.018829346,-0.013671875
685,0.9568136435837773,0.019164434433212803,1,,-0.5152874271346202,0.07086841448584306,0.8041033492047418,-0.0008525564475188429,-0.016706895239315223,-0.010190538204472813
686,0.9563147617279406,0.017395041176046306,1,,-0.5134799293238588,0.06977810037726621,0.8053462882476463,-0.00340271,-0.0113220215,-0.0013580322
687,0.9558775526432901,0.01569602703253384,1,,-0.5111797852964094,0.06956447711569448,0.8048320230237309,-0.0034519511806140163,-0.009701165411199877,0.0005254436711310165
688,0.9555542978019836,0.01421018096323193,1,,-0.511380196152512,0.07271158600303644,0.801553213865808,-0.0035858154,-0.0052948,0.005645752
689,0.955385188222006,0.013031246976096597,1,,-0.5123273961171769,0.07673476874015149,0.7989270781107511,-0.0035858154,-0.0052948,0.005645752
690,0.9553920892905525,0.01219597215822678,1,,-0.5125311759253077,0.08112370972032194,0.8012017496163806,-0.0008018573676429489,-0.005487972539094804,0.006827513736878378
691,0.9555752177993981,0.011686400538857559,1,,-0.5091178950175888,0.0841236952974737,0.8021985064326523,0.0076293945,-0.006072998,0.010406494
692,0.9559133767553081,0.011441235724740734,1,,-0.5062481792538315,0.08647110773361397,0.8042574074134672,0.006141276113742499,-0.0031110700450477807,0.010617549357956793
693,0.9563676441663129,0.011373457003134165,1,,-0.5095208640612021,0.08434080864112635,0.8074908971197798,0.0012817383,0.0065612793,0.011306763
694,0.9568876845012858,0.011390490477230905,1,,-0.5140738366336711,0.08033513758531793,0.8063043282236816,0.0012817383,0.0065612793,0.011306763
695,0.9574193534123971,0.011413143410600655,1,,-0.5180024834066951,0.07556990575981228,0.8023313972677558,-0.0005544703914117804,0.00844640997671564,0.011062152539121142
696,0.9579121539342027,0.01138998042561036,1,,-0.520417584899043,0.07379616228158702,0.7995462014357462,-0.00730896,0.015380859,0.0101623535
697,0.9583253825394713,0.011304650672826837,1,,-0.5203213860112225,0.07486706668665637,0.8015538101248335,-0.006808599024996917,0.013312293577469015,0.00925316100249291
698,0.9586322532020763,0.011174897625384326,1,,-0.5202706966809573,0.07454912324683065,0.8037871168995743,-0.0048065186,0.0050354004,0.0056152344
699,0.9588216421997359,0.01104367351233289,1,,-0.5232327189659571,0.07466678814153105,0.8033565110516804,-0.0048065186,0.0050354004,0.0056152344
700,0.9588973330087908,0.010964648041066508,1,,-0.5240206419705049,0.07588276173627517,0.8005990092481755,-0.004070737442722565,0.0037580405766854184,0.0054565901310742035
701,0.9588749532411341,0.010985774712528984,1,,-0.5232302923230235,0.07746254612177425,0.7973413687627868,-0.0007019043,-0.002090454,0.0047302246
702,0.958777283062583,0.011134919752355461,1,,-0.5231709756974893,0.07753271805551898,0.7977022871380994,-0.00027269588233271497,-0.003516940851966194,0.0040333920961245365
703,0.9586290909686492,0.011410834754204074,1,,-0.5211163922958595,0.07585658318390921,0.7969353034592686,0.0018920898,-0.01071167,0.0005187988
704,0.9584527992518188,0.011781291122737481,1,,-0.5217087673103731,0.0751455534808269,0.7991080750334375,0.0018920898,-0.01071167,0.0005187988
705,0.9582659398490441,0.01218844344391883,1,,-0.5207191434711159,0.07632427460846813,0.8019613795638284,0.002543750632650632,-0.01114463792246247,0.0005099627247655745
706,0.958080667269574,0.012559922789388837,1,,-0.5186407085904133,0.0772071090635891,0.8036043479085292,0.0063934326,-0.013702393,0.00045776367
707,0.9579048843272986,0.012823114155413633,1,,-0.5165572994998521,0.08166388845133721,0.803889274322967,0.00564598260118699,-0.014028153213298958,0.000673604861053439
708,0.9577441313162625,0.012919632835939195,1,,-0.5142769935145465,0.08317723429411822,0.8042626176190049,0.0006866455,-0.016189575,0.002105713
709,0.9576034050377462,0.012817138604909808,1,,-0.514064558151772,0.07941719613633597,0.8047028211609101,0.0006866455,-0.016189575,0.002105713
710,0.9574883809603781,0.012516257715456246,1,,-0.51492594981515,0.07690270767877423,0.8018192669683971,0.0003332588427482379,-0.015711661625780145,0.0021292721053368844
711,0.957405876590047,0.012051425068443509,1,,-0.5152671457127576,0.07770660466322013,0.8036092239448159,-0.0025177002,-0.011856079,0.002319336
712,0.9573636408827916,0.011485733393478132,1,,-0.513313030961087,0.0793991271343963,0.8049234058855649,-0.002841606937279993,-0.010485364675489097,0.002114685840927316
713,0.9573696336138537,0.010901121468799449,1,,-0.505832130826654,0.08362631957616154,0.807595192026144,-0.005874634,0.0023498535,0.00019836426
714,0.9574309306200014,0.010386131161731933,1,,-0.5035903967703783,0.08494620309484129,0.8081751291927879,-0.005874634,0.0023498535,0.00019836426
715,0.9575523357292032,0.010023723807050269,1,,-0.5085410771484181,0.08294902910676856,0.8108401538389214,-0.006307190482314068,0.002611237916440907,-0.00029664691419255924
716,0.9577347338775098,0.009881158234613933,1,,-0.5140876842140996,0.08443986642129873,0.8094475159542789,-0.011581421,0.00579834,-0.0063323975
717,0.9579732576607658,0.010002913542777903,1,,-0.5150109869588445,0.08083870704664962,0.7978620965532586,-0.011025127239691263,0.005910923248319184,-0.006206569146501492
718,0.9582555924193604,0.010406645125648897,1,,-0.51404773195345,0.08006459514274496,0.7981596858320381,-0.002609253,0.0076141357,-0.0043029785
719,0.9585611251165256,0.011081761284678863,1,,-0.5105784106554265,0.0820611129687697,0.8070736265373298,-0.002609253,0.0076141357,-0.0043029785
720,0.9588617226877038,0.011990480685011023,1,,-0.5108666772493353,0.08155602063037748,0.8096094208724615,-0.002717041490336047,0.007575054503196387,-0.003996632271917832
721,0.9591244234011446,0.013071670114164418,1,,-0.5135398426496633,0.07914977744079679,0.8076604032793286,-0.005218506,0.006668091,0.003112793
722,0.9593155575288828,0.014247759859595468,1,,-0.5196055165869233,0.0753511953239625,0.8028840832194826,-0.005405759858309533,0.006812939828687931,0.003444055999513954
723,0.959405358339795,0.015434371136366176,1,,-0.5253015064972886,0.07586893890319753,0.8034187350228589,-0.012023926,0.011932373,0.015151978
724,0.9593721912554133,0.01655120501963888,1,,-0.5227483017417563,0.0760857097144553,0.7962444874751682,-0.012023926,0.011932373,0.015151978
725,0.9592058950201718,0.017531816313262352,1,,-0.5235990846997184,0.08049184373326196,0.7955283065180584,-0.01205120436940175,0.011844290943142183,0.015117203284027159
726,0.9589100482077997,0.018329812771115127,1,,-0.5272643890097374,0.08008235833377962,0.8009597904807635,-0.016021433034267066,-0.0009756068244560459,0.010055919299835958
727,0.9585030008353261,0.018920057795761704,1,,-0.5244448543918183,0.07281255492626888,0.8036749654637388,-0.016021729,-0.0009765625,0.010055542
728,0.9580172915217825,0.019295155779150017,1,,-0.5215741555243504,0.07554028709684589,0.8028669895778255,-0.015088804439624261,0.002604663745558237,0.00426238169386406
729,0.9574969974583383,0.01945902609854041,1,,-0.5163993649044101,0.07798369338498315,0.7996587398849211,-0.015075684,0.0026550293,0.004180908
730,0.9569929614201714,0.019420127048734775,1,,-0.5144900972599386,0.07577588792587273,0.7997422451494308,-0.015075684,0.0026550293,0.004180908
731,0.9565565088183574,0.019186738530616303,1,,-0.5117574636457293,0.0765603619906816,0.806893978929826,-0.00505830843801387,-0.007966335007387821,-0.012053131771799392
732,0.9562326957303022,0.018765823390317692,1,,-0.5093840377663632,0.07960646925713263,0.8056538691982041,-0.004699707,-0.008346558,-0.012634277
733,0.9560541059893253,0.01816565893877985,1,,-0.5083630180481035,0.08261395035897971,0.8073941922127252,0.0041871106226285286,-0.006241020608499164,-0.021303280311268658
734,0.9560360089431899,0.0174010242021272,1,,-0.5088056522308,0.07922774927259202,0.8007989189707706,0.004638672,-0.006134033,-0.021743774
735,0.9561736055780886,0.01649870193637017,1,,-0.5156825694595076,0.07381306078246946,0.7994563912872429,0.004638672,-0.006134033,-0.021743774
736,0.956442074531792,0.015500889336849644,1,,-0.5175139656318638,0.07697336340045484,0.7982301824028224,0.0029482521679951115,-0.005153873884807927,-0.013845679089080146
737,0.9567998906087036,0.014464994321250263,1,,-0.5198777935125202,0.07700331018176895,0.7987837165968897,0.002822876,-0.0050811768,-0.013259888
738,0.9571952928908972,0.013459832466540322,1,,-0.5207243812159279,0.07588128330949123,0.7979201380809704,-0.004636308471243557,-0.003933609873609501,0.003617741700633652
739,0.9575749886896529,0.012559631995110187,1,,-0.5214327560520092,0.07871486649882042,0.8007706138351306,-0.0053100586,-0.003829956,0.005142212
740,0.9578934651383247,0.011837802592481881,1,,-0.5201164125141958,0.07866529524938203,0.8078966156148607,-0.0053100586,-0.003829956,0.005142212
741,0.9581208706206097,0.011361918197072138,1,,-0.5150030249849415,0.077775398546368,0.8068495305175104,-0.011944364510759559,0.0005473180880009967,0.012309998045679577
742,0.9582475245566969,0.011190167675610381,1,,-0.5120114217229502,0.0769985811918537,0.8101999768075201,-0.012710571,0.0010528564,0.013137817
743,0.9582838325418775,0.011368425277583763,1,,-0.5174246363752227,0.07564261171312017,0.805625730235274,-0.0048988462258273135,5.618807815733455e-05,0.009609072906670912
744,0.9582555887075166,0.011926839084457009,1,,-0.5131830618666778,0.07314748250346549,0.8035418476054083,-0.0038604736,-7.6293945e-05,0.009140015
745,0.9581959567684879,0.012875542378779145,1,,-0.5108986676859846,0.07131011928648631,0.8010276546915055,-0.0038604736,-7.6293945e-05,0.009140015
746,0.9581363896383422,0.01420009768978089,1,,-0.5046255493171881,0.07904270260911161,0.805425099843592,0.002926348282504773,0.006223876012085336,0.013414660212219948
747,0.9580990045697032,0.01585781023999258,1,,-0.4986791740524387,0.08813914487756208,0.8120032914235918,0.0040130615,0.007232666,0.014099121
748,0.9580923335559415,0.01777592803221089,1,,-0.5067856747479582,0.08393638145730933,0.8091027152024455,-0.007673804085642793,0.01545100444697765,0.0015839504917218952
749,0.9581111681899057,0.01985237092186024,1,,-0.5175089155851214,0.08270076175904982,0.7967463641434753,-0.009765625,0.016921997,-0.00065612793
750,0.9581399322271255,0.02195937158160175,1,,-0.5294406394681423,0.08112625970743512,0.8010625861242552,-0.009765625,0.016921997,-0.00065612793
751,0.9581580576631065,0.023950285922246087,1,,-0.5351239593807179,0.08163025838762548,0.8019657670686766,-0.009412082250029504,0.0109117690092632,-0.016199385592490834
752,0.9581454326426136,0.02566963748440702,1,,-0.53076495334831,0.07744589135668029,0.7922789402239728,-0.009338379,0.0096588135,-0.019439697
753,0.9580863232546474,0.02696603453521139,1,,-0.5271966857756021,0.07796799568236909,0.7930871167541558,-0.012442388588597825,-0.007425656261843853,-0.023748062767899196
754,0.9579712119587215,0.02770695255106734,1,,-0.52394206213006,0.08029640461425458,0.7930035203427507,-0.013153076,-0.01133728,-0.024734497
755,0.9577971488314073,0.027793720342118775,1,,-0.5234338654817543,0.07866852377550296,0.7952124849289853,-0.013153076,-0.01133728,-0.024734497
756,0.9575676865064073,0.02717469323467273,1,,-0.5208004430598651,0.07887497055945686,0.80185109101034,-0.015778841795085624,-0.016903419879092167,-0.014667044442618985
757,0.957293050004776,0.025854727292103294,1,,-0.5154818052027434,0.08167649552207532,0.8054522787539705,-0.016464233,-0.018356323,-0.012039185
758,0.9569903829669242,0.023899594563270177,1,,-0.5092471510341016,0.0814119205690475,0.8063061833883371,-0.01995983806181457,-0.01046148705687564,-0.005808922524782202
759,0.9566833696247219,0.02143462554545993,1,,-0.5089328684177691,0.07706077861520313,0.8072632952996797,-0.020950317,-0.008224487,-0.004043579
760,0.9564005283182565,0.01863741321809407,1,,-0.5124286712099617,0.07150172230638895,0.8068663032554573,-0.020950317,-0.008224487,-0.004043579
761,0.9561718507130548,0.015724854465220404,1,,-0.5146567971481851,0.068921034693151,0.8063295548871255,-0.017096148882239384,0.0004097748401473008,8.836673088174849e-05
762,0.9560239765739708,0.012935305482338458,1,,-0.5133689841965255,0.07234069523436297,0.8000978221735874,-0.01586914,0.0031585693,0.0014038086
763,0.9559746490606341,0.010507340896956076,1,,-0.513123043273487,0.07459248202792357,0.8029742978049731,-0.000710114684443256,0.00029494527419937736,-0.001550724191230084
764,0.95602771332971,0.008657426286841165,1,,-0.5109005280717432,0.0776862156401064,0.7993547334524649,0.004486084,-0.0006866455,-0.0025634766
765,0.9561701922352528,0.007559303661195403,1,,-0.5119334440733766,0.07871261141266124,0.7992913900073191,0.004486084,-0.0006866455,-0.0025634766
766,0.9563727731360594,0.007327594882861136,1,,-0.5122646533321588,0.0751893943976195,0.8030030025672711,0.00664041520561582,0.004759945453120276,0.0013916544436392965
767,0.9565943257736667,0.008007069162408061,1,,-0.5133784364599272,0.07410760237295375,0.8009956348440191,0.007461548,0.0068359375,0.00289917
768,0.9567900154810202,0.009567782169723161,1,,-0.5164624046540937,0.07371593673524418,0.8021313648845319,0.00220542762402794,0.010715712885926276,0.0059119564220822055
769,0.9569214712199019,0.011905548103104572,1,,-0.5195169011646046,0.0706873827123413,0.8043168826932691,6.1035156e-05,0.012298584,0.0071411133
770,0.9569666060152529,0.014847226590718864,1,,-0.5216250074137287,0.06546333006008376,0.8056789931971945,6.1035156e-05,0.012298584,0.0071411133
771,0.9569263194528724,0.018160900191177547,1,,-0.524516688540298,0.0619913064599847,0.8079992293412095,-0.0006333921261600084,0.007384984784107409,-0.0037908561414379933
772,0.9568256795863503,0.021571664602997205,1,,-0.525223901493385,0.061156703380564094,0.8056675081786888,-0.0009460449,0.0051727295,-0.008712769
773,0.9567084486383776,0.02478374750467193,1,,-0.5219393416882251,0.06260631606471288,0.7970256433675424,0.013111895896341437,-0.0038623080313551247,-0.02002719320907738
774,0.9566258398582251,0.027508477761658632,1,,-0.515421017041174,0.06754172359968152,0.7933714821243046,0.019851685,-0.00819397,-0.02545166
775,0.9566225208536853,0.029495459064858575,1,,-0.5097733996388526,0.07564821157489943,0.7944816334107128,0.019851685,-0.00819397,-0.02545166
776,0.9567241065974084,0.030562244031833368,1,,-0.5083231351181808,0.08466674050867687,0.8010510579595524,0.023730999567142547,-0.012833150347628879,-0.027921223786580567
777,0.9569299768981896,0.030617023781822524,1,,-0.5101648238462515,0.0876202531682536,0.8025825516780856,0.025772095,-0.015274048,-0.029220581
778,0.9572133510161881,0.029669749258749857,1,,-0.5138775385383707,0.08417596824816119,0.8042075782987647,0.019517727075419582,-0.014706358729983581,-0.020861848009729178
779,0.957528100717348,0.027829329131475903,1,,-0.5177744801613324,0.08345153084220192,0.8072588239608468,0.016021729,-0.014389038,-0.016189575
780,0.9578198421404059,0.02528740835818796,1,,-0.5204446053783359,0.08724230082861882,0.8062960465949858,0.016021729,-0.014389038,-0.016189575
781,0.9580380284094014,0.02229190107602628,1,,-0.5184600968526465,0.09005052384156322,0.802014248083001,0.01069846014784371,-0.008933161436980724,-0.009919105907437324
