id,ASVM,GSVM,walking_nonwalking,normal_abnormal,ax,ay,az,gx,gy,gz
1,0.9413846771659045,0.07082959297720985,1,,-0.15595733507364903,0.36491076973278336,0.8533167799401427,-0.060394287,0.04008484,0.004470825
2,0.9434279289560842,0.06310635928491122,1,,-0.16260709358387604,0.36883337540178845,0.8500036483729805,-0.060394287,0.04008484,0.004470825
3,0.9452232409263243,0.05606575208704454,1,,-0.16925685209410307,0.3727559810707935,0.8466905168058183,-0.060394287,0.04008484,0.004470825
4,0.9465658626979285,0.05014590380206699,1,,-0.1680117453427366,0.3733851041570289,0.8511758639608445,-0.05249609329619464,0.03233003683606297,0.006396357164335828
5,0.9473014608703704,0.04571413692805717,1,,-0.15830784310211518,0.3704854911844083,0.8640167351345006,-0.03613553799343629,0.01626650499783143,0.0103849622357306
6,0.9473472855774927,0.04303001508423975,1,,-0.14860394074021707,0.3675858781755491,0.8768576064686385,-0.019774982486208233,0.00020297295884230866,0.014373567356973854
7,0.9467052489693434,0.04221112885164152,1,,-0.15489566877304833,0.3658560106567246,0.8657074180982406,0.007705667241871428,0.016493065524775793,0.011280427983586375
8,0.9454639296826594,0.043208834098805646,1,,-0.1617586802270074,0.36416792056016506,0.8537003898080479,0.03558347077464546,0.03393866674488994,0.007934364335093194
9,0.9437884864778721,0.045799961897411166,1,,-0.16474577506457452,0.36399799960296775,0.8487635713478469,0.049143755849553473,0.034596712249999995,0.003441594696810054
10,0.9419000514501578,0.049597082520562,1,,-0.1629624922372672,0.36569660185478026,0.8525285838084481,0.04508241047478175,0.014593069499999996,-0.002462510938418233
11,0.9400480190922769,0.05407679498316705,1,,-0.16117920940995983,0.3673952041065928,0.8562935962690492,0.041021065100010023,-0.005410573250000005,-0.008366616573646521
12,0.938479142376474,0.058624439621669217,1,,-0.15847053596305047,0.3661852645036498,0.8495063473720604,0.04132790652107989,-0.01435829965042351,0.0020902280833333346
13,0.9374070853113473,0.06259373257724056,1,,-0.15569331370030345,0.36475987298213103,0.8419374336474066,0.041958323922059615,-0.02248705248934631,0.013759019541666669
14,0.9369859031102441,0.06537887791759861,1,,-0.1553866093850969,0.36631398936382686,0.8393699138025884,0.03463748229524841,-0.0401999581322785,0.01581105145512947
15,0.9372908447186766,0.06649358501306415,1,,-0.15857982946569082,0.37208910414958773,0.8438877505145271,0.01605228004600179,-0.07149050623613676,0.00423924735854269
16,0.9383092689001767,0.06564693292884274,1,,-0.16177304954628477,0.37786421893534866,0.8484055872264658,-0.002532922203244835,-0.10278105433999501,-0.007332556738044088
17,0.9399430972571331,0.06280231051641572,1,,-0.1459103206224043,0.37135599249340984,0.8467687694343531,-0.005634879881828587,-0.0906163438562696,0.007687255960980205
18,0.9420226492820503,0.05820520094471364,1,,-0.12784878106862557,0.3634304269698125,0.8444217839280175,-0.00695027092238795,-0.07343745724912357,0.025775398117783895
19,0.9443304387349812,0.052369933827847756,1,,-0.12177629284533668,0.3613768818987694,0.8511403608639297,-0.0029681779831721663,-0.05065988441379116,0.033263974132951374
20,0.9466322102358782,0.04602394917505146,1,,-0.135322446497939,0.3689321927055552,0.872693641401927,0.009682610933528707,-0.018720734314464752,0.023407633820691096
21,0.9487105252499818,0.04001758601509276,1,,-0.14886859998124524,0.37648750341791687,0.8942469216705572,0.022333399692123515,0.013218415385694987,0.013551293631612636
22,0.9503941630992758,0.035214485990649455,1,,-0.14721165485873136,0.37070154010047235,0.8800601029593094,0.016861821962400297,0.011154613587239081,0.014323815086525473
23,0.9515765302187519,0.0323804833043117,1,,-0.1431221591041333,0.3627809248095221,0.8601547394760051,0.008490600213210846,0.003650216857764173,0.01679699275584054
24,0.9522195584774467,0.03208755049518745,1,,-0.13966036993114614,0.36071280838708486,0.8502500631268012,0.006824825233717394,-0.0028236982027298016,0.01696883114006747
25,0.9523448038886647,0.03464547796302828,1,,-0.13739123918851287,0.3697645882962361,0.8593469460558318,0.01789956923786123,-0.0073396719482206885,0.012768066496266058
26,0.9520172806125289,0.04006892967575842,1,,-0.1351221084458796,0.37881636820538744,0.8684438289848627,0.02897431324200507,-0.011855645693711576,0.008567301852464642
27,0.9513279456403616,0.04808214921618315,1,,-0.13667270689951308,0.37700697548484347,0.8637662865134969,0.03564451132013574,-0.02898828624742554,0.008896496878238834
28,0.9503786657698875,0.05815843164833177,1,,-0.1390191009411997,0.37293478534076896,0.8562190047381106,0.04139707402702033,-0.048749460577396445,0.010169455664727043
29,0.9492712580790074,0.06958721562287554,1,,-0.14129413431656232,0.3724762664275824,0.8528572414498129,0.03963425125762562,-0.06408605761296877,0.011382216289222938
30,0.9481008705012048,0.08155899668437026,1,,-0.14341058562509684,0.3800482670531129,0.8587967914594777,0.021170282816826532,-0.06959009002771765,0.0124612008709809
31,0.9469530354515138,0.09325741556055911,1,,-0.14552703693363134,0.38762026767864344,0.8647363414691422,0.002706314376027445,-0.07509412244246655,0.013540185452738862
32,0.9459026816112622,0.10394803987663315,1,,-0.13497392071001124,0.378489553421254,0.8656627539048597,0.045225974625310056,-0.09625150166508768,0.01926805960081492
33,0.9450128024099933,0.11305317985060175,1,,-0.12111561856054347,0.3650015019450238,0.8652813591315546,0.10365479915680105,-0.12149246317498788,0.026208717399668187
34,0.9443312463114745,0.12020141240900536,1,,-0.1136582348678929,0.36008757051231827,0.8608797646377173,0.12627076597262504,-0.13388948957728822,0.031122705621032812
35,0.9438861027846434,0.1252418060622551,1,,-0.12300362595729035,0.377681191553141,0.8459249173663805,0.05487594565570735,-0.11257045626344113,0.030716571004103597
36,0.9436821471711806,0.1282194606516844,1,,-0.13234901692989168,0.39527481237408346,0.8309700702819453,-0.016518873768937608,-0.09125142321603343,0.030310436392250138
37,0.9437013773054105,0.12932064207661007,1,,-0.12492591660143645,0.39342054164891727,0.8424096622891135,-0.011238134345900227,-0.07909261990342167,0.02940766273762436
38,0.9439092468611053,0.1288068399614098,1,,-0.11216725098148189,0.3853781473941072,0.8622476993676761,0.018439996891360125,-0.0698485096325887,0.028346863536996503
39,0.9442653415912181,0.12696051386223844,1,,-0.10546993851967189,0.37925161753096454,0.8757374665638473,0.04912915823638022,-0.0696641691021632,0.023995460325253775
40,0.9447344815519192,0.12405846457168755,1,,-0.11782311446081467,0.37914654053863006,0.8692749824032723,0.08299592973550148,-0.09795416984009693,0.009301875769363326
41,0.9452933011433271,0.12037477471598376,1,,-0.13017629040195744,0.37904146354629553,0.8628124982426972,0.11686270123462272,-0.12624417057803067,-0.005391708786527126
42,0.9459290415840612,0.11620058027732028,1,,-0.12501567327584015,0.38091165266397164,0.8556490762055834,0.11484985305080804,-0.12548019244987463,-0.0024659143382924817
43,0.9466307958626172,0.11185942333907246,1,,-0.11318295636928409,0.3835343442537449,0.8482186230670861,0.09916821240785102,-0.1136477355936188,0.0071722041812281
44,0.9473769898868805,0.10769886293408712,1,,-0.10493955673292499,0.386821520663695,0.8426523384785821,0.08163048485127133,-0.09729294954799347,0.014406189264735294
45,0.9481248151426,0.1040506163746256,1,,-0.11045568361048119,0.39265597747731773,0.8442322809802324,0.056977509490050024,-0.06360196569660079,0.012424010132509263
46,0.9488068382835244,0.10116728746502508,1,,-0.11597181048803737,0.3984904342909405,0.8458122234818825,0.032324534128828714,-0.029910981845208105,0.010441831000283234
47,0.9493372958839851,0.09915659750143936,1,,-0.11207550392419051,0.3981646110918284,0.8570415849553665,0.029593855282419507,-0.030524795757740617,0.009316644804025912
48,0.9496267116113415,0.09793839341753252,1,,-0.1039434829121654,0.3950665837419823,0.8726133073719556,0.0367284879585953,-0.04657620383070863,0.008577116300167451
49,0.9496000328872714,0.0972434909677263,1,,-0.09493418745324668,0.39291211650024094,0.882417952235519,0.04384430907204583,-0.06898172121941355,0.007483304367001082
50,0.9492120178615661,0.09665895674837834,1,,-0.0817137866551254,0.3952869399760944,0.864539388997973,0.05086983065322166,-0.1218883249672675,0.004688856052560448
51,0.9484549438109889,0.09570776994770226,1,,-0.06849338585700411,0.39766176345194787,0.8466608257604268,0.057895352234397485,-0.17479492871512142,0.0018944077381198134
52,0.9473572735943646,0.09393928178676521,1,,-0.07363565648424121,0.3992764546080433,0.8440047606797471,0.03567530471605354,-0.12852315092393934,0.0019196708005417556
53,0.9459756658252655,0.09100602548437828,1,,-0.08844277819996055,0.4004910642690408,0.84936077467238,-0.0019376052410811837,-0.030050673515206426,0.0034290365662609343
54,0.9443844837142729,0.08671228796184687,1,,-0.10131344293321136,0.399474580002941,0.8540137904580776,-0.034863590054087894,0.05651972278385302,0.004261197664383337
55,0.9426662338545647,0.0810334276998977,1,,-0.10208053333374138,0.38451293122537306,0.8542728067227706,-0.038494554431610706,0.0686976979089786,0.0008605784286641549
56,0.9409044735675333,0.07411296140984477,1,,-0.1028476237342714,0.36955128244780505,0.8545318229874634,-0.04212551880913352,0.08087567303410419,-0.0025400408070550273
57,0.9391792184325644,0.06624386067473674,1,,-0.1024142490186572,0.37262268787376873,0.8547374849899732,-0.03556415278718353,0.0772591105997365,-0.005884224163554953
58,0.9375641735610576,0.057836205565891814,1,,-0.10124723369757015,0.38671463910859083,0.8549105405862769,-0.0227739448398091,0.0639900277026931,-0.009193917844308369
59,0.9361247853318853,0.04937157770567282,1,,-0.09996960409305902,0.3988902136679038,0.8537036673703331,-0.011105487472236596,0.04898533548309243,-0.011074618006891924
60,0.9349160446178267,0.04134706482168185,1,,-0.09773323720261651,0.39445580570698946,0.84053641285101,-0.009159678428011832,0.018937438602649397,-0.0005696742987610057
61,0.9339795793276121,0.03421609796189603,1,,-0.09549687031217399,0.3900213977460751,0.8273691583316869,-0.0072138693837870685,-0.01111045827779364,0.009935269409369913
62,0.9333408578724319,0.028336237423625562,1,,-0.09968918580001693,0.39280884286729273,0.8281948779466478,-0.005168566140806375,-0.01321111923463367,0.012324321458384864
63,0.9330082401616009,0.02393347922508676,1,,-0.10841954491589244,0.4006942353490233,0.8388983179669287,-0.003053029374356603,0.004416333353631155,0.008984319206341495
64,0.9329749672189587,0.021088796728586323,1,,-0.11630612036729608,0.4077011045581194,0.8484389729117944,-0.0006653757449146,0.021153449646784683,0.00548923959396375
65,0.9332232088801832,0.019747180010923383,1,,-0.11280013227324157,0.40284636441037047,0.8422799841930521,0.005396334143213259,0.025869460002515273,-9.965713820517628e-05
66,0.9337277548138055,0.019744413949917227,1,,-0.10929414417918702,0.3979916242626215,0.83612099547431,0.011458044031341118,0.030585470358245864,-0.005688553870374102
67,0.9344573369130756,0.02084371084441597,1,,-0.1083768955468324,0.39446075757617133,0.8345416833469478,0.011978184373763896,0.029840175199861044,-0.006645541051143466
68,0.9353735734451859,0.022773822663625452,1,,-0.1095630717520608,0.39200557586380375,0.8366834894068227,0.007995640966537867,0.024657413084621334,-0.0038389692565430227
69,0.9364294438749178,0.025262272387976584,1,,-0.1107417259638841,0.3897167744227324,0.8388375051075162,0.004070982144686396,0.019667738911433252,-0.0010188144405478012
70,0.9375697261899053,0.02806073791862366,1,,-0.11170970709458712,0.39208788724956395,0.84133348370449,0.0017675323951430136,0.020085997115782538,0.00218176838356179
71,0.9387348974749463,0.03096268329047117,1,,-0.11267768822529017,0.39445900007639556,0.8438294623014637,-0.0005359173544003682,0.020504255320131826,0.0053823512076713815
72,0.9398683496276335,0.03381465228834516,1,,-0.11282176768683691,0.39711082446984014,0.8466039021461638,-0.012477311044199862,0.026412441721627777,0.006657853526641527
73,0.9409251881298892,0.03652186015621844,1,,-0.11219684334987456,0.4000246561744628,0.8496382489254598,-0.03341445723376606,0.03744475372596568,0.006136546497714584
74,0.9418798959167679,0.03904672767565407,1,,-0.1115719190129122,0.4029384878790855,0.852672595704756,-0.054351603423332256,0.04847706573030359,0.00561523946878764
75,0.9427300619778465,0.04139765943597709,1,,-0.11062990336753623,0.3996285036757501,0.8515859746523405,-0.03188126698465848,0.038530003817733895,0.0018751957768120768
76,0.9434942920535152,0.04360663416597034,1,,-0.10968788462720566,0.39631845891487033,0.8504993135168407,-0.009410508200149353,0.02858273779160377,-0.0018648792587244514
77,0.9442041403028094,0.04569845975788763,1,,-0.11007582587926094,0.3937326257068703,0.8490942645528189,-0.0015828629119034841,0.024236375005881855,-0.0040774352461293555
78,0.9448918825356363,0.04765961576269965,1,,-0.11188878174596265,0.3919227647483048,0.8473480720120228,-0.00944490066342175,0.025891222044888675,-0.00465329766365219
79,0.9455774783829362,0.049416962837168635,1,,-0.11370173761266437,0.39011290378973923,0.8456018794712268,-0.017306938414940017,0.027546069083895494,-0.005229160081175024
80,0.9462585880178477,0.05083438244357134,1,,-0.11420470825137473,0.3893229736466041,0.8479795754352301,-0.024127209410744054,0.04116952740987812,-0.003376184267314033
81,0.9469068278840639,0.05172966288616311,1,,-0.1146608790763794,0.3885694809923314,0.850504599177932,-0.030910262818860494,0.05522056977770934,-0.0014364371110583225
82,0.9474717376925266,0.05190740672924953,1,,-0.1170037078875312,0.3886943430133829,0.8546907438155338,-0.033717975037225144,0.059448743256149704,-0.0013878980725946016
83,0.9478916469962493,0.05119909095525206,1,,-0.12166867831467021,0.38990030394549213,0.860921433940048,-0.031632747000969415,0.051586706458055964,-0.003667100988941635
84,0.9481084416044983,0.049500221881895,1,,-0.1263336487418092,0.39110626487760136,0.8671521240645623,-0.029547518964713682,0.04372466965996223,-0.0059463039052886696
85,0.948081887035748,0.04679666332682937,1,,-0.12367267666697143,0.3901058032855994,0.8626096910090133,-0.03039695918758359,0.03778709707139056,-0.006504210752103588
86,0.9477992688980461,0.04317609562434767,1,,-0.12046894841842726,0.38894187474767977,0.8572691109417314,-0.03146381980584847,0.031992102018816915,-0.006934592155159835
87,0.9472777339806913,0.03882432356239278,1,,-0.11957352458671948,0.38849563282642247,0.8538749170173113,-0.028377060476832982,0.026054138362610495,-0.007987013249898714
88,0.9465591724956209,0.034008802472038156,1,,-0.12194835211349984,0.3890661613172432,0.8532382328396171,-0.01940573012843111,0.01991362634803285,-0.009920698588608777
89,0.9456996840814192,0.029053248577214114,1,,-0.12432317964028021,0.38963668980806393,0.8526015486619227,-0.010434399780029236,0.013773114333455206,-0.01185438392731884
90,0.944756903890536,0.024307727407505367,1,,-0.12524940206665622,0.3883518532412973,0.8471042572432332,0.0037812865907346912,0.014491023963226088,-0.010619717853971096
91,0.9437787189919428,0.020118157322766148,1,,-0.12600845664353483,0.38685290902260827,0.84104605558526,0.018602167622755204,0.016000389939493185,-0.009019426561094366
92,0.9427964363940584,0.016797825725174357,1,,-0.1262137331895364,0.3858116141853143,0.8410041340525889,0.02213629461753752,0.014272487662338608,-0.004653202282474629
93,0.941824284915091,0.014601986386376338,1,,-0.1255127810568944,0.3855192385377665,0.8508075391387213,0.007200241094067236,0.007246965818971033,0.004239326138107568
94,0.940865164666714,0.013705904833346303,1,,-0.12481182892425242,0.3852268628902187,0.8606109442248538,-0.007735812429403047,0.00022144397560345755,0.013131854558689765
95,0.9399202436053553,0.014187235941127752,1,,-0.1254222372434416,0.3850080244761921,0.857580534096014,-0.004560154994858433,-0.0012702343524033332,0.01153150508074098
96,0.9389984404788063,0.01601470752763325,1,,-0.1262424851217661,0.38480095324687863,0.8524964993340891,0.0015136784806894952,-0.0018764053571065278,0.008252120011003538
97,0.938121996145992,0.01904577050038462,1,,-0.12638729942313623,0.38504871864830026,0.847440589537415,0.008858333737196073,-0.0024073303109013056,0.003963184061201639
98,0.9373261560318961,0.02303561215882507,1,,-0.125248717572048,0.38616072236846244,0.8424381202507337,0.018617686419906767,-0.002795279700756023,-0.0022440066531860983
99,0.9366534118870857,0.027658619009851882,1,,-0.12411013570673009,0.38727272610252217,0.837435650901533,0.028377039224587158,-0.003183229095459225,-0.008451197445149591
100,0.9361445958814567,0.032541277960776424,1,,-0.12289124283217358,0.38872643715623745,0.8390249131400497,0.02782245165815201,-0.012018978193027887,-0.0073092040197364405
101,0.9358297636810711,0.03730327584444125,1,,-0.12165561696252375,0.390251343765299,0.841987578768208,0.025118929403197623,-0.022614847009146625,-0.004635990097715872
102,0.9357213122905345,0.04160187950079459,1,,-0.11999107599876997,0.39103965150015696,0.8431494122176472,0.024556143139784416,-0.033628328771126474,-0.0009375553618242394
103,0.9358107064891811,0.045173713279932845,1,,-0.11737333059071699,0.39019097016606336,0.8403091453451613,0.028750846387136018,-0.0455698975169027,0.005039290765047889
104,0.9360691870066544,0.04786760022120191,1,,-0.11475558518266399,0.3893422888319697,0.8374688784726755,0.03294554963448762,-0.05751146626267893,0.011016136891920016
105,0.9364521834081582,0.04966237310030496,1,,-0.1149929160436529,0.39057706836283185,0.8422084808569934,0.03685661144441431,-0.04730016864009133,0.00905102642562523
106,0.9369066355289934,0.05066519251897452,1,,-0.11597511186450188,0.3923554049861938,0.8489256061972823,0.04069367358204198,-0.03130937790955171,0.005013927481627748
107,0.9373797902842333,0.05108928367304467,1,,-0.11794011397465182,0.39325153511724026,0.8518786017724331,0.04330340682631967,-0.020515505856371224,0.002796084548277273
108,0.9378275418766403,0.05121428475845548,1,,-0.12248516481336881,0.3918317095514401,0.8449500584743398,0.042691174004070825,-0.023364509571325555,0.0053541261377521585
109,0.9382206114401522,0.05133598460661608,1,,-0.12703021565208583,0.39041188398564003,0.8380215151762467,0.04207894118182198,-0.026213513286279886,0.007912167727227044
110,0.9385479557464367,0.051714048870262395,1,,-0.12650003414076436,0.39121155928715184,0.8383754235038532,0.030939466616827865,-0.028832838445244202,0.010994743949146358
111,0.938818054842145,0.0525264567507109,1,,-0.1243548785587908,0.39271749513070003,0.8410466583566572,0.016450150847047994,-0.03137907829758096,0.014244230722569856
112,0.9390592171030727,0.05383829430069479,1,,-0.12140622387667192,0.3944286461021037,0.8433002718408971,0.005902148918725804,-0.03642161418026494,0.017084881110286065
113,0.939319473690148,0.0555903902470518,1,,-0.11593645981698818,0.39678369297026717,0.8442435301717968,0.00772066181909941,-0.049296685745321,0.018642740653181444
114,0.9396655325239293,0.057609959709251285,1,,-0.11046669568894481,0.3991387398678634,0.8451867885144848,0.009539174742200288,-0.06217175747128615,0.02020060021554652
115,0.940179342942925,0.05964149694848907,1,,-0.109486952476944,0.40174902844240784,0.8478549496360677,0.01758022929668967,-0.057986438553853506,0.016089228095310017
116,0.9409504883330775,0.06139293906558641,1,,-0.11021510253265682,0.4044564046586027,0.8511792212521492,0.027988185288618884,-0.047311767611284986,0.009821420001862534
117,0.9420629942650206,0.06259061199993424,1,,-0.10976381581916296,0.4057383141749865,0.8532580939463783,0.033947460922255625,-0.04190341963696194,0.004943981514878586
118,0.9435762973044177,0.06303632306026664,1,,-0.10479967390954263,0.40156598911847774,0.8505717217860551,0.022884840346627768,-0.05664549735075201,0.005386486298177678
119,0.9455020906938206,0.06265987885203433,1,,-0.09983553199992233,0.3973936640619689,0.8478853496257318,0.01182221977099991,-0.07138757506454207,0.00582899108147677
120,0.9477812098036211,0.06155954080850387,1,,-0.09616404574674564,0.39543902170621426,0.8459116379469455,-8.104732363520743e-05,-0.07750989068231942,0.00750946283693194
121,0.9502667899735938,0.06002220064895956,1,,-0.09307343406227128,0.3944809288999987,0.844258171143092,-0.012362071596565867,-0.0797587847370787,0.009746233900312993
122,0.9527205824622854,0.058515920770092066,1,,-0.09025964921571494,0.3928945587890984,0.8449960086674253,-0.02222673274686072,-0.077485897073567,0.01257139146379273
123,0.9548278778831765,0.05765102425659795,1,,-0.08877182884223779,0.3882988227532616,0.8571878807511424,-0.020517330358984034,-0.053554267218635376,0.018214843147571304
124,0.9562329827120333,0.0581119149050644,1,,-0.08728400846876065,0.38370308671742487,0.8693797528348594,-0.018807927971107346,-0.02962263736370374,0.023858294831349876
125,0.956592374064828,0.06056860672478523,1,,-0.0864258109261157,0.38351795046554027,0.8769106060278891,-0.03241159273057459,-0.0103000256675152,0.024785449296439225
126,0.9556378309786181,0.06558200773125364,1,,-0.08589855200566861,0.3856510875418926,0.8819915620853853,-0.05406402112313159,0.0066000212097907865,0.02323365155872233
127,0.9532384383989254,0.0735183402950841,1,,-0.08799708243862689,0.3886096173292576,0.8842806244980416,-0.07151510558365473,0.024906102109112017,0.020043715222341583
128,0.9494493772570101,0.08448579790555705,1,,-0.10646534153261812,0.39671382062639926,0.8691644288090834,-0.06277411942363195,0.051977697804477425,0.006641274849978534
129,0.9445370986272824,0.09830278320683937,1,,-0.12493360039579814,0.4048180238222569,0.854048233309043,-0.054033133372851615,0.07904929316150952,-0.00676116535488452
130,0.9389743328612831,0.11450408117385193,1,,-0.1299572009347907,0.4028469842006863,0.8438441476705479,-0.048435307243253935,0.09713935709523597,-0.019775886934392507
131,0.9334033355681621,0.13238970875139983,1,,-0.12677510875033554,0.39472671087661254,0.8366380753719214,-0.044755849310571284,0.10974771321761047,-0.032553971691607085
132,0.9285705700289658,0.15112013228019242,1,,-0.12380438656346757,0.3872134215419197,0.8307009316475371,-0.042807736336687746,0.12168881308565611,-0.04513143918818436
133,0.9252397205549282,0.16985999624543804,1,,-0.1226596229837311,0.3849436750584007,0.8357256608399422,-0.05581616528228142,0.1278656970542746,-0.055975837573812304
134,0.9240921616081778,0.18796973585457277,1,,-0.12151485940399466,0.38267392857488175,0.8407503900323472,-0.0688245942278751,0.13404258102289313,-0.06682023595944026
135,0.9256250706925084,0.2052399374481254,1,,-0.11490817345812064,0.3819202963039441,0.8396939883326765,-0.08063490955431961,0.09617366234834561,-0.08972043592248657
136,0.9300580553172159,0.22215647586926887,1,,-0.1044507787653571,0.3822355394297884,0.8343503297338104,-0.09160054288258233,0.027252021356627052,-0.12112009393440008
137,0.9372600911958813,0.2401743025961945,1,,-0.0948471877018063,0.3819210690790405,0.8302657540282198,-0.10506773394981997,-0.043281063624941954,-0.1550116530978326
138,0.9467094122288238,0.2619632100549823,1,,-0.09671639068823368,0.37314496689683857,0.8430998195501876,-0.15214903696971696,-0.13546754954539839,-0.22238756258224993
139,0.9574984755249848,0.2915709504965082,1,,-0.09858559367466108,0.3643688647146366,0.8559338850721555,-0.19923033998961395,-0.2276540354658548,-0.28976347206666725
140,0.9683930132397629,0.3344336292056513,1,,-0.10722899786176891,0.35679350924999126,0.8695544693374998,-0.240679976995711,-0.2840327701397289,-0.3344487544123236
141,0.9779482358246027,0.39716062007063324,1,,-0.12136978330095406,0.35019258048128266,0.8838133271447945,-0.27755941978332,-0.31135289634442487,-0.36072020101038343
142,0.9846772193070022,0.4870403416231647,1,,-0.13369580482084967,0.34456624085264753,0.8977888219818437,-0.31312766708905365,-0.3401117742969018,-0.38890077710295967
143,0.987257519885756,0.6112550262110257,1,,-0.09566088064506485,0.3659854195072165,0.9039007996941462,-0.3123093388423067,-0.4087970018254302,-0.4700610084429258
144,0.9847532206534058,0.7758487808402186,1,,-0.05762595694463004,0.38740459789409454,0.9100127773300628,-0.31149101060578704,-0.47748222849554967,-0.5512212387685738
145,0.9768220360923521,0.9845510629627107,1,,-0.03145143957844963,0.4023079886257305,0.9171730763858993,-0.2576951603516861,-0.5630799906143467,-0.7052361510152737
146,0.9638720493040247,1.237605674558598,1,,-0.016333402378641077,0.4111372470704488,0.925310639065896,-0.15451273080559066,-0.6644439154172903,-0.927167480245273
147,0.947131723694211,1.5307854599732216,1,,-0.0012176243416378693,0.4199507728836598,0.9334453913976373,-0.051316631497397805,-0.7657855606180533,-1.1491102187281825
148,0.9286019232394402,1.8547803398900438,1,,0.00632779576258759,0.3760449234250171,0.9321627869289627,0.09768625592211189,-0.7924692118447423,-1.4092848757214351
149,0.9108715182252295,2.195128800174045,1,,0.01387321586681305,0.3321390739663744,0.930880182460288,0.2466891433416216,-0.8191528630714312,-1.669459532714688
150,0.8967992186897903,2.532818820120778,1,,0.0499445503406261,0.28620401835397297,0.8983712424893237,0.2643850451464553,-0.9408461621643515,-1.9595100900668634
151,0.8890917248812754,2.8456115228935044,1,,0.11654291237634799,0.2380974063321254,0.8324454173596457,0.14156268285652324,-1.1642141035310305,-2.281532363448097
152,0.8898375371128292,3.1100400896384444,1,,0.18314127357974197,0.18999079491150098,0.7665195930538904,0.0187403221015911,-1.387582042106119,-2.603554632804785
153,0.9000798137036211,3.3039159017807194,1,,0.1245653756087349,0.15897844756821736,0.7238662809188455,-0.5776926897174952,-1.3319777175484435,-2.9600715651115888
154,0.9195221380782854,3.4090517577328234,1,,0.06155892263637294,0.12857115337133965,0.6820367016250167,-1.1908891961388546,-1.2664991427418433,-3.317809439196794
155,0.946450282849377,3.4138143303341217,1,,-0.0340565110385068,0.10114593110886853,0.7371284974238095,-1.8018913753465127,-1.052600081672454,-3.3643113508296145
156,0.9779169358927545,3.3150737242062203,1,,-0.16975786122053468,0.07738654212317032,0.9113648376401108,-2.4101960885315354,-0.6562490980926162,-3.028213790289271
157,1.0101781533484242,3.119152337613225,1,,-0.30545921140256255,0.05362715313747211,1.085601177856412,-3.0185008017165584,-0.25989811451277856,-2.6921162297489274
158,1.039304173130718,2.8415009499294936,1,,-0.2823416946021026,0.06481710473964034,1.169741793297276,-2.656057182232748,-0.09844914359990706,-2.005785535551737
159,1.06183602194764,2.5050396074534445,1,,-0.24751421172098748,0.07858392638557418,1.247239507335957,-2.222038756647858,0.04568012820420509,-1.2936316067963791
160,1.0753436648865982,2.1373614614436423,1,,-0.20164725153287888,0.08147969458050633,1.2493611318378293,-1.5978080824403051,0.15837803321324376,-0.7629196579557237
161,1.0787676043382703,1.7672483746236403,1,,-0.14016014324697249,0.06899362271686757,1.1448304475023334,-0.7044393464118677,0.22660257792665706,-0.4889364263704389
162,1.0724836204978963,1.4211117044078603,1,,-0.07867303496106608,0.05650755085322882,1.0402997631668376,0.18892938961656977,0.2948271226400704,-0.21495319478515412
163,1.0580996742877178,1.1199895785163103,1,,-0.09487031633574558,0.045087516385450145,0.9886208481120096,0.411578267415025,0.41911760217663196,-0.2239960831135239
164,1.0380533352498842,0.8775894817681711,1,,-0.12000255552896065,0.03379009341280721,0.9430207389951696,0.5570835431652089,0.5498565685313342,-0.2655915402915828
165,1.015112147185194,0.6996095325049703,1,,-0.1277259144736319,0.02385078492109228,0.909490195056832,0.5368248290896875,0.5388385266919847,-0.3156480049122319
166,0.9918841596872102,0.5842964253052948,1,,-0.10699779679698741,0.01613105413061554,0.8956850410690824,0.24565665881427196,0.2961458368017876,-0.37953236380343697
167,0.9704274669123154,0.5239906869538784,1,,-0.0862696793793972,0.008411323436617863,0.8818798872538659,-0.045511507822204325,0.053453149944696604,-0.44341672189623293
168,0.9520156010131887,0.5073020519161506,1,,-0.10101903193425707,0.012889304462051778,0.9098421659277469,-0.18098667573022745,-0.2159986131426375,-0.6076620151133164
169,0.9370784481065112,0.5215232050158206,1,,-0.12143067053677123,0.019314068416985745,0.944470623155596,-0.29161288148650605,-0.4897211860093499,-0.7879251448462159
170,0.9253029035251694,0.5548937173285653,1,,-0.12986307698516958,0.028827611736802,0.9641454047936093,-0.34416628928367626,-0.6502939576578701,-0.8708082335566543
171,0.9158501941088192,0.598364026784937,1,,-0.11556466864154903,0.0442021710861328,0.9554453101524526,-0.2865254878126605,-0.5961628866764777,-0.768910891564759
172,0.9076327433810687,0.6466006587572244,1,,-0.10126626029792848,0.059576730435463604,0.946745215511296,-0.2288846863416448,-0.5420318156950851,-0.6670135495728637
173,0.8995939360917236,0.6981223796785526,1,,-0.06838021547803191,0.05295449282692897,0.9223554367939104,-0.2195407329495287,-0.3316887510918267,-0.5656381173069348
174,0.8909457381076992,0.7546321876449935,1,,-0.03162974906996921,0.041759059635245455,0.8947037288940237,-0.22023782929467714,-0.08886877629865303,-0.4643711915321174
175,0.8813357073528145,0.8197625457306003,1,,-0.017908578912694893,0.018779008468358123,0.8756183144961404,-0.26484286822365377,0.06991262509430891,-0.4306043931108247
176,0.8709306315931715,0.897540437838321,1,,-0.05529323979879164,-0.030353067336616496,0.8755429267469076,-0.40688692292978307,0.04219848681362404,-0.5466315819805623
177,0.8604153042230155,0.9908899585424772,1,,-0.09267790068488839,-0.07948514314159112,0.8754675389976752,-0.5489309776359124,0.014484348532939178,-0.6626587708502998
178,0.8509114553649738,1.100436566059075,1,,-0.09347304505351337,-0.10680740041917473,0.8689755041721305,-0.5769117442319561,-0.3245821073301211,-0.6100894924672455
179,0.8438260700284955,1.2237895106123418,1,,-0.08474021082131432,-0.1284503401218019,0.8608125624352322,-0.5751902170648787,-0.7447252895780542,-0.513617378380088
180,0.8406435861326471,1.3553862508363548,1,,-0.05870267402750501,-0.15595334836683328,0.8419613590686315,-0.6420716457176812,-1.0486927410191877,-0.4341562254372711
181,0.8426845036159467,1.48689918598248,1,,0.0126929337558539,-0.19881642443179162,0.7950947114591219,-0.8887711168414482,-1.048147183557887,-0.3992832057165294
182,0.8508625952590406,1.6081341257530704,1,,0.0840885415392128,-0.24167950049674997,0.7482280638496124,-1.1354705879652152,-1.0476016260965861,-0.3644101859957877
183,0.8654804682195084,1.7082935855690222,1,,0.10548773693406976,-0.25427002301048246,0.7548390307774316,-1.2701660868508768,-0.9762939701684576,-0.561664623843238
184,0.8861040112636898,1.777438192867864,1,,0.11100448117288243,-0.25724380843292577,0.7784383291583045,-1.3692810818175354,-0.8825071881880019,-0.8326594177459106
185,0.9115472661750946,1.8079555473046858,1,,0.10482795311611114,-0.24956552431590132,0.8130365678038441,-1.4418365638039667,-0.8310164203318171,-1.0484607933275056
186,0.9399811782450719,1.7958369657007325,1,,0.061959927426144715,-0.2084628595450871,0.8821476083826018,-1.4310528159307774,-0.9122433437176605,-1.0910746191365233
187,0.9691564397765098,1.7415720658303997,1,,0.0190919017361783,-0.16736019477427289,0.9512586489613594,-1.4202690680575878,-0.9934702671035038,-1.1336884449455409
188,0.9967072092399987,1.6505060795802777,1,,-0.006595881078069394,-0.15752559556702161,1.0222535078904056,-1.3357335689617573,-0.9159257112420365,-0.9196796893618293
189,1.0204835227863465,1.5325694890861934,1,,-0.02574840309359695,-0.1595851799640178,1.0939649599610974,-1.223143348399591,-0.7779854420145933,-0.6080532511659266
190,1.0388500823710745,1.401377974500946,1,,-0.038781568033388655,-0.16635178432350015,1.145749248899828,-1.0848595141183488,-0.7094825020292,-0.31845817197758186
191,1.0508917391550543,1.2727931676506516,1,,-0.028398966283098157,-0.19112983761155775,1.1212820961479395,-0.8482588586305855,-0.9066820386756398,-0.11316624202960236
192,1.056483472872012,1.1631067048133532,1,,-0.01801636453280766,-0.2159078908996153,1.0968149433960508,-0.6116582031428222,-1.1038815753220796,0.0921256879183771
193,1.056213001863328,1.0870490525561514,1,,0.04502187777287795,-0.2481142334029214,1.0133317689400285,-0.47621807590211895,-1.0318564214562838,0.26871475632002284
194,1.0511801856889396,1.055839231294351,1,,0.13172281750229847,-0.28365874363569415,0.9033276320570396,-0.3862380540914714,-0.8388455132934207,0.4324051661771633
195,1.0427283744523677,1.075500488298891,1,,0.21468354748570523,-0.3227974242926698,0.813884391533055,-0.28612830309079484,-0.6701214579990379,0.510561344025573
196,1.032178098724796,1.1456773165238763,1,,0.2797279435883936,-0.37915288200682834,0.8229318531541525,-0.13749517436157127,-0.6177361629486038,0.17899187466060695
197,1.0206266604672292,1.2591863293635461,1,,0.34477233969108195,-0.43550833972098685,0.8319793147752499,0.011137954367652306,-0.5653508678981698,-0.152577594704359
198,1.0088505177414286,1.4024889282713155,1,,0.33221742743533367,-0.4585712342903884,0.8497664087160671,0.14184385284738377,-0.7333290214938724,-0.4208614059223259
199,0.9973120854062703,1.5571635098077423,1,,0.27887346927286916,-0.4641343357160424,0.87214737463414,0.26312654337058033,-1.0171382979297148,-0.6558799566901233
200,0.9862427785686517,1.702278890522737,1,,0.24096026650877952,-0.4678860589926944,0.8898921159465674,0.4539586138229281,-1.3396928916444866,-0.8462697049531557
201,0.9757585264201216,1.8173614958163444,1,,0.2992535337070013,-0.46034434309651706,0.8787312857722909,1.0784117325200044,-1.9038137669016488,-0.758411276974549
202,0.965963428117631,1.8854643175385724,1,,0.3575468009052231,-0.4528026272003398,0.8675704555980145,1.702864851217081,-2.467934642158811,-0.6705528489959423
203,0.9570083747489139,1.8957504909206597,1,,0.39014721952157033,-0.38849452202015244,0.8280076409035005,1.6231558002469983,-2.4141426003976245,-0.646580503202633
204,0.9490904829617196,1.8450527111294774,1,,0.40706584676919666,-0.28953869490011586,0.7711094967189659,1.113656950015173,-1.983203531990454,-0.6616014285914675
205,0.9424015697881043,1.7380783532936572,1,,0.432027591133353,-0.19948966098634988,0.7158839425790556,0.6149652589457477,-1.5521261187953042,-0.6538654428634736
206,0.9370528310326285,1.5862490468907415,1,,0.5264785473779711,-0.186391645334445,0.6751088767746044,0.20964296875434454,-1.1198534691195545,-0.4495191378086736
207,0.9330106652630189,1.4054841731426222,1,,0.6209295048030111,-0.17329362951884475,0.6343338104605575,-0.19567932650266467,-0.6875808140413806,-0.24517283020000982
208,0.9300716678864118,1.2134511823599647,1,,0.6257442048135902,-0.143011835374225,0.6705246769356827,-0.4118876075191146,-0.44291832874659115,-0.14962200794188266
209,0.9278873251688654,1.0268581481071986,1,,0.567361926599039,-0.10061482249771171,0.7609794598086542,-0.4947632998625856,-0.33052816445904554,-0.13077614991378927
210,0.9260300873159815,0.8592689429379027,1,,0.5092272946198689,-0.06313682973700445,0.843002029496927,-0.5685883874730188,-0.21951874337523328,-0.12375371842240074
211,0.9240805871039434,0.7197361073625492,1,,0.45442085463156034,-0.0917670228209934,0.8117015585851082,-0.5207796850983265,-0.12706554409317844,-0.2756298603070469
212,0.9217142221665522,0.6123399007096624,1,,0.3996144146432517,-0.12039721590498234,0.7804010876732893,-0.47297098272363425,-0.03461234481112357,-0.42750600219169305
213,0.9187719256033409,0.5365474162996802,1,,0.451291375607937,-0.16047302454364168,0.7408228093157312,-0.3416190289471739,-0.0008739873034288395,-0.5442208310853804
214,0.9153082034623602,0.48818833215054913,1,,0.5893848560407268,-0.20983751417648966,0.6945266820951886,-0.1424676137945936,-0.01478561159401103,-0.6324005273771952
215,0.9116130662201062,0.4607867496225537,1,,0.7184663701654841,-0.2592417234543251,0.6494079818583538,0.050864439196372846,-0.025604494296891513,-0.715534836996746
216,0.9082030508046917,0.44698401424353146,1,,0.5973867097110683,-0.30974850155058603,0.6369732161989256,0.08265810823295953,0.04942735099947838,-0.6586153766621575
217,0.9057764168073851,0.4398249317862407,1,,0.4763070492566527,-0.36025527964684695,0.6245384505394972,0.11445177726954622,0.12445919629584827,-0.6016959163275691
218,0.9051340188119443,0.4337476944626547,1,,0.43608872183193503,-0.35341187700668825,0.6525441031591042,0.05158917321475809,0.09252471532753045,-0.43759994687985354
219,0.9070772745766558,0.4252008828696124,1,,0.4712537040703761,-0.29310353294509833,0.7182505017324854,-0.09951713000569878,-0.03912956241163622,-0.17358823683800373
220,0.9123000378275979,0.4128881020295499,1,,0.506398684239471,-0.2328174858005494,0.7839280944838517,-0.2506145334667181,-0.17078345358599023,0.09034293632408562
221,0.9212889147569587,0.39768961131214503,1,,0.4722468061548319,-0.24977876133122934,0.7498083645551672,-0.3708788570388227,-0.3010980953403235,0.07525534023035589
222,0.9342416260028776,0.3823203548336287,1,,0.4380949276433721,-0.2667400370738866,0.7156886342000638,-0.4911431821139576,-0.4314127387232932,0.06016774394806556
223,0.9510110933409225,0.3707698263724021,1,,0.4487679813054957,-0.28253624718914716,0.7254180760560119,-0.4513639615781875,-0.3628807832671704,0.058350252003140896
224,0.9710829191101635,0.36756410159573255,1,,0.5074123382854608,-0.297085612883526,0.7820745702993873,-0.24030734923661162,-0.08154470198009278,0.0707343253335861
225,0.9935904171072043,0.37691669223891805,1,,0.5660566952654259,-0.3116349785779048,0.8387310645427627,-0.029250736895035764,0.1997913793069848,0.08311839866403131
226,1.0173632475645387,0.4018822833930467,1,,0.5585031018043418,-0.31516398829969633,0.8328586354046451,-0.004084006432605705,0.19822380510619117,0.13609709503771947
227,1.0409990593550313,0.44366216696562033,1,,0.548605735469233,-0.3183028165850755,0.8247723372043119,0.014501196054997056,0.18663987980574565,0.19051306515910071
228,1.0629487375286861,0.5012063088213486,1,,0.5484052239814747,-0.30632420758400847,0.8198130643268444,0.006406967055723136,0.12531887949725629,0.26155337622551766
229,1.0816140260994507,0.5712138131789386,1,,0.5601254343493228,-0.27576114347779146,0.8186979656985848,-0.03448532749981444,0.002854153840720596,0.3530306370975458
230,1.0954639922375076,0.6485654408787282,1,,0.5718456448636469,-0.24519807898960572,0.8175828670563888,-0.07537762256641263,-0.11961057334634541,0.4445078991128315
231,1.1031767396182472,0.7271414816505684,1,,0.6069219717064783,-0.20280613446184279,0.8629353706076982,-0.03879806458058277,-0.37443175317778044,0.5908810568600428
232,1.1038027965489157,0.8008944386006501,1,,0.6437206441444104,-0.15954189510798025,0.91171452561198,0.0034944853672825575,-0.6390132694448122,0.7413023920898939
233,1.0969301664773994,0.8649714120752754,1,,0.6747734516911822,-0.13375816088691247,0.9377272306567136,0.03565905215275538,-0.85427264057083,0.879740820341803
234,1.0828155442897371,0.9166364087012099,1,,0.6976959050052746,-0.13270920577880957,0.9315255856779274,0.05349260135729894,-0.9997415590656011,1.0012235282081186
235,1.0624400080423815,0.9557511286706845,1,,0.7206183583193672,-0.1316602506707067,0.9253239406991414,0.07132615056184251,-1.1452104775603724,1.1227062360744342
236,1.037456012171267,0.9846491587853917,1,,0.6660945356893053,-0.1833266566261814,0.8419399228091183,0.09004039483674711,-0.6919063315228888,0.9564580326400266
237,1.010015641641646,1.0073794538173197,1,,0.6026622067311834,-0.24105681591013062,0.7496777552469721,0.10885594366113877,-0.1697263933483109,0.757112657675977
238,0.9825017902780167,1.0284695852194705,1,,0.5460526544759952,-0.2800368878871686,0.6705522076385136,0.08431136826811111,0.14060929272501668,0.6188198181017541
239,0.9572135362173231,1.0515105237316864,1,,0.5005940847443345,-0.2883722694794853,0.6128968358451231,-0.011099945823898049,0.10471184615494823,0.5803097698262183
240,0.9360728987520465,1.0779344265208768,1,,0.4551355150126738,-0.296707651071802,0.5552414640517328,-0.10651125991590721,0.06881439958487978,0.5417997215506823
241,0.9204149309728329,1.1063195849287701,1,,0.504932404460189,-0.32980117773405326,0.628654446951163,-0.28789148849871277,-0.06488144142506298,0.5674919415808631
242,0.9108969583677626,1.1324287457818722,1,,0.5699335366638015,-0.36684648680413356,0.7229879639550315,-0.48299368385024255,-0.21418741694103352,0.60343183540553
243,0.9075247784866906,1.1500062812501894,1,,0.6001554776318562,-0.3844319108422275,0.7612508159848915,-0.6193197308975884,-0.5130006116600022,0.721655401688191
244,0.9097601194081849,1.1521662669726156,1,,0.5643804059977935,-0.3650902462287514,0.6931139431537382,-0.6441121252179909,-1.095518783204534,0.9960205081496404
245,0.9166605088648103,1.133039048873352,1,,0.5286053339166238,-0.3457485813735485,0.6249770694710292,-0.6689045198482418,-1.6780369620292175,1.2703856180400293
246,0.9270137215370572,1.0892568230381297,1,,0.5185327092320305,-0.41092048344074017,0.6062601242399431,-0.6666231036141332,-1.2271082018123813,1.0126435921303685
247,0.9394522568080258,1.020893976462471,1,,0.5138040621913602,-0.4936641990116383,0.5978184259040197,-0.6587125798572052,-0.5613081784350503,0.6442674077683056
248,0.9525520473018423,0.9316414056184198,1,,0.5176953914618977,-0.5428955553632685,0.5865916637220512,-0.5431878448612971,-0.10226141964566035,0.41896321264021286
249,0.9649258900379504,0.8282240313273787,1,,0.5407167481557599,-0.5177540448137038,0.5691841017528165,-0.18883846141891222,-0.10205532104308052,0.5111739362012642
250,0.9753191172117449,0.7192655299238936,1,,0.5637381048496221,-0.4926125342641389,0.551776539783582,0.16551092202347276,-0.10184922244050067,0.6033846597623154
251,0.9827087224638351,0.6138947877218087,1,,0.5912212146475638,-0.5428285511406001,0.5487414489695137,0.23332773241046184,-0.1015998399625578,0.42520279634499947
252,0.9863997562921459,0.5203790545377975,1,,0.6198662418677888,-0.6126689723839956,0.5494491985486147,0.2265264984733379,-0.10133918561710545,0.17660602352427784
253,0.9861046330012839,0.44500784146066624,1,,0.636805197533573,-0.6468620300881023,0.5494975641739236,0.20670384863268357,-0.09709125751204929,-0.025882664320236216
254,0.9819850719361123,0.3913789207721613,1,,0.6230593898987741,-0.5876137568779735,0.5478175070653667,0.15274856529901962,-0.08239161235422947,-0.10750965067724527
255,0.9746379198975298,0.3601635762033215,1,,0.6093135822639753,-0.5283654836678444,0.5461374499568098,0.09879328196535567,-0.06769196719640964,-0.18913663703425435
256,0.9650169410686309,0.34934944228034776,1,,0.6160517904977711,-0.49385452075474456,0.5439047995139399,0.18188892812503651,-0.11058296920165712,-0.26399663987903804
257,0.9542982665379689,0.354879195317417,1,,0.62929753956575,-0.4672023223494663,0.541496596400597,0.30852410900105265,-0.1717698703355154,-0.3367068483762415
258,0.943710346528519,0.37153524505022045,1,,0.6317560100126691,-0.4375498802401376,0.5425518527766865,0.42269454018980207,-0.21871071416114307,-0.3839689865137448
259,0.9343560740283098,0.3938810021137652,1,,0.6003640408154168,-0.39848268469860415,0.554475431973156,0.4977506338527928,-0.22094748386206792,-0.35137517580332195
260,0.9270560049716722,0.4170709633325201,1,,0.5689720720104926,-0.35941548964532183,0.5663990110206077,0.5728067265777531,-0.2231842535350382,-0.3187813655002475
261,0.9222390927407524,0.43738762109366197,1,,0.5606963530003974,-0.3649768339066378,0.5646003495538139,0.458108956225323,-0.20626647410003612,-0.2602661144487949
262,0.9199010446071639,0.4524431375903198,1,,0.5612143450205144,-0.3875154335423834,0.5575815759104006,0.2712264399254371,-0.18206206432267338,-0.19189002290632962
263,0.9196393108856976,0.4610765694115099,1,,0.5732364216916805,-0.4086207595339767,0.5546463201660874,0.12852638783641046,-0.14908295095196225,-0.13419001125133742
264,0.9207584507548726,0.46305525770642075,1,,0.6292815743559215,-0.4242413280268821,0.5673376026683239,0.15490088957018877,-0.08252537785812639,-0.11734452131194219
265,0.9224234678211333,0.45872574776802355,1,,0.6853267270201624,-0.4398618965197875,0.5800288851705603,0.18127539130396705,-0.01596780476429052,-0.10049903137254695
266,0.9238268413613747,0.4487427496441932,1,,0.6601109320866274,-0.42980154083905714,0.5855598092821495,0.22991593229391058,-0.07378892540201888,-0.25614428685361923
267,0.9243325218788495,0.4339425640914577,1,,0.5983759617245528,-0.4082000180828187,0.5878728236867639,0.2885629693357856,-0.18750660460455068,-0.4893079552293873
268,0.923569000120455,0.415346813007144,1,,0.5575660115083217,-0.3904898591751906,0.587028253756883,0.3187853556121368,-0.2662506447053428,-0.6504652274743935
269,0.921459654739804,0.39421886462781863,1,,0.6169978565209345,-0.391421369811195,0.5710572031212663,0.21283879342193082,-0.17745265340030894,-0.46667418465156213
270,0.9181939607843977,0.37207882828920485,1,,0.6764297015335474,-0.39235288044719946,0.5550861524856495,0.10689223123172482,-0.08865466209527503,-0.2828831418287308
271,0.9141524567216003,0.35061874742193655,1,,0.6566833067337048,-0.3955021870767981,0.5308362552113395,0.07384942835403144,-0.08229604929941024,-0.2334807157364313
272,0.9098029179800836,0.3315212131064511,1,,0.5953161192514984,-0.39981729920396525,0.5022345036849735,0.07912917797685104,-0.1192724776704151,-0.2547209405676651
273,0.9055891393861396,0.3162334094648046,1,,0.5464985893381044,-0.3999479388792381,0.4825187320109148,0.07508416517993495,-0.12806433138314993,-0.25690614531783346
274,0.9018373212525866,0.30576428443804443,1,,0.5759311055334867,-0.37398741546848685,0.5182091201744523,0.012897080753030893,0.038881220843121435,-0.14027884926698214
275,0.8987036599777403,0.3005609870177179,1,,0.6053636213610296,-0.34802689238218304,0.5538995078919411,-0.04929000289667616,0.2058267709829534,-0.02365155467370658
276,0.8961769584045427,0.30049565826986674,1,,0.615869948910975,-0.33148877635594776,0.5641308210275947,0.06575393088728416,0.22305721314902327,0.08385145850842324
277,0.8941346761185107,0.30496173436932206,1,,0.6148240806091546,-0.3207019237002853,0.5588223851711647,0.2889764035062904,0.1489043184063631,0.18578517801600242
278,0.8924364423031771,0.3130442577566019,1,,0.6181571688889591,-0.3116973395627764,0.5549824277923814,0.4694006090448243,0.06692819260757883,0.2808426023848283
279,0.8910300247704263,0.3237022979454103,1,,0.6593265969856789,-0.31809243250377944,0.563830847121241,0.2800267253246308,-0.08264449944807191,0.3164854528245548
280,0.8900411612859108,0.3358984355221025,1,,0.7004960250823987,-0.3244875254447825,0.5726792664501007,0.09065284160443725,-0.23221719150372264,0.3521283032642814
281,0.8898196104943137,0.3486368338203301,1,,0.6979236654911215,-0.3094057871670138,0.5760006904182469,0.0407355217745562,-0.1411582564882868,0.24508654865534785
282,0.8909204615091911,0.3609172772722459,1,,0.6645104417670095,-0.27918145713358794,0.5754252157457059,0.08914433735667947,0.11956195002106236,0.0374426753232131
283,0.8940138192803702,0.3716550031203996,1,,0.6321223768899425,-0.251558181648095,0.5735628899441346,0.12403854701955627,0.354764452583622,-0.14814725018686872
284,0.8997356170293145,0.3796348251697159,1,,0.6135138042212457,-0.2588965329130538,0.554403573511498,-0.022721510891619653,0.24697512576309702,-0.03730282541867198
285,0.9085112997396311,0.38355759044456084,1,,0.5949052315525489,-0.26623488417801267,0.5352442570788614,-0.16948156880279558,0.13918579894257202,0.07354159934952476
286,0.9203953711272153,0.38220664372676766,1,,0.5638631086550767,-0.3001832096687752,0.5559142582910311,-0.2826736720676363,0.07887411487461958,0.1604715320074499
287,0.9349690934438992,0.3747233548179123,1,,0.5227301510530555,-0.3557276880253102,0.6089089819962633,-0.36862265687689433,0.05709438960867229,0.2279929142121423
288,0.9513258660846692,0.3609411162499926,1,,0.48517036594626234,-0.41342582066540134,0.6587533610806647,-0.4382137530170574,0.04024063749422159,0.29380873894686826
289,0.9681524093055026,0.3416952144101054,1,,0.5468262265288484,-0.5309240890728223,0.6211226809236762,-0.05359826142972814,0.1601655064866417,0.31226665250628516
290,0.9838898519457457,0.319013907759268,1,,0.6084820871114344,-0.6484223574802431,0.5834920007666876,0.3310172301576011,0.2800903754790618,0.330724566065702
291,0.9969395027824232,0.2961105439073279,1,,0.6450725584299297,-0.6456515060200732,0.5720236161799158,0.36660976631570197,0.23765987060758068,0.29015242873340946
292,1.0058701870382212,0.2771341313045453,1,,0.6582948080710789,-0.5307549048919192,0.5849460891301079,0.07681154177652338,0.04386700323166756,0.19454713883172012
293,1.00959056115283,0.2666886289490505,1,,0.6715047884694177,-0.41589755453102506,0.5978629159746066,-0.21289096441329164,-0.1498589121714183,0.0989500630667287
294,1.0074670945142346,0.26918869871203466,1,,0.6407235329576336,-0.4417734009016481,0.5905356926057865,-0.15939637581254942,-0.10352926124279983,0.0328046845958611
295,0.9993869984595694,0.28816603885009867,1,,0.6099422774458493,-0.4676492472722712,0.5832084692369665,-0.10590178721180724,-0.05719961031418137,-0.0333406938750065
296,0.9857761778186386,0.325661392074191,1,,0.6071823812910708,-0.47587715989528295,0.5796331536299216,-0.03028299770557263,-0.034888597479491704,-0.0966224581392379
297,0.9675822565764081,0.38182801874093697,1,,0.6344119056424742,-0.4652176481260862,0.5800732584789212,0.06901387093539792,-0.038283155477665164,-0.1568394841972973
298,0.9462252792134653,0.4548347397921432,1,,0.6616414296535704,-0.4545581364901091,0.5805133633224203,0.16831073833538363,-0.04167771343341437,-0.21705650950278094
299,0.9235101269026372,0.5410951115664656,1,,0.6488124215636513,-0.4574488555809109,0.570942712216256,0.15553737818273147,-0.07929692800753485,-0.49499174446878164
300,0.9014910306732633,0.6357738618846834,1,,0.6345647000375213,-0.46081946980049715,0.56101752006441,0.13879493754462616,-0.11812824340449811,-0.7806376899741142
301,0.8822835406683324,0.7334505137816455,1,,0.5946511994557604,-0.42389989446117526,0.5553139044306963,0.07182708576751978,-0.06976931267872412,-1.009842598911725
302,0.8678330204913697,0.8287760898152327,1,,0.5231845070187862,-0.3374480575731345,0.5548002428412129,-0.05688726629079238,0.08578023002305515,-1.1696595944153299
303,0.85966713215095,0.9169616664862977,1,,0.45171781458181176,-0.2509962206850937,0.5542865812517294,-0.18560161834910455,0.24132977272483444,-1.3294765899189347
304,0.8586753190783065,0.9939952896449072,1,,0.4988875785038237,-0.22316663704263298,0.558047800124369,-0.12991647717620033,0.22716335915757493,-1.0114830229424436
305,0.8649625701951521,1.0565868715223272,1,,0.5548072577588905,-0.19966068011892388,0.5621243086073906,-0.060631132467638724,0.2004797119034882,-0.6582490071591437
306,0.8778133987189802,1.1019579314219015,1,,0.6122549333689035,-0.18818521379881836,0.5656815121740161,0.015257951936116192,0.020368896035274434,-0.16754372374398313
307,0.8957784321105751,1.1276710333187454,1,,0.671864800414175,-0.1937334807302387,0.5685038739496934,0.10049165382731501,-0.37684888551085677,0.5176901531275578
308,0.9168694734014597,1.1316772038442988,1,,0.7314746674594464,-0.19928174766165904,0.5713262357253707,0.1857253557185138,-0.7740666670569879,1.2029240299990986
309,0.9388281651396332,1.1126368766270631,1,,0.7334565487158728,-0.27880245239206497,0.5586046087595669,0.3051371753461123,-0.41751226649013257,1.386994958909369
310,0.9594227972933771,1.0704031103846727,1,,0.7288088878992911,-0.36683297022661526,0.5440947963152422,0.42848085666222996,0.025756329035598574,1.5134119406364779
311,0.97672717286315,1.006445413753005,1,,0.7162175536806165,-0.4436262979300758,0.5486529894887379,0.40973425706033406,0.28591799935691475,1.4073851122417844
312,0.9893418912936195,0.9240004337596586,1,,0.6906427357373565,-0.5020530755764013,0.5843767565809752,0.15874915061918202,0.24680178362818211,0.9214420570795266
313,0.9965286930650784,0.8278474286658962,1,,0.6650679177940965,-0.5604798532227268,0.6201005236732124,-0.09223595582197003,0.20768556789944947,0.4354990019172687
314,0.9982412443278302,0.7237555976333054,1,,0.650327578233423,-0.5279522364487151,0.6041012566243253,0.02862193018938831,0.2806632705754615,0.06723262691168062
315,0.9950514449547097,0.6177624748508089,1,,0.6373167302624219,-0.48090570338018224,0.5798455176953654,0.20883656636712802,0.3715343611649482,-0.2822491985514014
316,0.9879887055292939,0.5154704816838986,1,,0.6202688686312149,-0.4348272019354353,0.5690280519632693,0.2754308408052581,0.35228277668857516,-0.47809647996379073
317,0.9783269427636512,0.4214973737066107,1,,0.5955600375816789,-0.39058571698109557,0.5837121595875231,0.12640976442927632,0.12405333953356333,-0.3823942045408226
318,0.9673642412297284,0.3391361603574978,1,,0.5708512065321429,-0.346344232026756,0.5983962672117771,-0.02261131194670544,-0.1041760976214485,-0.28669192911785446
319,0.9562388280858465,0.27022245746543627,1,,0.5961962562933892,-0.3544567965834667,0.5932619887263104,-0.07029871706405304,-0.09878056823499994,-0.19568172175048285
320,0.9458122492651684,0.21518559060575726,1,,0.6319490725822814,-0.3734554046449288,0.5840068482368674,-0.09691568419006917,-0.04480710508184899,-0.10564714200805164
321,0.9366306417859717,0.17325526678680214,1,,0.6614251774042142,-0.3882653160245182,0.5734891070371705,-0.10888566565442188,0.025897700944668287,-0.01694188294511108
322,0.9289543185954361,0.14278821026731256,1,,0.6769709495832116,-0.39377896778575083,0.5601691895489498,-0.08834859340040349,0.13373552012857245,0.0688131276435076
323,0.922831010748769,0.12166415812985465,1,,0.6925167217622088,-0.3992926195469835,0.5468492720607293,-0.0678115211463851,0.24157333931247663,0.15456813823212628
324,0.9181829508944662,0.10768561563498281,1,,0.653560381271619,-0.38815506586321186,0.5621209373834717,-0.04118115541384178,0.1917886879150482,0.12331942247268744
325,0.9148825305421936,0.09891296460451623,1,,0.6004098994278595,-0.37268099103905983,0.5848387905336473,-0.012963895803168255,0.10095396490973994,0.0615990910402903
326,0.9128022088140969,0.09388396825129695,1,,0.564286552552364,-0.3538781945488594,0.6024785589083348,0.00989701356281439,0.03556190583102753,0.023677693978991846
327,0.911836696180425,0.09169954300180383,1,,0.5727980888690818,-0.32634949654790074,0.6068066502911781,0.01871680162718237,0.036865173627857115,0.04814275581010427
328,0.9119044762991481,0.09198958620170553,1,,0.5813096251857995,-0.29882079854694216,0.6111347416740214,0.027536589691550352,0.03816844142468669,0.0726078176412167
329,0.9129389846237307,0.09478977113633098,1,,0.5935593512047748,-0.3059986541891926,0.6132707765358314,0.04396510859066245,0.0629649319510837,0.07674919268132491
330,0.9148777661563521,0.10036183638916256,1,,0.6069967212669476,-0.32420297676270277,0.6147103827775855,0.06281096423519449,0.09522535155539884,0.07443361847038897
331,0.9176532830723264,0.10898524944896515,1,,0.6137361357306721,-0.3382568711429226,0.617545713319964,0.07016668469848071,0.10413343334578169,0.0696468746312542
332,0.9211847665700509,0.12074625270944221,1,,0.5994562741506778,-0.33928604557507147,0.6247610541392916,0.041464488741688406,0.039758074008110454,0.05710519784242985
333,0.9253687805290473,0.1353539185327562,1,,0.5851764125706838,-0.3403152200072204,0.6319763949586191,0.012762292784896096,-0.024617285329560784,0.04456352105360551
334,0.9300674682823833,0.15201799132106086,1,,0.5812974621031863,-0.35323192471444614,0.6282167762808548,0.013770765065281541,-0.038920112137771384,0.06308938406740164
335,0.935096485448126,0.1694224496607263,1,,0.5813753411724499,-0.3706710150475861,0.6202819422365565,0.026082098062987003,-0.034173792813490624,0.09343430387304091
336,0.9402173146070739,0.18581625179632316,1,,0.5810908225788042,-0.38337458384710243,0.6154404334385172,0.05750297962991737,-0.02160633541430128,0.11319406370566992
337,0.9451395470786961,0.1992192667961621,1,,0.579419422321878,-0.3779554969906775,0.6224369593040662,0.1620553549738437,0.020892311015966652,0.0924448305201594
338,0.9495374253046697,0.20771308291703802,1,,0.5777480220440632,-0.3725364100665263,0.6294334852570558,0.2666077316244368,0.06339095797737093,0.07169559707533067
339,0.9530817313128594,0.20976121821124324,1,,0.5756800161040734,-0.3709209264448882,0.6569951883503793,0.30146050315183476,0.09729948443099679,0.06197885744779075
340,0.9554835133510465,0.2044891240298989,1,,0.5734337649964572,-0.3710148836429377,0.693799430812771,0.30498841226916434,0.12734738150922725,0.05722041493335014
341,0.9565412428317246,0.19185789787499416,1,,0.5715743423666357,-0.37143578874946404,0.7197177754165581,0.2819460600946157,0.13654249476791558,0.04911020240691262
342,0.956179772247864,0.1726891283448871,1,,0.5715681566012903,-0.3734230519488756,0.6934834260680018,0.13160959553834814,0.045835067444216955,0.024942165537015278
343,0.9544700907234874,0.1485364998788987,1,,0.571561970835945,-0.37541031514828715,0.6672490767194456,-0.018726869017919406,-0.04487235987948167,0.0007741286671179379
344,0.9516238632517766,0.1214396889422631,1,,0.5767096349157216,-0.37719338606586444,0.6479155598728097,-0.051828643772371556,-0.05341975002239509,0.0013069448174267602
345,0.9479639321584014,0.09362217609440808,1,,0.5845665858398293,-0.3788691167845138,0.63220968696167,-0.0233022381249513,-0.01877707727085406,0.014824557919595712
346,0.9438779530825167,0.06719819267042654,1,,0.5904923075342358,-0.3802174945722239,0.619253172555628,0.0013236255621568347,0.011211082477627211,0.025858256201274504
347,0.9397650403791741,0.04393873400256324,1,,0.5843753795892863,-0.37952458352943835,0.6234409518981832,0.0016267110367002165,0.012174894170675181,0.021402899399733406
348,0.9359848842338475,0.025123346558084177,1,,0.5782584516443368,-0.37883167248665267,0.6276287312407384,0.0019297965112435986,0.01313870586372315,0.01694754259819231
349,0.9328166796189017,0.011482455891801645,1,,0.5739151902194555,-0.3745035027366767,0.6274289559044114,0.00014757836408487853,0.014309542680630808,0.01223999205270993
350,0.9304326844561228,0.003218600336351314,1,,0.5706545870211434,-0.36795634610246064,0.6245509870554554,-0.002907523437011012,0.015606749055128466,0.007378500713691663
351,0.9288889283920947,8.519113271142994e-05,1,,0.5680148381018951,-0.36338599663885823,0.6221417974028888,-0.005995318519725557,0.016246317638314068,0.0038291412065235915
352,0.9281334503503859,0.0014979468535224673,1,,0.570740139635473,-0.37589802952121953,0.6237835165189378,-0.009365629300937662,0.011202974735956288,0.011618438289597492
353,0.9280300499622809,0.006655641762100618,1,,0.5734654412031109,-0.3884100625599527,0.6254252356555045,-0.01273594012427098,0.006159631770568201,0.019407735470019876
354,0.9283928456758227,0.014651608399418021,1,,0.5756799576393338,-0.3930888726465931,0.6274099055065843,-0.010624352315733014,0.0011909451920026175,0.02435654202259159
355,0.9290246626846096,0.024563991944326447,1,,0.5775343221174271,-0.39224451768563867,0.6296363881352438,-0.004647506093999957,-0.0037251015537892052,0.027302533303631412
356,0.9297515100790128,0.03551972284979688,1,,0.578867427710836,-0.39075808975990567,0.6316541526485296,0.0010762680017319976,-0.006816762791655605,0.0302401307514283
357,0.9304467319367845,0.046733328183487334,1,,0.573193063527502,-0.38064004513209415,0.6308660448240693,0.003397902917884964,0.014617443410901486,0.03306488689428227
358,0.9310414823137437,0.05752594231675236,1,,0.567518699344168,-0.3705220005042827,0.6300779369996089,0.00571953783403793,0.036051649613458574,0.03588964303713624
359,0.9315218906714196,0.06733154237910104,1,,0.5671162131759978,-0.3682604256015184,0.6304168110154208,0.007231433732119432,0.04777902545677925,0.04281997726605971
360,0.9319162912217758,0.07569669813733654,1,,0.5709924518874928,-0.3723752639032502,0.6316703581699202,0.008086134875649935,0.051628211181675474,0.05308245206699163
361,0.932277190764214,0.0822779975484613,1,,0.5746177034727814,-0.37626927451531783,0.6329664170896953,0.008882272608450509,0.055462018827213945,0.06300745004197893
362,0.932662222780108,0.08683905482341628,1,,0.5712718161108693,-0.37402982086300585,0.6354432348025278,0.008051818271544126,0.05886870081006769,0.06355906572164786
363,0.9331170870877027,0.08924746640967711,1,,0.5679259287489573,-0.3717903672106938,0.6379200525153602,0.007221363934637744,0.06227538279292144,0.06411068140131682
364,0.933662405104238,0.08947141917992943,1,,0.5645266146718169,-0.3721154294317179,0.6402020623995645,0.004988670461084798,0.06204000624777633,0.06467798230005875
365,0.9342858552218424,0.0875755963513383,1,,0.5610774894383739,-0.374831458427728,0.6423024477320937,0.0014486319166099053,0.058409041075733074,0.06525990694827787
366,0.9349405776080812,0.08371620654996766,1,,0.5576292354828063,-0.37754818088530845,0.6444021457567146,-0.002091264712405194,0.05477541050333761,0.06584083003209439
367,0.9355502639623158,0.0781351641104758,1,,0.557417845965439,-0.3828411665066191,0.6439484419461797,-0.0051039344739691305,0.04123961225839468,0.06270086419166061
368,0.9360204733571179,0.07115360985233296,1,,0.5572064564507135,-0.3881341520617794,0.6434947381413152,-0.008116604197881553,0.027703814182618428,0.05956089839046926
369,0.9362546875933161,0.06316499242133203,1,,0.558343401543055,-0.39128369846045963,0.6429245945173551,-0.009791190956460027,0.018428214908707993,0.056046152158005985
370,0.9361726742901294,0.05462761579310129,1,,0.5609234368727841,-0.39213917319893066,0.6422298281500584,-0.010033659526779638,0.013712204552977406,0.05213028744871376
371,0.9357280912705306,0.04605575594497045,1,,0.5635034722025133,-0.39299464793740174,0.6415350617827619,-0.01027612809709925,0.008996194197246819,0.04821442273942154
372,0.9349221168737324,0.03800739576457595,1,,0.5621488606293803,-0.3929940663881788,0.6411304218545061,-0.004049581142157393,0.011972750518137043,0.040686447551071876
373,0.9338103212262715,0.031065904512166596,1,,0.5606548585414847,-0.3929631578160861,0.640736060071833,0.0024061399741097237,0.015221827056310555,0.033030508163777325
374,0.9325009872937053,0.025813111554300095,1,,0.5580110833563884,-0.39216397739444314,0.6402230324314654,0.009343114105932,0.017299039067963803,0.02488243989102747
375,0.9311445001445866,0.02279231207826596,1,,0.5539537358082157,-0.39042025594083624,0.639564112724363,0.01687175791615613,0.01793551865983802,0.01612933076941686
376,0.9299149879410039,0.022461586400764157,1,,0.5498963882093356,-0.38867653446543676,0.6389051930090255,0.024400401820471176,0.01857199825966678,0.007376221538412307
377,0.9289868052765032,0.02514016525237768,1,,0.5513026039347473,-0.3860273046175546,0.6373568816271766,0.02814105950494819,0.011959933209409567,0.0028006225413932506
378,0.928509405010375,0.030953287037642174,1,,0.5531118410505733,-0.38331127967247136,0.6357429640017858,0.031602295247630925,0.004813177084854789,-0.0014668211578761675
379,0.9285844647782452,0.039783877393747974,1,,0.5540322012539051,-0.3795850566231259,0.6363332023410944,0.024863238276555774,-0.0037240716647843584,-0.0011561805883537485
380,0.9292488126125154,0.05124185175853862,1,,0.5536947063827703,-0.3744292961498677,0.6400425550663674,0.0036896856281881762,-0.014229014906074321,0.005632934613472724
381,0.9304658623738187,0.0646626656783728,1,,0.5533572115116355,-0.3692735356766095,0.6437519077916405,-0.01748386702017942,-0.024733958147364284,0.012422049815299195
382,0.9321270700085903,0.07914430678510867,1,,0.5604368364561054,-0.3710659213891853,0.642317504810867,-0.04264219440556573,-0.0321837260772018,0.03274200519542696
383,0.9340634692225647,0.09362536256634385,1,,0.5683698192852197,-0.3736577084768726,0.640291300036444,-0.06825897966211623,-0.03928198844063267,0.05461871693822261
384,0.9360657963249508,0.10699726468868506,1,,0.5747463023860869,-0.37918442112998196,0.6366626077745801,-0.08765186831419057,-0.037761130840241124,0.07671631315648539
385,0.937910343858515,0.11823445861081627,1,,0.5785786696079182,-0.3895083014544087,0.6304146323450698,-0.09687172982114252,-0.02215222786838038,0.09917494700288969
386,0.9393868114068985,0.12652049132020363,1,,0.5824110368297494,-0.39983218177883534,0.6241666569155595,-0.10609159132809448,-0.006543324896519637,0.12163358084929399
387,0.9403242340749862,0.13134771178236443,1,,0.5750769720973777,-0.4079711761937184,0.6265121545578423,-0.09729842774076178,0.011673964279654154,0.12119173505680501
388,0.9406115257933816,0.13257333982478262,1,,0.5659602801359047,-0.4157613718937744,0.6302295281183373,-0.0856296357393349,0.03030766044159481,0.11709401971429352
389,0.9402100943314333,0.1304235881262029,1,,0.5570140261440506,-0.4221667590906781,0.6329804015225389,-0.06913283640795602,0.04490616316502698,0.1079674782548368
390,0.9391571628901559,0.1254479824387361,1,,0.5483912231877601,-0.42594410662362814,0.6338970857661633,-0.043473618784017606,0.051846821223303204,0.08929741184707421
391,0.9375596888410569,0.1184353483605722,1,,0.5397684203392349,-0.4297214541093699,0.6348137699983313,-0.017814401480761,0.05878747919483701,0.07062734567264496
392,0.9355799372432902,0.11030880266902206,1,,0.5390203644133513,-0.4288631885066005,0.6333729799987364,0.0044173869936407935,0.06182397859220565,0.06455295687824597
393,0.9334146938998981,0.10201817417077268,1,,0.5399098264283437,-0.4270409681701247,0.6314419639190505,0.0259364571163577,0.06404862589749107,0.06109778213475283
394,0.9312707110978081,0.09444474245517573,1,,0.5401008161152262,-0.42303038449201164,0.6304634375578995,0.042209965565449606,0.0637917045870436,0.05837502803640084
395,0.9293393175079473,0.08832685670594384,1,,0.5387415681099863,-0.41416279617715684,0.631598932616935,0.0468411123982806,0.058027018618105226,0.057277858868033216
396,0.9277733020172347,0.08420866936742984,1,,0.5373823201047464,-0.40529520786230205,0.6327344276759705,0.051472259231111595,0.05226233264916685,0.056180689699665595
397,0.9266692068236383,0.0824101538579246,1,,0.5365473102085427,-0.39823768517962277,0.6346570078418877,0.048932933470933415,0.04026496254818789,0.059002992916166855
398,0.9260578671852217,0.08301545750006477,1,,0.5358488372518805,-0.3916515911185495,0.636784582969044,0.04452607027962791,0.02664430055331242,0.06284611605290837
399,0.9259051815224106,0.08587767613243676,1,,0.5365610324294395,-0.38700664218333436,0.6390128584518885,0.03879857842993484,0.014289031526062161,0.067735365269686
400,0.9261235843996206,0.09063984301819905,1,,0.5409713291855007,-0.3874504536304288,0.6415051223489134,0.02960902589153305,0.005251022042740241,0.07536705986570173
401,0.9265926682076883,0.09677290712119212,1,,0.5453816259415619,-0.3878942650775233,0.6439973862459385,0.02041947335313126,-0.0037869874405816787,0.08299875446171748
402,0.9271852617362941,0.10363090583630939,1,,0.5505612290002398,-0.3922117715620983,0.6436122932596485,0.006924189190164052,-0.009995910212741734,0.09417255544152436
403,0.9277936294761844,0.11052130848710619,1,,0.5559852580551843,-0.3977600384935186,0.6423129989722293,-0.007939123206046039,-0.015305968208221173,0.1064717636600291
404,0.9283499256050519,0.11678514295988704,1,,0.5580037602870929,-0.4034264512913307,0.6402609071613837,-0.023285810480848594,-0.015982952645049522,0.11798731912297515
405,0.9288360145291901,0.12187797562049878,1,,0.5493345944726634,-0.4094636448425056,0.6358462880663417,-0.040149487787675034,-0.002119821909627168,0.12704351339153686
406,0.9292802288523772,0.1254402484789543,1,,0.5406654287665785,-0.4155008383182293,0.6314316690264724,-0.0570131648837439,0.01174330865253761,0.13609970754691672
407,0.9297420204915712,0.12734495730266474,1,,0.5301156310558626,-0.4185048555302216,0.6321623488794696,-0.07135634263922502,0.014606702462268095,0.12679226967534496
408,0.9302887578624489,0.12771286175198998,1,,0.5188503475082693,-0.42035490172017526,0.6348505561630555,-0.08474059710174071,0.01328524968120749,0.11049839350299129
409,0.9309710394026726,0.1268903159150939,1,,0.5116790868571046,-0.42200582997389685,0.6369953200438312,-0.0955932729689285,0.007826121877875363,0.09349125507200606
410,0.9318031524847522,0.12539141197004317,1,,0.5201764204551479,-0.42289469650263783,0.637060223994299,-0.09675712226536672,-0.013468665055652041,0.07375432806716582
411,0.9327536801500098,0.12381276975226853,1,,0.5286737540531913,-0.4237835630313789,0.6371251279447667,-0.09792097156180495,-0.03476345198917945,0.05401740106232557
412,0.9337483175602036,0.12273436514027404,1,,0.5400837698312534,-0.424124426334968,0.6333809400923673,-0.09602353453899022,-0.03978574923210858,0.04649634159939198
413,0.9346836657712243,0.12262234449551837,1,,0.5528028822011539,-0.42421899117204953,0.6279247669326319,-0.0927502112232368,-0.03749442299053322,0.04446566851474589
414,0.9354481080580676,0.12374968914089197,1,,0.5628699411840177,-0.42514160932667716,0.6234247297926189,-0.08933976852455267,-0.031225580034292325,0.045311367901166084
415,0.9359444675481683,0.12614820956436035,1,,0.5602305476227192,-0.4300315763345726,0.6235057078209456,-0.08527236254785157,-0.00589975590002293,0.059938272726246154
416,0.9361091341239105,0.12960102509038218,1,,0.5575911540614207,-0.43492154334246813,0.6235866858492723,-0.08120495657115047,0.019426068234246467,0.07456517755132623
417,0.9359235388137532,0.1336786628197838,1,,0.548908716259074,-0.43623737577546406,0.6268998616803488,-0.07701438494939618,0.03697264950226433,0.09117066615977132
418,0.9354158830553704,0.13781465300870202,1,,0.5370494212212596,-0.4356742685826871,0.631912219342063,-0.07275906455946467,0.05042964562075747,0.10881630571820713
419,0.9346534362672422,0.14140909544461105,1,,0.5259718068866523,-0.43540654348958635,0.6358655361662136,-0.06962624371114877,0.06141797999546992,0.12504876822727265
420,0.9337279709441684,0.1439427397832891,1,,0.519768950680729,-0.4369808957121423,0.6332144070697442,-0.07349361327624028,0.05701111674908865,0.13246830202973828
421,0.9327384864873525,0.1450811994975174,1,,0.5135660944748057,-0.43855524793469847,0.630563277973275,-0.07736098284133179,0.05260425350270739,0.13988783583220393
422,0.9317758642230131,0.144749812400522,1,,0.5108330003244514,-0.44241028886874134,0.6290455859088023,-0.08655068753557354,0.04703054210328847,0.13600023065738626
423,0.9309132849938272,0.14316420962533158,1,,0.5102179602490757,-0.4476575354746524,0.6282197801587989,-0.09898931661214884,0.040744549025971105,0.12521038483980662
424,0.9302042095033667,0.14080898513804424,1,,0.5102169858508199,-0.45414797432207804,0.6276190478977371,-0.10939109467932759,0.0331163716889411,0.11402322753245403
425,0.9296869224148182,0.13836582174908596,1,,0.5155229546927802,-0.47138246044037424,0.628963469510597,-0.1021897838613823,0.013888627807799541,0.0994023829120431
426,0.9293919173683702,0.13660182148490457,1,,0.5208289235347404,-0.4886169465586704,0.630307891123457,-0.09498847304343702,-0.005339116073342013,0.08478153829163218
427,0.9293469167981844,0.13623721906847866,1,,0.5192675204367958,-0.4879076044918641,0.6217924271198895,-0.09025788532344063,-0.00773749761546901,0.06354839726147718
428,0.9295752256356383,0.13781739707194118,1,,0.5128637747159774,-0.4745456545863389,0.606324529959229,-0.08726946154493617,0.0017308930637319321,0.0376527732581894
429,0.9300866652396074,0.1416153207177266,1,,0.5072293120376378,-0.4621516628196552,0.5925584869951542,-0.08644464549131028,0.010997022412181642,0.014791067847308985
430,0.9308649867039477,0.14758581426447337,1,,0.5119381661556653,-0.4627722526648562,0.6016745510629607,-0.11471039945166409,0.017543669043688502,0.0327216057512131
431,0.9318585815733353,0.15538243314884354,1,,0.516647020273693,-0.4633928425100572,0.6107906151307672,-0.1429761534120179,0.024090315675195362,0.05065214365511722
432,0.9329804834682218,0.16443303263239595,1,,0.5234098640513278,-0.46530895204324785,0.6158812771596499,-0.16854170928256415,0.024400074840116737,0.0638447882189046
433,0.9341196250941267,0.17405558593710638,1,,0.5318398185825798,-0.46827656385312644,0.6177047411306779,-0.19191566245863725,0.019647694516646382,0.07319194461294573
434,0.9351605502590936,0.18358600197431224,1,,0.5399177287891249,-0.47134334809325185,0.6192387183237823,-0.21447585520004034,0.01526702412297511,0.08188476516252653
435,0.9360056306757021,0.192487571960657,1,,0.5382148001135857,-0.47716543754273383,0.6127298914304412,-0.21442736164391746,0.021213561637747826,0.07239818891379783
436,0.9365932907507429,0.2004174746601774,1,,0.5365118714380464,-0.48298752699221575,0.6062210645371002,-0.21437886808779458,0.027160099152520545,0.06291161266506913
437,0.9369075230339812,0.20723752020297415,1,,0.533690002778292,-0.48510062469226617,0.6007326468437612,-0.20471878591612355,0.039747541455145294,0.0548397974518162
438,0.9369770727473402,0.21297069940137994,1,,0.5298248757107842,-0.4837555954403742,0.5961956208911929,-0.1860972130635208,0.05852671856064761,0.04808705301224993
439,0.9368658177669269,0.21771838511106112,1,,0.5259594937392489,-0.4824123300212594,0.5916618569612566,-0.1674783129456167,0.07730366786316151,0.041340176011683154
440,0.9366579805581896,0.22156201901976344,1,,0.5211115672505118,-0.48786787528732845,0.5997017760997431,-0.15916164638639302,0.08749340245961125,0.057209732656911455
441,0.9364422839877259,0.2244759047416937,1,,0.5162636407617746,-0.4933234205533977,0.6077416952382296,-0.15084497982716935,0.097683137056061,0.07307928930213976
442,0.9362981145112742,0.22627403576424845,1,,0.507345985217046,-0.500400469308327,0.6130834947620261,-0.14848076049172554,0.09602360812669461,0.09493349893103148
443,0.9362850222847817,0.22660506408032127,1,,0.49407242653603756,-0.5092130419852275,0.6155374490435491,-0.1524875509148876,0.08168160244160327,0.12319318871411393
444,0.936435574245749,0.22499800319319732,1,,0.48079886785502907,-0.518025614662128,0.6179914033250721,-0.1564943413380497,0.06733959675651195,0.15145287849719638
445,0.936751308846459,0.22094974670849643,1,,0.47355288874599993,-0.5290983079728878,0.6062804898302873,-0.15093528204425768,0.04626519991748018,0.16847240317543685
446,0.9372021205868352,0.21403632545542373,1,,0.46652050803919737,-0.540251093006381,0.5940676177416254,-0.14503723899725987,0.0249522280000829,0.1850936119119437
447,0.9377300746793336,0.20402472723254153,1,,0.46620726033889215,-0.5468109650878279,0.589131151651877,-0.13312774158594937,0.00885135705295134,0.19103504397660215
448,0.9382585951834753,0.19096185780616212,1,,0.474155081654767,-0.547723922478723,0.5931409130127004,-0.11382725498850672,-0.000841317212699332,0.18384585754059737
449,0.9387067579338775,0.17522164487790878,1,,0.4821029029706419,-0.5486368798696182,0.5971506743735239,-0.0945267683910641,-0.010533991478350005,0.1766566711045926
450,0.9390063855695313,0.15749937381923568,1,,0.4823905097704941,-0.5579163877132198,0.594243973779766,-0.062089846803972885,-0.004549876131397457,0.15336165621214187
451,0.9391178190047105,0.13875243902596354,1,,0.48211297266810693,-0.5678131504602236,0.5908270007529677,-0.028683764873390496,0.002590818060406209,0.12887840948576065
452,0.9390397450517172,0.12009665840780288,1,,0.48213564520468577,-0.5677330907236064,0.5875162337309359,0.0027345118155419463,0.010537175829260562,0.10482936832984814
453,0.9388098052187173,0.1026748835892417,1,,0.4825831632498752,-0.5535342031210121,0.584355765394165,0.031339721456535026,0.01962367894719436,0.08139479801119515
454,0.9384955328961654,0.08751824012204006,1,,0.4830306812950647,-0.5393353155184177,0.581195297057394,0.059944931097528104,0.028710182065128157,0.057960227692542145
455,0.9381783559134022,0.07541985207742896,1,,0.47851742731990143,-0.5356871407382419,0.5917480459670804,0.05013254068335868,0.016209550001783205,0.043740009900471624
456,0.9379355489071782,0.06683783506249874,1,,0.4734333642014884,-0.5332529792854535,0.6038787004437902,0.03589964529874687,0.0012250033204133073,0.030580037701167965
457,0.9378252083642604,0.06184049040993354,1,,0.47190143883704094,-0.531941935858093,0.6087809736068521,0.01667625598290797,-0.0122478999065556,0.022033223708809595
458,0.9378777637913834,0.06010247226237483,1,,0.4761757621814557,-0.5324667172316605,0.601867888645732,-0.010704488410847646,-0.023249902942343335,0.021026979857051608
459,0.9380952729726989,0.06095517118244395,1,,0.4804500855258704,-0.5329914986052279,0.5949548036846122,-0.03808523280460326,-0.03425190597813107,0.020020736005293617
460,0.9384576607573444,0.06348678225479272,1,,0.49731759927291386,-0.5346297711410972,0.5918235254728906,-0.05679933299708003,-0.03683294289476431,0.01751429521082191
461,0.9389333663102989,0.06667853965728861,1,,0.5161956760559951,-0.5364458178650083,0.5892960306647923,-0.07412976246067582,-0.03806953252394229,0.014768340797157501
462,0.939490590822826,0.06955614743108952,1,,0.5232119153662989,-0.5367322579243694,0.5894250198214857,-0.08494842270401012,-0.037860689056835414,0.011572649595595645
463,0.9401049545446377,0.07133210212601099,1,,0.5077162123358003,-0.5341157398951986,0.5945956067898086,-0.08340874693409539,-0.034908635981965176,0.007523427171664574
464,0.9407605671031067,0.07151625596544792,1,,0.49222050930530187,-0.5314992218660277,0.5997661937581316,-0.08186907116418064,-0.03195658290709494,0.0034742047477335047
465,0.9414442959272367,0.06997766775895695,1,,0.4780030407286604,-0.5364728719078835,0.5947706870440588,-0.08470019703571886,-0.02690192968158552,0.0025011019333333333
466,0.9421362589085494,0.06694872274503227,1,,0.46405139334631945,-0.5430249706728929,0.5876610430088783,-0.08844027330276208,-0.021410020456996484,0.0021677078874999998
467,0.9428015836905144,0.06297113313958348,1,,0.460792965812719,-0.5502709173327985,0.5856343130532068,-0.08049776001576231,-0.01778393645390503,0.001800423979388082
468,0.943388028475811,0.05879210184665191,1,,0.4812688858874299,-0.559056907717709,0.5948894655797621,-0.046624924166812715,-0.018299181762134586,0.0013579191618932707
469,0.9438311239230289,0.05522733373220405,1,,0.5017448062180431,-0.5678428982124245,0.6041446182219856,-0.012752087894529775,-0.018814427076803537,0.0009154143388681563
470,0.9440646114393795,0.05301446951556398,1,,0.49988481009104496,-0.5609873172603543,0.5925963186054226,0.0053805278264279985,-0.005267832631444976,0.006421779489728158
471,0.9440316552158002,0.05268336846692933,1,,0.4922071167322942,-0.5500576734831067,0.5756294731751463,0.019413386203539884,0.011941361752470563,0.013477609801098026
472,0.9436932172410202,0.05446629862035518,1,,0.48726857251268496,-0.5450396733567395,0.565790831618511,0.033086390171846336,0.022982818631114697,0.019432118175953375
473,0.9430330364446099,0.058261916636586114,1,,0.48951112512406,-0.5555199478152137,0.5746398626373295,0.04581598097664086,0.01785461186474486,0.02249934328638718
474,0.9420608707947072,0.06365521921187983,1,,0.49175367773543505,-0.5660002222736878,0.583488893656148,0.058545571781435386,0.012726405098375018,0.025566568396820984
475,0.940815174927944,0.06998538134071594,1,,0.4859412173727334,-0.5650162284041775,0.5895867953153461,0.07060814974121998,0.004654146145472603,0.022161478000017814
476,0.9393642057539099,0.07644677417071497,1,,0.47756936123479105,-0.560389583796248,0.5948105546472083,0.0824587915813457,-0.004353554567929255,0.01669987734671873
477,0.9378031404665735,0.08220551807004717,1,,0.47165252221526743,-0.5548545364183292,0.5973613816036892,0.09311422789458967,-0.011805730301446047,0.012284081745421864
478,0.9362455055056372,0.08651376941900182,1,,0.4734407471733681,-0.5464684696288927,0.5915232181919714,0.1000185151906057,-0.014375895478341002,0.011150542212054254
479,0.9348094533142643,0.08880583319757476,1,,0.4752289721314688,-0.5380824028394563,0.5856850547802537,0.10692280248662171,-0.016946060655235958,0.010017002678686646
480,0.9336016796326384,0.08876382526490148,1,,0.47714749878983936,-0.5340239582347343,0.5882903529253763,0.10012700323862657,-0.013816638178089086,0.010521326028198696
481,0.9327028331362998,0.08634577125351343,1,,0.4791156011051096,-0.5316120363705157,0.5941081199202544,0.08811875635108084,-0.008518703690577672,0.011648804165116492
482,0.9321577286271323,0.0817751750275258,1,,0.48078164793374495,-0.5297092185673342,0.5987284161615087,0.07611050946353512,-0.007464982220964219,0.010419362764688836
483,0.9319719851567214,0.07549707911999329,1,,0.48129160290855916,-0.5297549535312354,0.5987654942947759,0.06410226272606515,-0.02265562719588741,0.00016901115376525446
484,0.9321148262568564,0.06811005868004719,1,,0.48180155788974655,-0.529800688495708,0.5988025724285064,0.052094015838519414,-0.037846272360659086,-0.010081340585264392
485,0.9325265118312394,0.06028556151234585,1,,0.48446080458836877,-0.5321923243610397,0.594563674011399,0.04039942104453357,-0.038604749361877376,-0.014564679722545628
486,0.9331284475760785,0.05268574210611001,1,,0.48808608842810586,-0.5356383668391272,0.5884028623755608,0.028845802726337116,-0.03287643336067877,-0.016455933140901803
487,0.933834183028907,0.045889412813922656,1,,0.4917591873895108,-0.5381325976797188,0.5834822407754849,0.017275437714402292,-0.02676399473788846,-0.01882341490793376
488,0.9345598931662765,0.04033379257684604,1,,0.4956613926682447,-0.5360662198373082,0.5845039939298815,0.005624830862731518,-0.018811031273463393,-0.023472746419707317
489,0.9352332975548061,0.036277538288194036,1,,0.4995635979469787,-0.5339998419948976,0.5855257470842781,-0.006025775988939257,-0.010858067809038327,-0.028122077931480874
490,0.9358002418658111,0.033787874487820335,1,,0.5007198115694435,-0.5333129370474498,0.5855707258509816,-0.00992903911795054,-0.004553897941712402,-0.030006203756705624
491,0.9362284187944844,0.032751527436879396,1,,0.5004323821072081,-0.5333512588152535,0.5851021875520687,-0.009759311279752112,0.0008834558660522197,-0.03043658514583597
492,0.936508030914817,0.032906123084844204,1,,0.5000169185458463,-0.5332688044739008,0.5850248466265501,-0.0099774048826177,0.007588139925817866,-0.030142418914846383
493,0.9366495945943558,0.03388632861415774,1,,0.49880293677851506,-0.5324330982586031,0.5873873107244934,-0.012614248598542372,0.02219686095880872,-0.025329421448796127
494,0.936679448583234,0.03527758980549626,1,,0.4975889550111839,-0.5315973920433054,0.5897497748224367,-0.015251092314467042,0.03680558199179957,-0.02051642398274587
495,0.9366337682939124,0.03666984292372224,1,,0.4955079186098365,-0.5315036099142322,0.5908398871815911,-0.01607746754416018,0.04119136564997106,-0.015232930299869881
496,0.9365519952114227,0.03770410965971843,1,,0.49289758234704667,-0.5318627407858318,0.5911532830887181,-0.015798629006100805,0.03933648219935464,-0.00966221875020095
497,0.9364706203939541,0.038106556560377994,1,,0.4899395074299511,-0.5324476927925509,0.5917587775330903,-0.01530543828467043,0.03734079265141243,-0.004053162680014126
498,0.9364182153231856,0.03770725523520716,1,,0.48397585440535174,-0.534984464223204,0.5948889408858735,-0.012959556694225206,0.0341280864782389,0.0018873131215840374
499,0.9364124201398958,0.03644381860663485,1,,0.47801220145528434,-0.5375212356221531,0.598019104199537,-0.010613675133098159,0.030915380345216886,0.007827788848939775
500,0.9364592343722656,0.03435242524390496,1,,0.47737553840776115,-0.5385681252973439,0.5990192013762906,-0.009028550371325387,0.027421834038710565,0.012875974760573082
501,0.936554464595646,0.0315499522644212,1,,0.4804952098599259,-0.5385644227501758,0.5985172793831058,-0.007979874360857377,0.023730252915868073,0.01729496119711419
502,0.936686715053646,0.028211052701435795,1,,0.4833586893130123,-0.5384484536689669,0.5980408578162643,-0.006622814307773649,0.01980706904129233,0.02123144197191149
503,0.9368410277617117,0.024543465912308594,1,,0.4827770450788334,-0.5368227883556247,0.5979073514190875,-0.0011187817738466984,0.0127694236343403,0.018679462176146636
504,0.9370022904534385,0.020764157978747227,1,,0.48219540084465456,-0.5351971230422825,0.5977738450219107,0.0043852507600802525,0.0057317782273882695,0.016127482380381787
505,0.9371577982256065,0.017078345666771397,1,,0.4835708014432812,-0.53554625424006,0.5970831787562874,0.005867498513405254,0.000721754875539403,0.01374279802661196
506,0.9372986960617626,0.013662994637548123,1,,0.4865346904143154,-0.5374982824530754,0.5959402786171992,0.004085355815061543,-0.002642494112038427,0.011493903574592465
507,0.9374202542671298,0.010655782916814323,1,,0.4893072670882593,-0.5393217526639094,0.5948363230769501,0.002303213094445105,-0.005817676860139963,0.009262484047198769
508,0.9375210309469211,0.008149753570973459,1,,0.48676307435956245,-0.5375724611640501,0.5948146789746316,0.0005210703738286673,-0.0037385103514299173,0.007516711691582317
509,0.9376011328958354,0.0061931570937615275,1,,0.48421888163086557,-0.535823169664191,0.5947930348723129,-0.0012610723467877706,-0.0016593438427198724,0.005770939335965865
510,0.9376601101372471,0.004793516949845894,1,,0.4857274760414082,-0.5344225484967419,0.5938479222224943,-0.0003329488645473491,-0.0005494739351161406,0.003824406441997221
511,0.937695348622534,0.003924758427062585,1,,0.4910148875873322,-0.5333470274101614,0.5920417678620238,0.0031222257597677237,-0.0003433757973307525,0.0016906845009926617
512,0.9377018530666983,0.003536180905107829,1,,0.49630028703730844,-0.5322720277805509,0.5902363475591375,0.006575908610919186,-0.0001373291,-0.00044204645479400007
513,0.9376739056537914,0.0035620143075219286,1,,0.4935261596479886,-0.5332857438757267,0.5913712228263603,0.004054237322882652,-0.0001373291,0.0013946515670210794
514,0.937608409568662,0.003930325099893941,1,,0.4907520322933391,-0.5342994599582332,0.5925060980793999,0.0015325660663612674,-0.0001373291,0.0032313495658816147
515,0.9375090474027183,0.0045702367244285155,1,,0.4890225611482836,-0.5369080717903588,0.5943584068112049,0.0010779593939732642,0.00024329187392641355,0.004830891545925255
516,0.9373898691540019,0.005416786215044694,1,,0.4884112479134969,-0.5412237956931925,0.5969786273876173,0.002835855316304102,0.0010313141869504874,0.006176591263951394
517,0.9372766698635945,0.006413107035953249,1,,0.4877999346787103,-0.5455395195960261,0.5995988479640298,0.004593751238634939,0.001819336499974561,0.007522290981977534
518,0.9372047196549582,0.007509947465334984,1,,0.4851177393526881,-0.5409706723933368,0.5966112088137905,0.005953561935827733,0.0007398707071918967,0.006104810714806846
519,0.9372123262735413,0.008662909411370856,1,,0.4823621368519895,-0.5360868911507867,0.5934247861885008,0.0072992615874030685,-0.00040579249304782596,0.004589383183185848
520,0.9373312944620075,0.009828309568172659,1,,0.4813881056794432,-0.534409147566675,0.5903814203246514,0.007527523988894357,0.000381629107209922,0.0028047919857646566
521,0.9375769603701889,0.010959110810914949,1,,0.4826045747158785,-0.536673332127588,0.587513947427241,0.006381860748928612,0.003545841685497593,0.0006892552590409072
522,0.9379411929777255,0.012002683346366075,1,,0.4838210437371108,-0.538937516660204,0.5846464745656672,0.00523619752328105,0.00671005422423981,-0.0014262814412434486
523,0.9383910347451182,0.012901984560332527,1,,0.4866487422595698,-0.5411130498727141,0.5910757020922641,0.00015585386531058286,-0.002821711117821509,-0.0012837518288828307
524,0.9388737397597183,0.013600956722022947,1,,0.4895953297589423,-0.5432820417028793,0.5981909121009774,-0.005214820954940582,-0.013290283934522452,-0.0009746046122732431
525,0.939326697120767,0.01405354861050061,1,,0.49191131152414075,-0.5435753380572199,0.6001435399975057,-0.006564801650665131,-0.01959008473132347,-0.002838941290455378
526,0.9396891220516383,0.014234091767253524,1,,0.49333484773896275,-0.5412141135429018,0.5947899808665619,-0.002224617499477895,-0.019990157951802874,-0.007779234823457669
527,0.9399121828476593,0.01414554901010676,1,,0.4947583839537847,-0.5388528890285837,0.5894364217356178,0.00211556665170934,-0.020390231172282277,-0.01271952835645996
528,0.9399653887785192,0.013822231115686827,1,,0.49549344073184914,-0.5378658515091319,0.5877680625531949,0.0030636011661035675,-0.013157967082598806,-0.009907890128009285
529,0.9398388057665171,0.01332519033532731,1,,0.496149269581781,-0.5370369508613515,0.5865237839192806,0.0036212783941567133,-0.005047399143496713,-0.006204185464034598
530,0.9395420212834135,0.012731006306429204,1,,0.49474636856322873,-0.5368332913126876,0.5879918657648687,0.004280189479810479,0.0017218210777031964,-0.003262034952337605
531,0.9391012483610174,0.01211691004326364,1,,0.4899781724173393,-0.5376516798155744,0.5938936975943558,0.00510458210245887,0.006298412080582191,-0.0015647561757166
532,0.9385556609404218,0.011546141386320286,1,,0.48520997627144996,-0.538470068318461,0.599795529423843,0.0059289747251072625,0.010875003083461185,0.0001325226009044051
533,0.9379534396856533,0.011056895423070857,1,,0.4844308852534739,-0.5355818625100233,0.6000244637131186,0.004965696123365485,0.008635444320782514,0.0022009261284738654
534,0.9373475317187157,0.010656839914516264,1,,0.4842887260764819,-0.5321018327554143,0.5993476186463381,0.0037169838999179935,0.005307565576707172,0.00432858634727523
535,0.9367910180797073,0.010323847927493496,1,,0.48503068205631805,-0.5306167804411753,0.5986703472291478,0.0030246743619507166,0.0035526749143424373,0.0061466690869255896
536,0.9363321463359441,0.0100126455410743,1,,0.4874506247557584,-0.5329180512376728,0.597992266629669,0.003388376939347979,0.00478320203474198,0.007377196127873089
537,0.9360092613566193,0.009666340325178921,1,,0.48987056742495505,-0.5352193220054094,0.5973141860386647,0.0037520795121997875,0.006013729139762735,0.0086077231534418
538,0.9358459499819229,0.009231073736828008,1,,0.49179058209610255,-0.5340476696479627,0.5917688050557821,0.002444761430050171,0.005879338457432578,0.0084984230401819
539,0.9358468690822347,0.008671438759945723,1,,0.4936066247690867,-0.532153739803861,0.5852111524700205,0.0007899146095364743,0.005461080451713403,0.008110473804382786
540,0.9359950884536532,0.007984057126555377,1,,0.4941565404901377,-0.5317707209189095,0.5818352314840931,-0.0004789764856571503,0.0050484705825322935,0.008078356775648726
541,0.9362521218935413,0.007206883940744826,1,,0.49189607062917334,-0.5347414276369242,0.585521708625276,-0.0008911727572553242,0.004648397719587089,0.00883607026337707
542,0.9365616674742138,0.006422287940101947,1,,0.4896356007682091,-0.5377121343549389,0.589208185766459,-0.0013033690288534981,0.0042483248566418845,0.009593783751105414
543,0.9368572139623652,0.005752646998309145,1,,0.49117807369561983,-0.537277091696706,0.5923743617857082,-0.0013741226348535072,0.004386865774663222,0.008076816103670845
544,0.9370724214372589,0.005348123110971123,1,,0.49371113452755616,-0.5359549217989391,0.5954050101289498,-0.0013559374917183902,0.004665704437438231,0.005967341089038212
545,0.9371521790406255,0.005367472767960841,1,,0.4939756749637635,-0.5349542922403934,0.5973152250231123,-0.001138584142578337,0.0041294597163034205,0.00410389741829772
546,0.9370619628582499,0.005954095519174194,1,,0.48829265394968735,-0.5347966706755014,0.5962879099664011,-0.00039905555926783115,0.0014562456353787636,0.002885493726414158
547,0.9367936500990333,0.0072107392159038025,1,,0.4826096329356113,-0.5346390491106092,0.5952605949096901,0.0003404730240426747,-0.0012169684455458933,0.0016670900345305958
548,0.9363669807350464,0.009177005066480498,1,,0.48260144803538474,-0.5366518223390523,0.5948308743628612,0.004148216972060186,-0.00021476399926472468,0.0014744915220586848
549,0.93582685225874,0.011813744906412162,1,,0.4843964785506434,-0.539354252373527,0.5945910432878709,0.008930905946272537,0.0019553281557809373,0.0016078491562824268
550,0.9352371705646825,0.01499756434517939,1,,0.4857019305662851,-0.5404472531154645,0.5941464490607424,0.0127659638545073,0.002958091121653198,0.0022801994224018094
551,0.9346720987208582,0.018527195511352342,1,,0.48547076037296377,-0.5364887967435734,0.5930591721843569,0.013626726643525567,0.0002970004692445211,0.00464426623507305
552,0.9342056447575552,0.02214189464447686,1,,0.4852395901796425,-0.5325303403716823,0.5919718953079712,0.014487489432543835,-0.0023640901831641554,0.0070083330477442906
553,0.9339008868268549,0.02555049493501948,1,,0.4839337946055689,-0.5326710974399984,0.5902608929774971,0.019023514798128745,0.0014603181737604342,0.01118148966835817
554,0.933800583762702,0.028468239411225636,1,,0.4822191182758974,-0.534371550965395,0.5883125713381808,0.024957929004646984,0.00775237312423988,0.016042981086828483
555,0.9339210321856259,0.030656943176153643,1,,0.4810242778024792,-0.5363052923984276,0.5875489868872472,0.029763536013769323,0.011875963156636714,0.02024903608933696
556,0.9342505172578194,0.031962663672711666,1,,0.48181918308224386,-0.5391319765130858,0.5913201527057786,0.030248472757148325,0.00769944497260704,0.021946314889793577
557,0.9347526246594945,0.032344498215767806,1,,0.4826140883620085,-0.5419586606277438,0.5950913185243102,0.030733409500527324,0.003522926788577365,0.023643593690250195
558,0.9353734218721357,0.03188883237669291,1,,0.4828921475813566,-0.5420373405077886,0.5951149060428611,0.03053250366093943,0.0028550781076934297,0.024529571112568368
559,0.9360506174871097,0.030805260267126395,1,,0.482937890647683,-0.540880825189174,0.5934540017165918,0.03002331974272029,0.0037643346107756196,0.025050878220947356
560,0.9367226534939618,0.029403062191585325,1,,0.483121092300412,-0.5393867469805061,0.5928272478547078,0.028055180179917264,0.004643239791179486,0.024650133603857798
561,0.9373362119270031,0.028050179472476563,1,,0.48396297212827455,-0.5362751247200516,0.5971559670452641,0.01909597322030535,0.005376706660232001,0.019831073946837287
562,0.9378513653744831,0.02711981150901265,1,,0.4848048519561371,-0.5331635024595969,0.6014846862358204,0.010136766260693436,0.006110173529284517,0.015012014289816774
563,0.9382441386892625,0.026932624945091254,1,,0.4869877019149671,-0.5340200914702702,0.6003887510505789,0.009326053692048166,0.005035953940281485,0.011658968807422244
564,0.9385065001780568,0.027704302941792835,1,,0.4898755671782904,-0.5369629683206208,0.5964408027830139,0.012799413618041298,0.003011342847975545,0.009076680559545509
565,0.9386439727434669,0.029507982690347972,1,,0.4914092001507791,-0.5395458485601224,0.5931002763110882,0.016482165528133915,0.0021425757450272897,0.006698758905495383
566,0.9386713582228995,0.03225883229954364,1,,0.4844961151896592,-0.5398833312784764,0.5935484060462365,0.021470952628213844,0.008483124369844634,0.005595527705061592
567,0.9386075245517038,0.03572414222688881,1,,0.47758303022853915,-0.5402208139968306,0.5939965357813848,0.026459739728293775,0.014823672994661979,0.004492296504627801
568,0.9384706218662016,0.03955776224752256,1,,0.4779973043728034,-0.540338769583907,0.5940670008749216,0.03542697864489413,0.014073017401620298,-0.002539091104459442
569,0.9382751473937805,0.04335338810963951,1,,0.4828848044632919,-0.5403227076585098,0.5939069082414535,0.046822993731029404,0.008993304327886403,-0.013189515759041183
570,0.9380317459992609,0.046707821674813826,1,,0.48751599490796454,-0.5398947175076314,0.5939796025098991,0.05688839003327081,0.004528931713646529,-0.02284559045648255
571,0.9377496379259408,0.049283512998762005,1,,0.4899316152684242,-0.5359059723554602,0.596064533556382,0.05545176438974347,0.00538363286785885,-0.023906389657110404
572,0.9374405613654102,0.050859929007442066,1,,0.49234723562888383,-0.5319172272032892,0.5981494646028651,0.05401513874621612,0.006238334022071171,-0.024967188857738264
573,0.9371225619107075,0.051365664874995415,1,,0.4915529475707789,-0.529108412898787,0.6007070925646648,0.051181445343287425,0.00632162607867716,-0.023735090156712574
574,0.9368220200718409,0.05088710665367323,1,,0.4884950973137264,-0.5271316618546283,0.6035980567870511,0.04736256814157509,0.005860936112878074,-0.02088608644175824
575,0.9365728563732262,0.04965372773652933,1,,0.4856864301654243,-0.5252156125092388,0.6062619963196197,0.043862519469072866,0.0050604420697596755,-0.01788689771546386
576,0.9364126517157813,0.04800368401228259,1,,0.486229140934579,-0.5241159681668323,0.6058725766726069,0.0446505419155029,-0.0003102328025483439,-0.012867801947917165
577,0.9363762523037179,0.04633568995023957,1,,0.48677185171051635,-0.5230163238106827,0.6054831570207272,0.04543856437178141,-0.005680907741977575,-0.007848706117643194
578,0.9364881430519761,0.045054188804946674,1,,0.4882040246134842,-0.5199088231840461,0.6044417441914045,0.04336588345175216,-0.007043252275784663,-0.0008087158792889802
579,0.936755373074995,0.044514944469551426,1,,0.4903581819494158,-0.5151715275083957,0.6028711026178704,0.038971143792790965,-0.005151998857428488,0.007871652581989578
580,0.9371629975529496,0.044977830213498604,1,,0.4925648812980591,-0.5106552610653068,0.6014803870022312,0.03392874924867516,-0.003505747150331958,0.016561282285981516
581,0.9376736971585121,0.046572925336670866,1,,0.49623220160602755,-0.5122834095968262,0.6050914520886203,0.010882128165821275,-0.008670323884441562,0.02550836625406369
582,0.938232303521705,0.049284760179800186,1,,0.499899521913996,-0.5139115581283457,0.6087025171750092,-0.012164492917032614,-0.013834900618551168,0.03445545022214587
583,0.9387745166459821,0.05295718203077242,1,,0.5020637863494408,-0.5172026855719372,0.6082560771310037,-0.028711616078381384,-0.014178180228848553,0.04216035199151094
584,0.9392376804570244,0.057317746622481305,1,,0.5028265475244145,-0.5220444343971827,0.6040262734729978,-0.03919837419676039,-0.010025909140206974,0.048706998623017805
585,0.9395707706882115,0.06201656643533686,1,,0.5035878636048757,-0.5268857866279718,0.5997970170399425,-0.049683604224868234,-0.005871808995776979,0.05525181038308886
586,0.9397410902593776,0.0666716488341281,1,,0.4983257906065848,-0.5300740686286992,0.5978486832478455,-0.05379950534577005,0.005906093306129424,0.0541485794210112
587,0.9397363640373585,0.07091214508004956,1,,0.49306371760829376,-0.5332623506294267,0.5959003494557485,-0.05791540646667187,0.017683995608035828,0.05304534845893354
588,0.9395624577320341,0.07441276570275811,1,,0.48754369363440575,-0.5358559074881802,0.5948055839863309,-0.05774208847098658,0.024680809405837483,0.04915485705862806
589,0.9392382777700728,0.07691607853751635,1,,0.48174755858906576,-0.5378128697545311,0.5946244791983167,-0.05297758456009615,0.02655993963403381,0.04228087833390199
590,0.9387901465172402,0.07824325019723435,1,,0.47595142354372566,-0.5397698320208819,0.5944433744103026,-0.04821308064920573,0.028439069862230135,0.03540689960917592
591,0.9382478935575962,0.07829677057685654,1,,0.47117668017000663,-0.5443199860903201,0.59628654025178,-0.05603496732722989,0.012269901071972438,0.0329059590448242
592,0.937644072291343,0.0770597934723253,1,,0.4664381530125847,-0.5489620890352228,0.5982014822536068,-0.06430313953677327,-0.004539220488723918,0.03056007665985853
593,0.9370163259499686,0.07459552357783994,1,,0.46883902996263294,-0.5531692042601953,0.5959750599782181,-0.06949910594694836,-0.016783534118303384,0.028309351508747888
594,0.9364114066031857,0.07104718655026715,1,,0.4800183850255306,-0.5568414666989571,0.58865649344014,-0.07091754541482516,-0.023415045067230286,0.026175629917332324
595,0.9358882210516816,0.06663602746444265,1,,0.49119774008842837,-0.5605137291377188,0.581337926902062,-0.07233598488270196,-0.03004655601615719,0.024041908325916756
596,0.9355170206437117,0.06165310097445955,1,,0.4907111731831179,-0.5526305854083551,0.5826125167794403,-0.06661336548552635,-0.019821777737784634,0.009342178641581883
597,0.9353727374363427,0.056441237250373893,1,,0.4893636728390688,-0.5438946641963835,0.5845212730538285,-0.06036374304635547,-0.008353022079108891,-0.006284909942301424
598,0.935522366434127,0.051366300188746834,1,,0.48597851930863956,-0.5376754780383248,0.5878155947767747,-0.04933307007728591,0.002839662269474761,-0.01415188932343343
599,0.9360085805273071,0.046780588438882935,1,,0.47970952369789827,-0.5350181672606474,0.5930708743050094,-0.031535890069755795,0.013641629314817211,-0.011036170498149074
600,0.9368335672661188,0.04298449224536974,1,,0.473440528008809,-0.5323608564497596,0.5983261538989231,-0.013738709839801442,0.024443596495159665,-0.007920451633925326
601,0.937947746620513,0.04019407348131925,1,,0.4695994754829224,-0.5333676388049615,0.600773216684279,-0.007808488509818054,0.026145568024716483,0.003795143209985425
602,0.9392474020123325,0.0385214394834646,1,,0.46603785195910097,-0.5347961171505768,0.6028970852399305,-0.0032440209310851775,0.026800232211154906,0.01650048723720003
603,0.9405835204465087,0.03797177379631428,1,,0.4681011709273276,-0.5393080378474263,0.6031164161800623,-0.0014611106265386006,0.02075983328298659,0.029102299130525547
604,0.9417816186321367,0.03845661732325601,1,,0.47935966084682174,-0.5488605042170641,0.6002223732532473,-0.004225250302155046,0.0037749224855207846,0.041534865618870376
605,0.9426694961507049,0.03981885901314077,1,,0.49061815076631576,-0.5584129705867019,0.5973283303264323,-0.006989389977771491,-0.013209988311945023,0.0539674321072152
606,0.9431074383997615,0.04186218580180291,1,,0.49214385370405245,-0.5601632241633078,0.5923491452953737,-0.014672183409178422,-0.012166804811370687,0.05292466540382002
607,0.9430143006078922,0.044377318343099645,1,,0.4921154161977119,-0.5606676131646587,0.5870370029072384,-0.02314039192449808,-0.00824487855601369,0.04973014504896105
608,0.9423837083898445,0.04715948623355309,1,,0.49025479998179017,-0.5609277829671185,0.5833501420379786,-0.0237961741650652,-0.002074395800390734,0.04475769595626791
609,0.9412870267692041,0.05001568357386842,1,,0.48491669108596575,-0.560724422386827,0.5827480811323258,-0.009623896558649649,0.008363868564198325,0.03641072122301451
610,0.9398627919288255,0.052764799119891986,1,,0.47957858219014127,-0.5605210618065354,0.5821460202266728,0.0045483810477659,0.018802132928787383,0.02806374648976111
611,0.938294980644609,0.05523682442087343,1,,0.473280853561459,-0.555977075030868,0.5865329086430482,0.022614652521819403,0.024434366997636237,0.016803159205375142
612,0.9367843100167984,0.05727750732758997,1,,0.46678353542755263,-0.5505302895683523,0.5919574392552612,0.041490828464044914,0.02906700385524163,0.004936575120815546
613,0.9355176400028766,0.05876174561148,1,,0.4626106501539025,-0.5452769072515354,0.5959934716845906,0.0573808793190294,0.029257745578432054,-0.005618852833534978
614,0.9346405798681762,0.05961398285833733,1,,0.4635780114807032,-0.5404512163607514,0.5969589817378302,0.06666741845443004,0.019625688575740076,-0.013274792403229868
615,0.9342376768214201,0.05982919373313732,1,,0.4645453728195936,-0.5356255254096574,0.5979244918031367,0.07595395770589126,0.009993631452669306,-0.02093073206860658
616,0.9343231858241147,0.059485855171080224,1,,0.4695796839678723,-0.5358735955433498,0.5985355837876558,0.07063030591001085,-0.002281257577272142,-0.021741303478404996
617,0.9348435190158819,0.05874350603528405,1,,0.4756681865589064,-0.5374368320225478,0.5990548072895441,0.061519555895319065,-0.01524119336496621,-0.020777491388096803
618,0.9356903150974025,0.05782159516831642,1,,0.48184158516558234,-0.5395941723514922,0.5980327109458048,0.0523433432042397,-0.02447982287166685,-0.01805961310362624
619,0.936721102372555,0.056961820248813286,1,,0.4882366740556585,-0.5433029052849526,0.5929857421648298,0.04299618681019857,-0.024000947524737665,-0.010761314539744937
620,0.9377832736293518,0.05638127128301071,1,,0.49463176294573463,-0.547011638218413,0.5879387733838549,0.03364903041615743,-0.023522072177808478,-0.0034630159758636332
621,0.9387368760327138,0.05622691572391199,1,,0.4944444829563137,-0.5475160495360956,0.5869958141534153,0.034672047774697165,-0.014155792167718402,0.004005663072307254
622,0.9394725173726021,0.056542403427198844,1,,0.49217474865394184,-0.5470067143530863,0.587351234371551,0.03897586166600062,-0.001977817194789785,0.011528245049171089
623,0.9399221732371029,0.05725561971463198,1,,0.4893095140171355,-0.5453825152856041,0.5893002844461769,0.04401001907038615,0.00914505426103464,0.018319014251423047
624,0.9400623807352353,0.05819045566649239,1,,0.4845833380419111,-0.5402743612035922,0.5962294355209108,0.05132650331960259,0.016970721644061847,0.022822864697567717
625,0.9399107743064488,0.05910026625039141,1,,0.4798571620666866,-0.5351662071215801,0.6031585865956447,0.05864298756881903,0.024796389027089052,0.027326715143712387
626,0.9395178622798218,0.05971521973458284,1,,0.4775027004403164,-0.5323235004651726,0.60610951373804,0.059862434676935236,0.02553595493817476,0.03207673306163596
627,0.9389562777335735,0.0597927318327194,1,,0.47604703227348405,-0.5303393159701897,0.6075528387306698,0.0587713265077572,0.023590146170948716,0.036920039496236394
628,0.9383095436593871,0.059160159768412365,1,,0.4751949514821372,-0.5297458581115561,0.6084027241631966,0.05606050762580588,0.019922527924402737,0.04049152613051447
629,0.9376618185130807,0.05774165870609447,1,,0.47664197497100813,-0.5344497700987904,0.6069921590162436,0.04718010338853409,0.009696423360213228,0.03921856693085695
630,0.9370893237492425,0.05556556751508079,1,,0.4780889984417945,-0.5391536820272365,0.6055815938869196,0.038299699262247126,-0.0005296810761732514,0.03794560774710853
631,0.9366534730855363,0.05275353868631998,1,,0.47612522870508306,-0.5403985525850942,0.6029862868770377,0.026995127588478048,-0.010102642361848047,0.03536636199042158
632,0.9363954510050901,0.04949653253511264,1,,0.4726340751052623,-0.540094433300522,0.5998604418123082,0.014604991947884517,-0.019383120216859465,0.03220214937240788
633,0.9363322874329837,0.04602479983751822,1,,0.46984347989325115,-0.5396810598876024,0.5973964525037085,0.0029382518357188863,-0.02668372377236979,0.029324981775598957
634,0.9364551024811258,0.04257879750770566,1,,0.47039112469812805,-0.5387470781862013,0.5980862807911387,-0.005281426699486609,-0.024550002180954225,0.02781561619659208
635,0.9367305815081133,0.0393860788516614,1,,0.4709387695030049,-0.5378130964848002,0.5987761090785688,-0.013501105234692104,-0.022416280589538658,0.026306250617585205
636,0.9371064178908474,0.036646478656393686,1,,0.4747468141549762,-0.5404514186760955,0.5988339763279867,-0.020471758775019007,-0.02159920635064103,0.02136803200407975
637,0.9375204146966571,0.0345252692957441,1,,0.48026294906544703,-0.5449612344964497,0.5985607656189217,-0.026788060741947152,-0.0214719102733621,0.014633472235289813
638,0.9379116070194873,0.033151994455531575,1,,0.4847624231604646,-0.5486945765312082,0.5980441921375625,-0.03226952625861316,-0.021039658821005575,0.008468387082878732
639,0.9382308107560878,0.03262169084133046,1,,0.4829630662552983,-0.547617192018263,0.5960198386516397,-0.032578672970702265,-0.018718023809510157,0.005831543208049973
640,0.9384479802969945,0.03299529421231343,1,,0.48116370935013203,-0.5465398075053179,0.5939954851657169,-0.03288781968279137,-0.016396388798014735,0.003194699333221213
641,0.9385547891416102,0.03429711277799615,1,,0.4790169405545977,-0.5445201048537626,0.5939756755443433,-0.03316304808423452,-0.011670285701664302,0.003369349604794623
642,0.9385624687034774,0.0365089879188623,1,,0.476658802846562,-0.5419270863033838,0.5951754507111071,-0.0334176402419742,-0.005481279871324119,0.005254541388344852
643,0.9384963775136358,0.03956256852449159,1,,0.47490197713356197,-0.5397098388078763,0.5962614869376888,-0.03412953967619102,0.0001908800316843651,0.007125798598568021
644,0.9383894379911606,0.043332399498532626,1,,0.4782985577944475,-0.5407130508496527,0.5963727496953688,-0.03876068611176179,0.0014335305980793381,0.008877632747894507
645,0.9382763346895849,0.04763288548559171,1,,0.48169513841288353,-0.5417162628788913,0.5964840124516582,-0.04339183248945377,0.0026761811489440074,0.010629466875327055
646,0.9381894830140332,0.052221614149068805,1,,0.4833548121996304,-0.5425194688321038,0.5961320984569672,-0.04763496786621584,0.0023454309162006318,0.013919104509133558
647,0.9381567449850322,0.05681031275829145,1,,0.4837936896177853,-0.5431820991964631,0.595454637649301,-0.05160538712985749,0.0009088056302074856,0.018289597390514833
648,0.9382001741250441,0.061083289062303925,1,,0.4839114819284047,-0.5437601741948984,0.5949327423467303,-0.05549178306807977,-0.00015141144906121812,0.02277212157129775
649,0.938334950949295,0.06472188120243438,1,,0.47976387554534733,-0.5432149882918105,0.5964774296624223,-0.05826198590337952,0.0037887001557851737,0.02874290586413191
650,0.9385680357229831,0.06743235844849733,1,,0.47561626916228994,-0.5426698023887224,0.5980221169781144,-0.06103218873867928,0.007728811760631565,0.03471369015696608
651,0.9388966270369367,0.06897397505233516,1,,0.4736109766261393,-0.5440315197816872,0.5984994081313502,-0.06095094296319628,0.010358798727904477,0.03838924365079771
652,0.9393069561677235,0.06918362217091113,1,,0.47333900144635804,-0.5469360870165358,0.5981130833876065,-0.0585626284195206,0.011928781449491256,0.040207756736414135
653,0.9397740628269342,0.06799386389860175,1,,0.4731132694239003,-0.5498339781340507,0.5976432528807735,-0.05603068705992405,0.013387006512915304,0.041969206648191267
654,0.9402629873872803,0.065442044733995,1,,0.474143059596935,-0.5525506107181659,0.5949062036251843,-0.04959921291986696,0.011810961997618491,0.04218136664722093
655,0.9407314570102133,0.061669385820094756,1,,0.4751728497699696,-0.555267243302281,0.592169154369595,-0.04316773877980987,0.010234917482321679,0.04239352664625059
656,0.9411338389061763,0.05691022409363448,1,,0.47523450869232264,-0.5583138576453086,0.5896749420433249,-0.036921623251868235,0.010148026121035261,0.0420464684744978
657,0.9414259617456748,0.05147252129077448,1,,0.47439633546255516,-0.5616671744071181,0.587406435143431,-0.030847789776320304,0.011445232098272697,0.041179643494509276
658,0.9415703213859157,0.045711371379991955,1,,0.4735563037853414,-0.5650204133860527,0.5851402173973813,-0.024772600921497342,0.012741927444111942,0.04030827326577454
659,0.9415411152472681,0.039997582164150246,1,,0.47093113707924467,-0.568298937884881,0.5850728504833707,-0.01739550007226217,0.013548134884260342,0.03507095619892519
660,0.9413284595371864,0.034683761306896356,1,,0.46830597040595656,-0.5715774623427351,0.5850054835702019,-0.01001839931522396,0.014354342314332982,0.029833639197530376
661,0.9409410664436176,0.030070872469641657,1,,0.4664424764810061,-0.5726896911625207,0.5856531278123812,-0.0027791327499730803,0.012864288929497533,0.02387195868016465
662,0.9404066759306782,0.02637883182060873,1,,0.46539167009931914,-0.5714905317366425,0.5870636727046997,0.004313067767492686,0.008924177442625393,0.017137398827208047
663,0.9397697396073142,0.023725020165978116,1,,0.46434086371763217,-0.5702913723107644,0.5884742175970182,0.011405268284958452,0.004984065955753251,0.010402838974251441
664,0.9390862850347997,0.022114178716640613,1,,0.46526582466596844,-0.5657166213240573,0.5882059389623085,0.01510511622342537,-0.00022158620259203697,0.006123194241099685
665,0.9384165020308192,0.02144182111681212,1,,0.46625914839523136,-0.56102507276566,0.5878795719873124,0.01868758664852813,-0.005471026856861462,0.001928491101008343
666,0.937816240428334,0.02151118546182406,1,,0.46755047479220063,-0.5572689276886023,0.5877276200719161,0.021602771178638312,-0.0073568017125362735,-0.001021519492350393
667,0.9373290629896243,0.02206140575312595,1,,0.4692070365248548,-0.5546592233704055,0.5877894331651746,0.02370012280231411,-0.005120030899282829,-0.002446021258457708
668,0.9369805359619987,0.02280268889048005,1,,0.4708635982368058,-0.5520495190848242,0.5878512462576605,0.02579747439977779,-0.0028832601139839285,-0.003870523006761993
669,0.9367759738647589,0.02345331542667242,1,,0.4722747355718845,-0.5527796556901141,0.5896247548208896,0.026923033361425923,0.0012405963784793616,-0.0018259514558849874
670,0.9367019923473477,0.02377331354768853,1,,0.4736679870573532,-0.5537531906415694,0.591523007003972,0.027977770768343745,0.005501978442942834,0.0004714365396743822
671,0.9367312391616892,0.0235904710629179,1,,0.47369120332941445,-0.5540631236614152,0.5926930354894564,0.027111363467885022,0.007947828336301484,0.0031082938761985163
672,0.9368289248021774,0.022815683486442338,1,,0.47178182325019347,-0.5534369678426814,0.5928358185091878,0.0235349548364923,0.007832655844851712,0.006224012780148288
673,0.9369595415622239,0.021446285175324452,1,,0.46987244317097243,-0.5528108120239476,0.5929786015289192,0.019958546205099573,0.007717483353401941,0.00933973168409806
674,0.937092464860153,0.019557782191665173,1,,0.46938950793705425,-0.5533342397647386,0.5931263768729007,0.015185133231076182,0.005485789783665188,0.010513039086453036
675,0.937205715051055,0.01728604893422295,1,,0.46906932267647683,-0.5539888290392415,0.5932747218152382,0.010275148257446036,0.0030126121143501227,0.011464727390711046
676,0.9372876957442013,0.01480329872832985,1,,0.46909825861375093,-0.55467657088026,0.5927969936428842,0.006273553498487515,0.001005157372625725,0.010947774778421187
677,0.9373370603945651,0.012291809651985054,1,,0.4696959728867321,-0.5554183239631659,0.5912992849271499,0.0037518821325638993,-0.00024355487562043474,0.008038154101459782
678,0.9373610332512008,0.009919431343395142,1,,0.47029368715971326,-0.5561600770460717,0.5898015762114156,0.0012302107666402838,-0.0014922671238665945,0.0051285334244983785
679,0.937372616470773,0.007820364747971546,1,,0.47059106234667136,-0.5560178018012607,0.5895901509042157,-0.00032355909157122186,-0.001720758905190889,0.002208448887368829
680,0.9373871879606689,0.006083673836032226,1,,0.4708408019888095,-0.5557353144662265,0.5895827377080257,-0.0017238140800986195,-0.0017874377223027601,-0.0007132952795033193
681,0.9374190203823908,0.0047505481012405605,1,,0.4709778674188585,-0.5552116774167384,0.5900358204579214,-0.002585260706490759,-0.002336318593797468,-0.00298511496099483
682,0.9374782187687273,0.0038196645901050798,1,,0.47090183152132503,-0.5542319526490109,0.5913598416030148,-0.0024276562549610777,-0.003797190736822576,-0.00402772905857474
683,0.9375684943078474,0.00325843496934663,1,,0.4708257956237916,-0.5532522278812834,0.5926838627481081,-0.0022700518034313964,-0.0052580628798476825,-0.00507034315615465
684,0.9376860913414362,0.003016894841758448,1,,0.4702657450998593,-0.5525670124353024,0.5928749169217461,-0.0026197573468941617,-0.0051166389957784586,-0.004219334822462899
685,0.93782008266851,0.0030408125613105626,1,,0.4696055898518236,-0.5519427078901527,0.5928316489717431,-0.003074385598435257,-0.004643825561737371,-0.0029766843132733975
686,0.9379541291425063,0.003281284980546484,1,,0.4695882891673343,-0.5522343761475182,0.5926303613776986,-0.003128863430826239,-0.003984149447540202,-0.001983184056661937
687,0.9380696034956157,0.003699374655768493,1,,0.470992660447088,-0.5545517169709476,0.5920796135628319,-0.002298409173371901,-0.002911226778670341,-0.0015406792336368227
688,0.9381496551182212,0.004265808947167385,1,,0.47239703172684183,-0.5568690577943771,0.5915288657479651,-0.0014679549159175628,-0.00183830410980048,-0.0010981744106117082
689,0.9381833986571516,0.00495701260183831,1,,0.47296985981801626,-0.557808512213723,0.5910394790029477,0.000392661711407417,-0.0008616583186257209,-0.001681018048268122
690,0.9381691340010901,0.005749502239778507,1,,0.4733271313141782,-0.5583907843415682,0.5905659985673859,0.002520321946099191,9.003012070076567e-05,-0.002529657408770409
691,0.9381155558515865,0.006614802056540766,1,,0.47316391743443914,-0.5585283918749852,0.59000779336077,0.004132690813466616,0.001281740243600014,-0.00226882589513334
692,0.9380403582020261,0.007516593313985955,1,,0.47164148594170113,-0.557504783416369,0.589228334265198,0.0043994060024620555,0.003100253233873985,0.000889324968896341
693,0.9379663670813081,0.008410997671965766,1,,0.4701190544489632,-0.5564811749577528,0.588448875169626,0.004666121191457495,0.004918766224147956,0.0040474758329260225
694,0.9379161023130175,0.009249979275856584,1,,0.46970947698287774,-0.5557576135252869,0.5883399559231257,0.004495379098395902,0.006157072547553343,0.006556347788584353
695,0.9379062012816736,0.009987040338099976,1,,0.4696519902795268,-0.5551289825902296,0.5884431856928031,0.00418623190959453,0.0072118099544711675,0.008859797379223646
696,0.9379432310826934,0.010583834285082477,1,,0.46954235925193794,-0.5551962171711278,0.588768780072282,0.004281182014032851,0.00758619448449456,0.010180188503754867
697,0.9380220283641578,0.011016160908604772,1,,0.46926976833127093,-0.5574381499906903,0.5897893017246157,0.005639004974946102,0.005834360414620118,0.00842835451333247
698,0.938126974777315,0.011278087367949757,1,,0.468997177410604,-0.5596800828102526,0.5908098233769494,0.0069968279358593516,0.004082526344745676,0.006676520522910071
699,0.938235792870771,0.011383524612766607,1,,0.46867213821160514,-0.5604934594202894,0.590841065961144,0.00893049877280469,0.0006119401659946035,0.004212569188405023
700,0.9383248110650426,0.011365185466617111,1,,0.4683272220424266,-0.5607654386509976,0.5904973893755907,0.01108240574535036,-0.0035100225499871364,0.001478738004626485
701,0.9383743895200751,0.011271188399738315,1,,0.46835387936634704,-0.5605769037769806,0.5902511363301302,0.012578896354020526,-0.006389214975639335,-0.0007484058935353636
702,0.9383733319004169,0.01115962587261598,1,,0.46979596882627833,-0.5586341359584164,0.5903759980493455,0.01157871429597257,-0.00453433180310508,-0.0010454296935467774
703,0.9383214768341186,0.011091426721639973,1,,0.47123805828620974,-0.5566913681398523,0.5905008597685608,0.010578532237924616,-0.002679448630570825,-0.001342453493558191
704,0.9382300753577282,0.011122057836235762,1,,0.4730216828085059,-0.5555055581414848,0.5908472980386575,0.010110068233758497,-0.0007785110463148183,-0.0018530018602001036
705,0.9381199025245126,0.011293024394979386,1,,0.47495825679833004,-0.5546587361660116,0.5912929648191136,0.009879723246284442,0.001143051060944411,-0.0024591728213250556
706,0.9380173183465992,0.011624499115114541,1,,0.476446364935443,-0.5536011336859937,0.5914883981194022,0.009683022654436458,0.0026503663374675586,-0.0025617289984494578
707,0.9379487626209418,0.012110518271288808,1,,0.4757973375916573,-0.5515390701475182,0.5904913597026512,0.009646652289891018,0.002183614702969838,-0.0002643409918761869
708,0.9379345168565564,0.012717977450893004,1,,0.4751483102397603,-0.5494770065832716,0.5894943212734396,0.009610281924891032,0.001716863062638785,0.002033047043409205
709,0.9379829516660414,0.013390194960575308,1,,0.47363247561314087,-0.5501853008884888,0.5895815023525993,0.010118860595509345,0.001993946633333333,0.004362256825050258
710,0.9380866957579611,0.014055128876372305,1,,0.4716625098715059,-0.5523450201470261,0.5902367195207687,0.010912944845497896,0.002660734725,0.006708138415495483
711,0.9382219869804544,0.014637484625488998,1,,0.4698180415667731,-0.5543858598073509,0.5908510486236637,0.012038918587216858,0.0031531544502729296,0.008706968059088379
712,0.938351852590834,0.015073066394553193,1,,0.468751169209081,-0.5556901083783441,0.5912120307688473,0.015221316189100434,0.0025651685645080922,0.008555425599898843
713,0.9384328909326324,0.015323035074313311,1,,0.46768429685138885,-0.5569943569493374,0.591573012914031,0.01840371379098401,0.0019771826787432552,0.008403883140709308
714,0.9384245324089167,0.015385489974418982,1,,0.4678844573040066,-0.5567617779342336,0.5945449343905304,0.01708628377711415,0.0009595650315206325,0.008406857043097547
715,0.9382989181578807,0.015302164410825483,1,,0.468855525240992,-0.5555941387704071,0.5991054435662206,0.013030999798792237,-0.00031945576321681024,0.008503844153417215
716,0.9380490814621337,0.015158983114139301,1,,0.47005760256472495,-0.5542517425935135,0.6028036570296317,0.0085431510144179,-0.0010607788583911898,0.00883769694692879
717,0.937693127679997,0.015080434743323554,1,,0.473239698800107,-0.5514114757210276,0.5991109941231033,0.00034771913761425443,0.0028065922162891564,0.011201763918504118
718,0.9372727713700385,0.015218629413262517,1,,0.4764217950354891,-0.5485712088485416,0.595418331216575,-0.007847712739189392,0.006673963290969503,0.013565830890079447
719,0.9368459068295184,0.01573817264400066,1,,0.4749652993594741,-0.5487201241286582,0.5918214959861252,-0.013537135917348791,0.008120757722350066,0.0144027987671772
720,0.936474534429412,0.016797756050404795,1,,0.47024840820251707,-0.5509700899362233,0.5882920165670948,-0.017465123816800862,0.007866165763240496,0.014166391990567623
