id,ASVM,GSVM,walking_nonwalking,normal_abnormal,ax,ay,az,gx,gy,gz
1,1.0405947533507827,4.17418410673618,1,,-0.8389095154818413,-0.2425144570266095,-0.5673324325840119,-0.08948222,4.1800976,0.011717909
2,1.0241673823990858,4.363414066655301,1,,-0.6998861785539192,-0.2824441380998287,-0.4933164691449363,-0.08948222,4.1800976,0.011717909
3,1.018035330202875,4.576472142442406,1,,-0.8125541509409621,-0.03842992518049298,-0.500171630238231,-0.08948222,4.1800976,0.011717909
4,1.0309695628251356,4.829671236847361,1,,-0.8246386625685642,0.24118864402618057,-0.7400233433656374,-0.08948222,4.1800976,0.011717909
5,1.0687194617319502,5.12744589077707,1,,-0.21929767128415653,0.23974125493149934,-0.8177362282614505,-0.08948222,4.1800976,0.011717909
6,1.1329780718048112,5.4589508623106955,1,,0.20987464397176425,0.03468163182445661,-0.7097713578056463,-0.08948222,4.1800976,0.011717909
7,1.2209071432979604,5.7974003281219275,1,,-0.46141069331477175,0.09136391974123705,-0.11144532854075168,-0.2362428334429517,3.8356595432219076,-0.40859651726897944
8,1.3253425717004617,6.102589314638328,1,,-1.0175234159535667,0.3610226323655656,0.7995140480771654,-0.24607609,3.8125815,-0.43675843
9,1.4357089767076734,6.326578102954347,1,,-1.028305686885578,0.2630992219717624,1.3289632979879582,-0.512683140294779,-1.143291717520557,-1.9619520807849364
10,1.5395403356795048,6.4218836620608455,1,,-0.4954548205215257,-0.6159122094618982,0.006229181073557777,1.3101619766219441,-10.511606499557002,-1.5478272231694026
11,1.6243721180931199,6.350753983939107,1,,-0.5315253837178833,-1.8681782446245574,-1.2458300033774803,1.4306501,-11.106447,-1.514806
12,1.6796793032978021,6.093453413923216,1,,-1.702585327625077,-1.6842402707166648,-1.497452399055904,1.4306501,-11.106447,-1.514806
13,1.6985028759548428,5.653399160872696,1,,-1.5106317728631913,-0.5675569982856322,0.24956514730373863,2.172145220764406,-5.587421797921668,-3.6132269035824955
14,1.6784538718259898,5.057739014672479,1,,-1.7473834473675598,-0.03486862679914396,0.2794847974889896,-0.7436392946111943,1.2365806699841366,-2.6066760847169954
15,1.6219181106467784,4.3533036069260165,1,,-2.335334314797985,-0.3572774986316864,0.15571059825503156,-1.128115,2.0676782,-2.4564998
16,1.535466856255535,3.5991544093966894,1,,-0.8424437918992076,-0.4721151691667313,-0.12168627193223606,-0.7382721679820926,-0.44055591575123,0.7385565639476828
17,1.428643579268985,2.8576338123780203,1,,-0.33056604551069124,-1.0060114611024322,-0.10020509423829284,-0.6764429,-0.8383631,1.2452941
18,1.3124063267189512,2.185800998855389,1,,-0.7387268028973752,-0.727182372897811,-0.21643772670645897,-0.6764429,-0.8383631,1.2452941
19,1.1975427056937495,1.6286542722207569,1,,-0.7975973691587677,-0.5597248209973209,-0.12559307711076687,0.19991807220803184,-0.4445959136009942,0.9229544488588627
20,1.0933326745487988,1.2149156302254107,1,,-0.7842174897901998,-0.4544571046454267,-0.0881348920901115,-0.08838763434689541,0.08554309318758102,0.46157598788078336
21,1.0066340565051293,0.9555962779655819,1,,-0.9451496041627139,-0.24214832076707057,-0.05480848451159859,-0.16405073,0.16724652,0.3898868
22,0.9414513213687533,0.8451385097021936,1,,-0.9356921429885204,-0.21524381619054075,0.1762561364631734,-0.22457694080738905,-0.5988424062432708,0.9536452146334422
23,0.8989535919721022,0.8646170682139288,1,,-0.8980503734572155,-0.3127387746354092,0.04174391167999614,-0.23861924,-0.7765778,1.0844392
24,0.87784544484187,0.986260618182893,1,,-0.891900592881287,-0.3592706148183718,-0.025865933184836407,-0.23861924,-0.7765778,1.0844392
25,0.8749650914728476,1.1784421504359421,1,,-0.8809491917707624,-0.36009368630861416,0.02667670308862888,0.2954479340178304,-1.607161716220757,1.138351323443904
26,0.8859839975359357,1.4103093106903168,1,,-0.8747360170245387,-0.3872449636660494,0.03340523711475489,0.5701536858558356,-2.0912178297776247,1.1442789312387347
27,0.9061006604279448,1.6553718959186763,1,,-0.9015395113837082,-0.3452458744526464,0.042212682666569634,0.60720074,-2.1646173,1.1419635
28,0.9306497030606031,1.8936074264189442,1,,-0.9061138283407388,-0.29078081323865074,0.06868596461449065,0.3404656623576283,-1.9404289669539736,1.055233713651487
29,0.9555782442567573,2.111958742144198,1,,-0.7749899955915186,-0.26916703931356883,-0.09776292279873422,0.25992453,-1.8727349,1.0290455
30,0.977768244283126,2.3034316328320315,1,,-0.9897822007947484,-0.1592195419134574,0.49534063259477246,-0.08544407690026622,-1.2510714799611238,0.8113829141687247
31,0.9952010846036716,2.465277080522665,1,,-0.988702553741823,-0.11316395665553569,0.48763849107039803,-0.19813919,-1.0482203,0.74035877
32,1.0069698830776719,2.596880020308425,1,,-0.9288760795640829,-0.21069155862690087,0.22096960419593567,0.3278816059147833,-1.982143298758641,0.9844701677849939
33,1.0131544404475457,2.6979315522120046,1,,-0.9330110262123286,-0.2043513281337171,0.24347056646828003,0.5134575,-2.3116238,1.0705907
34,1.014589558820718,2.767263176942319,1,,-0.8354473230751238,-0.15107097826637625,0.4576027133125217,0.5642830744606325,-2.457939926552069,1.048258283475103
35,1.012574194638895,2.80246647395442,1,,-0.7707404110334934,-0.09699366537081697,0.5541450884473701,0.5837649,-2.514024,1.0396981
36,1.0085754784003103,2.800212513374719,1,,-0.801331177407859,-0.08447453623543771,0.5211689043465153,0.5837649,-2.514024,1.0396981
37,1.0039741808080835,2.7570649152590154,1,,-0.8428499037148253,-0.11672883298054179,0.5005245274710483,0.7395232572175856,-2.776153979131187,0.9386451198080922
38,0.9998814112670347,2.670532148624122,1,,-0.8785156080036808,-0.12352183994861879,0.4959278283591922,0.7871482189572029,-2.663349940485676,0.8650269383585825
39,0.9970372579446632,2.5401018086740614,1,,-0.65730497185442,0.02019322809806235,0.72544677397719,0.78083885,-2.5715485,0.8511463
40,0.9957863547969431,2.3680333838146774,1,,-0.5454903481809976,0.08779143990888437,0.8300927306964169,0.5652393492974949,-2.209282494100226,0.7323465350833219
41,0.996115655584624,2.159752741781645,1,,-0.6700267744144464,0.005178117088105865,0.75130505582268,0.4676511,-2.0453076,0.6785734
42,0.9977352520423803,1.9237751913952916,1,,-0.6895970768881888,-0.0057868193510632404,0.7469480694212143,0.5779241932495153,-1.8942192514982898,0.4258045650250358
43,1.0001818213508227,1.6711611676263578,1,,-0.6295423524939752,0.0393275512954924,0.7908130350319956,0.6317018,-1.820537,0.30253512
44,1.0029253370393143,1.414567951015488,1,,-0.6061348631959349,0.05927598568049336,0.8144908023724426,0.39690687198898683,-1.265694171873482,0.21798097877407163
45,1.0054630649503198,1.1670090604328982,1,,-0.5990655119442282,0.06138595523389546,0.8204083655763384,0.27377295,-0.97471696,0.1736381
46,1.0073900554590671,0.9404777617727694,1,,-0.6013198941894353,0.05268520993253265,0.8122219656701806,0.27377295,-0.97471696,0.1736381
47,1.0084411454553408,0.7446255930512625,1,,-0.6085528708265535,0.041664181323370963,0.8005805569650615,0.13170986978620647,-0.4944084256063466,0.08637077811787175
48,1.008504799874747,0.5856976982648663,1,,-0.6125774858772455,0.036875769204395815,0.7957414202478061,-0.00795404206670246,0.030379513772301543,0.0008725793493510516
49,1.0076131475907073,0.46590709612828557,1,,-0.6171178154150099,0.03554064588344457,0.7926242976247797,-0.04261058,0.17896444,-0.020240024
50,1.0059148051732494,0.38337414693631083,1,,-0.6236804947295278,0.03412348200368601,0.7853699851034345,-0.07776576182475514,0.31047085003536273,-0.017635936321617456
51,1.003637593980695,0.33266196391533454,1,,-0.6316023368391781,0.03124397101554033,0.7752646120753642,-0.10013486,0.39414784,-0.015978966
52,1.001047630662014,0.30582104810597116,1,,-0.640231509518913,0.029066301618556795,0.7650372141384876,-0.10013486,0.39414784,-0.015978966
53,0.998410162522011,0.2937566399399264,1,,-0.6475235474469851,0.027853247376893167,0.756387907424542,-0.1265505813779347,0.46144503845338564,-0.021639477892532503
54,0.995956282809891,0.28768198556406643,1,,-0.6549560200540536,0.02280566046326803,0.7457973560532783,-0.14115687415947725,0.47032041017313597,-0.029285432948691386
55,0.9938583984644928,0.28042392637684527,1,,-0.6605323396357223,0.021221380098081322,0.7406275612050245,-0.13848437,0.44315,-0.03195793
56,0.9922160775743801,0.26739009575704725,1,,-0.6637557835789745,0.02246861058567401,0.736709154255506,-0.13848437,0.44315,-0.03195793
57,0.9910527483650786,0.24707410122281556,1,,-0.6663942541308868,0.018351955648337803,0.7302184682052394,-0.12052821407310509,0.36115020328738057,-0.038541859458548766
58,0.9903227338764486,0.22105398618619715,1,,-0.6681404062856839,0.01230222035466293,0.726326408029057,-0.0805744802792818,0.18514347489728736,-0.045445295574933445
59,0.9899272884577254,0.1935184419195527,1,,-0.6705528764796801,0.012280814273488766,0.7264125103372673,-0.05965481,0.094808534,-0.046871636
60,0.9897375408269116,0.17042203472525935,1,,-0.670920178863924,0.012454234126258968,0.7291415533906982,-0.05965481,0.094808534,-0.046871636
61,0.9896214545082788,0.15841327854851195,1,,-0.6658796750464754,0.01150967469836871,0.7356544550254599,-0.042656971454189896,-0.018510389993321788,-0.0287406084482846
62,0.9894712163725136,0.16369263056055322,1,,-0.6623355580142047,0.01055742062975215,0.7378204066296927,-0.027696876,-0.11824436,-0.0127831735
63,0.9892271469734859,0.19094648840064707,1,,-0.660438916538739,0.013073806186911896,0.7419162893450538,-0.02493925828193106,-0.16732996894625907,-0.0039587945759230045
64,0.9888944881789149,0.24247918977127678,1,,-0.6576765739591492,0.014367017880299569,0.7463252062999058,-0.020741979218469393,-0.23585294565344117,0.01566108286511889
65,0.98855026107223,0.31763864671587044,1,,-0.6554934126282528,0.011598692702221702,0.7470875538031923,-0.01917476,-0.257794,0.026631612
66,0.9883387279449161,0.4126090480882738,1,,-0.6508951567747102,0.011593835178144532,0.7502426265953701,-0.01917476,-0.257794,0.026631612
67,0.988455767266776,0.5206255419615097,1,,-0.647318927155013,0.012092216172486589,0.7419584753016946,-0.02695970663982377,-0.30138969104926167,0.045834477584954327
68,0.9891244618077507,0.6326427884253033,1,,-0.6408501211676858,0.014551395813001959,0.7438042429047736,-0.035153728,-0.3472762,0.066046394
69,0.9905658793394817,0.7384500629254482,1,,-0.6279867345561956,0.013520242330986908,0.7579950198255496,-0.038687824127369326,-0.5239809874108893,0.11047502805073799
70,0.9929697035174099,0.8281628636445566,1,,-0.6114983709810106,0.007912016118081955,0.7750463958930033,-0.04261058,-0.72011876,0.15978967
71,0.9964686732361482,0.8939384375205115,1,,-0.5947420130400735,0.006131759671395764,0.8028912694884978,-0.05164663408396518,-0.9498248674878068,0.18642225680221988
72,1.001119031616156,0.9316767690372525,1,,-0.5805140013033537,0.006377803438007849,0.8221776150988784,-0.05699392681149944,-1.2945598451430498,0.2667483828966605
73,1.0068872709921868,0.9424050709594605,1,,-0.5551498381045326,0.015015511477189335,0.8413057564093609,-0.049002163,-1.3763217,0.33129725
74,1.013642302937897,0.933030278830974,1,,-0.530823149486086,0.024227640014539552,0.8601837686701952,-0.049002163,-1.3763217,0.33129725
75,1.021152088573225,0.9161996007893743,1,,-0.5270870744524677,0.018237831077417863,0.8688172258782194,-0.06964638400042933,-1.293744851527241,0.3493609353510797
76,1.029084250735924,0.9091337400573996,1,,-0.5553074926532643,0.008963637068626283,0.876781584318583,-0.10013486,-1.171791,0.37603834
77,1.0370105962622278,0.9314693648827251,1,,-0.5935510260889658,0.004108498642470209,0.8880823262160314,-0.1418008825263473,-1.0197099653669897,0.40603788529325924
78,1.0444159756705669,1.0023335204998747,1,,-0.5500039520183877,0.023908088120360407,0.8921126597447775,-0.2066613,-0.78296936,0.4527374
79,1.0507135919283834,1.137040082226962,1,,-0.47192679650425795,0.05421144676836771,0.8968273686976882,-0.3072441636470298,-0.3999498465948409,0.5030288450423922
80,1.055272050775014,1.3439177976114578,1,,-0.4641384858914001,0.05285416323195373,0.8967259303113897,-0.47297743,0.23116238,0.5858955
81,1.0574618072352195,1.6218241787178824,1,,-0.5382543063506983,0.043870334020490204,0.868732689849497,-0.5221527748454229,0.5010459951128183,0.5014842505488496
82,1.0567263718945155,1.9588499059741584,1,,-0.619341629039758,0.059930067527691915,0.8428344735650548,-0.6596400648738505,1.1485501145373413,0.33289152689313817
83,1.0526751384866275,2.332572371241115,1,,-0.6517518929421519,0.07851725723181117,0.8460278455979203,-0.753142,1.4668691,0.29507825
84,1.0451828489438812,2.711994088168902,1,,-0.5796586083346186,0.055136331534000105,0.8930241700316892,-0.8096341655993754,1.876973569339472,0.27505571539222073
85,1.0344708569591903,3.061034482698307,1,,-0.5927033220137594,0.09789344942142583,0.898401863623164,-0.9214538,2.6887274,0.23542345
86,1.0211419480006307,3.3431654290091455,1,,-0.8894465432450664,0.277879208549219,0.7532754629030529,-0.9443199990199257,3.3323944417319953,0.31460199392918964
87,1.0061462901137632,3.5265271365816253,1,,-0.7036809929579642,0.21419173138420677,0.726903757904516,-0.99282646,4.6978164,0.4825648
88,0.9906729097435707,3.588682703148378,1,,-0.5260006468900806,0.02907140585683062,0.7343305466074774,-0.99282646,4.6978164,0.4825648
89,0.9759867617198928,3.520135362789316,1,,-0.5539604923094461,0.03691964509105052,0.578636394400892,-0.9779967010629018,4.913636676934233,0.6021494658449965
90,0.9632547656124122,3.3258983431137987,1,,-0.6620415857676077,0.0500531013443881,0.45168235048411953,-0.9791896515548087,4.49716739430863,0.589297798024224
91,0.9534084124825373,3.024773274244597,1,,-0.9570445431531648,0.012711238387742215,0.39006411320327683,-1.0684602,2.2200112,-0.13848437
92,0.9470685551338224,2.6464804742667414,1,,-1.1287175885561949,-0.0598591169558176,0.2931618426785184,-0.8840882099691393,1.7595180716217167,-0.3496529335485415
93,0.9445234511897557,2.2272492222248124,1,,-0.9826157765798795,-0.21911040335695858,0.1338441603716874,-0.39414784,0.535828,-0.9108011
94,0.9457304147121325,1.8047634200876945,1,,-0.8149979629115065,-0.34160836876513423,0.15158572522582262,-0.39414784,0.535828,-0.9108011
95,0.9503201829086426,1.4133854790818843,1,,-0.781130935928106,-0.3734352546551148,0.21819499342105744,-0.1877819585280889,0.42714546545798643,-0.8220218815604243
96,0.9576111597525161,1.080386896018675,1,,-0.7114563320752152,-0.40467251216919164,0.21147518875183485,0.44528055,0.09374327,-0.5496765
97,0.9666628231083565,0.8236143613345138,1,,-0.6187910125286954,-0.34061904639114154,0.1505317978742972,0.356087141468782,0.11074422384095016,-0.502862268551806
98,0.9763954967624557,0.6507247055337521,1,,-0.8425619424969599,-0.2059556177944799,0.2474991233839642,-0.03342104032047322,0.11591087041071685,-0.3551924456457108
99,0.9857751006067099,0.5598843839236924,1,,-1.2489263829674702,-0.09914845917426404,0.48728234530797426,-0.3536678,-0.060720075,-0.38242993
100,0.9940189571141823,0.54165475205961,1,,-1.2423682094520787,-0.06981702729233302,0.38098482524743077,-0.2303092463387905,-0.27977629615418786,-0.1899192043697153
101,1.0007487714476144,0.581660219405985,1,,-0.8564268019895789,-0.1282077295938885,0.2861035724242192,0.23542345,-1.1068097,0.5368933
102,1.006026339164206,0.6635578301406155,1,,-0.8782120343764789,-0.09470082564772155,0.38970361996547825,0.23542345,-1.1068097,0.5368933
103,1.0102557303302162,0.7718086922512736,1,,-0.897336756898875,-0.1023448850735272,0.3424345451683067,0.27121604396189775,-1.080015264151202,0.4771056715461166
104,1.013989914631175,0.8938163135438476,1,,-0.8797599797310599,-0.09277959042146339,0.3607230729513436,0.4169990777838299,-1.0192859342742848,0.13971268054660033
105,1.0177081162288282,1.0211432825177726,1,,-0.8584373920521464,-0.057326539314274255,0.41978801703534074,0.37603834,-1.2676647,-0.21411815
106,1.0216283154696173,1.1497069917948213,1,,-0.8457056695797086,-0.07452673728651125,0.47850895697594237,0.37603834,-1.2676647,-0.21411815
107,1.025601036535368,1.2790376115407587,1,,-0.8524840406285695,-0.08445310392743255,0.5131432379529148,0.3798977964476215,-1.305420255971819,-0.214621558253074
108,1.029107626956571,1.4108312269692347,1,,-0.8523393750118298,-0.08230209657140955,0.5068761876866623,0.24449552578209063,-1.3402981361478286,-0.23528166035913262
109,1.031363687989845,1.547144135151436,1,,-0.8609981997482871,-0.10892070183194008,0.508157542420014,-0.6263755,-0.4079963,-0.3355583
110,1.0315082988172408,1.6886432084184622,1,,-0.8622307127189931,-0.1094181397144531,0.5010326273745357,-0.7383812242701463,-0.295699658474079,-0.36348700107084236
111,1.028842856804076,1.8333269176361662,1,,-0.9339303375664044,-0.08125316300460382,0.400358367587183,-1.4466292,0.41438788,-0.5400891
112,1.0230694785431012,1.9760364805741357,1,,-1.1543461786866054,-0.07057065347777902,0.17479751298123664,-1.4466292,0.41438788,-0.5400891
113,1.0144694499483107,2.108894958119718,1,,-1.1772308534926061,-0.18417139551515982,0.08993536815998315,-1.4533368859282645,0.5483020663033519,-0.5773407193482782
114,1.0039630188101822,2.2225934071739295,1,,-1.0231674041067944,-0.2863428478386981,0.19484901961562373,-1.506284,1.6053536,-0.87138635
115,0.9930105425120282,2.308241629517626,1,,-0.9865002612808867,-0.2451342431460485,0.3117348163978138,-1.4881361350617113,1.78921727095989,-0.8667197572712814
116,0.9833528521144675,2.3593492764652755,1,,-0.8103598750489969,-0.3368062491436191,0.6083066120454538,-1.3198626,3.4940674,-0.82344943
117,0.9766362843476277,2.373432122662443,1,,-0.6338052490851094,-0.44151447024646706,0.42770484585815116,-1.2725811067631259,3.414296894920459,-0.7678188006306557
118,0.974011098924243,2.352797000179442,1,,-0.42700422736665483,-0.4235077169210304,0.26952430037388353,-0.7091625241691781,2.4750495832207022,-0.15406575770293346
119,0.975817510950235,2.304278737518289,1,,-0.3359233397462336,-0.3395773327393186,0.2520301156160743,-0.06924219,1.5254587,0.034088463
120,0.981465903691677,2.2380312007743077,1,,-0.4485898309269687,-0.28691146330512207,0.26705069483134164,-0.06924219,1.5254587,0.034088463
121,0.989563395766953,2.1657670119215573,1,,-1.933826154193531,-0.08925477130863049,0.3680320414245455,-0.05436395393838139,1.520283665210176,0.08225160724312032
122,0.9982482619248467,2.098954695668084,1,,-0.8278619405571565,-0.4333132297023912,-0.040452716372143455,0.20026971,1.4317155,0.90654004
123,1.0056153442321083,2.047388654893573,1,,-0.9230525216800605,-0.25964018858733795,-0.16577660621319126,0.19056188596735366,1.4063364711058624,0.9740325269095117
124,1.0101016333896993,2.018330602830137,1,,-1.014256155200075,-0.16209767941697342,-0.015791283387735923,-0.023435818,0.84688526,2.461826
125,1.010750184874533,2.0161945072296565,1,,-0.935723866550778,-0.2633698670499557,0.20367821729078897,-0.034815314001397646,0.8180818734779091,2.448935406772823
126,1.0073309247689914,2.0425951436773397,1,,-0.9662408724475084,-0.23500155023496083,0.12979631719704154,-0.4165184,-0.14807177,2.0165455
127,1.0003296269977302,2.0965444142944447,1,,-1.0682948876156482,0.051059425607575204,-0.1986131896849173,-0.4066195374956703,-0.14147864987797695,2.017610686508795
128,0.9908247236997045,2.174645913310811,1,,-1.0694243987341803,0.23236942184623116,-0.11685358574763516,0.15941848867931144,0.21944369988188084,2.0811832763996008
129,0.9802756529740408,2.271242376121132,1,,-0.8930631717814399,0.1835158575135879,0.009162438741461613,0.29827404,-0.9576728,2.3062975
130,0.9702571754812626,2.3785490193820253,1,,-0.7700617212652806,0.2248404596050376,0.05948121284538433,0.29827404,-0.9576728,2.3062975
131,0.9621886456823815,2.4868450426914572,1,,-0.8491022035454888,0.2082973532932736,0.042957685624422336,0.30247987537753807,-1.9828397939337987,0.7165000578665602
132,0.9571127712083106,2.5848178353619358,1,,-0.9525810145031728,0.13299023812422275,-0.022753443372206292,0.30253512,-1.9963056,0.6956177
133,0.9555645365808028,2.660165203148546,1,,-0.9534756890051757,0.12402177552470908,0.21117867737770946,0.30253512,-1.9963056,0.6956177
134,0.9575426374634083,2.7005331225238014,1,,-0.8975636577398525,0.13637247482584733,0.34452593797816006,0.03810701057435129,-2.775128975476963,-0.1100616579539864
135,0.9625692597995459,2.6947783586824827,1,,-0.8944064671357137,0.13653090172997967,0.34358212570878466,0.029827405,-2.799515,-0.13528858
136,0.9698107877958732,2.634419221481054,1,,-0.9123175730392847,0.12345273139989067,0.31980901599891914,0.20185322695503793,-2.831069940070041,-0.07014270863238158
137,0.9782310027701387,2.5150303632875337,1,,-0.9078307013741505,0.11011585459078574,0.36037036815928336,0.20985709,-2.8325381,-0.06711166
138,0.9867523504769308,2.3372945068276825,1,,-0.8619467545432221,0.11701066534980753,0.43428086239121344,0.3173190696866181,-2.669838683900826,-0.11632322528472645
139,0.9944047274767277,2.1074542294429497,1,,-0.8482356368014092,0.1081232536555969,0.5850104207949293,0.32384038,-2.6599653,-0.11930962
140,1.0004438701070433,1.8369962429709703,1,,-0.8542612229285975,0.09430440242619538,0.6371486628026576,0.015195426806583551,-2.107965617312147,-0.023352689687155353
141,1.0044245615923855,1.5415338938593184,1,,-0.8386187676941154,0.10025365202425429,0.5375260374702786,-0.008522116,-2.0655477,-0.015978966
142,1.0062203046137561,1.2390163498152014,1,,-0.8548391345955455,0.0952825251035993,0.4847378923101984,-0.07572195527718621,-0.35633447336240465,0.07556864241647951
143,1.0059914904501128,0.947556245073105,1,,-0.8753111935144055,0.09121681590734428,0.48550329382086344,-0.082025364,-0.19600865,0.084155895
144,1.0041147851748211,0.6832776703190767,1,,-0.8376229962324733,0.12409629539832297,0.5177096332488347,-0.08106503588708283,0.21693068065114884,0.1340927378099052
145,1.00109260654512,0.4585845758505891,1,,-0.8005669921004567,0.15500034498019652,0.5338279144333328,-0.080960095,0.26205507,0.13954964
146,0.9974618219966512,0.28112348120542485,1,,-0.7992619493885443,0.1647650376726383,0.5362068164260418,-0.11880839040144288,0.012256347885822005,0.19537587316344707
147,0.9937169715734842,0.15352273357452845,1,,-0.8146610272208792,0.14060810657933076,0.5412680727412149,-0.12357068,-0.01917476,0.20240025
148,0.9902572644752364,0.07381829205775624,1,,-0.836597029803062,0.13361411251255648,0.5348676294977931,-0.09648778942030765,-0.16392813645232918,0.1426311182150025
149,0.9873597317612388,0.03637170217274336,1,,-0.8279529820970074,0.15366071192866587,0.5273034611784936,-0.10746946439492144,0.03758108328037507,0.131449926334637
150,0.9851752353317171,0.03305123009379572,1,,-0.8064087792779133,0.18164857577970803,0.5343075052348458,-0.10972224,0.07137272,0.13102753
151,0.9837412539742447,0.05446308094004846,1,,-0.8034614149802645,0.1733072007751316,0.5351662537020427,-0.10972224,0.07137272,0.13102753
152,0.9830053578384134,0.09106571099710795,1,,-0.8347871792758293,0.14550582591879455,0.5060841059787707,-0.08802967612945037,0.21418210623866246,0.08402697282593939
153,0.9828543965982215,0.1340600100812014,1,,-0.8385392641388963,0.13969350606168374,0.4935609215004514,-0.051239213946233944,0.18541645995555198,0.0026832948883657626
154,0.9831452939252461,0.17601074047659124,1,,-0.8369625333568433,0.13965432447431594,0.49980276759038933,-0.04474111,0.17470337,-0.011717909
155,0.9837337788211697,0.21121271441234246,1,,-0.8399134266949572,0.13829530925303013,0.5013919636165256,-0.043868219438736776,0.031549526083197506,-0.018701022837764213
156,0.9844978125316389,0.23586024513849674,1,,-0.8400228867965437,0.1334158033545559,0.5079500171844575,-0.043675844,0.0,-0.020240024
157,0.9853531926180251,0.24809962659520932,1,,-0.8453888722612266,0.1349241268959873,0.4956952603300895,-0.035961336360596445,-0.10028858885176704,-0.008239680455038575
158,0.986259942933483,0.24803389512087032,1,,-0.840676091637011,0.13456875103202148,0.4866972873289096,-0.034088463,-0.12463594,-0.0053263223
159,0.9872195457307251,0.2377091117771584,1,,-0.8316346015162065,0.13470880989051498,0.509758503275131,-0.040816081149924,-0.34412445283366716,0.01485652843944916
160,0.9882644122175922,0.22105671534374288,1,,-0.8280982293090604,0.13710780790216948,0.531023173220081,-0.04261058,-0.40266997,0.020240024
161,0.9894417091713387,0.20372006117882266,1,,-0.8161335139014324,0.13812078078499465,0.5534481146913376,-0.03353231291800703,-0.4538383675588478,0.011987055052347229
162,0.990793807930327,0.19267723553718416,1,,-0.8103364620662594,0.1414230765251775,0.5555923600067392,-0.03089267,-0.46871635,0.00958738
163,0.9923378583202132,0.1955985657306646,1,,-0.8044243601204384,0.1497802061951361,0.5485297891012381,-0.03089267,-0.24204039740222924,-0.029939744942795967
164,0.9940477229172233,0.21994139019566344,1,,-0.8060629886975248,0.1184325256852641,0.542908258315746,-0.03089267,-0.16937704,-0.04261058
165,0.9958421868774556,0.2718659927642898,1,,-0.8064353004587471,0.15452808365936216,0.5647112878949466,-0.03089267,-0.16937704,-0.04261058
166,0.9975829584075423,0.35512682894860187,1,,-0.800428347108387,0.12725348057000774,0.5777411385469697,-0.05442682823892134,0.043999343742979424,-0.11635095180982105
167,0.9990841763688113,0.47012957628891555,1,,-0.8300025658004165,0.11747516745940113,0.5502197404761849,-0.0496724221775035,0.30331905986182667,-0.17297773714755868
168,1.0001327800852653,0.6133396668247304,1,,-0.8226331528719124,0.12742308755636264,0.5492907189212822,-0.04474111,0.3717773,-0.18429075
169,1.0005172842065084,0.7771882898675243,1,,-0.820095676188407,0.11909668376497311,0.5359278042081762,-0.04474111,0.3717773,-0.18429075
170,1.0000614939378962,0.9505580307851056,1,,-0.8370762278168504,0.11454107161976822,0.5426264566466206,-0.03645863598386286,0.6315456885355233,-0.1714905642335384
171,0.9986588500654743,1.1198481731698438,1,,-0.8414294654114755,0.11556437692148509,0.5305456399688234,0.0049164879248570865,1.112739057972825,-0.1922182846345114
172,0.9963019031061695,1.2705222760735475,1,,-0.8781392576677277,0.10535880855735849,0.48671560422139903,0.02130529,1.2740563,-0.2034655
173,0.9931003764280677,1.3889403928313542,1,,-0.9056441673214579,0.1019504377001267,0.4485062751691053,0.053215243987931475,1.6192640047845475,-0.14762308818005868
174,0.9892816095732697,1.464200882773387,1,,-0.9097251592690223,0.1052041094761528,0.4085502973281314,0.068176925,1.7811222,-0.12144015
175,0.9851698081140824,1.4896870730738037,1,,-0.9241784811846523,0.09430853319238304,0.3290918257451378,0.09083174898227502,1.8320955232228706,0.015904714369703088
176,0.9811453010051754,1.4640422279349192,1,,-0.9272150930045477,0.10359224240710499,0.2774416602463981,0.10226539,1.8578212,0.08522116
177,0.9775904633365347,1.3913781197246318,1,,-0.9197949570115669,0.11891505036829234,0.261952851217601,0.10226539,1.8578212,0.08522116
178,0.9748329733047524,1.2806465669851326,1,,-0.9214641462540889,0.12300193735104918,0.2404796266475095,0.06591358581534036,1.5752373544638734,0.097567054788961
179,0.9730980729667795,1.1442551239667504,1,,-0.9265339152309364,0.12014453822911746,0.21728602336574956,0.047834191104540895,0.8065301858188375,0.04626503955885276
180,0.9724792931836462,0.99616537920152,1,,-0.9277449947217201,0.11829548445755747,0.21423041602283555,0.049002163,0.45380265,0.0127831735
181,0.9729325886665542,0.849835811563683,1,,-0.9373898233276482,0.11261065396921245,0.23425702282570277,0.049002163,0.45380265,0.0127831735
182,0.9742933417988475,0.716413048711263,1,,-0.9456802735678013,0.10991575575259127,0.25781560283635235,0.03530618325176105,-0.03794829864651116,-0.04069637146921325
183,0.9763106701895437,0.6035111025686332,1,,-0.941492121423452,0.119687935077337,0.2681739421401939,0.026631612,-0.34940675,-0.07456851
184,0.9786903116042088,0.5147668913069836,1,,-0.9370905756708681,0.10140253236030965,0.2799854483417697,-0.0064709934350187575,-0.42834371830878476,-0.0650196820607483
185,0.98113691072998,0.4501709559317334,1,,-0.9511421548812761,0.09420533579964217,0.27832383566731167,-0.0331585692682629,-0.638514834164178,-0.010856894743663293
186,0.9833885309939169,0.40699832923553997,1,,-0.9295365955852615,0.1184057267080877,0.2906643580399366,-0.036218993,-0.74781567,0.022370555
187,0.9852395048144,0.3810498106353317,1,,-0.8968292210144265,0.12229756061661547,0.36408409934542263,-0.036218993,-0.74781567,0.022370555
188,0.9865510313721576,0.3678825785557879,1,,-0.9151539161555596,0.1138180893405385,0.39858855819317457,-0.09073240144244638,-0.7132905121347709,0.04054169038935482
189,0.987251353207254,0.36375963847442694,1,,-0.9188883797378883,0.11015077502992163,0.34208745862557816,-0.13209279,-0.6870956,0.054328486
190,0.9873287596519861,0.36615753967024345,1,,-0.9131905014320143,0.10667625533607407,0.30692716180256346,-0.13209279,-0.1954068725123894,0.02363483324259032
191,0.9868215210301198,0.37380741143400104,1,,-0.9187936436322796,0.10873230193492875,0.3100994972349039,-0.13209279,0.20026971,-0.0010652645
192,0.9858091116246799,0.3863677553262163,1,,-0.9183558092911215,0.10686396937817101,0.30551102074447367,-0.15394604349341784,0.17324069148294235,-0.013142062241691668
193,0.9844078215068626,0.40390499038261685,1,,-0.9348241055859187,0.09995828470897414,0.29046810066356477,-0.17257284,0.15020229,-0.023435818
194,0.9827706775735959,0.4263746134130961,1,,-0.9572253762018773,0.09116143967829828,0.2650713773257718,-0.20893244704186625,0.010357645107709606,-0.02735146839305306
195,0.9810877142289092,0.45326187932757195,1,,-0.9683767151965776,0.08067469099854019,0.2508266911969705,-0.24181503,-0.11611383,-0.03089267
196,0.9795802346342266,0.48347744105303286,1,,-0.958790715167281,0.07931366957996182,0.271003227414183,-0.3113981994939299,-0.21777050049341456,0.007160626981144912
197,0.9784834977761373,0.5155275822030118,1,,-0.931276873120829,0.09592576581891432,0.2925926137084523,-0.4686342060173217,-0.298188764628646,0.07418781430766117
198,0.9780164589940823,0.5479031888993043,1,,-0.9220150380738039,0.11388282266770035,0.29284781388457937,-0.5581986,-0.28122982,0.10439592
199,0.9783431495383805,0.5795705834207328,1,,-0.8676885661481154,0.11630647534791781,0.3665548802178929,-0.6189334011784327,-0.4281354129607273,0.0514476125261555
200,0.9795352124227364,0.610414941838055,1,,-0.8318022745778386,0.11557571706724429,0.4517138136650806,-0.6828345,-0.58269966,-0.004261058
201,0.9815464877592049,0.641491530152976,1,,-0.8472613988791632,0.10338191978527789,0.490084209478208,-0.6828345,-0.58269966,-0.004261058
202,0.9842075042373604,0.6749819174261095,1,,-0.8451437076029983,0.06964330868946993,0.5023664319968338,-0.6318317618660313,-0.4044376824955837,-0.1404334111203873
203,0.9872418009181244,0.7138245876716864,1,,-0.8807027708207389,0.05173025117036246,0.4503841398093338,-0.57311225,-0.19920446,-0.2972088
204,0.9903002139654773,0.7610751232885222,1,,-0.8998429844938188,0.04730546422606553,0.42935876294573083,-0.5083916377343196,0.062075143118081814,-0.3125499819999981
205,0.9930059773536803,0.8191249038259796,1,,-0.9037279471999413,0.04201757324267681,0.4206702161207287,-0.4293016,0.38136467,-0.33129725
206,0.9950030126383347,0.8889457547393268,1,,-0.9115350289029367,0.04202288446637395,0.400742007830461,-0.37321251971113356,0.4986418287782041,-0.29328646810086084
207,0.9960010591338736,0.969522362623932,1,,-0.9113651809778361,0.03171776565840995,0.3852705514151914,-0.23383593508399939,0.7817341255652545,-0.2352825091326461
208,0.9958131012312019,1.0575922001255516,1,,-0.9322143606565804,0.028598699401306514,0.345316265645299,-0.14487597,0.95660746,-0.22370553
209,0.9943819438333265,1.147750941841054,1,,-0.9501941903284585,0.01872425597815316,0.31730158346629694,-0.11234439878856804,1.0770622197133293,-0.1885362651639081
210,0.991793347375175,1.232917494617977,1,,-0.9560688537395878,-0.0029499814147897737,0.29283283337433497,-0.066046394,1.24849,-0.13848437
211,0.9882732766153192,1.3050998586827107,1,,-0.9663210093364831,-0.011240262594539526,0.2518327088536451,-0.066046394,1.24849,-0.13848437
212,0.9841675292769756,1.3563667123432577,1,,-0.9720799676203246,-0.0023346618751703936,0.20371772368792096,-0.05268347799654747,1.3178100848231626,-0.060394836072939544
213,0.9799039807075792,1.379908029500083,1,,-0.9643428120726395,0.01210482075311213,0.17049298000050125,-0.03195793,1.4253238,0.060720075
214,0.9759407224874251,1.3710555356251808,1,,-0.9589072138904007,0.02464043223075992,0.14991130060861718,-0.07534996218801808,1.4546535953088742,0.11978144763980315
215,0.9727065650817147,1.3281272949062088,1,,-0.956173232128274,0.036579584547534384,0.12851489417039602,-0.16949839612754192,1.474282689234976,0.2086328659843892
216,0.9705425876654423,1.2529638882640313,1,,-0.9562890634166746,0.03945466734516188,0.09496206627855155,-0.20772657,1.4253238,0.19387813
217,0.9696538840834682,1.1510442493906479,1,,-0.9580203274838138,0.03865795773879879,0.050386644409806475,-0.20318162060422337,1.3363185335922565,0.15221608261322858
218,0.9700792950142825,1.0311123566262932,1,,-0.9611335478632678,0.044194426509792155,0.022125977987555844,-0.1949434,1.1749867,0.07669904
219,0.9716842065039729,0.904310011364639,1,,-0.9656464575931957,0.05236852252851296,0.019827482973893782,-0.20219457874424018,1.0422901313628294,0.04914456213327289
220,0.9741780824734001,0.7828881023594827,1,,-0.9653295845149801,0.042358798249558606,0.027945301275223728,-0.21624869,0.7850999,-0.004261058
221,0.9771548553890368,0.6786478867865067,1,,-0.9699953972583784,0.029724189743182673,0.010593005468048235,-0.1543146464168515,0.5923777704614438,-0.014987064876540732
222,0.9801509872906853,0.601332156353896,1,,-0.9807331357869247,0.02293187013836187,-0.0019581713441837825,-0.025566347,0.1917476,-0.037284255
223,0.9827130861534195,0.5572282971723885,1,,-0.9959805575371959,0.02332920400763704,0.02030554684178631,0.013341580857644189,0.09480750949714666,-2.4969289079952427e-05
224,0.9844646917289522,0.5482424551748708,1,,-1.000363272283267,0.02374152515103106,0.028468167341134568,0.10013486,-0.12144015,0.083090626
225,0.9851609636961501,0.5716413681606249,1,,-0.9972962502523075,0.031146544957215375,0.015701891206000303,0.15529124957168788,-0.20605506682311842,0.15517000305495096
226,0.9847213822985899,0.6205390090434121,1,,-0.9988068851142015,0.042423388738480006,0.02347468222425732,0.2876214,-0.40906155,0.32810146
227,0.9832343942048255,0.6850564473567,1,,-0.9931170313957111,0.05386571044605411,0.054592761837247074,0.34202615193160385,-0.5407626666023564,0.37923596678893956
228,0.9809334375365144,0.7539456554086192,1,,-0.9761622287350223,0.06672908932129187,0.06303093486270386,0.4825648,-0.8809737,0.5113269
229,0.9781497404315674,0.8163764318072034,1,,-0.9553847408911128,0.08520322767033901,0.05702515592525046,0.4825648,-0.8809737,0.5113269
230,0.9752523697350078,0.8635599248452317,1,,-0.9395988709252624,0.10115250032305667,0.08219017072443927,0.49786016181562376,-0.93751193623398,0.5020404369193158
231,0.9725886606269808,0.8899248582994859,1,,-0.9382809470662026,0.10623745111735405,0.12628145735364182,0.5146803042133634,-1.0660001598514153,0.41791093991124256
232,0.9704370382701608,0.8936598106885343,1,,-0.9545502907461432,0.10647273082019486,0.15457342907408028,0.4314321,-0.958738,0.24501082
233,0.9689793998453964,0.8765629944162956,1,,-0.9577896994918094,0.10858199755757958,0.1740095912197606,0.4175127992122023,-0.841418161074474,0.22239195621982877
234,0.9682937642353655,0.8432745751366784,1,,-0.95242763502707,0.11313101654283339,0.17972625595994088,0.3717773,-0.45593318,0.14807177
235,0.9683628673235495,0.8000814749142299,1,,-0.9508160007684393,0.11391226583051361,0.16815296412973094,0.3717773,-0.45593318,0.14807177
236,0.9690926130555002,0.7535574798847098,1,,-0.9417363661478061,0.11884651222888558,0.15640371431836375,0.34722646736807555,-0.31380866523639533,0.13951276366276927
237,0.9703352647366845,0.7093163762523301,1,,-0.9505612555136581,0.12918762516376686,0.13849480868299874,0.25566345,0.21624869,0.10759171
238,0.9719140330502871,0.6711127353770245,1,,-0.9579657430261752,0.1276894769772335,0.12035859688951381,0.23095143642123142,0.2694423549443119,0.09104722294079033
239,0.9736467402616289,0.6404375368713828,1,,-0.9647667710608532,0.12511189055907368,0.1183893888318631,0.10801716103506274,0.5242138093383574,0.016527172991331697
240,0.9753663640481544,0.6166427938707821,1,,-0.9662829673351457,0.12342157201321341,0.11264178814708696,0.014913702,0.6828345,-0.0127831735
241,0.9769363356208326,0.597512810642238,1,,-0.9659007054759028,0.12382159045137739,0.0976561111851356,0.00802126889889438,0.7145024352555394,-0.012410609612392525
242,0.9782592244112193,0.580106133459247,1,,-0.9626990913656546,0.12354288970865109,0.0745232563439865,-0.024501082,0.86392945,-0.010652645
243,0.9792788090574666,0.561644629075057,1,,-0.970519398839213,0.12207355794132953,0.05380242182170818,-0.024501082,0.86392945,-0.010652645
244,0.9799768180325975,0.5402337730432533,1,,-0.972409991095558,0.1216146492432178,0.03336941156246772,-0.02118845801740558,0.8443691998990369,-0.011283620890913462
245,0.9803662420171745,0.5152564007433449,1,,-0.9695685807872712,0.12036719351499638,0.016994150784877014,0.0018193303150786612,0.6725888074216144,-0.01293877241376581
246,0.980483071754956,0.48737640548602934,1,,-0.9725325917889626,0.12162357175997922,0.005780572683815124,0.025566347,0.31638354,-0.0010652645
247,0.9803779519561974,0.4581954308977697,1,,-0.9721516775569045,0.1216859528839869,0.005877908646387634,0.025566347,0.31638354,-0.0010652645
248,0.9801087990678039,0.4296932578378652,1,,-0.9687679063978764,0.1219388239268282,0.023485687485554522,0.02506272371256745,0.2570818862924433,0.0005715115091840664
249,0.9797349379589461,0.40362448057669625,1,,-0.9738039742913793,0.12042607402047689,0.04286135504158535,0.02130529,-0.18535602,0.0127831735
250,0.9793127897627484,0.38103277592227774,1,,-0.9741257935321417,0.1188443167525396,0.04985511889773342,0.021855753905612643,-0.203961699637655,0.013994194102682593
251,0.9788927143290022,0.3619927173913045,1,,-0.9708956885406831,0.12042172752390953,0.05257536136545497,0.02893036355426232,-0.3658036550420559,0.02659085603323436
252,0.9785164777934724,0.34561887628327753,1,,-0.9672854587544993,0.12310231912088843,0.05638348628425382,0.05006743,-0.36964676,0.04580637
253,0.9782150752922328,0.33031308191862896,1,,-0.9664754533920888,0.12565400026146997,0.06745926595294412,0.05006743,-0.36964676,0.04580637
254,0.9780070836705047,0.3141700370911994,1,,-0.9672094214807333,0.12436400221060774,0.08209251733252985,0.04959663006417995,-0.3720007604156936,0.04541403662193752
255,0.9778979861180133,0.2954379887898774,1,,-0.9650559657046076,0.12524390424711593,0.08902220023160809,0.043675844,-0.4016047,0.040480047
256,0.9778808566628223,0.27293286925841576,1,,-0.963449382492268,0.12800236653077657,0.09431596301927428,0.042538537470051735,-0.39617090283326317,0.03984821024980716
257,0.977938556877417,0.24632392771435604,1,,-0.9632328288609299,0.1284485663504211,0.09926911189855864,0.024501082,-0.30999196,0.029827405
258,0.9780473245420369,0.21624063925910467,1,,-0.9635398055864877,0.12826101015399363,0.105580722036284,0.023602047209081486,-0.30369871637473306,0.029117640660988403
259,0.978181329877817,0.1841901740975465,1,,-0.9652022700088678,0.12923310762696238,0.10710823136812568,0.0037139797790975092,-0.16313558812531645,0.013469691545452842
260,0.9783174449747787,0.1523154513537549,1,,-0.9659270042770359,0.1301363842403889,0.10447885859570223,-0.00958738,-0.037284255,0.004261058
261,0.978439245625416,0.12305690065861867,1,,-0.9665803827675954,0.12893281025174205,0.10290574018153158,-0.009739900907536472,-0.03583530623522692,0.004261058
262,0.9785393134675369,0.09879757210285488,1,,-0.9642028100353224,0.12821448201617708,0.10642837726964291,-0.015978966,0.023435818,0.004261058
263,0.9786192784880793,0.08156632812135317,1,,-0.9646908436452889,0.1279833300509832,0.1023179467028401,-0.015978966,0.023435818,0.004261058
264,0.97868759825308,0.0728507829189158,1,,-0.9654163339045696,0.12919232231426056,0.10086716103484947,-0.015978966,0.023435818,0.004261058
265,0.9787555853344991,0.07354025959352542,1,,-0.9656602930691978,0.1284665774311812,0.09989395036474773,-0.017037342594888767,0.07423786673571944,0.0010859297056341297
266,0.9788325321850571,0.08398905195041555,1,,-0.9635004841173,0.1294224666678429,0.10036794287961184,-0.018091753806499484,0.1206594505519688,-0.004172342157418299
267,0.9789209535030141,0.10416742565681664,1,,-0.9639417606177153,0.12967774117917594,0.09774713630099299,-0.018109497,0.12144015,-0.004261058
268,0.9790130072027966,0.13385470751271392,1,,-0.9641888516149907,0.12944642359911732,0.09366845840660717,-0.018109497,0.12144015,-0.004261058
269,0.9790890277775056,0.17282562941868398,1,,-0.965373318867815,0.12849730516031185,0.09024279748549129,-0.017082904605893585,0.20459401249694592,-0.01555355698864575
270,0.9791187608210871,0.22098497918810622,1,,-0.966116339515871,0.12589996936996148,0.08522780093216961,-0.01501250371425927,0.3479157326899698,-0.031216917305365393
271,0.9790653708496342,0.2784135470068269,1,,-0.9684672563676675,0.12438520376119802,0.07734400084710669,-0.014913702,0.35473305,-0.03195793
272,0.9788917373337289,0.34530134968708676,1,,-0.9692805068980473,0.125456661094167,0.06615228184246238,-0.014913702,0.35473305,-0.03195793
273,0.9785680932545388,0.42176524923176095,1,,-0.967728466655006,0.12530304971658904,0.05564343723196675,1.0769446271661621e-05,0.4641791854587489,-0.02996800408532536
274,0.9780797749234477,0.5075756720372767,1,,-0.9671642527798809,0.12596403594798544,0.049533613331427986,0.0010652645,0.47191215,-0.029827405
275,0.9774337130216988,0.6018434961806668,1,,-0.9716163157562373,0.1233261142729067,0.03966181991352938,0.01770904129417221,0.5453405925760988,-0.03178549281942069
276,0.9766622154592364,0.7027354905254423,1,,-0.9769005433823564,0.1215333463510183,0.027720398143948402,0.01917476,0.551807,-0.03195793
277,0.9758226321690918,0.8072905114889811,1,,-0.9718601273674714,0.12160032582768546,0.011814899740037936,0.030741181860369664,0.764821980415281,-0.028102458459387178
278,0.9749919554092664,0.9113969576209587,1,,-0.9658104232412406,0.12337349866226123,-0.006585599019022245,0.03195793,0.78723043,-0.027696876
279,0.9742565173108529,1.0099657802675093,1,,-0.9634335475929867,0.12466473008731566,-0.037689371182529095,0.06990136271396714,1.0205825438623073,-0.004930817262089466
280,0.9736983980857965,1.0972984751448214,1,,-0.9614986390146533,0.12522871531134588,-0.06601215847656247,0.07456851,1.0492855,-0.002130529
281,0.9733812636396919,1.167614533568239,1,,-0.9582724256135474,0.12379024985840488,-0.08282980158327023,0.12586226724182192,1.1770535488138274,-0.01238927957288817
282,0.9733386424278917,1.2156747426736718,1,,-0.9584812405942488,0.11998140627048445,-0.09891803584951116,0.13315806,1.1952267,-0.013848438
283,0.973567173209685,1.2374183154123617,1,,-0.9526933750526687,0.11900513388649342,-0.13411192551698006,0.17166814166666614,1.3061724051152344,-0.03218657171711174
284,0.9740263929343175,1.230522927019699,1,,-0.9438395488876746,0.11810535862929727,-0.1797913037969085,0.17789917,1.3241237,-0.035153728
285,0.9746453830653055,1.1947975853002337,1,,-0.9439067503663393,0.11589422735801726,-0.2145155419250808,0.24007827045187288,1.352960422763798,-0.036956019577505196
286,0.9753351453534178,1.132331811827427,1,,-0.9441701294529732,0.11082206317257759,-0.24426193744429356,0.24962129935098737,1.216614063048515,-0.03283148247763353
287,0.9760041556024072,1.0473544562537858,1,,-0.9354506462760158,0.11050915079925579,-0.2764835974889182,0.24927188,1.1888351,-0.03195793
288,0.9765736458825618,0.9458011647496485,1,,-0.9248511451751174,0.11143506515960337,-0.30011419169892567,0.19682685065177472,0.8531869154534873,-0.011854002630201855
289,0.9769892852531429,0.834643791986486,1,,-0.9221266835333146,0.11021750127972738,-0.30783961329928927,0.18535602,0.7797736,-0.007456851
290,0.977227049367388,0.7210847081556404,1,,-0.930405068776511,0.10557278272312733,-0.2984692902405628,0.10812721202666008,0.4957431910158981,-0.00831494931388471
291,0.9772926524680271,0.6117489901630897,1,,-0.9312754527619461,0.10296532235381528,-0.28037384680083244,0.08948222,0.42717105,-0.008522116
292,0.9772154395433112,0.5120071333756578,1,,-0.9255740235510099,0.10257410022790658,-0.2739507274276056,0.08948222,0.42717105,-0.008522116
293,0.9770388590268032,0.4255292988525827,1,,-0.9166662439583811,0.10755913809634365,-0.29744495690379563,0.11122612174888327,0.33266868272194183,0.029111569222692882
294,0.9768102954498433,0.3541197580384592,1,,-0.9144294441925377,0.11271467151176297,-0.3205487097395054,0.11717909,0.30679616,0.039414786
295,0.9765727723355461,0.297824097173842,1,,-0.917008080111868,0.11042269347773438,-0.3301968752273379,0.16968712691558255,0.27479908788089824,0.04679872577903679
296,0.9763598747540854,0.25525631637517204,1,,-0.9142617466702307,0.10718154662736432,-0.31920080670117223,0.16184068563836906,0.25552035686732805,0.04332604885918512
297,0.9761938727633289,0.2240648043982999,1,,-0.9120470364351804,0.11146137194995238,-0.33189219156708605,0.15446335,0.25246766,0.041545313
298,0.976086183226087,0.20144603256386506,1,,-0.903662846892901,0.11216374773406385,-0.35697219167467403,0.15446335,0.25246766,0.041545313
299,0.9760391217504787,0.1846211076584057,1,,-0.9036567776345031,0.11185460886235361,-0.35333524645397113,0.14262400556005542,0.1822209531312653,0.04075602287671541
300,0.9760480688705034,0.1712098962507205,1,,-0.9085462687106095,0.11113816238026154,-0.34041503755725894,0.13848437,0.15765914,0.040480047
301,0.9761034778248691,0.15946517507046923,1,,-0.908201582747175,0.11389890570289742,-0.33845090133837613,0.0997257694314576,0.15300811171571363,0.023426260130191456
302,0.9761925086218828,0.14835874647804334,1,,-0.9045514868339907,0.11081532675064171,-0.3440751124228884,0.0752644457036923,0.11067480071954612,0.013214726275703382
303,0.9763003756782975,0.13753679046553383,1,,-0.9049513381772339,0.1056867966967118,-0.35059121562872014,0.07137272,0.094808534,0.011717909
304,0.9764116095073244,0.12717927692542022,1,,-0.9038592955715493,0.10152612610724093,-0.3620666633921651,0.07137272,0.094808534,0.011717909
305,0.9765113443475995,0.11780698127861645,1,,-0.9007470359256711,0.10499212515418481,-0.35891131727540976,0.05794977030193795,0.041116737307848435,0.00948075095033373
306,0.9765866011903727,0.11008040344881884,1,,-0.9032679752279786,0.10629458480061865,-0.34924790759418634,0.05219796,0.018109497,0.008522116
307,0.9766274775759992,0.10462926156739392,1,,-0.9073599638706921,0.1051565928822455,-0.34664433572436704,0.022273971031575995,-0.03225038505222421,-0.0031555383652655993
308,0.9766281297495996,0.10194008308775773,1,,-0.9101652553184013,0.10526767019906139,-0.34283365745567124,-0.0037266337285248546,-0.09358102725244428,-0.007801600952007663
309,0.976587315100991,0.10231330652434618,1,,-0.9124277288547525,0.10534121815102272,-0.33799252117231254,-0.00958738,-0.111852765,-0.007456851
310,0.976508125879538,0.10588283534505309,1,,-0.9118622958284357,0.10622911741411714,-0.33750928262802443,-0.014516170762161398,-0.12663914521818206,0.007329521286484191
311,0.9763966255806802,0.11267530748217479,1,,-0.9115194272110926,0.10688567681447342,-0.3351301716845713,-0.017044231,-0.13422333,0.014913702
312,0.9762595014176826,0.12267811423820894,1,,-0.9094806102592042,0.10649704592459334,-0.33203310763703564,-0.019107721409989297,-0.16655134405563699,0.019728514678480715
313,0.976101399948078,0.13588565254095586,1,,-0.908269184685902,0.10842199187960873,-0.3275789110471539,-0.020240024,-0.18429075,0.022370555
314,0.9759229854602315,0.15230090971747348,1,,-0.913506547803057,0.10857830043114056,-0.31923494267818653,-0.020240024,-0.18429075,0.022370555
315,0.9757206566758219,0.1718823158449117,1,,-0.9190111865009445,0.10840421985764209,-0.313708652203976,-0.022899007376032475,-0.18960871300794782,0.0123993668406626
316,0.975488233835589,0.19444192018234133,1,,-0.9197274231500637,0.10596911158662892,-0.3148655793833266,-0.024501082,-0.19281286,0.0063915867
317,0.9752201064928355,0.2195174514077389,1,,-0.919408287499463,0.09832244568373258,-0.31388562628320127,-0.018000622925230667,-0.17071129890169617,0.01159195402083749
318,0.9749147994006812,0.2462537705652787,1,,-0.920239075553876,0.09966377240246826,-0.3067721259224691,-0.013848438,-0.15659387,0.014913702
319,0.9745779203246606,0.27333452963742755,1,,-0.9207246103409421,0.10888118081459773,-0.29900898720028724,0.003917503384985993,-0.22004366491512709,0.028238158038739494
320,0.9742238401753975,0.2989994748280977,1,,-0.922449319526399,0.11268777542501807,-0.29380039694759236,0.015978966,-0.26312032,0.037284255
321,0.9738758787374959,0.32116684700594467,1,,-0.9215227618107806,0.10945957152815572,-0.2882533948635876,0.026520940438827835,-0.2990870547455474,0.039764719505356656
322,0.9735650048290321,0.33765822760879705,1,,-0.92518039833003,0.11001891533745507,-0.2866197171854066,0.033476810751122056,-0.32429399971263073,0.03604044907605596
323,0.9733270906676883,0.3465016068940538,1,,-0.9295822070096715,0.11126786338089385,-0.2849587698719389,0.033023197,-0.32384038,0.03195793
324,0.973198728066618,0.3462717979164934,1,,-0.9276827391522424,0.10585217905356034,-0.2744492986413625,0.033023197,-0.32384038,0.03195793
325,0.9732117543599643,0.3364159520179758,1,,-0.9303043851961016,0.1041088700620132,-0.2580929465663841,0.03361152880520932,-0.3985584187454792,0.03313459416270493
326,0.9733870799893855,0.31750478467711746,1,,-0.9357744405924949,0.10854163700739332,-0.24195174450259008,0.02828799205375139,-0.4626092587561797,0.024807709486002225
327,0.9737289595192544,0.2913490091750847,1,,-0.9375942784895662,0.11651964253981667,-0.22667744780557555,0.023435818,-0.46552056,0.017044231
328,0.9742211138798129,0.2609315751534251,1,,-0.9373030405070675,0.12254320023667002,-0.22382485184238804,0.026256104560246615,-0.3273265174889161,0.011403657720656818
329,0.9748259008480188,0.23013517559955013,1,,-0.9392660519978182,0.11834948296540072,-0.23258966469912262,0.02876214,-0.20453078,0.0063915867
330,0.975487153203719,0.20328772469767117,1,,-0.9392237306729064,0.11168088615009963,-0.2328727504865181,0.030952700738182116,-0.1508620298334565,0.0014628240880263646
331,0.97613657455778,0.18459194016703817,1,,-0.9404259192089673,0.10594430082948407,-0.229579766316258,0.033023197,-0.10013486,-0.0031957934
332,0.976702870074364,0.17753277477033141,1,,-0.9463568396714591,0.10378806468604099,-0.23261368860392198,0.020823898190297875,-0.10490849890279624,-0.0031957934
333,0.9771221985548944,0.184361124718523,1,,-0.9455875356671035,0.1041896930035334,-0.23434575367973276,0.008522116,-0.10972224,-0.0031957934
334,0.9773481660269702,0.20573748172243045,1,,-0.942443629083056,0.10222888340221403,-0.23513704867238314,0.008522116,-0.10972224,-0.0031957934
335,0.977359570622673,0.2405926447578472,1,,-0.9466668647521483,0.1072902088567781,-0.23270284227381244,-0.013775950383649269,-0.13049998242148586,0.00592614247592511
336,0.9771644961701614,0.28622997195410976,1,,-0.9474541890091842,0.11653174151792145,-0.22309918619645286,-0.05477843776449339,-0.2445038818239426,0.02394450107858281
337,0.9768000129916022,0.33865779033874466,1,,-0.9437935922080205,0.12752748245163578,-0.2125246867996903,-0.07350325,-0.34834146,0.033023197
338,0.9763275215708843,0.39310481160631255,1,,-0.9441462940030454,0.14147997207129934,-0.1989476031360967,-0.06533222059463596,-0.4310130564081672,0.03013930572846386
339,0.9758245413785778,0.444642139987496,1,,-0.9461469617061206,0.14848591916950823,-0.18718849159382728,-0.05539375,-0.531567,0.026631612
340,0.975374322023008,0.4888199918903016,1,,-0.9480017445565921,0.1426657683567257,-0.17815419182918868,-0.05539375,-0.531567,0.026631612
341,0.9750548832639191,0.522228820671647,1,,-0.9507401045838993,0.1277089691876934,-0.16045904881802356,-0.047147666016078234,-0.5668418935804703,0.012430020298058949
342,0.9749290073043722,0.5429103211654055,1,,-0.9562620734314353,0.11939627847181417,-0.14465705556357955,-0.036218993,-0.6135923,-0.0063915867
343,0.9750364443886815,0.5505674168737583,1,,-0.9579889504524225,0.11910063269942782,-0.1337434165636277,-0.03977607498246728,-0.6171493748867664,-0.015284290320506856
344,0.9753892228977402,0.5465484113920415,1,,-0.9576461951492752,0.1187676613713846,-0.1227683059568181,-0.05392256441725855,-0.5945700572695222,-0.03163178521186479
345,0.9759705040726567,0.5336070104236492,1,,-0.9600119770513988,0.11658717311819573,-0.1163846060005866,-0.06711166,-0.5550028,-0.037284255
346,0.9767369144091826,0.5154665566342773,1,,-0.9663674031530375,0.11450089289880375,-0.10752355274669856,-0.09155182361699837,-0.5318267735016498,-0.03770563733593053
347,0.9776237535396723,0.49624205903143104,1,,-0.9718559842942924,0.11284675904314836,-0.08872947748269205,-0.128897,-0.49641323,-0.03834952
348,0.9785520465700556,0.47979494379640847,1,,-0.9717266568143736,0.11274883523983588,-0.06708007768362316,-0.13537749489410167,-0.44780951639315586,-0.02619859129411589
349,0.9794363633629348,0.4691113014885754,1,,-0.966157605822245,0.11398974327040577,-0.05603255577606997,-0.14594123,-0.3685815,-0.0063915867
350,0.9801927748575002,0.46580358794603605,1,,-0.9674220145914693,0.11278334390969326,-0.05622211902497019,-0.13856291528025597,-0.21402526525715843,-0.004061593205369301
351,0.980746884723847,0.4698343963908195,1,,-0.9719414801097211,0.11075411379052381,-0.06865958963275144,-0.1257012,0.05539375,0.0
352,0.9810419578182991,0.4795405429122262,1,,-0.9721706386262766,0.11168401901483728,-0.08822754264330858,-0.1636498187660255,0.23434753791050533,0.007068859769443308
353,0.9810465855432328,0.49198745493977397,1,,-0.972260888798079,0.11269547461077872,-0.09943935916528919,-0.23435818,0.567786,0.020240024
354,0.9807605508702434,0.5036103519888062,1,,-0.9707884812061025,0.1150292657568186,-0.10558859186202182,-0.23435818,0.567786,0.020240024
355,0.9802172055800079,0.511022326688077,1,,-0.9687104685709458,0.11311085183253881,-0.12254026354609367,-0.25792536638207403,0.6034833446478105,0.0365291102171449
356,0.9794810006241635,0.5118215842104862,1,,-0.9697742626471038,0.10438188127025914,-0.157979054524969,-0.30679616,0.6775082,0.070307456
357,0.9786397182330926,0.505228473045183,1,,-0.9582667106367251,0.09260310842151685,-0.1736929321359458,-0.31836916352908645,0.6341921069300894,0.08948557267518102
358,0.9777922612082005,0.4924230462995876,1,,-0.9469717396166301,0.09883011296360064,-0.15780631903349926,-0.354766063359071,0.4187974191888639,0.1324165991246422
359,0.9770342357805046,0.47651980174359565,1,,-0.9541417222726278,0.11630217634069984,-0.15094463269523264,-0.37923414,0.14594123,0.13315806
360,0.9764443506030666,0.4621897344114699,1,,-0.9607053713259572,0.13754462685636046,-0.15788732695634133,-0.37923414,0.14594123,0.13315806
361,0.9760742791164309,0.4550017484125034,1,,-0.9503891452168786,0.16028791554389413,-0.1509753472331989,-0.3636983034888525,0.029123711006409914,0.12987163326145867
362,0.9759434247701313,0.46059129719438896,1,,-0.945151060386466,0.17632224949819195,-0.13216674799539654,-0.3130315851040399,-0.31468875815414254,0.11179986657830822
363,0.9760389522620835,0.48377238335307393,1,,-0.9489806315950867,0.17939331519090396,-0.10138901944943529,-0.28442562,-0.4314321,0.08628642
364,0.9763208867626079,0.527700670713322,1,,-0.9557688585102091,0.16497244151584553,-0.11006550910333984,-0.28442562,-0.4314321,0.08628642
365,0.9767315338732033,0.5931842288620032,1,,-0.9591812111876781,0.14910937407324518,-0.116519853605993,-0.27207866071350845,-0.42847956379267765,0.07340263819334301
366,0.9772075326122344,0.6782314568022053,1,,-0.9618405833028172,0.13497378355900586,-0.12716109847842924,-0.23542345,-0.41971418,0.035153728
367,0.9776918677235437,0.7779190121550094,1,,-0.9767673666953502,0.1524705981897508,-0.12069076820271328,-0.2622214220103905,-0.4768495026811786,0.04020995010571441
368,0.9781428581585628,0.8846439021202556,1,,-0.9618555805831545,0.15531672128482357,-0.07978133222810349,-0.34834146,-0.660464,0.056459017
369,0.9785380100970752,0.9887826526042252,1,,-0.9536203640814918,0.14452798095095448,-0.04395301421833784,-0.363035344013217,-0.7351183830819641,0.06830891924954079
370,0.9788725059674623,1.0797172233474825,1,,-0.9734814835006816,0.1476666342814951,-0.02131276866012536,-0.4007751216303094,-1.054626346907916,0.11272166096859439
371,0.9791539921668216,1.1471152572111731,1,,-0.9674594457402736,0.14404983220382114,-0.009495584615482722,-0.35153726,-1.2665994,0.12357068
372,0.979396168658783,1.1822910913709814,1,,-0.9605771956002428,0.15424611865505464,0.04199310320488071,-0.3395233121014242,-1.2916999855402564,0.1289340501729817
373,0.9796134080869778,1.1794424395603262,1,,-0.9559336821442675,0.1528901070947507,0.10081440039689357,-0.29188246,-1.3912354,0.15020229
374,0.9798178506747591,1.1365664998378293,1,,-0.9479238683193308,0.17085274076728998,0.15396618368691356,-0.2554386700443214,-1.3555795964820538,0.1442924869531054
375,0.9800193689580124,1.0559070587594803,1,,-0.9473031160898896,0.2191825371453605,0.18940317997178477,-0.094808534,-1.1984226,0.11824436
376,0.9802274483698324,0.9438600834416183,1,,-0.94217301854589,0.24321790873185115,0.16733740159218963,-0.0774282534811931,-1.0932450046368303,0.10821038231402
377,0.980452906184304,0.8103544611215516,1,,-0.9436988790318835,0.21810223189443342,0.1479149933440875,0.008522116,-0.57311225,0.058589544
378,0.9807073237056594,0.6678093997807966,1,,-0.9585256690870128,0.17016394095687248,0.15383838050219878,0.008522116,-0.57311225,0.058589544
379,0.9809992820398694,0.5298307531398049,1,,-0.9515082031593236,0.17748915678887883,0.16481989084402437,0.004376724715510736,-0.5301230120141038,0.052601756637113285
380,0.9813282644340308,0.4098311337922793,1,,-0.9364013748675255,0.1824834837499731,0.19148411988624794,-0.016103367363861025,-0.24780223141379987,0.012464361192470835
381,0.981678551169169,0.31974527609328784,1,,-0.9401352261486872,0.17984353392285082,0.19475526273270025,0.00958738,-0.07989483,-0.015978966
382,0.9820160457529143,0.26897679263032215,1,,-0.9349289044280746,0.1799373509251643,0.1830403872882708,0.012752381221746587,-0.017649810181367305,-0.026001469497477413
383,0.9822904129008151,0.2636643078209084,1,,-0.9521561792263593,0.1756957760864039,0.16301384205959712,0.035153728,0.42290998,-0.096939065
384,0.9824431332628825,0.30629569526816447,1,,-0.9636660987991462,0.17224133646021678,0.14790888093469606,0.035153728,0.42290998,-0.096939065
385,0.9824196546580296,0.3956398385547536,1,,-0.9693008797737824,0.1686615185180321,0.13987235702150047,0.03791216722201655,0.43861187002709673,-0.09800000335384076
386,0.9821819248722994,0.5269291887716171,1,,-0.967879901014082,0.1682669656579277,0.12687795094712356,0.0628506,0.58056915,-0.10759171
387,0.9817173713131601,0.6922266324839202,1,,-0.9560222363975988,0.17291062697251355,0.11350341300811205,0.06257419205421534,0.5989963622423782,-0.10233995349464976
388,0.9810420486335497,0.8809352034991678,1,,-0.9522493372883682,0.1727519541082185,0.10565988514655895,0.05922224549457188,0.8257182748680355,-0.04955353473170818
389,0.9801981360417797,1.080435394831439,1,,-0.9536118460768434,0.17027732941360732,0.07938804513139032,0.054328486,1.1888351,-0.07989483
390,0.9792476252503224,1.2768477087533232,1,,-0.9697057036706986,0.16088767653968333,0.035036585715643165,0.054328486,1.1888351,-0.07989483
391,0.9782640327338779,1.4559183330835828,1,,-0.9815051708438075,0.1568115010424203,0.0038011287013653304,0.05341975508002063,1.2079790342016727,-0.0806218151454507
392,0.9773229119601119,1.604019140045782,1,,-0.9681180046054839,0.16151129732564856,-0.014895728389062656,0.03834952,1.5254587,-0.09267801
393,0.9764913965412554,1.7092373671392918,1,,-0.9536197020561407,0.16768126450315882,-0.03053213165115967,0.03874463182914516,1.5350730872930434,-0.09013173367614973
394,0.9758179338643345,1.7624974224097438,1,,-0.9405310270647301,0.1651135418855572,-0.06698875355692217,0.0479369,1.7587516,-0.03089267
395,0.9753249645841829,1.7586078853004337,1,,-0.9411359863216208,0.15848760759039388,-0.13629195827180504,0.050584808786697466,1.7716601541699868,-0.03251752313836871
396,0.9750076329767042,1.697075109684202,1,,-0.9373831738339308,0.15792966974640435,-0.23875209206552617,0.13957710857992636,2.2156735260756513,-0.08908610581175525
397,0.9748396156140002,1.5824923703222769,1,,-0.9267309611766602,0.15335283077215153,-0.30059045676162893,0.024501082,2.211489,-0.1257012
398,0.9747838895158696,1.424326484732541,1,,-0.9157689624392202,0.15119165267878806,-0.3486298717236842,0.024343692489175575,2.2051749031442713,-0.1256410216695122
399,0.9748040478711089,1.2360082070236882,1,,-0.8995925213379549,0.15505468955845614,-0.3208642796597547,-0.011462403937776486,0.7687185619237944,-0.11195045809273065
400,0.9748721196165321,1.0333895561567186,1,,-0.9231296199769594,0.14687631987794397,-0.27408536868445466,-0.011717909,0.7584683,-0.111852765
401,0.9749712052816171,0.8328105452218657,1,,-0.926754974935309,0.1470174894073289,-0.27329207604060696,0.15809670779780838,-0.1593641195853089,-0.13893975939644176
402,0.9750937417219914,0.6491353649639672,1,,-0.9139955951676381,0.14678519177507904,-0.26972152820164624,0.16192019,-0.18002969,-0.13954964
403,0.9752374644402201,0.4941175428312818,1,,-0.9216450073999456,0.14466022670078887,-0.28515838875954963,0.16192019,-0.18002969,-0.13954964
404,0.9754010346893751,0.3753469822119995,1,,-0.9203063492140402,0.14598582136183244,-0.3077567340293941,0.19767381557597394,0.17546336691459755,-0.16815252511763287
405,0.9755804432138855,0.2958777269644345,1,,-0.9216264873179213,0.14465563861071998,-0.2894662504318609,0.24670890144144425,0.15126374760786032,-0.17544144101912024
406,0.9757664257369106,0.25449253276740247,1,,-0.9246982226444342,0.16094695982474763,-0.26952662581759834,0.24927188,0.14913702,-0.17576863
407,0.9759428245340251,0.24646255676183335,1,,-0.9168936673100381,0.17195604409883375,-0.263612544171014,0.24927188,0.14913702,-0.17576863
408,0.9760861435176116,0.26461504623051024,1,,-0.9197313350590621,0.1685830912806762,-0.2716669589203081,0.2740089276332543,0.18574784343787998,-0.19061085672223246
409,0.9761668575341096,0.3005190240635777,1,,-0.9224663804515812,0.15679787737224116,-0.2716349631360977,0.2759035,0.18855181,-0.1917476
410,0.9761527513158227,0.3456231853310827,1,,-0.9296145862226989,0.1444038248637006,-0.2814220053669593,0.3813058629773397,0.17000880415847816,-0.21907413685309637
411,0.9760137457380501,0.3922184382030178,1,,-0.9207297508959627,0.09111236478643932,-0.3239435900513183,0.39095205,0.16831179,-0.221575
412,0.9757269669469214,0.4341415172108682,1,,-0.9173264014768929,0.03399399847205034,-0.3319791639267739,0.399593263479457,-0.1398914937716721,-0.19469122873640587
413,0.9752808223814544,0.4671809876679038,1,,-0.9190217304542972,0.018309592453494762,-0.30603090947761774,0.40053943,-0.1736381,-0.1917476
414,0.9746775194210782,0.4891882862779279,1,,-0.9149280712467499,0.02207650000609743,-0.329257800162694,0.34480881003215624,-0.33610704554575693,-0.16152082397003303
415,0.9739341207481704,0.49992942119749756,1,,-0.9163026511238564,0.044562724713733765,-0.3330615674883601,0.33768883,-0.3568636,-0.15765914
416,0.9730822637843177,0.5007351155254189,1,,-0.9340311982599364,0.057417442665442936,-0.29564983018864843,0.39340889705568444,-0.22963611050498509,-0.18180450500611267
417,0.9721662303336311,0.4940200415005458,1,,-0.9376514737042184,0.06327744514689862,-0.26846180306152895,0.33092271676094037,-0.17145061644355727,-0.17525858520590346
418,0.9712389263573293,0.4827478212746069,1,,-0.9231832976236811,0.0612683977450055,-0.27585628794128425,0.31957933,-0.165116,-0.1736381
419,0.97035604806265,0.46991704376351356,1,,-0.9250611318942841,0.04656309693810537,-0.2524894035478674,0.31957933,-0.2011452080528477,-0.1736381
420,0.9695698177485892,0.4581319823506691,1,,-0.9336470187363385,0.050318365695627684,-0.24645171158585008,0.31957933,-0.20772657,-0.1736381
421,0.9689240815186645,0.4493002593026924,1,,-0.9316884685994069,0.06794745268958922,-0.26725541098872047,0.3567076871266727,-0.14054195696472044,-0.21872251290760578
422,0.9684517132625141,0.4444737960855307,1,,-0.9384288634741739,0.049174149034517896,-0.28164044100663616,0.36432046,-0.12676647,-0.22796659
423,0.9681738656947946,0.44382620473598045,1,,-0.9410134308804199,0.022357696438956284,-0.23642188067524791,0.36432046,-0.12676647,-0.22796659
424,0.968099972240318,0.4467438145378765,1,,-0.9351129462302823,0.024652165322916367,-0.19977366575558564,0.3074269411736613,-0.24313955756345,-0.20727804505597022
425,0.9682280662129593,0.45199926804946206,1,,-0.9319119733354244,0.028718115827267136,-0.2159178871033709,0.3280632075629422,-0.2552545673957782,-0.21942534579044928
426,0.9685460201895263,0.4579739860420542,1,,-0.938249500990168,0.01923514433674484,-0.25540648751119877,0.33662358,-0.2514024,-0.22370553
427,0.9690343000099112,0.46289649281850814,1,,-0.948250043178884,0.005695463324150053,-0.25199859744341463,0.31825344609010947,-0.28563763780161794,-0.2345606052093305
428,0.9696695627931107,0.46506664489498706,1,,-0.9389306875060618,-0.02562190430568931,-0.2537497711760283,0.31318775,-0.29507825,-0.23755397
429,0.9704272506689283,0.4630413441623807,1,,-0.9337433234435067,-0.038400346107369795,-0.2576567817689584,0.31318775,-0.29507825,-0.23755397
430,0.9712815572956575,0.455765352566825,1,,-0.9393336759777569,-0.03402785201020571,-0.2522354075223781,0.2643858745656185,-0.3219192979048691,-0.2058327475317536
431,0.9722026153394219,0.4426406361061591,1,,-0.9408704123479776,-0.02024451293940022,-0.22781958821134093,0.24927188,-0.330232,-0.19600865
432,0.9731523019786252,0.42353787290552586,1,,-0.945511647029445,-0.020757481540715696,-0.21449190049562894,0.20534532647670806,-0.2615468250428916,-0.20639129237736117
433,0.9740808282204897,0.39876247450019786,1,,-0.9396753996981235,-0.04558740559684504,-0.23149130678583615,0.19068234,-0.23861924,-0.20985709
434,0.9749261263443818,0.36899251671670996,1,,-0.9406811033345244,-0.07528994389635418,-0.24656301483402515,0.16717134255174854,-0.22294524415345116,-0.20985709
435,0.9756171851495649,0.3352056652041485,1,,-0.938421447227564,-0.0805506734447168,-0.2464013193932148,0.1145846906905055,-0.18014366403806936,-0.23076538039694644
436,0.9760812421623674,0.2986065727646005,1,,-0.9490571212860741,-0.04564469664750059,-0.21791744813520803,0.098004326,-0.16618125,-0.23861924
437,0.9762535462558709,0.26055772529813986,1,,-0.9649987591755163,-0.030221013634332654,-0.2167371589988992,0.098004326,-0.16618125,-0.23861924
438,0.9760876442338936,0.2225091639020742,1,,-0.9600889236088076,-0.04085586543606697,-0.15658398094047069,0.04161470945038438,-0.11505466312378645,-0.20704105066681835
439,0.9755640969239732,0.18591955621174172,1,,-0.9474486032466657,-0.061854238440801644,-0.1651920192428653,0.018109497,-0.09374327,-0.19387813
440,0.9746961359480343,0.15216447471788494,1,,-0.9514485193595268,-0.08659987745711159,-0.20614595742747793,0.03504836747320593,-0.10405388494613325,-0.10992025753746461
441,0.9735314155633573,0.12243609042142853,1,,-0.961907088684974,-0.08036595351944552,-0.22043335953438953,0.033171895313936016,-0.04766855793321403,-0.04993035665793642
442,0.9721491387802812,0.09764772033866304,1,,-0.9590782436573072,-0.05349346053493722,-0.19375076049188938,0.02876214,-0.01917476,-0.039414786
443,0.970651941898657,0.0783618745676389,1,,-0.9437727557630055,-0.05364009596162679,-0.1771462569216034,0.02876214,-0.01917476,-0.039414786
444,0.9691530153130137,0.06475822922637998,1,,-0.9377371943679227,-0.07536773463191244,-0.1813965291548498,-0.021830324952925955,0.03352572542533651,0.016799064240861358
445,0.9677608149966421,0.056648498579693354,1,,-0.9451375678703884,-0.0771730093638212,-0.19711484183805436,-0.0479369,0.060720075,0.04580637
446,0.9665648570633579,0.053532682291534954,1,,-0.9457479717101214,-0.06075730859564251,-0.19652653220944813,-0.01977781096498833,0.09231319980211217,0.010092403953663044
447,0.9656255540092331,0.05468151623055009,1,,-0.9409724556355009,-0.04782233627371553,-0.19773370575882318,0.016757870395101467,0.05615787324809363,-0.02246994928326759
448,0.9649695300612285,0.05922732181268009,1,,-0.9391318813261442,-0.042910687177690233,-0.19583027541043985,0.02876214,0.025566347,-0.029827405
449,0.9645904848732783,0.06624972950124178,1,,-0.9452680646415804,-0.04656261898428135,-0.19050707575715303,0.02876214,0.025566347,-0.029827405
450,0.9644547598386246,0.07484964606387384,1,,-0.9457491628081818,-0.06360644913253259,-0.1987952821256675,0.01762136105734053,0.024255667015830075,-0.07307984324722767
451,0.9645100401630282,0.08420937625799686,1,,-0.9421982009292058,-0.06422718204006614,-0.2071291512547587,0.010652645,0.023435818,-0.10013486
452,0.9646951382784849,0.09363753500670648,1,,-0.9466679149758996,-0.04594697960886307,-0.1990307795305491,0.009372742995202297,-0.01368133833690208,-0.10077481190351449
453,0.9649488851687633,0.10259670985050756,1,,-0.9453452096724136,-0.05215780987956921,-0.18645711493201245,0.008522116,-0.03834952,-0.101200126
454,0.965216871936033,0.11071265532440555,1,,-0.9402502438428173,-0.07676979965211936,-0.18850476614574763,0.00038558209781894124,-0.0521190396977852,-0.0880564932407278
455,0.9654557576838676,0.11776654442009483,1,,-0.9411671278104367,-0.07206400594206123,-0.19279527589991,-0.0053263223,-0.06178534,-0.07882957
456,0.9656355678980718,0.12367459491476382,1,,-0.9455069646433722,-0.05891837011571604,-0.18652794369869777,0.0026184240660851897,-0.0703412191044247,-0.10144154276103769
457,0.9657405412963945,0.12846026132296295,1,,-0.9486948924494115,-0.06627014971986075,-0.18360540249019372,0.008522116,-0.07669904,-0.11824436
458,0.9657687596017484,0.13222290010537077,1,,-0.949543014179154,-0.07899954854600484,-0.18378572236853222,0.014475328288450636,-0.06598325743371018,-0.1230069269247492
459,0.9657304811876538,0.13510500015474763,1,,-0.9441594895585881,-0.08594722663933706,-0.1830583954410449,0.01917476,-0.06574306394631581,-0.10798068914448995
460,0.965645227739798,0.13725953302025176,1,,-0.938711465067557,-0.08566246277953966,-0.18024566977875314,0.01917476,-0.07243799,-0.09267801
461,0.9655382146144007,0.138819742384826,1,,-0.9412252885760268,-0.07355396256767656,-0.16574677894313034,0.02317333985810212,-0.06615450483790308,-0.11895438640917338
462,0.9654371158595482,0.13987408926508024,1,,-0.9483040673523776,-0.06639877554022301,-0.17237889382267882,0.026631612,-0.060720075,-0.14168017
463,0.9653698201120163,0.14044800979103697,1,,-0.9517308393404259,-0.08176304407036435,-0.1930352161588939,0.03495636707752762,-0.05073036869857405,-0.13890525303010953
464,0.9653628409360792,0.14049270430918065,1,,-0.9487390716701986,-0.09827529260189592,-0.18966703932841847,0.04261058,-0.041545313,-0.13635385
465,0.965439277305199,0.1398813656271367,1,,-0.9426677606327974,-0.09579311849619565,-0.17330911398585339,0.02322811328215198,-0.04531412521479071,-0.11104896365426704
466,0.9656155388721475,0.13841545702698688,1,,-0.9392856887928089,-0.09145437519520623,-0.16983524346345794,0.004261058,-0.049002163,-0.08628642
467,0.9658973082273877,0.13584574672371366,1,,-0.942398739803346,-0.09460589330775068,-0.169471638966719,0.014706227131592023,-0.04586861407449102,-0.10613224179126045
468,0.9662763142910171,0.13191180035961078,1,,-0.9464608102857707,-0.095045186862417,-0.16694834356985777,0.025566347,-0.04261058,-0.12676647
469,0.9667295204442159,0.1263983584501093,1,,-0.9465318427311548,-0.0977317575769016,-0.17648536569654624,0.025566347,-0.04261058,-0.12676647
470,0.9672213918556024,0.11919957388332499,1,,-0.9458641950946854,-0.09945519035160169,-0.17027545152048704,0.03853651641021177,-0.04710025363036643,-0.12726532054430764
471,0.9677087844393043,0.11037639603083209,1,,-0.9487137287043983,-0.09781971761503801,-0.16307699689184493,0.0601393348448761,-0.045321847849824126,-0.1160441144403837
472,0.9681472804952648,0.10019133500304873,1,,-0.9500800733594151,-0.11058292777087042,-0.17474750134292835,0.068176925,-0.037284255,-0.10226539
473,0.9684975503994294,0.08910886169311638,1,,-0.9464452689349004,-0.12493643621037415,-0.17330656026623212,0.05773371486502616,-0.02779042642978187,-0.07568266964690203
474,0.9687304267072027,0.07775746004469121,1,,-0.9463356606146112,-0.11876126781776003,-0.1681328747225736,0.04474111,-0.015978966,-0.04261058
475,0.9688297960400191,0.06685849865531732,1,,-0.9487053292082708,-0.1113035106072404,-0.1716323913405702,0.04474111,-0.015978966,-0.04261058
476,0.9687930609336075,0.05713476290220948,1,,-0.9450569568282607,-0.1188657975826111,-0.17278273538774458,0.036187417880967666,-0.00427391591759282,-0.03045533459461376
477,0.9686295699268525,0.04921550198304843,1,,-0.9416833680109089,-0.12394850765631765,-0.16583452373851643,0.022287600317078677,0.012160605378141679,-0.010749563436123077
478,0.9683578220906767,0.043554828891238045,1,,-0.9461700604041263,-0.1199858092629295,-0.1679831246985622,0.01917476,0.0127831735,-0.0063915867
479,0.9680022906186141,0.040377199857044396,1,,-0.947537264904513,-0.11717759767595892,-0.1744224890742779,0.020028158657991367,0.01790356284432785,-0.003831392047863925
480,0.9675904022725385,0.03965843705243746,1,,-0.9444576106124052,-0.11408986094871151,-0.1704004735924642,0.02130529,0.025566347,0.0
481,0.9671497886317298,0.041144145501285916,1,,-0.9465977045126576,-0.10952121681642815,-0.16840277695707412,0.02130529,0.025566347,0.0
482,0.9667056906877909,0.04440057605151308,1,,-0.9481005487413331,-0.1080762645470131,-0.17176838033815978,0.022913553499010423,0.037226259915498265,0.011257846757670916
483,0.9662784490472524,0.048887268369766576,1,,-0.9443141965816438,-0.10917692099360876,-0.17614878113731489,0.02793445973787644,0.051328103412649366,0.042852031912660814
484,0.9658812572483809,0.054037087312749976,1,,-0.9398249269534483,-0.10626728799921409,-0.1750456372635123,0.03195793,0.04261058,0.06498113
485,0.9655186717397362,0.059328389645768476,1,,-0.9399310081542055,-0.102960214432827,-0.17269025340206642,0.03158002488055238,0.038831511067829734,0.05628927571305495
486,0.9651865521416004,0.06433684753663844,1,,-0.945755232618377,-0.10275164993443563,-0.17112553815778223,0.03089267,0.03195793,0.040480047
487,0.9648738835656325,0.06876058517566525,1,,-0.9461803304201473,-0.10479087402055216,-0.17442098424640262,0.034137563936316916,0.03340010730156688,0.042643311090848825
488,0.9645663246842673,0.07241949121241212,1,,-0.9430293774656724,-0.10544495834991618,-0.17887007385453318,0.040480047,0.036218993,0.046871636
489,0.964250761583461,0.075234969109319,1,,-0.9414590791994863,-0.10058020359672529,-0.17521843595554598,0.04151152829686303,0.028998631668242722,0.05065372946224487
490,0.9639200255268686,0.07719869108065301,1,,-0.9397382617033488,-0.09778040298451562,-0.1728620442077811,0.043675844,0.013848438,0.058589544
491,0.9635771548718316,0.0783388788624247,1,,-0.9446022728715797,-0.09797145641114129,-0.17229071328577555,0.04760946696536958,0.022043485408584952,0.049083288526000086
492,0.9632387260363422,0.0786915657760904,1,,-0.9445166925508449,-0.09995856337350835,-0.1767115942048435,0.056459017,0.040480047,0.027696876
493,0.9629366552680485,0.07828286485171629,1,,-0.9407509700050476,-0.10184142393171981,-0.18440146837299212,0.056459017,0.040480047,0.027696876
494,0.9627177265562963,0.07712656743818494,1,,-0.9406814945924347,-0.09822791792159227,-0.17935611944587143,0.05039689882054095,0.03805519932986621,0.027696876
495,0.9626402450663357,0.07523942276363096,1,,-0.9429567621861125,-0.08669181859761856,-0.16608005548901972,0.035153728,0.03195793,0.027696876
496,0.9627676368396089,0.0726740875570579,1,,-0.9496957589515673,-0.07882838267020957,-0.17850748320594093,0.037173312592211925,0.03715114798712108,0.023946219287086554
497,0.9631592959572838,0.06956654974541358,1,,-0.9448102875316383,-0.0912353043530433,-0.19197853004141424,0.04261058,0.051132694,0.013848438
498,0.9638595063550734,0.06619046439082404,1,,-0.9298649466291671,-0.1287862159021436,-0.17843930540042766,0.04014626967950145,0.05469225178105074,0.024527112371299464
499,0.9648859947880719,0.0630059058531496,1,,-0.9364876551249652,-0.10139564793662427,-0.16713304815120306,0.033023197,0.06498113,0.05539375
500,0.96622039024781,0.06068634323277574,1,,-0.9437745061292789,-0.09417284466290175,-0.18386899971185788,0.0376891273995046,0.06549956690031822,0.038285341536306826
501,0.9678029026555558,0.06010724813507411,1,,-0.9482021130540514,-0.09772515813090317,-0.19109834479451812,0.05270362350188249,0.07191547110017275,-0.014408037904762274
502,0.9695325960371821,0.062283767190172715,1,,-0.9480038183038024,-0.07981447450307437,-0.1884579736582044,0.054328486,0.08735169,-0.0127831735
503,0.9712733611236637,0.06825314258747178,1,,-0.9363562317515028,-0.11366209260054984,-0.21334053778916567,0.054328486,0.08735169,-0.0127831735
504,0.9728649400095787,0.0789090494958874,1,,-0.9430605611261016,-0.14265719997108958,-0.1966830495987842,0.046364614656602264,0.06027452551005868,0.00018656005953214953
505,0.9741382060421114,0.09480827655207066,1,,-0.9528766163212767,-0.08929076601420231,-0.16542193692447407,0.017044231,-0.039414786,0.0479369
506,0.9749338188724174,0.11598263176706437,1,,-0.9469847783503068,-0.09650436924482486,-0.17755878442435363,0.014080807456373265,-0.04364824829034023,0.046878534874500645
507,0.9751229553861003,0.14179661446770234,1,,-0.9574873221008996,-0.10292649702883834,-0.1734670885892075,0.011375370763387278,-0.03298555009554695,0.05288262576091568
508,0.9746280394472311,0.17089039092432057,1,,-0.953939112744923,-0.09550834379285901,-0.1759680412348958,0.05006743,0.083090626,0.0958738
509,0.9734404604285665,0.20123656624460984,1,,-0.955283444197765,-0.09314062429618085,-0.1736957262867031,0.05006743,0.083090626,0.0958738
510,0.9716315481990504,0.23032007082285763,1,,-0.9616334197933423,-0.09716248095519456,-0.18306892091211227,0.06118433262178544,0.09420752761186793,0.11613525149831229
511,0.9693530051815682,0.2554269493175218,1,,-0.961249055759685,-0.0962304116060982,-0.19726991981460104,0.11611383,0.14913702,0.21624869
512,0.9668240158851912,0.2740037547775337,1,,-0.9527647884095355,-0.08313852756514042,-0.20840472372543276,0.12297826015452618,0.14047476439796655,0.24190858056783043
513,0.9643047268871549,0.2840287858648691,1,,-0.9321704267422795,-0.0647761042947565,-0.19436791973811024,0.15014212610628125,0.09252046781451748,0.38302257788023564
514,0.9620595568876883,0.2843255231246057,1,,-0.9211295789855211,-0.05601877431441713,-0.19232069639099883,0.08841695,0.09161274,0.38029942
515,0.9603175318392774,0.2747536371118283,1,,-0.9241092646152724,-0.0515008839536809,-0.21427268503561422,0.0807790928459367,0.09274427498331114,0.35455701107953225
516,0.9592384866688577,0.2562361743781805,1,,-0.928097809899645,-0.04838301657608074,-0.20323137604452182,0.03089267,0.10013486,0.18642128
517,0.9588924070262637,0.2306177781828766,1,,-0.9354356296679194,-0.05028135373660416,-0.20027865817136917,0.03089267,0.10013486,0.18642128
518,0.9592552634469647,0.20038606964834943,1,,-0.9360780748901378,-0.050145272134041144,-0.20316963880144895,0.030085125298878024,0.08998287044472329,0.17326983893130798
519,0.9602204143136187,0.16831417467984777,1,,-0.9385008150587898,-0.051000220060911594,-0.21015268904931025,0.023435818,0.0063915867,0.06498113
520,0.9616215557564344,0.13709146840523093,1,,-0.944506858325335,-0.05265988635736916,-0.2019196346403675,0.022326185596987583,0.0006416734534310301,0.06084522765660529
521,0.9632617287074012,0.10900396705430838,1,,-0.9455880299381847,-0.05162243199836195,-0.19413994011233351,0.011717909,-0.054328486,0.02130529
522,0.9649428394932155,0.08570933715393778,1,,-0.9477255858153433,-0.050085404046266456,-0.1919585760499315,0.012227648678497238,-0.05713205423173481,0.02113537672066649
523,0.9664910994472075,0.06812801136063633,1,,-0.9491712443558478,-0.0502372128052063,-0.19739489860354362,0.018109497,-0.08765287074231558,0.01997012903146455
524,0.9677752974702175,0.056447208879774675,1,,-0.9476524573265073,-0.04941227203912426,-0.19492956170622897,0.018109497,-0.06498113,0.029827405
525,0.9687164861742944,0.050215685472095414,1,,-0.9485516403390457,-0.050466883599950316,-0.19184343435895726,0.017091849123915866,-0.06421789435415191,0.029954610741953717
526,0.9692891979163375,0.048497848974050566,1,,-0.9484068141615196,-0.049052642307555426,-0.1897515748807613,0.0010652645,-0.05219796,0.03195793
527,0.9695155136211341,0.050055848525241094,1,,-0.9499660632160266,-0.04832361140551389,-0.18501950944427958,0.0017318728771709298,-0.051674196065958536,0.032053159956536216
528,0.9694540542330704,0.05353371238965367,1,,-0.9485662280187426,-0.047590983201956046,-0.1880443289682192,0.015978966,-0.040480047,0.034088463
529,0.9691862409135895,0.057624631521787546,1,,-0.9484823278410331,-0.046625816179173926,-0.18789217109191866,0.016619376466262284,-0.04099847454620853,0.03393598429983488
530,0.9688020839304883,0.06120855606596052,1,,-0.9456868621027276,-0.0459269672521245,-0.19065758601296337,0.03834952,-0.058589544,0.02876214
531,0.9683874324141719,0.0634515456316317,1,,-0.9485724733032196,-0.046640544044377716,-0.18602999553354876,0.03826777955970455,-0.058821141799071705,0.028530542213717043
532,0.9680141095467527,0.06386129518096566,1,,-0.9490542646160869,-0.046159258031080945,-0.18072578301458705,0.03195793,-0.07669904,0.010652645
533,0.9677337206052674,0.06229629179844572,1,,-0.9488111807521187,-0.0468885146978051,-0.18072578301458705,0.03195793,-0.07669904,0.010652645
534,0.9675752592245016,0.05893037538262269,1,,-0.9488103480801293,-0.04785451495328048,-0.1809666658616742,0.017248756385955497,-0.04202740866134124,0.0032980561217769966
535,0.967546074724627,0.054180166435278135,1,,-0.951926749089465,-0.046909039248826286,-0.17929199704840554,0.017044231,-0.041545313,0.0031957934
536,0.9676353756746762,0.04860848100341313,1,,-0.9498499423712766,-0.046416499748845035,-0.17997220592592386,0.017044231,-0.041545313,0.0031957934
537,0.9678192675993589,0.042820371089676366,1,,-0.9490790021905626,-0.0442778477698024,-0.17904879468960092,0.004687336045197427,-0.004474627555600371,0.0031957934
538,0.9680663588731029,0.037368476222885624,1,,-0.9504563552325083,-0.04607348141841574,-0.18018430132124852,-0.0008339232526535589,0.02635509681316758,-0.0018991877569969175
539,0.9683431346280319,0.032681026644785095,1,,-0.9521468695416712,-0.04685559514852297,-0.1830263631126854,-0.0010652645,0.027696876,-0.002130529
540,0.9686184711182165,0.029020074997004278,1,,-0.9508471838230588,-0.046430219243795284,-0.18316803393615558,-0.0010652645,0.027696876,-0.002130529
541,0.9688668337653907,0.02647089783250222,1,,-0.949159701543415,-0.04731939178827038,-0.18270961605996092,-6.550602415465615e-05,0.034695185800171044,-0.008129079855072063
542,0.9690699561772642,0.02495795189093711,1,,-0.9501896471426501,-0.048514548547677394,-0.18631185460358474,0.0,0.035153728,-0.008522116
543,0.9692171188553034,0.024279764393663573,1,,-0.9493725841238748,-0.04747158667433922,-0.1883935625144543,0.002954698629507097,0.019395335740756213,-0.006552316574657074
544,0.969304393858048,0.024154856806633967,1,,-0.9497459391363697,-0.047603034052122246,-0.18451667680952102,0.0031957934,0.018109497,-0.0063915867
545,0.9693333081306794,0.024272188720572945,1,,-0.9495649059132781,-0.047846020071725975,-0.18414492206818844,0.008044671615549673,-0.009044220497275816,-0.001542708848594865
546,0.9693093349044999,0.024341003594636864,1,,-0.9508627460975889,-0.04676812537904041,-0.1832651007892319,0.009481531826821465,-0.03378448382453381,-0.00010584822286019686
547,0.9692405029885544,0.024135163565275945,1,,-0.9518831604793385,-0.04752152079767726,-0.1822932928797653,0.00958738,-0.036218993,0.0
548,0.9691362617308102,0.023526363215750846,1,,-0.9502546418344521,-0.04740734925382528,-0.18046042173054,0.00958738,-0.036218993,0.0
549,0.9690066237332261,0.022500598789067603,1,,-0.9502465136797391,-0.047379463935186834,-0.17937716594312517,0.008649389961605294,-0.036218993,0.0009379904786564801
550,0.9688615712616245,0.021154335407729867,1,,-0.9517640693660262,-0.047592079153443184,-0.17840997573963227,0.005739928293115323,-0.015816283991071104,0.0001378686557436412
551,0.9687107088734763,0.019670864083628347,1,,-0.9507176308276113,-0.04783497391001943,-0.17828354229018065,0.0053263223,-0.0127831735,0.0
552,0.9685631064811212,0.01828185693454668,1,,-0.9507294832588122,-0.0468205075788836,-0.17954042489271807,0.0053263223,-0.0127831735,0.0
553,0.9684272148405026,0.01722230150101587,1,,-0.9515944160997882,-0.04664679069814871,-0.1795413155724771,0.004420933203662636,-0.005540059794389442,0.0
554,0.9683107107236961,0.016687852066501387,1,,-0.9503014836029976,-0.046235467906498906,-0.1788876849051779,0.004261058,-0.004261058,0.0
555,0.9682201758042097,0.016802346638146757,1,,-0.9510476861830697,-0.04636156842388568,-0.17836553768145372,0.005147499491659023,-0.00957970794851364,0.0017728833161712132
556,0.9681606221572796,0.017600531762055435,1,,-0.9492365903712018,-0.04599936307189626,-0.17848515029124376,0.0053263223,-0.010652645,0.002130529
557,0.968135002474003,0.019027637020594446,1,,-0.9496119816439498,-0.04591411746111058,-0.17973022486608162,0.009697098142238406,-0.021142505806885443,0.003004684053563801
558,0.9681439097035764,0.020954063082263493,1,,-0.9503827003403326,-0.04829566406064976,-0.17761157337717734,0.010652645,-0.023435818,0.0031957934
559,0.9681856205105581,0.02320086652932152,1,,-0.9505200042828081,-0.04943621823988986,-0.17706243212513958,0.00893288634587151,-0.020856179615208286,-0.0011036031546014279
560,0.9682564860915871,0.02557047456249899,1,,-0.9520795201513202,-0.049187575974996775,-0.1760876675534706,0.008522116,-0.020240024,-0.002130529
561,0.9683515144084063,0.02787704362817734,1,,-0.9511189325611077,-0.04773419387834227,-0.1735187332097061,0.010210566586927844,-0.032903404590713295,-0.006351655071068116
562,0.9684649177953033,0.029971448256513263,1,,-0.9521066635428993,-0.047379463935186834,-0.1732941953377011,0.010652645,-0.036218993,-0.007456851
563,0.9685904490518477,0.03175660718779275,1,,-0.9524736785752526,-0.047379463935186834,-0.17320858837231998,0.01314519652260359,-0.04951260320041311,-0.00330259820234477
564,0.9687214731894723,0.03319007487046021,1,,-0.951344089167047,-0.047191197461669755,-0.1722135087771889,0.01138487790869563,-0.035197114066346666,0.001154218302323153
565,0.9688508577640583,0.034273260316173296,1,,-0.952316069986766,-0.04788247060609749,-0.17006563768785096,0.010652645,-0.029827405,0.002130529
566,0.9689708658945653,0.03503028108896497,1,,-0.9523486854208524,-0.04737357226305352,-0.17004540334941826,0.010652645,-0.029827405,0.002130529
567,0.9690732643790794,0.035483147610366715,1,,-0.951863131151201,-0.047318410460824245,-0.17113999936034924,0.0018640908255905544,0.0005330541252222154,-0.0018642682770032516
568,0.9691497912740773,0.03563196382693402,1,,-0.9528270908438449,-0.04828453528789955,-0.17216933154396907,-0.0010652645,0.010652645,-0.0031957934
569,0.9691929826310395,0.03544771505272952,1,,-0.9530268626846681,-0.04860058225795762,-0.1727812191400835,-0.0057635064699063316,0.035709938201411426,-0.007894035443412994
570,0.9691971999759448,0.0348806713938642,1,,-0.9526074215212262,-0.04824586421660026,-0.1739747722101953,-0.008230461706246783,0.05092999201890263,-0.010360990706246784
571,0.9691596046457351,0.03388101246187591,1,,-0.9519461783478721,-0.04793630070394952,-0.17525513355788416,-0.008522116,0.053263225,-0.010652645
572,0.9690808358787051,0.03242320258598523,1,,-0.951567630603716,-0.04856159017955229,-0.17663760247466292,-0.003983554466589545,0.039647539689684964,-0.007626937098034596
573,0.968965241825138,0.030524676466461984,1,,-0.9513251188254177,-0.04884480836983068,-0.17878002390997358,-0.002130529,0.034088463,-0.0063915867
574,0.9688206172035295,0.0282526034684259,1,,-0.9505705592236652,-0.049697364020383814,-0.1793341597807947,-0.002130529,0.034088463,-0.0063915867
575,0.9686574722486768,0.025717588526879966,1,,-0.9514610199433309,-0.04904997338060111,-0.17926045081653777,0.0015623194219321877,0.01562422089033906,-0.0004830293219733675
576,0.9684879024869915,0.02305765743299562,1,,-0.951315422585615,-0.048098196480494515,-0.17792074888400178,0.0031957934,0.007456851,0.002130529
577,0.9683241841877309,0.020418403900033067,1,,-0.950344453644899,-0.04736993639208694,-0.17614470672776558,0.0053678798113425425,-0.007747753811430745,0.005026644192467706
578,0.9681773082952518,0.017935274452270465,1,,-0.9493756721731827,-0.0474631517096858,-0.17576103442937843,0.0063915867,-0.014913702,0.0063915867
579,0.9680557510961728,0.015721819028314873,1,,-0.9503535890511512,-0.047623686987911265,-0.17600367893302596,0.007099855361637958,-0.019163315432554937,0.0049750493102364846
580,0.9679647729497967,0.013864449946110916,1,,-0.9510083463772033,-0.04730300974300223,-0.17560450404934416,0.006757479454495429,-0.019207175297833893,0.0021629429695719077
581,0.9679063836516716,0.012421540205689351,1,,-0.9506909571176327,-0.04729396895534522,-0.17551158169716607,0.0063915867,-0.018109497,0.0010652645
582,0.9678798805097306,0.011423771906524943,1,,-0.9511467742530422,-0.047379463935186834,-0.17528367819058524,0.005708078974212267,-0.012641434038760542,-0.00030175107990186486
583,0.9678826856806413,0.010873565697727988,1,,-0.9521170731098985,-0.047379463935186834,-0.174488364938446,0.0053263223,-0.00958738,-0.0010652645
584,0.9679111652952568,0.010743347199248266,1,,-0.9512496293020343,-0.04783850892657704,-0.17290761119754114,0.0026566118352604673,-0.0015782486057814022,-0.0017326921475117343
585,0.9679612052899841,0.010974262897320765,1,,-0.9502173415949907,-0.04780946952966798,-0.17323727252379859,0.0010652645,0.0031957934,-0.002130529
586,0.9680284939227916,0.011477875496109298,1,,-0.9504799753173949,-0.04747421466361124,-0.17373803716335579,0.0010652645,0.0031957934,-0.002130529
587,0.9681086195754796,0.012142906944254675,1,,-0.9513556693212954,-0.04723158651301519,-0.1748263047214977,-0.0008697851445749745,0.010935991130601352,-0.002775545487641762
588,0.9681971363987268,0.01284739914371077,1,,-0.9513034980503876,-0.04684356053421501,-0.17515956510692568,-0.002130529,0.017887346883018056,-0.0031957934
589,0.9682896755621914,0.013474461767441355,1,,-0.9512965622726296,-0.046934979519751216,-0.17500850634044132,-0.002130529,0.01917476,-0.0031957934
590,0.9683820829317668,0.01392810504921864,1,,-0.951212458742237,-0.0475617729318562,-0.17624605935893164,-0.002130529,0.01917476,-0.0031957934
591,0.968470531659499,0.014145297907117473,1,,-0.9503059475567035,-0.04842983582890264,-0.17790531657528266,-0.0027432832620654696,0.019787514031980143,-0.00442130198165227
592,0.9685515889501847,0.014101463260986003,1,,-0.9508931638225838,-0.049259533532564674,-0.17686886578852434,-0.0031957934,0.012401168828634991,-0.006532299953358518
593,0.9686222543548888,0.013808606221804754,1,,-0.951741012476228,-0.049032438060906236,-0.17586959750044887,-0.0031957934,0.0063915867,-0.007456851
594,0.968679994246354,0.013307372393751292,1,,-0.9514723779019728,-0.04792885109957987,-0.1756824819868634,-0.0002658097539213682,-0.0029843609784535228,-0.0045268675739593926
595,0.9687227846948336,0.012655777569331294,1,,-0.9511200421024022,-0.048307481055407234,-0.17588315007496688,0.002130529,-0.010652645,-0.002130529
596,0.9687491754045208,0.011917624859343577,1,,-0.9506162468873288,-0.04895833057288074,-0.17632975582895283,0.0032707200572563307,-0.011792835789672305,-0.0009903379427436691
597,0.9687584002717806,0.011152782350847996,1,,-0.9513070937891634,-0.04832911076547189,-0.17632975582895283,0.004261058,-0.0127831735,0.0
598,0.9687505447290289,0.010410193834455008,1,,-0.9523565390640051,-0.04824908838704791,-0.17620269246217304,0.004261058,-0.010566331310029617,0.0005542106125246385
599,0.9687267196366284,0.009723534074144932,1,,-0.9518474837774434,-0.04835008132850229,-0.17596027417997898,0.004261058,-0.008522116,0.0010652645
600,0.9686891398740854,0.009109149341321938,1,,-0.9508823635904967,-0.047741825260185354,-0.17510068282921487,0.004261058,-0.008522116,0.0010652645
601,0.9686410300944579,0.008566142166716048,1,,-0.9510065239938275,-0.047379463935186834,-0.1747408730779323,0.003730496455165636,-0.0037470625447412267,0.0010652645
602,0.9685863647195379,0.008078748843696124,1,,-0.9520959881172741,-0.04785876527584996,-0.1751086354667496,0.0031957934,0.0010652645,0.0010652645
603,0.9685295080931063,0.007621179590105172,1,,-0.95165612249536,-0.0483563602249494,-0.1753446088188656,0.0021665086132827975,0.005182403598557575,0.0005506220824857823
604,0.968474814832185,0.007164662358806314,1,,-0.9506356842471922,-0.048009316950754374,-0.17640684894357686,0.000560683656487504,0.010596541687024992,-0.000504580843512496
605,0.9684262311582401,0.006685614199309504,1,,-0.9506509829898161,-0.04773693173240837,-0.17674042807150098,0.0,0.011717909,-0.0010652645
606,0.968386950842776,0.00617307137548992,1,,-0.9507428151367762,-0.04820220001036558,-0.17675410038988837,0.0,0.009773759636912046,-0.0015513018407719884
607,0.9683591942507377,0.0056333161196737026,1,,-0.9510083463772033,-0.04860058225795762,-0.1771129285902357,0.0,0.007456851,-0.002130529
608,0.9683441510500156,0.0050903122112745305,1,,-0.9509006723179954,-0.04827742335136961,-0.17614309722093416,0.0004698563165743303,0.004167857004514736,-0.002130529
609,0.9683420686090037,0.004581818898469202,1,,-0.9508699682859589,-0.04765633803384383,-0.17602022850860619,0.0010652645,0.0,-0.002130529
610,0.9683524219916347,0.0041522981104759995,1,,-0.9513205194032491,-0.047379463935186834,-0.17667803553730965,0.0010652645,0.0,-0.002130529
611,0.9683740863991042,0.0038444771401773014,1,,-0.9513325575727016,-0.047992215368349224,-0.17702245293112975,0.0010652645,0.0,-0.002130529
612,0.9684054457606536,0.0036915243527948453,1,,-0.9504629467705411,-0.04884480836983068,-0.17720622764305605,0.0010652645,0.0,-0.002130529
613,0.9684444123280314,0.003711386119986054,1,,-0.9504254668495766,-0.04825388180318329,-0.17716091906380957,0.0014948516186826825,0.0008591742373653649,-0.001271354762634635
614,0.9684883914263407,0.003904185742428022,1,,-0.9514925804641364,-0.04766999387414367,-0.1768224322018336,0.002130529,0.002130529,0.0
615,0.9685342678132617,0.004252900954477731,1,,-0.9513751163081721,-0.048017199553164504,-0.1758956544789588,0.0025446210692456036,6.006849828304647e-05,0.0
616,0.9685784929809241,0.004726894952327361,1,,-0.950124737866667,-0.04796112865126751,-0.17550385906943425,0.0036023919046842606,-0.005228785770746183,-0.0008131969330309611
617,0.968617330579104,0.005287314191647467,1,,-0.9509136922179154,-0.048932393482233875,-0.17571741141956257,0.004261058,-0.008522116,-0.002130529
618,0.9686472750762987,0.0058929959017827915,1,,-0.9520746961196884,-0.0495057400105541,-0.17588286060616548,0.0038712015407354077,-0.00657283385006563,-0.002520385386070297
619,0.9686655756275201,0.006505545708662655,1,,-0.9522295075280549,-0.04819929696969422,-0.17484714762475734,0.0031957934,-0.0031957934,-0.0031957934
620,0.9686706962114314,0.007092740489571143,1,,-0.9521440634910695,-0.04827089691889732,-0.17463234837504993,0.002077472892300273,0.0009047152215483775,-0.0028230199207624354
621,0.968662514940855,0.007630142207539534,1,,-0.951568931990104,-0.04836197958935389,-0.17577488960651885,0.0,0.008522116,-0.002130529
622,0.9686421682741638,0.008101319063422999,1,,-0.9501106924916853,-0.04868143207637312,-0.177634247787941,0.0,0.008522116,-0.002130529
623,0.9686116251459397,0.008497130128109712,1,,-0.9496864426656637,-0.04819707199324026,-0.17765697494090918,-0.0006947885882492691,0.00991169301344312,-0.002825317588249269
624,0.9685732058878695,0.008814350530148406,1,,-0.9514968414290303,-0.047945974531414796,-0.1753528473025957,-0.0011090344545042414,0.00699470463260342,-0.004261058
625,0.9685292445792948,0.009053850763267694,1,,-0.9518007523548636,-0.048264098776281975,-0.17588472869983698,0.0010652645,-0.0053263223,-0.004261058
626,0.9684819435289909,0.009218679282608158,1,,-0.9522488347133987,-0.04860058225795762,-0.1767626340506325,0.0010652645,-0.0053263223,-0.004261058
627,0.9684333116507721,0.009312502561152871,1,,-0.9512967386524657,-0.04867462913192166,-0.17527101540520007,0.0013882418653804456,-0.007910141132086617,-0.002969148538478217
628,0.9683850535124666,0.009338685849815386,1,,-0.9504209041765569,-0.04862701556503847,-0.17303607384377462,0.002130529,-0.013848438,0.0
629,0.9683383994341723,0.009299888184117854,1,,-0.9509056746380853,-0.04846575816703971,-0.17267301551308978,0.002439018492730645,-0.011997500869862366,0.0
630,0.9682940116597073,0.009197744974661075,1,,-0.9512526703818328,-0.049333255494995745,-0.17423396535478292,0.0031957934,-0.007456851,0.0
631,0.9682521235315519,0.009032364907271329,1,,-0.9511178650103634,-0.049198449279233884,-0.17504123278101494,0.0031957934,-0.005104837687500172,0.0002940016813118142
632,0.9682129487607576,0.00880190828255946,1,,-0.9510277226249606,-0.04838363783926527,-0.17493029438795377,0.002621065251273409,0.0030768131149585213,0.0004905363242975652
633,0.9681772388181024,0.008502940877104395,1,,-0.9516136301276609,-0.04751746936517767,-0.17529974888801808,0.0010652645,0.008522116,-0.0010652645
634,0.9681467715989751,0.00813210495649077,1,,-0.9511282805445912,-0.04866277821532446,-0.175965693999881,0.0010652645,0.009064688167392617,-0.0010652645
635,0.9681245543514888,0.007688945858207714,1,,-0.9508241710804642,-0.04848498653968794,-0.17632975582895283,0.0010652645,0.010652645,-0.0010652645
636,0.9681146003049916,0.007178968085135448,1,,-0.9510668705823563,-0.04749646447093406,-0.17632975582895283,0.00132043287051922,0.009887139768674728,-0.0008100961294807799
637,0.9681212606917519,0.006615687626074506,1,,-0.9510274146658912,-0.048093146166194506,-0.1762171373752495,0.002130529,0.007456851,0.0
638,0.9681482279487532,0.006020772492122061,1,,-0.9501113562891075,-0.048735258128966445,-0.17545787663756635,0.002130529,0.006023331704415803,-0.00023891990128755217
639,0.9681974389649185,0.0054221138557151586,1,,-0.9498566315501072,-0.048408629786774966,-0.1748112479886225,0.002130529,0.0010652645,-0.0010652645
640,0.9682681613862757,0.004850450813015018,1,,-0.9512115685511139,-0.04875298446494004,-0.17700184847152556,0.002130529,0.0001789285521153788,-0.000843680507828634
641,0.968356502975227,0.004335617077612122,1,,-0.9516949292097603,-0.049042846000878416,-0.17569609793022567,0.002130529,-0.0031957934,0.0
642,0.9684554566274195,0.003903411032873466,1,,-0.9506139635981591,-0.04810286098757951,-0.17496766510201217,0.002335490879879805,-0.0031957934,0.0002049618991202753
643,0.9685554664983597,0.003573610770396777,1,,-0.9510083463772033,-0.048910216910143994,-0.1744206640369474,0.0031957934,-0.0031957934,0.0010652645
644,0.968645439571614,0.0033590771762589153,1,,-0.9512249616006392,-0.048025491098695736,-0.1748801188159371,0.0031957934,-0.0031957934,0.0010652645
645,0.9687140984230779,0.0032655243043521087,1,,-0.9521884626989765,-0.04758263341677283,-0.1759213099998805,0.0031957934,-0.002837654318603212,0.0008861949508966725
646,0.9687515126229431,0.003291514259008325,1,,-0.9519456317954317,-0.04749852894060046,-0.17502925923837356,0.003022679063726222,-0.0008921501474753893,-0.00017311435252461067
647,0.9687505755571929,0.003428482347512838,1,,-0.9515915101103973,-0.048037374658289805,-0.17488184941444954,0.002130529,0.0,-0.0010652645
648,0.9687081799287905,0.003660936862526298,1,,-0.9509444286285795,-0.04773180942894392,-0.17625767339902654,0.002130529,0.0,-0.0010652645
649,0.9686259048193165,0.003967205914921462,1,,-0.9519515803464139,-0.0483563602249494,-0.1758075595198677,0.0019833506180216335,0.0005887135279134653,-0.0010652645
650,0.9685101063544356,0.004321085037141162,1,,-0.951741012476228,-0.0483563602249494,-0.17559707953276604,0.0010652645,0.004261058,-0.0010652645
651,0.9683713642174798,0.0046944681666550745,1,,-0.9515897121893723,-0.04829583455048381,-0.17562734211728415,0.0010652645,0.0045250608176729806,-0.0009332630725763756
652,0.9682233038576804,0.005060647747176909,1,,-0.9505489902303839,-0.047954870406902626,-0.17581231561819863,0.0010652645,0.0063915867,0.0
653,0.9680809257275059,0.005397635411961682,1,,-0.9505764780529353,-0.04860058225795762,-0.1757311785559575,0.0009482810040956393,0.006625553724753637,-0.00023396699180872125
654,0.9679587034154764,0.005690737039251568,1,,-0.949156732025198,-0.04857504444568489,-0.17692035221035712,0.0,0.007742367869141507,-0.0023533141802452836
655,0.9678687861705797,0.005933775062300561,1,,-0.950124230464597,-0.0484953810755588,-0.17770241733461417,0.0,0.0010652645,-0.004261058
656,0.9678196007047536,0.006128735053745145,1,,-0.9510083463772033,-0.04962451373554683,-0.1766429213539931,0.0,0.0010652645,-0.004261058
657,0.9678150091891047,0.00628404659625001,1,,-0.9509692894679633,-0.047643219764970615,-0.1748058150210079,0.00017039669269016842,4.288438384828135e-05,-0.004090661307309831
658,0.9678540351266623,0.006411943554715671,1,,-0.9505018328177747,-0.047867912080068124,-0.1741135732566051,0.002130529,-0.011400995127497562,-0.0020513005318743903
659,0.9679311062900583,0.00652527878242036,1,,-0.9503040006676231,-0.04789622679479473,-0.17390167234368645,0.002130529,-0.007456851,-0.0010652645
660,0.968036782823451,0.006634010554675196,1,,-0.9507771467244984,-0.04839513785786327,-0.17415758928861025,0.002130529,-0.007062186334373304,-0.0010088838297014398
661,0.9681589515053435,0.006741693232965862,1,,-0.9510184693517985,-0.04909914927923468,-0.17461007222859107,0.002130529,0.0,0.0
662,0.9682844063751116,0.006842740504733687,1,,-0.9512526703818328,-0.049333255494995745,-0.17436703851596602,0.002130529,0.00023346434625051346,0.0
663,0.9684006217418044,0.006921568855397196,1,,-0.9512836767353489,-0.04932705362871368,-0.17417514991668703,0.002130529,0.0063915867,0.0
664,0.9684974237331125,0.006954499654582943,1,,-0.9524736785752526,-0.04909406651950079,-0.1758110850340218,0.002130529,0.0063915867,0.0
665,0.9685682324725862,0.0069144734840624,1,,-0.9524503807612716,-0.04933066681657223,-0.17437595917056284,0.002107946330855456,0.006425460701596904,-1.1291334572271844e-05
666,0.9686106064280954,0.006777642367062144,1,,-0.9502857779509887,-0.049081818161414874,-0.17439182617637725,0.0,0.00958738,-0.0010652645
667,0.9686259785932733,0.006530225661134443,1,,-0.9519780351255565,-0.047873127057632095,-0.1770509591204986,0.0,0.00958738,-0.0010652645
668,0.9686186827447101,0.006173852351012658,1,,-0.9519853364808574,-0.048109947142657,-0.17609427166308783,0.0,0.00958738,-0.0010652645
669,0.9685945448337112,0.005727971274923079,1,,-0.9495898559661968,-0.04859121421346649,-0.17584598554890513,0.002089667158941137,0.004363212593057559,-2.043092052943153e-05
670,0.9685594193465079,0.005228689700539886,1,,-0.9497813874888289,-0.04955408345902287,-0.1772715613297374,0.002130529,0.004261058,0.0
671,0.9685180752344104,0.0047243448498757255,1,,-0.9502590534605365,-0.04934156893852825,-0.17565527408874332,0.002130529,0.004261058,0.0
672,0.968473738417873,0.004268870658589065,1,,-0.9521535189511999,-0.04909852884605409,-0.1770054413865304,0.002130529,0.001189555836402742,0.0
673,0.9684283582554107,0.003914374731808087,1,,-0.9515321170925066,-0.0488565669243228,-0.17450530474286405,0.002130529,0.0010652645,0.0
674,0.9683833877968591,0.0037043055446704487,1,,-0.9510342560416589,-0.048613535954389664,-0.17345087530258296,0.002130529,0.0010652645,0.0
675,0.9683407061545108,0.0036682840333381733,1,,-0.9519244055849153,-0.048142596635652096,-0.175459998053984,0.002130529,0.0010652645,0.0
676,0.9683033099361269,0.003819189119857862,1,,-0.9517574644369026,-0.04856769179480689,-0.17582485647152743,0.002130529,-0.0019153349626173336,0.0009935331542057777
677,0.9682754937623117,0.004152514566916814,1,,-0.951741012476228,-0.048375221905838865,-0.1756159412136555,0.004096513639981568,-0.006062498003132645,0.0010652645
678,0.9682623802812695,0.0046474977149300375,1,,-0.9510686669209641,-0.04745989199849528,-0.1735800241517187,0.004261058,-0.0063915867,0.0010652645
679,0.9682688506847613,0.005269258234584081,1,,-0.9510083463772033,-0.04649253377763988,-0.1749511909315868,0.003293899728487983,-0.004457270610928097,0.0010652645
680,0.9682981394074642,0.005971347690227947,1,,-0.9505675072597546,-0.04860724170695243,-0.17599049780651946,0.0031957934,-0.004261058,0.0010652645
681,0.9683505102891066,0.006698653587353428,1,,-0.9500838453841911,-0.04753632074724305,-0.17368663144516125,0.001293325536945804,0.0004951118808744073,0.00011403052382511846
682,0.9684224576595298,0.007391167815690774,1,,-0.9506819352522938,-0.04716267044631725,-0.17339906084136786,0.0010652645,0.0010652645,0.0
683,0.9685067567472493,0.00798923451360583,1,,-0.951407142792246,-0.04799252685824834,-0.1755422828044532,0.0001304269755581604,0.010413639305636513,-0.0009348375244418396
684,0.9685934483008211,0.008440289787876547,1,,-0.9523487819427127,-0.048325133915559704,-0.17413732271132443,0.0,0.011717909,-0.0010652645
685,0.9686715583604597,0.008706066623516437,1,,-0.9514210243136312,-0.04793525983916879,-0.17641411390276354,-0.0009183846772873405,0.01263629367728734,-0.0038204185318620218
686,0.9687311427759008,0.008768456278488034,1,,-0.9510433822218418,-0.04765870864858928,-0.17681819989496925,-0.0010652645,0.0127831735,-0.004261058
687,0.968765183790758,0.00863228434120473,1,,-0.9524567274892292,-0.04865819272204183,-0.17640440140238878,-0.00016279710410236928,-0.0007538369301583644,-0.005163525226462266
688,0.9687709299870372,0.008324171880036129,1,,-0.9521013489472904,-0.04761149080563062,-0.17674085825068056,0.0,-0.0031957934,-0.0053263223
689,0.9687503992719325,0.007887834265685052,1,,-0.9513755263237258,-0.047379463935186834,-0.17539530104106138,0.0008866373276947941,-0.008515617033242124,-0.0017797731556841436
690,0.9687099352658785,0.007376962566548594,1,,-0.951858375213988,-0.04859088371565282,-0.17571434029890465,0.0010652645,-0.00958738,-0.0010652645
691,0.96865891233331,0.006847017550317093,1,,-0.9507875505954639,-0.04884480836983068,-0.17544203126865365,0.0028067927679518256,-0.004362795277886115,-0.0001945003251532904
692,0.9686078763671255,0.006347146490199743,1,,-0.95151112079565,-0.047655359294875174,-0.17495637586574414,0.0031957934,-0.0031957934,0.0
693,0.9685665273838843,0.005913356975745793,1,,-0.9507604170928614,-0.04816401230835218,-0.17427599887811865,0.0031957934,-0.0031957934,0.0
694,0.9685419718398456,0.005564032559076935,1,,-0.9507147646784647,-0.048161596576509695,-0.1749107868521386,0.0031957934,0.00020228380170463347,0.0
695,0.9685376031539241,0.00529862248471455,1,,-0.9509569907316342,-0.04734074953939236,-0.1747229455955018,0.0031957934,0.0010652645,0.0
696,0.968552820415921,0.005099794188756396,1,,-0.9515828454272203,-0.047326741145247486,-0.17500319076741122,0.0015252004372394309,0.005241746867695361,0.0
697,0.9685835923052074,0.004938620642003533,1,,-0.9515517080631134,-0.047947498923870784,-0.17435125179246375,0.0010652645,0.0063915867,0.0
698,0.9686236678750051,0.004781691694121067,1,,-0.9518727023529228,-0.04848795894553269,-0.1756350317598014,0.0010652645,0.0063915867,0.0
699,0.9686660928455146,0.0045986108590645265,1,,-0.9521710352214341,-0.04767188847040079,-0.17664274390403092,0.0010652645,0.0063915867,0.0
700,0.9687046534744171,0.004368318716301944,1,,-0.9514924524028988,-0.047379463935186834,-0.17589682520638864,0.0018690409149412818,0.005587810360511943,0.0008037764149412818
701,0.9687349464755144,0.0040830625333323515,1,,-0.9510704650941507,-0.04829011622918397,-0.17650773334767542,0.002130529,0.0053263223,0.0010652645
702,0.9687549279632366,0.0037494638345842066,1,,-0.9511890699086766,-0.04878123337933475,-0.1762762480393815,0.0013425656450075684,0.002962432382960303,0.0002773011450075684
703,0.9687649548326873,0.003386841369780941,1,,-0.9516096082354152,-0.0486662991952966,-0.17447896040651864,0.0010652645,0.0005732877607479495,-0.0007786206196260252
704,0.9687674288179335,0.0030235491976965583,1,,-0.9520950464361875,-0.04860058225795762,-0.17477251501560204,0.0010652645,0.0,-0.0010652645
705,0.9687661746969122,0.0026924118159166255,1,,-0.9510043744429677,-0.04912566006974253,-0.176158788167159,0.0010652645,0.0,-0.0010652645
706,0.9687656726518549,0.0024262748281221,1,,-0.9510406707837123,-0.049333255494995745,-0.17535908211327517,0.0018222908459586329,0.0007570263459586329,-0.0010652645
707,0.9687702574287451,0.0022543064513687243,1,,-0.9522808302302089,-0.048990533399065554,-0.17452168632937773,0.002130529,0.002560163932156717,-0.0003178147488388168
708,0.9687833897501235,0.0021992038876986336,1,,-0.951359824822251,-0.04850526109497876,-0.17488528291828487,0.002130529,0.0031957934,0.0
709,0.9688070859361018,0.0022751235735158767,1,,-0.9512672646728814,-0.048524051346832714,-0.17561170883239957,0.002130529,0.001001453380992494,0.0007314466958902979
710,0.9688415691196399,0.002486102913116095,1,,-0.9514968414290303,-0.04843445963915881,-0.17501068847178022,0.002130529,0.0,0.0010652645
711,0.9688851861968732,0.0028249420166190672,1,,-0.9518235606729049,-0.04868304809613799,-0.17429349943745512,0.002130529,0.0,0.0003527856106751928
712,0.9689346038505809,0.0032727965424090384,1,,-0.9521466942097188,-0.04852202282981998,-0.17493869424889988,0.002130529,0.0,0.0
713,0.9689852504046889,0.003799904365702056,1,,-0.9514307516147572,-0.047877122017779855,-0.17551259848525527,0.002130529,0.0,0.0
714,0.9690319311649528,0.004367823113087711,1,,-0.9516397508745205,-0.04825503019661745,-0.17480789969811167,0.002130529,0.002065362092931741,-0.0006884540525197545
715,0.9690695289014323,0.004933283651195729,1,,-0.9524531108382784,-0.048444657472150564,-0.17437595917056284,0.002130529,0.0031957934,-0.0010652645
716,0.9690936949413789,0.0054533211134670965,1,,-0.9522561868892432,-0.048510298788495686,-0.17606930265206427,0.001459069161151901,0.0072245521809597224,-0.001736724338848099
717,0.969101430607343,0.005890854597158659,1,,-0.9510705288321939,-0.04860058225795762,-0.17630007968573286,0.0010652645,0.00958738,-0.002130529
718,0.9690914707996328,0.006219562428165064,1,,-0.9517237507049716,-0.049503446736065,-0.17569082540934222,0.0010652645,0.004992879398456488,-0.004099600695177861
719,0.9690644187843845,0.006426962096496096,1,,-0.9524736785752526,-0.049768311830260585,-0.17515066096717596,0.0010652645,0.002130529,-0.0053263223
720,0.9690226182536474,0.006515078456068267,1,,-0.9520322998167494,-0.04884184236910119,-0.17471728718090698,0.0010652645,-0.004286925323511619,-0.003401086123432165
721,0.9689697732152455,0.006498707431708099,1,,-0.951741012476228,-0.04879325429396561,-0.17418329368335259,0.0010652645,-0.008522116,-0.002130529
722,0.9689103632946161,0.006401732305125919,1,,-0.9518847355725629,-0.04894536729110164,-0.1733128626575974,0.0016919041647680013,-0.006642196888046404,-0.0008772496704639972
723,0.9688489608751873,0.006252162317726035,1,,-0.9517014178730717,-0.04898675285697117,-0.1737622938953565,0.002130529,-0.0053263223,0.0
724,0.9687896010725183,0.006076710433947248,1,,-0.9513568793734859,-0.04908903040283889,-0.17479593885955524,0.002741152564233116,-0.0028838279284249054,0.0006106236215544312
725,0.9687353497668522,0.005895897457772847,1,,-0.9508379315540683,-0.04922727841044654,-0.17552337429451417,0.0031957934,-0.0010652645,0.0010652645
726,0.9686881572170285,0.005720720843044746,1,,-0.9514743660219789,-0.04851520048758866,-0.17638667308878003,0.0026010898869838735,0.0025029568014041416,0.0004705609311570278
727,0.9686489928888701,0.005551668038986389,1,,-0.9518257175030055,-0.04840630327605628,-0.17601060860506468,0.002130529,0.0053263223,0.0
728,0.968618159454745,0.0053802777811893365,1,,-0.9514968414290303,-0.048049983357696315,-0.17575026202110094,0.0015527134031198015,0.005904137842638684,0.0
729,0.9685956253709154,0.005192764439277007,1,,-0.9514968414290303,-0.048292952430770544,-0.1760855235987825,0.0010652645,0.0063915867,0.0
730,0.9685812322472881,0.004974699782985621,1,,-0.9513682068909642,-0.04844571911275544,-0.17531355520788244,0.0016264686576938582,0.005830382594988284,0.0
731,0.9685747150683326,0.004715570514333123,1,,-0.9512526703818328,-0.047614117095492424,-0.17525467356378277,0.002130529,0.0053263223,0.0
732,0.9685755711690867,0.004412193781279698,1,,-0.9510026097198861,-0.0480046197664319,-0.176091367448194,0.0015851630828935678,0.0053263223,0.0
733,0.9685828810850556,0.0040703522303507595,1,,-0.9508873730974489,-0.04860058225795762,-0.17583695265543733,0.0010652645,0.0053263223,0.0
734,0.9685951989460624,0.003704477632019622,1,,-0.9514938832120075,-0.0483578371519994,-0.1757169669886151,0.0010652645,0.002679288659621739,-0.0005294067479545368
735,0.9686105949797107,0.003335682228713861,1,,-0.9516267270777048,-0.048590283976813815,-0.17512922686595805,0.0010652645,0.0,-0.0010652645
736,0.968626874056009,0.0029888176535672563,1,,-0.9510170462755261,-0.04908903040283889,-0.17460299026925186,0.0010652645,-0.0005138807352906067,-0.0010652645
737,0.9686419456283538,0.0026894015364670753,1,,-0.950880222716411,-0.04897298554927818,-0.17545677002743174,0.0010652645,-0.0010652645,-0.0010652645
738,0.9686542891797367,0.002461102480570329,1,,-0.951579549787758,-0.04873057054957974,-0.17606977816022948,0.0015635465777737196,0.0009278637643194462,-0.0010652645
739,0.9686634207546809,0.0023240776760546124,1,,-0.9521171964911177,-0.04860058225795762,-0.17576807869450833,0.002130529,0.0031957934,-0.0010652645
740,0.9686702142568845,0.002294014591100588,1,,-0.9519853364808574,-0.04837911348511412,-0.17499790200503318,0.0026135338018284586,0.002229783751001775,-0.0005822596528302341
741,0.9686769137245118,0.002381454367195186,1,,-0.9514401498861033,-0.04822117325310973,-0.17475537611479058,0.0031957934,0.0010652645,0.0
742,0.9686867401922,0.0025909883152639467,1,,-0.951407978862641,-0.04857095366587581,-0.17451289109627585,0.002727783119915968,0.000129243851964496,0.0
743,0.9687031291203971,0.0029201902587998175,1,,-0.9518079786544452,-0.04884480836983068,-0.17469212672730103,0.002130529,-0.0010652645,0.0
744,0.9687287567244826,0.0033585192149256835,1,,-0.9513563153708366,-0.04863747337583253,-0.17479763124436815,0.002130529,-0.00016090398178112163,0.0
745,0.9687645756415257,0.003886707649557541,1,,-0.9512933439535393,-0.04855983815992512,-0.17488465400800215,0.002130529,0.0010652645,0.0
746,0.9688090871761899,0.004477209160229021,1,,-0.9512085411988443,-0.04904498355018874,-0.17529681864277732,0.0016939627834530655,0.0023749631496408036,-0.0004365662165469345
747,0.9688580471462175,0.005096078893641672,1,,-0.9512022317958564,-0.04903862248824097,-0.17555188785243803,0.0010652645,0.004261058,-0.0010652645
748,0.9689047347242166,0.005706250833171244,1,,-0.9509570554986463,-0.04821492107433458,-0.176670392453376,0.0006447166884397056,0.006363796860410208,-0.001906360083642336
749,0.9689408048140389,0.006271690681166858,1,,-0.9516297258138737,-0.04809503520804666,-0.17587550424191162,0.0,0.00958738,-0.0031957934
750,0.9689576070922934,0.006761544814366734,1,,-0.9522295075280549,-0.04884480836983068,-0.1745612102649769,0.00040401206283120577,0.005143247498486665,-0.004003817487736426
751,0.9689477205935854,0.007153370833725329,1,,-0.9526828046353358,-0.04848218279665886,-0.17495506906999353,0.0010652645,-0.002130529,-0.0053263223
752,0.968906370196716,0.00743484449017735,1,,-0.9524723538901572,-0.04777897325795772,-0.17457500179139235,0.0010652645,-0.005621940454877082,-0.0033866492411885993
753,0.9688324091643462,0.007603759939846574,1,,-0.9511981627433992,-0.048144414687065526,-0.173903648354612,0.0010652645,-0.011717909,0.0
754,0.9687286760295242,0.007666418904003527,1,,-0.9519001349308424,-0.04951486426494277,-0.17463146069686217,0.001436747386888873,-0.009489011783283846,0.0
755,0.9686017031389341,0.007634671548011946,1,,-0.9515747961189693,-0.04981139477126805,-0.17502550993414692,0.002130529,-0.0053263223,0.0
756,0.9684608856136357,0.007522159545643826,1,,-0.9511710629950179,-0.0487632336804662,-0.17453811671987413,0.002486341127763818,-0.0021240129163165563,0.0
757,0.968317284944687,0.007340717514188157,1,,-0.950928770004216,-0.048441361702542436,-0.17460400494472098,0.0031957934,0.004261058,0.0
758,0.9681822668683239,0.0070980519672458635,1,,-0.9509204307768131,-0.048112134113076334,-0.17561691021579207,0.0021737783521452955,0.005623744773112952,0.0
759,0.968066177377115,0.006797436174748334,1,,-0.9508717765726599,-0.04834067294317345,-0.17439165193448775,0.0,0.008522116,0.0
760,0.9679772380696289,0.006439379264761027,1,,-0.9503302791192495,-0.04891949589163738,-0.17426095583205684,0.0003257771815001625,0.007870561545254241,0.0
761,0.9679207917264966,0.00602450500044235,1,,-0.9509356288405946,-0.04930727595989238,-0.17445390122558205,0.0010652645,0.0063915867,0.0
762,0.9678989599070748,0.0055565627254693445,1,,-0.9508354728993145,-0.04975042568097558,-0.17355211704434242,0.0013761625708735852,0.0063915867,0.0
763,0.9679106960011087,0.005044618120652709,1,,-0.9512856921775364,-0.04936948975018071,-0.17524729389317648,0.002130529,0.0063915867,0.0
764,0.9679521518511344,0.004503847219800225,1,,-0.95110369416458,-0.04870917431405402,-0.17539363014805207,0.002130529,0.004912554196898005,0.00029580651728141705
765,0.9680172590082508,0.0039548095371545605,1,,-0.9494016833475711,-0.04861917781973299,-0.17512722910815995,0.002130529,0.0010652645,0.0010652645
766,0.9680984650565841,0.0034215214022959807,1,,-0.9508157226682885,-0.049333255494995745,-0.17564867785685953,0.0018504625423894265,0.0005051315847788531,0.0007851980423894265
767,0.96818760911973,0.0029289971650784145,1,,-0.9505860255880277,-0.048960853821536074,-0.17535690134862134,0.0010652645,-0.0010652645,0.0
768,0.9682768964778113,0.0025010339239113165,1,,-0.9516180413073175,-0.04768612971967031,-0.17590374022638278,0.0010652645,-0.00027236028985068905,0.0
769,0.9683598358376059,0.0021588107441699645,1,,-0.9521606600084349,-0.04742744818217449,-0.17558661688629745,0.0010652645,0.002130529,0.0
770,0.9684319202013462,0.0019204393281291522,1,,-0.9520912870903018,-0.0483563602249494,-0.17598790863757618,0.0013137782115996066,0.00237904268827078,0.0
771,0.968490862462382,0.0018011331011543747,1,,-0.9501410704516089,-0.04824684907564186,-0.17491916855114995,0.002130529,0.0031957934,0.0
772,0.9685363585873622,0.001813358944918512,1,,-0.9506265003778591,-0.047974431302272635,-0.17521515379944821,0.002130529,0.002731174414974688,0.0
773,0.9685695504727144,0.001966336776271645,1,,-0.9510083463772033,-0.04830552122027841,-0.17569875584396505,0.002130529,0.0010652645,0.0
774,0.968592454885981,0.002264567440620704,1,,-0.9511566199713095,-0.04801328443124254,-0.17588782547330772,0.0019149456717979002,0.0004185145153937008,0.0
775,0.9686075527493244,0.0027055644876934183,1,,-0.9517882328924704,-0.04785969269690519,-0.17515583420416994,0.0010652645,-0.002130529,0.0
776,0.9686175689443927,0.003277426952666186,1,,-0.9519395055747101,-0.04879899582665067,-0.1753528473025957,0.0010652645,-0.0015310540847655245,0.0
777,0.9686253427466159,0.003957145193944191,1,,-0.9516538555443844,-0.048469818833114485,-0.17517849704010624,0.0010652645,0.0010652645,0.0
778,0.9686336635570868,0.0047105064487369544,1,,-0.9512104344482494,-0.04795234939697219,-0.17441817923922967,0.0012494152171554907,0.001801867334048255,-0.00018415071715549062
779,0.9686450137310056,0.005494150687713827,1,,-0.9511682607631134,-0.04839633464873133,-0.1749799628838488,0.002130529,0.0053263223,-0.0010652645
780,0.9686612540194794,0.006259757545932396,1,,-0.9517148662088354,-0.048832402028051225,-0.1768568378138837,0.001962002498216202,0.006168954840559301,-0.0014023174877474402
781,0.9686833409034054,0.006959668932414649,1,,-0.9503485638863716,-0.04992018868442426,-0.17698956220829445,0.0010652645,0.010652645,-0.0031957934
782,0.9687111620104958,0.007552743156878308,1,,-0.9509399109170611,-0.04898361905525417,-0.17657397786196102,0.0010652645,0.009120018589537511,-0.0035023186677052122
783,0.9687435403689184,0.00800916098981791,1,,-0.9518861806052056,-0.048224151286715075,-0.1764087153091281,0.0010652645,0.0,-0.0053263223
784,0.968778409220133,0.008313305815972304,1,,-0.9513479518428347,-0.047474745926635205,-0.17519404486759266,0.001203799581735725,-0.0016624209158049076,-0.004772181999066617
