id,ASVM,GSVM,walking_nonwalking,normal_abnormal,ax,ay,az,gx,gy,gz
1,1.0153224563869856,0.20415102648187766,1,,-0.29514604885460377,-0.9716540306832608,-0.014123480495378137,0.034622192,0.1974945,-0.035064697
2,1.0081311516864404,0.1889349487839776,1,,-0.282780552050504,-0.959002367427315,-0.009184947094117102,0.034622192,0.1974945,-0.035064697
3,1.0014849628919704,0.17468129004396016,1,,-0.27041505524640425,-0.9463507041713695,-0.004246413692856066,0.034622192,0.1974945,-0.035064697
4,0.995790987940622,0.16230607858374446,1,,-0.2665473568339418,-0.9420429207936851,-0.007436078089247845,0.027449192923768177,0.16197469882710044,-0.04884902468847626
5,0.9913355974395267,0.1525334970290818,1,,-0.2717893725228051,-0.9466798495265598,-0.019339241521873666,0.01258667618401413,0.08837736054300264,-0.0774102720605946
6,0.9882542723492288,0.1458215148333505,1,,-0.27703138821166845,-0.9513167782594345,-0.031242404954499484,-0.002275840555739915,0.014780022258904842,-0.10597151943271296
7,0.9865252878309441,0.14231769772352554,1,,-0.28080992281308526,-0.9428724316520813,-0.017358943318380584,-0.044075134584462224,0.010660144009294378,-0.09623386427084324
8,0.9859863617638573,0.14185692979125877,1,,-0.2845357657881885,-0.9339571026901397,-0.00254705192144456,-0.08684426885899381,0.00904175402179988,-0.08511728339124261
9,0.9863700456315561,0.14400523316238928,1,,-0.2768005457723355,-0.9399689541400363,0.015069065294752246,-0.12233253789911064,0.015078860143574952,-0.08372209809261721
10,0.9873515265875191,0.1481422261648918,1,,-0.2549362557657156,-0.9643828662784062,0.03614220069927886,-0.14884503796564008,0.030553576061795262,-0.09431134028595217
11,0.9886008670347561,0.15356384839240766,1,,-0.23307196575909572,-0.9887967784167758,0.05721533610380548,-0.17535753803216952,0.046028291980015575,-0.10490058247928712
12,0.9898306378720994,0.15958146020222702,1,,-0.23709419556741795,-0.972704388185071,0.04723212114671298,-0.12939498651874243,0.061847055416991814,-0.11468329182761719
13,0.9908307227149078,0.16559580952470201,1,,-0.24305010016415934,-0.9535862526533012,0.03492905469378864,-0.0780186837157872,0.07769151856245697,-0.12440575467546874
14,0.9914856095507664,0.17113373401227808,1,,-0.25254685414456685,-0.9453636265729395,0.031120750877987168,-0.0450096842720005,0.09388154029394856,-0.12847654588337634
15,0.9917743878201236,0.17584754258320967,1,,-0.26707380975319917,-0.9526193796734697,0.039380277183893996,-0.038093644243428426,0.11056246948117539,-0.12451845904394855
16,0.9917572405320465,0.17948669961765734,1,,-0.28160076536183154,-0.9598751327739997,0.047639803489800826,-0.031177604214856346,0.1272433986684022,-0.12056037220452079
17,0.9915530884583522,0.1818561857419882,1,,-0.27703296288846374,-0.9558071289277876,0.018382498958888414,0.0198199760880983,0.12352053436486088,-0.1099458064755004
18,0.991312308602722,0.18277647258506965,1,,-0.27024263635585116,-0.9504211025045367,-0.015241556844984577,0.07594840347524506,0.11742278153231311,-0.09855646347941839
19,0.9911880277087448,0.18205824870839116,1,,-0.2639342986366032,-0.946667663332334,-0.038721578257212314,0.1008657990548869,0.09807369937320545,-0.09582933402820587
20,0.9913099373411378,0.17950182099732648,1,,-0.2584178474472595,-0.9455964936037664,-0.04553539486720079,0.07450483448114482,0.05695326266969666,-0.10733384257035052
21,0.9917648833648955,0.17492643978272007,1,,-0.25290139626653413,-0.9445253238768726,-0.05234921146654405,0.04814386994858645,0.01583282603043029,-0.11883835109452166
22,0.9925874807186098,0.16822804869308175,1,,-0.24878720890145797,-0.9577854458933714,-0.027587417364882977,-0.047512023851765776,-0.04237388850451206,-0.1318667439524064
23,0.9937614618984315,0.1594545308508006,1,,-0.24489942665165165,-0.9733594533021318,0.0022724757540201353,-0.1543560594792137,-0.10333929985051878,-0.14514117839275367
24,0.9952292128458627,0.14887675669225886,1,,-0.24435602960725264,-0.9812583897781393,0.017541278079997124,-0.19340003737049064,-0.12595695047658376,-0.1441070575020419
25,0.9969044865460511,0.13702711792067043,1,,-0.25020130121510836,-0.9744958916225641,0.004937201348785274,-0.10292780319989109,-0.07532013974468456,-0.11573977571981842
26,0.9986830264549705,0.12468204003942764,1,,-0.25604657282296406,-0.9677333934669888,-0.007666875382426579,-0.012455569029291536,-0.02468332901278536,-0.08737249393759494
27,1.000448087598843,0.11278269606821348,1,,-0.2398286453755186,-0.9676266484740728,0.004367128170340619,-0.0004105833516883922,0.004518704647805417,-0.07165573624150338
28,1.0020714348028146,0.10231017741174073,1,,-0.21897060436816845,-0.968919675582384,0.02158276880706652,-0.004859640006125417,0.02921278823765545,-0.058599511508235155
29,1.0034134643030463,0.09414534630415086,1,,-0.20169388148819187,-0.9710761577857129,0.03056767806047988,-0.005923926909451184,0.05190371714663598,-0.04827469141355967
30,1.0043272816325322,0.08894391953691755,1,,-0.19243119606452969,-0.9751648228410559,0.02113439958168417,0.0005860006528614368,0.07011211865304452,-0.0440620284363214
31,1.0046705280137158,0.08704785155852127,1,,-0.1831685106408675,-0.9792534878963989,0.011701121102888463,0.007095928215174058,0.08832052015945305,-0.03984936545908314
32,1.0043259250740781,0.08844223994489143,1,,-0.18325406628423638,-0.9876119539841335,0.0004152184676091898,0.023440677639493326,0.08765086256661575,-0.024732044363027204
33,1.0032277990568426,0.09275811029282106,1,,-0.18580244894936504,-0.997095314170255,-0.011358764502044955,0.042376445477044195,0.08200771384047807,-0.006741852722834038
34,1.0013884189655378,0.09931723699081405,1,,-0.18667372944465488,-1.0021222069175857,-0.00873820392338511,0.04551343217430995,0.07534110786462575,0.0021568538446707264
35,0.99891612457494,0.10721439072372245,1,,-0.18310364437258375,-0.9953473135897057,0.032002532768041506,0.006811487514473545,0.06596414358723637,-0.013020855136135854
36,0.9960179327902883,0.1154321874836953,1,,-0.17953355930051257,-0.9885724202618257,0.07274326945946812,-0.03189045714536286,0.05658717930984699,-0.028198564116942434
37,0.9929827139638556,0.12298091234012477,1,,-0.19565332468168134,-0.9738139252856723,0.04326575045009594,0.004966319903479832,0.1064260908147143,-0.0371748888931965
38,0.9901460999215561,0.12904858040079345,1,,-0.21810294632007365,-0.9564888769998066,-0.008785401928131457,0.06611357333411733,0.17530161119263749,-0.04415760428659338
39,0.9878432836256995,0.13313680532464583,1,,-0.23735896975874124,-0.9432401926173519,-0.04552335034126079,0.11070135480286664,0.20207045807697865,-0.056247148865008326
40,0.9863591016475665,0.1351517588018391,1,,-0.24646589728519222,-0.9429459895570572,-0.033596699751762445,0.10266395968823962,0.09502639516333956,-0.08456594207292321
41,0.9858852423542664,0.13542353018650455,1,,-0.25557282481164323,-0.9426517864967627,-0.021670049162264105,0.0946265645736126,-0.01201766775029955,-0.1128847352808381
42,0.986492147584386,0.13464300467866822,1,,-0.25088988093794573,-0.9522120203957654,-0.023622962135944975,0.09275956764812882,-0.0349167290938686,-0.09537627146858961
43,0.9881192511431254,0.13372657791722947,1,,-0.24089660947607988,-0.9655670894264622,-0.03092074216186637,0.09326872310166134,-0.025412477144812918,-0.06022023574050458
44,0.9905832030607312,0.13363662316444233,1,,-0.2305510212088797,-0.9736767069092281,-0.03440258331622032,0.09027941081551259,-0.005884079124183148,-0.032159108044322704
45,0.9936010724118239,0.1351946205577448,1,,-0.21883576056133686,-0.9613940228183965,-0.02304951932512906,0.07368939929407015,0.05261434968189029,-0.03168025874421094
46,0.996824807926773,0.13892402645324037,1,,-0.20712049991379403,-0.9491113387275649,-0.011696455334037802,0.0570993877726277,0.11111277848796373,-0.031201409444099167
47,0.9998836990299702,0.14495310687946775,1,,-0.20067996559415768,-0.9689226166259519,-0.023928873657581676,-0.008273007573612013,0.06839744401300481,-0.022533150953983228
48,1.0024313333431087,0.152996292849357,1,,-0.1966401358974118,-1.0033409315770025,-0.046895834951873376,-0.09584789970991582,-0.020383664172978128,-0.010137618046392776
49,1.004191405856696,0.16241792336949895,1,,-0.1930324023586648,-1.0261940449505365,-0.04888952045426526,-0.1613914980970179,-0.10552549143293646,-0.0005382064597457441
50,1.004994162920519,0.17236572071518083,1,,-0.19153662506755142,-0.9925199264229653,0.05162786715073553,-0.11925274935896964,-0.17287960652205067,-0.0046053961228220445
51,1.00479550228716,0.1819457554100782,1,,-0.190040847776438,-0.9588458078953944,0.15214525475573631,-0.07711400062092139,-0.24023372161116485,-0.008672585785898345
52,1.0036751611258414,0.19040142803900345,1,,-0.2019921750741448,-0.9599254888047151,0.10536633771317179,0.034650171314882725,-0.10588173917908239,0.0073509455952005314
53,1.0018163841678551,0.197259727254648,1,,-0.22110596419418807,-0.9795164231964268,-0.019868439595888528,0.18349960812864083,0.13590691954903866,0.034075592708064685
54,0.9994729529604871,0.2024158615852667,1,,-0.23568833395313843,-0.9933515108087229,-0.11998364089284791,0.28597687624292895,0.3197072345929338,0.059391821752304716
55,0.9969293985591863,0.20613742447289837,1,,-0.22125904096028057,-0.9703357417006614,-0.05927491271890581,0.09156400637305427,0.13224677316855737,0.07569088713005474
56,0.994459169038514,0.20898281199850377,1,,-0.20682974794487988,-0.9473199725566424,0.0014338155498814756,-0.10284886380055146,-0.0552136885486884,0.09198995253326879
57,0.9922859819217135,0.21164936486966218,1,,-0.20992982217072306,-0.947389554416871,0.020105202450429616,-0.08333229634783278,-0.09274457080730707,0.09913066894348935
58,0.9905547721151727,0.21478886673256406,1,,-0.22387824351580832,-0.961745898460184,0.012761065549450942,0.06857814283710348,-0.03748898234285083,0.10060358529000205
59,0.9893177867467314,0.21883814259275397,1,,-0.23514646277955656,-0.9739867842153886,0.004552759389550225,0.19466822270616627,0.0003557751561965705,0.10241344237185637
60,0.9885376482939936,0.22390447430320504,1,,-0.22238353867469007,-0.9672601145889103,-0.011403833923961397,0.08924861124652077,-0.11790791081247094,0.10724436684788352
61,0.9881048874747821,0.2297260489576667,1,,-0.20962061456982364,-0.9605334449624319,-0.02736042723747302,-0.016171000213124752,-0.23617159678113844,0.11207529132391066
62,0.9878651454627194,0.2357074428664563,1,,-0.2166945592030018,-0.9579101447842683,-0.026752605542805383,-0.04663314452327923,-0.25339305560687403,0.10556347945997335
63,0.9876511835931663,0.24101632618331043,1,,-0.2379593036367977,-0.9582222924894356,-0.01429501560600587,-0.0234725914245552,-0.19833143207072929,0.090937357685676
64,0.9873153719055092,0.24472231553862545,1,,-0.2571690031144586,-0.9588908103723939,-0.0035174514155831525,-0.004364206342618465,-0.1496535733435992,0.0792622063301689
65,0.9867582546683575,0.2459595852508565,1,,-0.2471003276877382,-0.9646365600886293,-0.016675336181927642,-0.0429873536132246,-0.19192567598920857,0.1096297450847468
66,0.9859484485059207,0.24409505477588908,1,,-0.23703165226101783,-0.9703823098048647,-0.029833220948272128,-0.08161050088383075,-0.23419777863481794,0.1399972838393247
67,0.9849296179151054,0.23887881072448214,1,,-0.21902287815215485,-0.9698377889502453,-0.016919539142980906,-0.12238689424317999,-0.2517042257007541,0.14573208528513082
68,0.9838122916882693,0.23054573569702572,1,,-0.19447051676163368,-0.9641093357563485,0.017480219559744208,-0.1649378189691872,-0.24880082215317098,0.13116657658939715
69,0.9827516174557979,0.21983627209600304,1,,-0.1709558666597141,-0.9584675002249105,0.05032029556329365,-0.20325189621931192,-0.24312206862912566,0.11577631241586372
70,0.9819157514432851,0.20791713001767295,1,,-0.18005908778660332,-0.9555482751187214,0.034135628243875796,-0.10839121682719118,-0.15020709378258956,0.07446191115115049
71,0.981452044868843,0.19620884836780791,1,,-0.18916230891349256,-0.9526290500125324,0.017950960924457943,-0.013530537435070435,-0.057292118936053495,0.03314750988643724
72,0.9814585334524423,0.18615706236702007,1,,-0.20285172827451678,-0.9522087193028645,-0.00033591329125070283,0.03908122775836984,-0.05125896393874263,0.0045155633301796234
73,0.9819664411450406,0.17900352942207784,1,,-0.22088695512209214,-0.9541563006244898,-0.020614804860283206,0.0516586031915263,-0.12755362031593764,-0.012098693670133949
74,0.982936287141304,0.17561022419093625,1,,-0.23892218196966755,-0.9561038819461153,-0.0408936964293157,0.06423597862468276,-0.20384827669313263,-0.02871295067044752
75,0.9842668640314488,0.176367075940306,1,,-0.23350358956484168,-0.9588555648860744,-0.028148238228551652,-0.02061580960438579,-0.17376600693262037,-0.0219555591977011
76,0.9858138326473703,0.18118572956353068,1,,-0.22799270000881383,-0.9616104121843775,-0.015272820238669825,-0.10585100806413947,-0.1432651150649592,-0.015106193938095404
77,0.9874135052210375,0.18956245258525822,1,,-0.22711117896446978,-0.9629201530911765,-0.005861583658477519,-0.14988338879122137,-0.1325560860360232,-0.016479982532840755
78,0.9889074836979223,0.2006864779142162,1,,-0.2312709258772002,-0.9626562088338615,-0.00022275506310761765,-0.1490469187770703,-0.1433999067506023,-0.02680858255108986
79,0.9901646463781593,0.21357049534153405,1,,-0.23543067278993066,-0.9623922645765463,0.005416073532262284,-0.1482104487629192,-0.1542437274651814,-0.03713718256933896
80,0.9910979672287408,0.22718244810247606,1,,-0.24262908089705906,-0.9627730203972066,0.007307965482973193,-0.14166936949259035,-0.19315025375638173,-0.030823946798010683
81,0.9916745089488943,0.2405606184937056,1,,-0.24994973042095386,-0.9631797116715227,0.009049122992477636,-0.13489880114552819,-0.23318570650719192,-0.02384123140461381
82,0.991917640574314,0.25289752937891374,1,,-0.25045508019098206,-0.9634939425962489,0.010232423181170864,-0.12526505765469245,-0.25453247323183026,-0.013632060799670873
83,0.9919012563265828,0.26358324513183173,1,,-0.24242424400395782,-0.9636923666208741,0.010717005191658373,-0.11204517762730966,-0.25247159759681126,0.0006182558535046046
84,0.9917366872380153,0.27220593645775665,1,,-0.23439340781693355,-0.9638907906454993,0.01120158720214588,-0.09882529759992686,-0.25041072196179226,0.014868572506680082
85,0.9915540978997069,0.2785165569778068,1,,-0.22678294285767145,-0.9627960212429847,-0.005523629288217193,-0.08078661216221797,-0.24470485865810873,0.01913868571800665
86,0.9914812033603837,0.28237277118526555,1,,-0.21920579008007665,-0.9615987731465664,-0.023612630681676232,-0.06236606205193695,-0.2387101494882606,0.0226179209429845
87,0.9916227596429464,0.2836817679078283,1,,-0.21446792075862897,-0.9623937805762992,-0.03127523490611053,-0.06239648879166667,-0.2410691018199404,0.02200713593045848
88,0.9920441805303639,0.2823603213672386,1,,-0.2138294316607923,-0.966065222511577,-0.023884123283443505,-0.08906658387500001,-0.25548913761969166,0.015491146899118347
89,0.992761750964458,0.2783236627485061,1,,-0.21319094256295568,-0.9697366644468546,-0.016493011660776477,-0.11573667895833334,-0.26990917341944287,0.00897515786777821
90,0.9937405032044653,0.27150495989899137,1,,-0.2074530736817385,-0.9724484437042619,-0.01833712251246216,-0.1168541712099656,-0.2466516892403079,0.005097135596873251
91,0.9948993972781303,0.2618983068944016,1,,-0.2010966429911542,-0.9750438145536624,-0.021301478603041588,-0.11487209745297688,-0.21882386985951557,0.0015391023367305485
92,0.9961224618953536,0.24961280546224757,1,,-0.19708423672517303,-0.9763468254396985,-0.02142259393437318,-0.11459226287624666,-0.21001572891874665,-0.0011678116307706668
93,0.9972741503806919,0.2349232524242772,1,,-0.19698781362647835,-0.9754907889144445,-0.016793723363564547,-0.11715622971910378,-0.23298231691149388,-0.002452825389478769
94,0.9982171528494997,0.2183020770362615,1,,-0.19689139052793433,-0.9746347523905279,-0.012164852799987596,-0.1197201965579552,-0.2559489048683604,-0.003737839146179296
95,0.9988309274733441,0.20041729125045937,1,,-0.1904878319133438,-0.980718883704728,-0.0028122510206053026,-0.12014901005711116,-0.22031049390769103,-0.000461626910260138
96,0.9990289906940446,0.18208522319168507,1,,-0.1830324395752174,-0.9879604188134968,0.007328121971407871,-0.12022174649372452,-0.17489859479658973,0.0035752557294421237
97,0.9987725675592524,0.1641774857473023,1,,-0.1763114850089414,-0.9914426235739111,0.012229375067004734,-0.09838466966995754,-0.11960967540060141,0.005479014904799123
98,0.998077992903479,0.14749750446732016,1,,-0.17101816718325288,-0.9876172546622988,0.0069465658238384706,-0.03395820598619525,-0.045121311767552914,0.003236302388979479
99,0.9970158488643414,0.13265661960573077,1,,-0.16572484935756437,-0.9837918857506863,0.0016637565806722065,0.030468257697567034,0.02936705186549558,0.0009935898731598357
100,0.995701370194526,0.11998524454189277,1,,-0.1809252421746179,-0.9777439016369086,-0.008160390252569417,0.06417108959923847,0.05208280407738684,-0.013625303577404602
101,0.9942776148501249,0.1095059622329579,1,,-0.2005539048783713,-0.9712156560350554,-0.018965826850560943,0.09123517579973199,0.06361155847766807,-0.030918435495617597
102,0.9928944741213068,0.10097517932849244,1,,-0.2163879200209428,-0.9657114044372817,-0.029020363387046916,0.11060459042918576,0.07261362214507737,-0.039895852086018216
103,0.9916872902772731,0.09397733643791371,1,,-0.2235725912640854,-0.9625411973454688,-0.03736333310175383,0.11243512706324761,0.075856463981276,-0.029918812305878284
104,0.9907586680353556,0.08804094825657807,1,,-0.23075726250722806,-0.9593709902536561,-0.04570630281646076,0.11426566369730946,0.07909930581747464,-0.01994177252573835
105,0.9901662869559875,0.08274383085013687,1,,-0.23275330763652471,-0.9580510895955374,-0.04760279948864343,0.0851100234906179,0.06400631022494542,-0.01832350572114966
106,0.9899184216197602,0.07778413749642511,1,,-0.23334976251769227,-0.9572302942477817,-0.04776041180084846,0.04759611087061702,0.043967369701041384,-0.0189599508325432
107,0.9899776221184535,0.07300878665528525,1,,-0.23629822405412443,-0.957346187338802,-0.04387098327472134,0.007889323506444921,0.025598878959054668,-0.01927540778907669
108,0.990271677438817,0.06840492625720603,1,,-0.2455998489520894,-0.9599922325690958,-0.029049820555084482,-0.03774078531173541,0.011742552469665922,-0.018723822052351555
109,0.9907096674936118,0.06406778266526515,1,,-0.25490147385005435,-0.9626382777993898,-0.01422865783544763,-0.08337089412991575,-0.0021137740197228225,-0.018172236315626415
110,0.9911998336760178,0.06015792469805567,1,,-0.25177904810369,-0.964523068623571,-0.007216672726939,-0.07784907441747047,-0.006802908642954539,-0.008969084335336197
111,0.9916655449623167,0.056855991074523285,1,,-0.24457707222783936,-0.9661578946335434,-0.0027689021766831574,-0.05553105331833568,-0.008481912364822328,0.003074888179221897
112,0.9920561253834409,0.054318879889059486,1,,-0.2371562374929344,-0.967015806725249,-0.0006651348480355007,-0.03508959469407707,-0.013204800236320943,0.012257638233250413
113,0.9923507055335666,0.05264107610676903,1,,-0.2290246559384107,-0.9653506813721296,-0.006173546629397676,-0.02074229564186896,-0.027812739085357387,0.012148533377544134
114,0.992555129656299,0.05182633938943173,1,,-0.22089307438388706,-0.9636855560190103,-0.01168195841075985,-0.006394996589660858,-0.04242067793439383,0.012039428521837854
115,0.9926936683475416,0.05177500174641384,1,,-0.2203810326258607,-0.9639932118586896,-0.012118811956451822,-0.0075422793518111556,-0.04885914138565387,0.007947867937274545
116,0.9927983104575608,0.05228946713210662,1,,-0.22286080431603378,-0.9650754805307192,-0.010564317397396068,-0.014773511996044132,-0.052089859092080644,0.002292595511225668
117,0.9928984809837693,0.05309660064046457,1,,-0.22403768747690808,-0.966243582461999,-0.009013171853064435,-0.01932381668122609,-0.05447396831485697,-0.0028213824684235373
118,0.9930133084255169,0.053882533053216955,1,,-0.22002505424645463,-0.9677535655927443,-0.007475365732726105,-0.013195756106301805,-0.05348596356121268,-0.005779338358792654
119,0.9931475018541954,0.054333935641387054,1,,-0.21601242101600118,-0.9692635487234894,-0.0059375596123877735,-0.007067695531377521,-0.052497958807568385,-0.00873729424916177
120,0.9932909435628765,0.05417981472002339,1,,-0.21679336615054037,-0.9692379095652954,-0.010218357112362146,0.002270227838673514,-0.05358083213831367,-0.008580647806858974
121,0.9934214640995667,0.05322856063783662,1,,-0.21979604398216232,-0.9685005385880031,-0.017195967083166442,0.013095861762736406,-0.055623518202143875,-0.006980442228975437
122,0.9935099206137059,0.051395716804312486,1,,-0.22202831422243935,-0.968051862101141,-0.023081345563840006,0.021247232938782674,-0.05671175702587271,-0.004639006214173872
123,0.9935265377780815,0.048718629947420516,1,,-0.2203879063342198,-0.9690543925487193,-0.02347630436199147,0.015955643569726317,-0.053002188827617334,0.0014284404649531346
124,0.993447404803922,0.04535522791975099,1,,-0.21874749844600028,-0.9700569229962975,-0.023871263160142934,0.010664054200669956,-0.04929262062936197,0.007495887144080142
125,0.9932600277196365,0.04156604151234299,1,,-0.21568282706541142,-0.9708277577037808,-0.02283634990267853,0.005997510932339374,-0.041526150934881434,0.01207737530961834
126,0.9929669499123498,0.0376811147353417,1,,-0.21184634300582358,-0.9714730357914159,-0.021026584668888636,0.0016696820297730124,-0.031561234092796535,0.01585361807822062
127,0.9925867294379626,0.03405601087588992,1,,-0.20856604376414634,-0.9717918198937769,-0.019085313457964388,-0.0016126060723352853,-0.0220169188055974,0.019462097338505926
128,0.9921520101500111,0.03102300528072597,1,,-0.20896965649893573,-0.9699480582669795,-0.016273007244750434,0.0020302863638563483,-0.015258474429411514,0.02195938841529361
129,0.99170498507219,0.028844312890671905,1,,-0.2093732692343557,-0.9681042966373016,-0.013460701027142814,0.00567317880573927,-0.008500030042666917,0.02445667949598281
130,0.9912910978363743,0.027673806548448206,1,,-0.20866340045781187,-0.9674665942754676,-0.012065761465161385,0.0053240233950387975,-0.003397187943472611,0.023854831359356333
131,0.9909521988420434,0.027532499221406787,1,,-0.20725292301584738,-0.9675877510086827,-0.011562636762991005,0.0024630496148012543,0.0006639401353768792,0.021302987855798886
132,0.9907204386357026,0.028301540007439722,1,,-0.20631557733072406,-0.9676922187841509,-0.011139847344825454,0.0001765765637590601,0.0051844350315367405,0.01847645940861711
133,0.9906139280091518,0.02973477919855697,1,,-0.20981210961236663,-0.9676402886831873,-0.011469907086650757,0.0032739444581582006,0.01400981198324521,0.01307576530519291
134,0.9906347343628706,0.03149088472133453,1,,-0.21330864189400917,-0.9675883585822239,-0.01179996682847606,0.0063713123525573415,0.02283518893495368,0.007675071201768709
135,0.9907692844970902,0.03318227646672113,1,,-0.21718526347656372,-0.9669502088489481,-0.01247253699501561,0.015456403697970767,0.028277115920900254,0.0029973964386879022
136,0.9909908489951206,0.03443491203812222,1,,-0.22133820519665623,-0.9658858848217913,-0.013394107929106683,0.02889449462414944,0.03125931736958828,-0.0011546523646858227
137,0.9912635650383467,0.03494991618996486,1,,-0.2252969109125638,-0.9648966835285431,-0.01456933674732397,0.04156408523103707,0.033264820712913444,-0.005229701633620508
138,0.9915473942946184,0.03455629425509468,1,,-0.22630006924009927,-0.9650505700008349,-0.01960429229393562,0.042539967860484654,0.02040862245438561,-0.008133105234327488
139,0.9918034261524169,0.033244499317935855,1,,-0.22730322756763477,-0.9652044564731268,-0.024639247840547274,0.043515850489932235,0.007552424195857773,-0.011036508835034466
140,0.99199894435412,0.031173721141996104,1,,-0.22867813059266653,-0.9654276606214148,-0.02528157009990142,0.03758331111893309,-0.0016054255477989075,-0.011303890656920225
141,0.9921116610154412,0.0286507152584308,1,,-0.23036427909975116,-0.9657089014104576,-0.022246133767476254,0.025866653941166527,-0.007666810807091989,-0.0093642474184372
142,0.9921325325468282,0.026083417302330745,1,,-0.23196181350495426,-0.9659793123088748,-0.019157765207906005,0.014188985445756504,-0.013628522059723263,-0.0073931195989257025
143,0.992066673710141,0.02391713457149982,1,,-0.23035539917424527,-0.9658581555756596,-0.014155568500389085,0.0039209987274462675,-0.01598640073921437,-0.004283628988925336
144,0.9919321240710456,0.02256387575534893,1,,-0.2287489848435363,-0.9657369988424446,-0.009153371792872164,-0.006346987990863969,-0.018344279418705478,-0.0011741383789249705
145,0.991756587915194,0.02233609500613322,1,,-0.22683078065904339,-0.9652801347856275,-0.006031362619990302,-0.008288380730066845,-0.013620229601396836,0.00013166870150907922
146,0.9915726883282094,0.023395132372085556,1,,-0.2246124579888848,-0.9645001300866005,-0.00471915908643185,-0.0022148725819123227,-0.0020793522630605755,-0.0002986896607223918
147,0.9914126221970793,0.02572248540999327,1,,-0.2223941353187263,-0.9637201253875736,-0.003406955552873399,0.0038586355662422003,0.009461525075275685,-0.0007290480229538629
148,0.9913032437136481,0.029118894680049346,1,,-0.2236394111515306,-0.9645915489062317,-0.007871507164153158,0.01692025586483443,0.014657774132943618,-0.0011594063654790981
149,0.9912624564391517,0.03323187813661396,1,,-0.2249120550876071,-0.9654760214136711,-0.012381704606278186,0.030037093699422042,0.0198038902315343,-0.001589764707848622
150,0.9912973862831277,0.03760716944603828,1,,-0.2263478642671934,-0.9657612597559435,-0.014990582834337686,0.03549597975987038,0.02801491358339717,-0.0012833941546201042
151,0.9914043079228878,0.04175485023651688,1,,-0.2279641704314868,-0.9653836120716357,-0.015496179887297694,0.03248347096604477,0.03961640481753071,-0.00016203787684833542
152,0.9915699290305483,0.04521833480441627,1,,-0.2295804765957802,-0.9650059643873281,-0.016001776940257704,0.029470962172219162,0.05121789605166425,0.0009593184009234334
153,0.9917735253144848,0.047634421788569595,1,,-0.2326554705387927,-0.964068501585479,-0.0096890791766691,0.02444473845636283,0.05366191620324009,0.0030382049757595956
154,0.9919895239088032,0.048775045553440796,1,,-0.23579535806697746,-0.9631061339265944,-0.003073051515449569,0.01932892930567079,0.055698541989759605,0.005159689819156364
155,0.992190316135705,0.04856536708156319,1,,-0.23773065894829024,-0.9626964285372699,0.00023245712640988447,0.018016540802814077,0.05055774491829345,0.007609239675820607
156,0.9923492143002026,0.04707758479059553,1,,-0.23813304026726897,-0.962990023991079,-0.0006748979384917299,0.021544267313677614,0.036283182389007906,0.010476274881389384
157,0.9924434851065385,0.04450442008494212,1,,-0.2385354215862477,-0.9632836194448882,-0.0015822530033933442,0.025071993824541148,0.022008619859722363,0.013343310086958158
158,0.9924573011588812,0.04111969736936596,1,,-0.23740830017331918,-0.9637271969255455,-0.0036164863700559923,0.02273312238331596,0.014020097252949412,0.01538823879299499
159,0.9923843118267996,0.03723498814071328,1,,-0.23615296086995058,-0.9641833473677838,-0.005745185706357208,0.019902455276882187,0.006558532043030143,0.01736425048509776
160,0.992229418445095,0.03316059679809274,1,,-0.2347570920344479,-0.9647344351110586,-0.006314787419316063,0.018169863097639617,0.0015903583247895404,0.019101977316851884
161,0.9920092976801009,0.029176602263402088,1,,-0.2331550038619159,-0.9654248381070191,-0.004596499367277966,0.01804863530604506,0.000281099089217891,0.02049003425944495
162,0.9917512789746852,0.025516148011265467,1,,-0.23155291568938388,-0.9661152411029797,-0.0028782113152398697,0.017927407514450506,-0.0010281601463537585,0.021878091202038014
163,0.9914903701132718,0.022359764004150233,1,,-0.22967587958833624,-0.965258014482737,-0.003210247723558005,0.01989436110024047,-0.0029025198784101763,0.01851930386129219
164,0.9912645518423051,0.019837095103674575,1,,-0.22776413084651775,-0.9642053970072011,-0.003801141061042187,0.02212495111496792,-0.004848224503442625,0.014561219405298073
165,0.9911088864085412,0.018031497275613168,1,,-0.2270647986704498,-0.9635025012206653,-0.004674641625062299,0.022390386037385576,-0.00468728297622935,0.011103968715519752
166,0.9910493779864522,0.01698357909228839,1,,-0.22842521341573338,-0.963393739657595,-0.0060282571726235565,0.01931726368397128,-0.0009474082324904258,0.008497573130670047
167,0.9910977254186222,0.016691565189680867,1,,-0.22978562816101697,-0.9632849780945248,-0.007381872720184813,0.016244141330556988,0.002792466511248499,0.0058911775458203456
168,0.9912480413679386,0.017108747303544062,1,,-0.23141761086774132,-0.9624152718576092,-0.006276587641136181,0.010693986145546149,0.00028028985841475646,0.004587938961861552
169,0.9914763241860475,0.01814052249564897,1,,-0.23309633847164846,-0.961414584483037,-0.004748052866639286,0.00471746017505382,-0.0033080501907310086,0.00350901233170009
170,0.9917430483111808,0.01964480839750544,1,,-0.23463871479639203,-0.96148727069939,-0.003415847803203447,-0.0013262286119038484,-0.008103287380966905,0.0037855553455528254
171,0.9919987183112767,0.021439352312874693,1,,-0.23591135873246857,-0.9636833225664989,-0.0024720254689631106,-0.007502780009509139,-0.01528602874966648,0.006743511156474153
172,0.9921916151723797,0.023317504010301148,1,,-0.23718400266854509,-0.9658793744336077,-0.0015282031347227743,-0.013679331407114428,-0.022468770118366056,0.00970146696739548
173,0.9922763515350866,0.025071078365358882,1,,-0.2352238202806249,-0.96683157509969,0.0008081996786935931,-0.01381386433178695,-0.023113432329529088,0.014137683898280684
174,0.9922214820498898,0.026516272998295065,1,,-0.23254626052728142,-0.967507760103889,0.003453621788282998,-0.012607648679346781,-0.0223072680715598,0.018901933009483028
175,0.9920145179360542,0.02751735602142825,1,,-0.22978013661379598,-0.9673969357387652,0.005184763832217034,-0.009562248550626453,-0.022176201312067528,0.021962016976693956
176,0.9916633117077392,0.028003285862389208,1,,-0.22680836164802823,-0.965458630542819,0.004792895199129689,-0.002246156730344547,-0.02361274960964178,0.021064931875028753
177,0.9911937161562075,0.027974056821336614,1,,-0.2238365866776176,-0.9635203253438446,0.004401026565430128,0.005069935101367284,-0.02504929790946035,0.020167846771962036
178,0.9906443572818786,0.02749566346143093,1,,-0.22333796062907468,-0.9631421277441297,0.001831957216994124,0.010984790593669561,-0.01929916523400398,0.01794552441928424
179,0.9900599740744919,0.026684654569156717,1,,-0.22352215450980875,-0.9631946654515786,-0.001338222735062343,0.016512774076887518,-0.011564837850512008,0.01535731289603958
180,0.9894848871186097,0.025685032738663637,1,,-0.22423776178973592,-0.9629478372035775,-0.004277009283999049,0.019750582515802126,-0.005773689218129395,0.01325489607114935
181,0.9889578135762063,0.024641534350063093,1,,-0.22641776069349703,-0.9618760598701981,-0.006578155604342454,0.01667746022341818,-0.005337269486180143,0.012491161500514266
182,0.9885086778730152,0.02367392419686227,1,,-0.22859775959725812,-0.9608042825368187,-0.00887930192468586,0.013604337931034235,-0.004900849754230892,0.011727426929879181
183,0.9881575031168439,0.022856808075541385,1,,-0.23037505427849347,-0.9610706865631488,-0.006410006626208199,0.007253839130924134,-0.0021993179881266748,0.013660038144415661
184,0.9879150141205335,0.02220864200203762,1,,-0.23201731739184883,-0.9617857988895208,-0.0023411248937237608,-0.0001956034190073614,0.0012617330784642767,0.01649676652125748
185,0.9877842693194566,0.021692134880612026,1,,-0.23305786552833624,-0.9620511667071927,0.001356854245459172,-0.0041073672090223175,0.005006247480841223,0.01793582405189238
186,0.9877625189684918,0.021226206173506058,1,,-0.23210106354485907,-0.960823639578022,0.0038236485750465106,0.0037239423282975134,0.00969169828916374,0.014735412498886359
187,0.9878426279397873,0.02070737467493596,1,,-0.2311442615613819,-0.959596112448851,0.006290442904633849,0.011555251865617344,0.014377149097486257,0.01153500094588034
188,0.988013771149787,0.02003636636569939,1,,-0.23432999301868285,-0.959057176927469,0.0020439919672971653,0.016460394016821183,0.020066846820224048,0.006131306432469608
189,0.9882615254259711,0.01914427428418179,1,,-0.23917395749335113,-0.9587938807837384,-0.0048897335845824825,0.020194207693947676,0.02615853897822218,-0.00015434995373644702
190,0.9885677328939049,0.01801221806751764,1,,-0.24334551511319774,-0.958441072047154,-0.009834695307462914,0.020743693879140403,0.027937673863317376,-0.004624820494037945
191,0.9889105355062274,0.01667961448692919,1,,-0.2447720657720595,-0.957722840674156,-0.006660806849475551,0.008293608501083908,0.012111396912510012,-0.0016850486929602235
192,0.9892648809183339,0.015239044252154475,1,,-0.2461986164309213,-0.9570046093011582,-0.0034869183914881885,-0.004156476876972588,-0.0037148800382973512,0.0012547231081174984
193,0.9896036903257868,0.01381950318535119,1,,-0.24271421539356056,-0.9585409385093858,-0.0018285175908605877,-0.004783788151791931,-0.007018323053651253,0.0037703411014988917
194,0.9898997637972403,0.012562896520278763,1,,-0.23691221335367027,-0.9611412512765092,-0.0008853133409788919,0.0001683635388702944,-0.0044119273496298645,0.006085790298534793
195,0.9901283234887023,0.011599624457921998,1,,-0.2323593846122951,-0.9632674313459161,-7.048104371469598e-05,0.0037202112760136487,-0.0025567466112793153,0.007996663594453095
196,0.9902698706300953,0.011028067236794333,1,,-0.23426804671316714,-0.9629411061560863,8.033274048537446e-05,2.8827683460297963e-05,-0.004587310650704061,0.007814822065956836
197,0.990312862112467,0.010900815841866815,1,,-0.23617670881403913,-0.9626147809662565,0.0002311465246854449,-0.0036625559090930526,-0.006617874690128806,0.007632980537460578
198,0.9902557008943484,0.011218628406585865,1,,-0.23600671468074658,-0.9620314347110582,-0.00038383851010795144,-0.0036185158063500203,-0.002373239588718058,0.009107854036235576
199,0.9901076934122025,0.011931726032498436,1,,-0.23469080106148038,-0.9613063981454225,-0.001420992335775471,-0.0015152151436096037,0.005330780886599172,0.011496039703349215
200,0.9898888713839169,0.01294718413399808,1,,-0.23387551768589787,-0.9607133462072921,-0.0025898122918207285,0.0005055533860719438,0.011531482371881,0.01332809761807481
201,0.9896287770978375,0.014140760205760881,1,,-0.23649374264057416,-0.9610254939124596,-0.004661647519453359,0.0019602858643025475,0.007421863335289265,0.011346024655563995
202,0.9893643729456282,0.01537150187923561,1,,-0.23911196759934095,-0.9613376416181145,-0.006733482750322817,0.0034150183448058784,0.003312244292277075,0.009363951689956587
203,0.9891371644375128,0.016497788757208254,1,,-0.23894146036945269,-0.9610854685730985,-0.004779029770630693,-0.0031631674507612458,-0.002982121625656861,0.008997334503661655
204,0.9889895500790549,0.017393688815545108,1,,-0.23698706575376965,-0.9604723126149985,-0.0002490534816815264,-0.014879825007461826,-0.010674019520434105,0.009664086960192777
205,0.988960478717872,0.01796421379980912,1,,-0.2350041411525123,-0.9600048359496934,0.0040785300861852026,-0.024940805035854764,-0.016985531995971217,0.010103204773741882
206,0.9890807231643463,0.018157382971584566,1,,-0.23274131333264347,-0.9609665960020924,0.006420470376839445,-0.018758192232780187,-0.009754299391462136,0.008309034769030946
207,0.9893683359273836,0.01797083680501203,1,,-0.23047848551277464,-0.9619283560544917,0.008762410667493687,-0.012575579429705615,-0.0025230667869530544,0.006514864764320011
208,0.9898249923410143,0.017451791353855467,1,,-0.23165170392396567,-0.9617554100134805,0.007448265222458463,-0.005995557635112058,-0.005035324703877037,0.002880063990901396
209,0.9904339098536264,0.01669090256046836,1,,-0.23536332890148656,-0.960744190793159,0.0034331572715500937,0.0008780532225364456,-0.014745663978091255,-0.0021145174476438766
210,0.9911599036092533,0.015811785704632497,1,,-0.23870422990328297,-0.9599379387917679,-0.00039090318273169323,0.006950661433403219,-0.02344847063599739,-0.006772707939552206
211,0.9919519182619146,0.014957814397493205,1,,-0.23599601612942492,-0.9624761433503639,-0.001097635623800053,-4.671574450138629e-05,-0.015711335894501965,-0.005941996771616384
212,0.992748033575062,0.014277094899379988,1,,-0.23328780235556681,-0.9650143479089598,-0.001804368064868413,-0.007044092922405991,-0.007974201153006542,-0.005111285603680563
213,0.993482477871651,0.013906304659004883,1,,-0.23150953183212328,-0.9668798960604098,-0.0019800126849602875,-0.009906127854511372,-0.004533319589211746,-0.006111494995350981
214,0.994093705644948,0.013954633527035399,1,,-0.2305193519974939,-0.9681753941037862,-0.0017055810582619541,-0.009263621273086527,-0.004733345286759689,-0.008663338264551804
215,0.9945322729879597,0.01448969270591937,1,,-0.22962058003547658,-0.9694261347693226,-0.0014198896879923765,-0.008595755675982837,-0.004755857924197077,-0.011097370820294819
216,0.9947671962565723,0.015527400417549117,1,,-0.23245390173674116,-0.9688494757074539,-0.000674474021085343,-0.006892506316348348,0.0024693134496278535,-0.008721307733721163
217,0.9947897199921619,0.01702756779346356,1,,-0.23528722343800568,-0.968272816645585,7.094164582169062e-05,-0.00518925695671386,0.009694484823452783,-0.006345244647147507
218,0.9946138898413538,0.018896401888612958,1,,-0.23531064427451576,-0.9672606409543288,0.00027723192384628844,-0.0029855527262987723,0.014877923126867157,-0.0026827362211218056
219,0.9942739319118074,0.02099636844460046,1,,-0.23259661592601166,-0.9658241781798058,-4.170214854248127e-05,-0.0002942975664759366,0.01807227327428352,0.00223304729023538
220,0.9938190583279574,0.02316270000642339,1,,-0.2298825875775076,-0.9643877154052828,-0.00036063622093125095,0.0023969575933468993,0.021266623421699882,0.007148830801592566
221,0.9933067861481343,0.02522442375185931,1,,-0.2305238367338049,-0.9647493731077277,0.001218169877053268,0.00504624301761361,0.028286193460157472,0.0038385931483094333
222,0.9927960079851911,0.027026496706563506,1,,-0.23120187696313974,-0.9651307474451466,0.002817784953464998,0.007695068238036077,0.03534770755367312,0.00043815605696354893
223,0.9923408310388097,0.028448951211751245,1,,-0.23284920064670594,-0.9649248231982596,0.0010593291447038035,0.01099588775329105,0.035417441589103524,-0.0008890539287868784
224,0.991985741428539,0.029419311178372848,1,,-0.2355817771419594,-0.9640613333681205,-0.00445897199523453,0.015026709043137477,0.02765886809115812,0.00010501324725839371
225,0.9917622025689111,0.029916097563505443,1,,-0.23831435363721282,-0.9631978435379814,-0.009977273135172863,0.019057530332983904,0.019900294593212714,0.0010990804233036659
226,0.9916865447990534,0.029963569924470947,1,,-0.2362911079676333,-0.9633956094586765,-0.009829538289367014,0.01035558795472546,0.023676991900293588,0.0010923442882177275
227,0.9917589740202597,0.029620009345387523,1,,-0.23404063886368018,-0.96364408000416,-0.009411091854910823,0.001045300233877703,0.02800482080285995,0.001037791821724071
228,0.9919636349297908,0.02896299252411655,1,,-0.23422179439629662,-0.9635160166702521,-0.007193106383853916,-0.009258351881303278,0.024324808436415588,0.0003315923257416457
229,0.9922698021886687,0.028075051809460006,1,,-0.23753537636514552,-0.9629029012192512,-0.0026569491166629276,-0.02084165910559321,0.010329069986693104,-0.0012140609048199187
230,0.9926343572631181,0.02703226564894842,1,,-0.24084895833399436,-0.9622897857682504,0.0018792081505280614,-0.03242496632988314,-0.00366666846302938,-0.0027597141353814833
231,0.9930056940661275,0.02589720548855054,1,,-0.23883185423461797,-0.9627054658695405,3.593927464293655e-05,-0.02007206477556139,0.0054487997886142605,0.0003937998762775452
232,0.993329070493458,0.02471664752317898,1,,-0.23634899185278846,-0.9632110349726021,-0.0023647194991666346,-0.005627783735282408,0.016583564581243274,0.0039578944465521885
233,0.99355318576414,0.023523662294791636,1,,-0.23638907145577842,-0.9639272147884792,-0.00461321093306581,0.004722558499450484,0.023287902429372533,0.0075049206866475825
234,0.9936374168022931,0.022342949856574625,1,,-0.24017795562328967,-0.9649563381465743,-0.0066355990233845485,0.008989773744562933,0.023409130220967092,0.011026585331244659
235,0.9935587281279169,0.021197437305382656,1,,-0.24396683979080092,-0.9659854615046696,-0.008657987113703287,0.01325698898967538,0.023530358012561647,0.014548249975841735
236,0.9933169102103094,0.020113560907615416,1,,-0.24255866809672366,-0.966276223831728,-0.009909184510231067,0.01055141192098967,0.018598993002938637,0.01388623942197777
237,0.9929367169649767,0.01912302132127706,1,,-0.2404744725328913,-0.9664709414567915,-0.01106006678007551,0.0069388263135249945,0.013010395623923398,0.0126800237695376
238,0.9924658413728009,0.01826035548813083,1,,-0.23815380305843317,-0.9657506541547984,-0.01205034774058474,0.003083424913543113,0.008279450406048319,0.010429031965883089
239,0.9919684886404809,0.017557756659033273,1,,-0.23542617247997194,-0.963455683951845,-0.012764240965304317,-0.0011898516814251696,0.005024486545444221,0.006380026745640843
240,0.9915153761472557,0.01704007749835105,1,,-0.2326985419015108,-0.9611607137488913,-0.013478134190023897,-0.005463128276393453,0.0017695226848401225,0.002331021525398597
241,0.9911719848637691,0.016722989536384927,1,,-0.23300020989259584,-0.9598215702888793,-0.011464347384723345,-0.009684874523973468,-0.008127702376628628,-0.0025115509568185363
242,0.9909874700542781,0.01661565678648308,1,,-0.23383586729498765,-0.9586509151267544,-0.00896973895685105,-0.013897537262868366,-0.019195791605813375,-0.007494009457308775
243,0.9909865734009035,0.016726678504047524,1,,-0.2362605957594983,-0.9587256294762243,-0.007548360268306357,-0.01579063180064014,-0.02419871442196483,-0.01109884624265254
244,0.9911661348522305,0.017069836511307696,1,,-0.24187161076292202,-0.9612974657010851,-0.008278941648193665,-0.013032701528058677,-0.017040218810203636,-0.011941378917547981
245,0.9914965951192298,0.01766573963916632,1,,-0.2474826257663457,-0.963869301925946,-0.009009523028080975,-0.010274771255477214,-0.009881723198442445,-0.012783911592443423
246,0.9919276251548707,0.018537198362524314,1,,-0.24668650419850277,-0.9634575942922949,-0.008926676587478387,-0.004833127190067512,-0.01081884963964677,-0.007310079298811986
247,0.9923962006865582,0.019699093543140422,1,,-0.24443974550020203,-0.9623703837325916,-0.008659662291824638,0.0012161354007311058,-0.013588902508055894,-0.00040616143560500627
248,0.9928353468418332,0.021145977191341488,1,,-0.24241973719527593,-0.9618459025374767,-0.008990001580511142,0.0030656011811461222,-0.015759242566248714,0.005506062450135995
249,0.9931822775067096,0.02284155264560414,1,,-0.24093385578845689,-0.9626469709280022,-0.010727450300534996,-0.004977857190083656,-0.016516915866475756,0.00908227968039841
250,0.9933852909464022,0.024713496830596836,1,,-0.23944797437931647,-0.9634480393197791,-0.012464899023273263,-0.013021315573879722,-0.01727458916788651,0.012658496916247947
251,0.9934091586281083,0.026655522692201648,1,,-0.2404194702808531,-0.9642389572831422,-0.008313890380754108,-0.01598762650101143,-0.013551313226354724,0.014166947902393607
252,0.9932387797123025,0.028536943744029163,1,,-0.24208150895995761,-0.9650270228948772,-0.002508177884295152,-0.017527218183097694,-0.008568854527245014,0.01509433995195745
253,0.9928807564828148,0.03021872328784873,1,,-0.24296217997587058,-0.9651581956428053,0.0015219627624966968,-0.013237673094111693,-0.008198004206609277,0.016557891301541897
254,0.992362527500987,0.03157397522771169,1,,-0.24165615819018885,-0.9634510239539554,0.0005830851541398795,0.007364975310094634,-0.020732948840162493,0.01952190874038632
255,0.9917289347136,0.032509768426025494,1,,-0.2403501364045071,-0.9617438522651056,-0.0003557924542169378,0.027967623714300963,-0.033267893473715705,0.02248592617923074
256,0.9910365795007358,0.03298585704912899,1,,-0.23907915323912937,-0.960581611641017,-0.006054258663744963,0.029491319479594588,-0.0320858848678591,0.021041891509780482
257,0.9903468448589476,0.03302541546154076,1,,-0.237820107536199,-0.9596050259903709,-0.013374290154626973,0.024514922527579655,-0.026230586824022566,0.018096058080779666
258,0.9897187763432833,0.0327141150176949,1,,-0.2371661199861808,-0.9589390194444143,-0.017960399995094682,0.01731134842910362,-0.0207561803609152,0.016018657568397775
259,0.9892029819526937,0.03218709229525535,1,,-0.23855496663726042,-0.9593216089948043,-0.013316076985913174,0.0025882431503660053,-0.016567763259787004,0.01687331318134825
260,0.9888373635521654,0.031607156193805455,1,,-0.23994381328834,-0.9597041985451943,-0.008671753976731669,-0.01213486212837161,-0.012379346158658806,0.017727968794298724
261,0.9886449887572681,0.031140093235593892,1,,-0.2377780879715205,-0.9598230712384407,-0.0012688702573160232,-0.012517176466506645,-0.012432389036272492,0.01812571876831604
262,0.9886339488132568,0.030933206641192937,1,,-0.23416844366089196,-0.9598348182971794,0.007254581078350055,-0.007074052309729405,-0.01420837483529497,0.018337867006699014
263,0.9887987549258812,0.031101595003347814,1,,-0.23058813962910713,-0.9605740838946402,0.013208061637296424,0.00038200770032334436,-0.010582082197094458,0.01699274983386856
264,0.9891226937458804,0.031724009048216484,1,,-0.22712992706315213,-0.9643407175126514,0.008467316704276761,0.016214345881814862,0.015524304211458706,0.009167501566956771
265,0.9895805023838153,0.03284705023893618,1,,-0.22367171449719714,-0.9681073511306623,0.0037265717712571,0.03204668406330638,0.041630690620011866,0.001342253300044985
266,0.9901407340376789,0.03449348326196569,1,,-0.2230851657745755,-0.9665466303350018,-0.001382066405676615,0.0384864374262008,0.03816130004471211,-0.007540737028248056
267,0.9907674153095187,0.036668558926927976,1,,-0.2238726156784052,-0.9624369420952597,-0.006666729646613601,0.04043214157454652,0.020540853089193813,-0.016929822853356168
268,0.9914211263742282,0.039358921149502464,1,,-0.225775692020546,-0.9594091785505091,-0.010018602712881504,0.03830983012596107,0.00671182379932144,-0.024753768218209394
269,0.9920602077325972,0.04252234580597631,1,,-0.23357968845297167,-0.9621040753422396,-0.003147304312116476,0.014670428243535899,0.012936866289730216,-0.024299163999729805
270,0.9926429204723839,0.0460717429321746,1,,-0.2413836848853973,-0.9647989721339701,0.003723994088648552,-0.008968973638889275,0.019161908780138993,-0.023844559781250215
271,0.9931308326706954,0.04986100182474203,1,,-0.24512233908515904,-0.9652686332346464,0.007879114986216474,-0.01129209244709897,0.027245952295695014,-0.015335582035496302
272,0.9934928301637683,0.05368142288180508,1,,-0.24659030420207473,-0.9644953932211584,0.010517120164958286,-0.0017090423540590378,0.03636833725736236,-0.002327849451687151
273,0.9937085993953482,0.05727517722676608,1,,-0.24736726478019694,-0.9637539457551052,0.012380875271080985,0.009701039318131889,0.044956771148964986,0.009479434636537578
274,0.9937705471710983,0.06036729288907127,1,,-0.243273657777475,-0.9632365890759498,0.008787303990101624,0.033989011480201385,0.04978163385454452,0.012825319129217572
275,0.993683734442215,0.06271164684868695,1,,-0.2391800507683577,-0.9627192323959861,0.005193732703508028,0.058276983680215964,0.05460649656766192,0.01617120362712484
276,0.9934640829803285,0.06414120494299184,1,,-0.23841657816903358,-0.9630586261798747,0.0009921249389984203,0.061439493115073886,0.057231633281517647,0.016188071724292957
277,0.9931355207926799,0.06461013157046096,1,,-0.23981036668619546,-0.9639530229265779,-0.00360336886866498,0.05091692747828056,0.0584317874649303,0.014048402950500371
278,0.9927267549915606,0.06421653635789508,1,,-0.24133652392914687,-0.9645524227014056,-0.00742185577999379,0.03999891380329061,0.05952345115047966,0.011936399240153854
279,0.9922681327979197,0.063199192292091,1,,-0.24420940486332945,-0.9621505137569984,-0.003335049433397111,0.025057599016093415,0.059511329006902515,0.010105860778792868
280,0.9917888353131883,0.061907748479073,1,,-0.24708228579751204,-0.9597486048125914,0.0007517569131995669,0.010116284228896221,0.05949920686332537,0.008275322317431883
281,0.9913146217365569,0.060751638340376814,1,,-0.24699749393061013,-0.9586087715422649,0.0031252783481280277,0.003986698785588677,0.05729542207214307,0.007554486149457666
282,0.9908664470912144,0.060136743655229724,1,,-0.24470067255323075,-0.9584128387042303,0.0042174420943100425,0.0044473640758568396,0.053452503144238106,0.007663591082444978
283,0.9904603008474793,0.06040066394716199,1,,-0.24249242949939323,-0.9583453066958161,0.005449781234842371,0.005199018710289007,0.049676608047020926,0.007402406249932272
284,0.9901083938127166,0.06175745166677204,1,,-0.2418137695114431,-0.9604950184416283,0.009102688984927998,0.010975518649865183,0.04705808997311657,0.0007470051788106058
285,0.9898213690675616,0.06426119140021265,1,,-0.24113510952349299,-0.9626447301874407,0.012755596735013624,0.016752018589441357,0.044439571899212216,-0.00590839589231106
286,0.9896107147126413,0.0677949075856447,1,,-0.24035879824678497,-0.9627654056591564,0.01306984658201279,0.023824871505559474,0.050390661948688034,-0.009166571127636141
287,0.9894902887812386,0.0720870526939643,1,,-0.23949841530979774,-0.9611392076587378,0.01050972055041238,0.032013803358667964,0.06371964923386789,-0.009499947157803064
288,0.989476036468857,0.07675272314573225,1,,-0.2387053357089154,-0.9595515416903472,0.008054391409477057,0.03993644985929365,0.07688302588178149,-0.009753364904712923
289,0.9895835436596777,0.08135188573955573,1,,-0.24121230791609083,-0.9598531980568643,0.010737517243298984,0.034802456301519055,0.08192609740414332,-0.006086226910202378
290,0.9898237429673666,0.08545370936370515,1,,-0.2437192801232662,-0.9601548544233814,0.013420643077120906,0.029668462743744465,0.08696916892650516,-0.0024190889156918334
291,0.9901975869585982,0.08869547318112318,1,,-0.24567793996934467,-0.9594844360680853,0.013495793699432468,0.02975619736861161,0.09232298573816018,0.0019944454474750146
292,0.9906907681186036,0.09082621015071005,1,,-0.24709398308671668,-0.9578520404840548,0.010990059632246193,0.035011419115219704,0.09798431995102773,0.007146622935645423
293,0.9912696966184272,0.09172830834838777,1,,-0.24851002620408863,-0.9562196449000244,0.008484325565059915,0.040266640861827796,0.10364565416389529,0.012298800423815832
294,0.9918799730371775,0.09141412181383628,1,,-0.25095825888284784,-0.9574183515328256,0.0071404920666655386,0.038546702872355745,0.08819638452293199,0.01691350859794495
295,0.9924483911349645,0.0899992217524067,1,,-0.25342196140683354,-0.9586594890472725,0.005814072445179293,0.036722225323887754,0.07243072166654137,0.021520161500626585
296,0.9928889739956006,0.08765901529174942,1,,-0.2536083914600115,-0.9595249690591428,0.005960145292973317,0.028664519808567837,0.0630996329032579,0.024873362643181535
297,0.9931127838498248,0.08457986752444085,1,,-0.25120464349330823,-0.9599631748565084,0.007781036449626887,0.013517118053727156,0.06108725219837056,0.02680088317892259
298,0.9930404917991403,0.08091786981044653,1,,-0.24880089552660492,-0.960401380653874,0.009601927606280456,-0.001630283701113523,0.05907487149348322,0.028728403714663644
299,0.9926161152919432,0.07677704211660634,1,,-0.24801330939382168,-0.9608049738629613,0.01404240080106125,-0.007744076626743792,0.04877784209470388,0.03236700957941903
300,0.991819925843261,0.07221441485421994,1,,-0.24730992385865147,-0.9612067637862733,0.018619351886415957,-0.013387226544598329,0.03804918987306095,0.036094761464309955
301,0.9906782362617758,0.0672732244692383,1,,-0.24697729844158367,-0.9624400069503071,0.02052682731861818,-0.010837089784393643,0.03624625866055027,0.04176517019423355
302,0.9892676319068084,0.06203843560304542,1,,-0.24712996564713846,-0.964761549810228,0.01894019219929724,0.0024373438614757443,0.046126316922444656,0.04997834711618066
303,0.9877114048978518,0.05670193223479523,1,,-0.24728263285269325,-0.9670830926701486,0.0173535570799763,0.01571177750734513,0.05600637518433904,0.058191524038127766
304,0.9861667844225787,0.05161939653380696,1,,-0.23877774249498265,-0.9628107140625962,0.016212364882319266,0.028153624491457783,0.05022825005773688,0.06233612697338948
305,0.9848032806747758,0.047339050231956,1,,-0.22947611759701772,-0.9579315124624771,0.015112165742901586,0.040518850494845875,0.04300913935846158,0.06610630867020319
306,0.9837749753180429,0.04458572308590574,1,,-0.21920809168856628,-0.9523375483418955,0.012532204984835057,0.04210306601742101,0.036562688420680764,0.05868259003186811
307,0.9831922175771225,0.044192442549630784,1,,-0.20748046422368793,-0.9456640442829012,0.007717289649647799,0.027404207012032403,0.03128322238691837,0.03435218961818228
308,0.9830998046088489,0.04698439254814842,1,,-0.19575283675880956,-0.9389905402239068,0.0029023743144605393,0.012705348006643793,0.02600375635315599,0.010021789204496446
309,0.9834682519102638,0.05363350585067375,1,,-0.20759970367247935,-0.9515816189906734,0.008715963708099987,-0.005549902327940907,0.017365476068512666,0.004114135871202533
310,0.9842016879663368,0.06451207363986501,1,,-0.22263163698052743,-0.9667754672749862,0.015965532711341646,-0.02428564409220346,0.008273398293087325,0.0006955146111174653
311,0.9851608803198735,0.07957711511961113,1,,-0.2319361704080122,-0.9750243017685216,0.022755741351976024,-0.02751909646815431,0.018093056031716733,3.398241283857164e-05
312,0.9861949181238298,0.09831256524314766,1,,-0.23121609596200823,-0.9711173515594517,0.028741936347234133,-0.0036190545954574724,0.061013725693953434,0.0041981542337151175
313,0.9871725647242453,0.11974485656563572,1,,-0.23049602151600423,-0.9672104013503817,0.034728131342492245,0.020280987277239364,0.10393439535619013,0.008362326054591664
314,0.9880053775871613,0.14253210345703538,1,,-0.228448470610603,-0.9632119289358471,0.02420036949091212,0.04646868570368131,0.14853233737510793,0.0031655713468529386
315,0.9886584102800925,0.16511158481174168,1,,-0.22615968584167223,-0.9591968247723525,0.010671631174459885,0.07307210542218985,0.1934350794437209,-0.0037322850691144755
316,0.9891485770643693,0.1858786562797566,1,,-0.22653253072268173,-0.9565538977593717,0.0011931664502957645,0.08272088857636936,0.2197028697903913,-0.014353543944959054
317,0.9895338526540834,0.20336608406391363,1,,-0.23233761928829422,-0.9567115108817188,-1.8906612986536938e-05,0.05776616579072556,0.20793772087870951,-0.03257406799218368
318,0.9898976985092637,0.2163972406390706,1,,-0.23814270785390676,-0.9568691240040657,-0.0012309796762688386,0.03281144300508175,0.19617257196702775,-0.05079459203940831
319,0.99033262658856,0.2241971363951944,1,,-0.24455418974936652,-0.9594889147363312,-0.0002963762071700919,0.015205142368171493,0.19419548230191325,-0.07535030340940112
320,0.9909253168207969,0.2264564883422395,1,,-0.25110655732869525,-0.962680752619029,0.0011369728391370112,-0.0006938712178687103,0.1944924899146332,-0.10137789310403023
321,0.9917440593154316,0.22335096861152892,1,,-0.2566764302869183,-0.9638390621046192,0.0034203019938585924,-0.015311192552914998,0.1995829197308671,-0.10878261601095304
322,0.9928282491988707,0.21551913311534876,1,,-0.2598880234818156,-0.9601162976748636,0.00774383660705623,-0.026852070685729146,0.21617899073514232,-0.07148691111183648
323,0.9941796180538853,0.20400082488046573,1,,-0.26309961668173043,-0.9563935332392919,0.012067371227008525,-0.0383929488365736,0.23277506176534563,-0.034191206154452876
324,0.9957556996527538,0.19013685643259115,1,,-0.2698253900928018,-0.9541187038225902,0.01197081446924577,-0.035574514889066065,0.21257363436990975,-0.014216127199979526
325,0.997467053629699,0.17543315740949506,1,,-0.2775613953594964,-0.952260116597546,0.010603600877448686,-0.028628166720878517,0.18179392048832807,0.000779739815367959
326,0.9991802396851249,0.1613988605191068,1,,-0.2826789909053968,-0.9524710895646207,0.008516184015698034,-0.024927900226255656,0.1457764615950026,0.01813667899766291
327,1.0007280249652917,0.14937617778712325,1,,-0.28031851257500545,-0.9585926440137281,0.00437189529929133,-0.03049831370605232,0.0948002115575945,0.04223674625173003
328,1.0019269206214554,0.14038675993116828,1,,-0.2779580342446142,-0.9647141984628356,0.00022760658288462573,-0.036068727185848984,0.04382396152018638,0.06633681350579716
329,1.0026003718723684,0.13502067763557413,1,,-0.27237359908003106,-0.9672306868297004,0.0005220969809225156,-0.04420710967568667,0.03185296108656305,0.08937101575980581
330,1.002604403835644,0.13338817594963623,1,,-0.26566794453653236,-0.9684934146279328,0.0023602945120892956,-0.053238573793658095,0.03344710559265802,0.11203453423768596
331,1.001851735460245,0.1351421692458477,1,,-0.25910818456236917,-0.9699803366861443,0.005227103995975908,-0.05556427108912357,0.04083630663495202,0.1275661994295289
332,1.00033040938058,0.13956535933686176,1,,-0.2530521464168122,-0.9722413214330071,0.011645343091737027,-0.03473735111157173,0.06823376767337481,0.11847412300471596
333,0.9981136193737565,0.14570476295984444,1,,-0.2469961082712551,-0.97450230617987,0.018063582187498147,-0.013910431134019898,0.0956312287117976,0.10938204657990303
334,0.9953584446993942,0.1525307012610396,1,,-0.24217317703121655,-0.9714593003597489,0.013044180978295947,0.009428475734286847,0.13131910473398992,0.08780290780428616
335,0.9922926429157497,0.15909600898182724,1,,-0.23786076290619404,-0.9662203957120099,0.003289495909438255,0.03380736734242152,0.1704392856537361,0.06105401517076113
336,0.9891905694326633,0.16467234866828312,1,,-0.23491915822619036,-0.9602651615988435,-0.006366980893162303,0.05894568696464194,0.1971347622271045,0.03674104566877768
337,0.9863414576394433,0.1688435129996178,1,,-0.2378278919937292,-0.9512527776415414,-0.015604324670596895,0.08732509247939833,0.17080410464244478,0.02282410504524829
338,0.9840151354392818,0.17154153352041768,1,,-0.24073662576126806,-0.9422403936842391,-0.024841668448031488,0.11570449799415473,0.14447344705778503,0.008907164421718903
339,0.9824310930101974,0.1730208239160483,1,,-0.25000128860210596,-0.9399850584688852,-0.03180796771564107,0.13646583005565924,0.0814015874956696,-0.018375030265825622
340,0.981736174467573,0.17377664063766854,1,,-0.2623618354387036,-0.9410209870196184,-0.03766807302316355,0.15351650527841407,0.000433603248207124,-0.052167252941232936
341,0.9819940334171979,0.17442338170475452,1,,-0.2731299769828435,-0.9427852048171522,-0.04129691230354273,0.16333390629427721,-0.07118705369040272,-0.08029881545604318
342,0.9831864864701051,0.1755533117343118,1,,-0.2752222091551245,-0.9485173644016612,-0.03276913421540936,0.13374222484976994,-0.09188062254106602,-0.07758937614120397
343,0.9852240861627789,0.17759784786276958,1,,-0.27731444132740546,-0.9542495239861705,-0.024241356127275994,0.1041505434052627,-0.11257419139172932,-0.07487993682636475
344,0.9879616158821287,0.18071399506796726,1,,-0.27292554568164634,-0.9565095428722589,-0.01888615086433782,0.07273054439596599,-0.06011962410226546,-0.07340741416193057
345,0.9912142605929084,0.18471860762054326,1,,-0.26485453860450864,-0.9567969407399156,-0.015333373665542544,0.04027182663362092,0.03389246154317127,-0.07263761871812638
346,0.9947717325020967,0.1890899190419593,1,,-0.2590452719639707,-0.956944374698872,-0.012867326973511142,0.007614727080690523,0.12407475748096414,-0.07287140171341375
347,0.9984098543787822,0.1930449185746686,1,,-0.2697709725538031,-0.9560685707092578,-0.018346070509374833,-0.026492687667805256,0.1862585059256599,-0.08044207286124534
348,1.0019009832393804,0.19568220412481666,1,,-0.28049667312687887,-0.9551927667210119,-0.02382481403667909,-0.06060010236301505,0.24844225427320604,-0.08801274399724929
349,1.005025388416434,0.19615935913814084,1,,-0.2968866906899542,-0.9546843936256901,-0.02643879043206773,-0.08749311617378171,0.2392348737752038,-0.09165459899467583
350,1.0075850833954776,0.19386187545582792,1,,-0.31700673285997716,-0.9544179784353338,-0.027166281322834128,-0.10963535546559641,0.1830155291195116,-0.09270927871590598
351,1.0094200321970972,0.18852368460179267,1,,-0.3358273257802965,-0.9543633973983057,-0.02707928913909977,-0.13054933046863887,0.12848971604174306,-0.09162746285345139
352,1.01042479264776,0.18027547437936275,1,,-0.34076215172881125,-0.9565724520442049,-0.01828882340487757,-0.1383382129006776,0.09206078889915413,-0.06771529804269952
353,1.0105622479184873,0.16961781172191892,1,,-0.34569697767732593,-0.9587815066901041,-0.009498357670655372,-0.14612709533271637,0.055631861756565204,-0.04380313323194764
354,1.0098706882318436,0.15733335265649145,1,,-0.3385165825345653,-0.9591843575172829,-0.0050367378421778,-0.13717095874519278,0.02817126639078104,-0.013512569993821024
355,1.0084613908717461,0.14436223687887792,1,,-0.32212918009959896,-0.9582145770400156,-0.0038648405470947857,-0.11548938272410753,0.007526188087861237,0.021625280833281045
356,1.0065058349224452,0.13166740036763114,1,,-0.3060280931887774,-0.9572071965773415,-0.0029752380140271742,-0.09377176587478411,-0.013202677438830492,0.055169326593091754
357,1.004214173096762,0.12011375429760207,1,,-0.2952745763907941,-0.9554975539554507,-0.007358109046175927,-0.07138100754455808,-0.03549645305909416,0.058945568567216146
358,1.001808718109316,0.11037866606545985,1,,-0.2845210595928107,-0.9537879113335596,-0.011740980078324682,-0.048990249214332024,-0.057790228679357826,0.06272181054134054
359,0.999497268707842,0.10290257003008363,1,,-0.2808564340358823,-0.9530044418253724,-0.015345062256748655,-0.0327559003277027,-0.07276680172334574,0.06391779407588578
360,0.9974508338766624,0.09787964557244642,1,,-0.2833918381798317,-0.9530310144823813,-0.01826800632426668,-0.021906021305056873,-0.08134366123899825,0.06285705248673198
361,0.995788933851922,0.09528111889136413,1,,-0.28581106020539165,-0.9530806071339334,-0.021141891563638385,-0.011233780234689312,-0.08970850442630306,0.06189146013903892
362,0.9945737072952652,0.09489923849462262,1,,-0.28111543272739126,-0.9545399158837852,-0.02101147490758379,-0.01143986740095227,-0.08508972977728323,0.06675268997400893
363,0.9938121765685982,0.09639895318232002,1,,-0.2764198052493909,-0.9559992246336368,-0.020881058251529198,-0.01164595456721523,-0.0804709551282634,0.07161391980897894
364,0.9934647102206822,0.09936648156942622,1,,-0.27280639381767285,-0.9570522809329992,-0.019665653231241656,-0.006949131691642736,-0.07477607818392777,0.07404183299373882
365,0.9934571517297696,0.10334821496939434,1,,-0.27028088151126894,-0.9576969514141487,-0.01735956220931899,0.0026763480490075028,-0.06799944797059913,0.07402365136732887
366,0.9936941520356143,0.10787823708784963,1,,-0.26775536920486503,-0.9583416218952981,-0.015053471187396328,0.012301827789657742,-0.06122281775727051,0.07400546974091891
367,0.9940717250680816,0.11249666796973616,1,,-0.26806724898986717,-0.9583566891882455,-0.018770319130537925,0.028856870541287466,-0.06971502132593253,0.07484976220839575
368,0.9944877233040765,0.11676295270194158,1,,-0.26843315771687437,-0.9583597677277722,-0.02260185443783657,0.04554386437545335,-0.07849797037788205,0.07571047770141796
369,0.9948496438467179,0.12026791389097624,1,,-0.2686597030773847,-0.9577437562995941,-0.026353098420015462,0.05421073773399029,-0.08483719959700188,0.07303637909853597
370,0.9950798216688742,0.12264676493165336,1,,-0.26872521925936466,-0.9564124094755955,-0.030011568766969036,0.05361066064228396,-0.08835280158085461,0.06627793448400672
371,0.9951185703614759,0.12359374249788248,1,,-0.26879073544134463,-0.9550810626515968,-0.033670039113922606,0.05301058355057763,-0.09186840356470734,0.05951948986947747
372,0.994926103971046,0.12287837507586326,1,,-0.27324537186627923,-0.9538503263832218,-0.03607355724829678,0.030068795923275764,-0.09783964456651194,0.04771780883634229
373,0.9944840206441061,0.12036334194428693,1,,-0.27794780048620765,-0.9526252701870921,-0.038406225788038595,0.005865684571592533,-0.10394952113159261,0.035631406833069465
374,0.9937967221199326,0.11602341918743814,1,,-0.28043916466126606,-0.9527987428238914,-0.035808507051226034,-0.026753124493757864,-0.10053027917200084,0.029265597355048995
375,0.9928924989617197,0.10996340340059722,1,,-0.27998981131024575,-0.9548322599561205,-0.026653369190715998,-0.07056481842421455,-0.08443730175499166,0.03050818062993744
376,0.9918233841942578,0.10243027178275588,1,,-0.2795404579592255,-0.9568657770883496,-0.017498231330205966,-0.11437651235467124,-0.06834432433798247,0.03175076390482588
377,0.9906625801640822,0.09381246275115443,1,,-0.26910111287640187,-0.9566494914040774,-0.01563749137893457,-0.10224021805337632,-0.05413046442433716,0.03130214193377465
378,0.9894985455195215,0.08461915632727612,1,,-0.2576955127981456,-0.956215599612759,-0.014482282383813752,-0.08469250554827669,-0.04009835708100179,0.030689942698491176
379,0.988425720667704,0.07543638461816565,1,,-0.2480501026628138,-0.9553950499481276,-0.014876870435374582,-0.06347013441634052,-0.028698520701033743,0.023983593813138287
380,0.9875330735394324,0.06686408124567532,1,,-0.24110710473605282,-0.9539808660785165,-0.017650855367706685,-0.03660607536577321,-0.02133999884866238,0.007920922627793881
381,0.9868926494255459,0.05944572567634765,1,,-0.23416410680929178,-0.9525666822089055,-0.020424840300038785,-0.009742016315205904,-0.013981476996291016,-0.00814174855755052
382,0.9865506559444212,0.05360629563349396,1,,-0.24117254754304848,-0.9526611500977007,-0.01880620367439281,-0.012983410422129322,0.008347370913372565,-0.021269895492057638
383,0.9865231206119404,0.049612462834590094,1,,-0.25013669564681923,-0.9529671002167156,-0.016571811027904903,-0.020444975512876908,0.03277475344116236,-0.03398668193217437
384,0.9867969612356194,0.04756172692766414,1,,-0.25883673620833164,-0.9530767405944314,-0.015737102611634853,-0.024614516621488683,0.04908326334140261,-0.0397858573766757
385,0.9873358297339357,0.047397748133575494,1,,-0.26706659592504683,-0.9528368980610423,-0.01739419982972799,-0.022923390199909226,0.05093804704329136,-0.033269867948096624
386,0.9880888673998014,0.04894208174603205,1,,-0.2752964556417621,-0.9525970555276534,-0.019051297047821127,-0.02123226377832977,0.0527928307451801,-0.026753878519517542
387,0.9889999433884115,0.05193078722080395,1,,-0.27400317635650456,-0.9532600069728933,-0.019108015883733155,-0.00884508340106262,0.04961868255452291,-0.02323993227267306
388,0.9900151439699063,0.056047551991939705,1,,-0.2709269457344541,-0.9540919822799828,-0.018865106962947166,0.00554464505355102,0.045503002287247026,-0.02028803777188367
389,0.9910870844181124,0.06095020027796145,1,,-0.26973814125215384,-0.954192307690156,-0.0193867681700974,0.01692498304311129,0.043394238751845456,-0.021322404048938863
390,0.9921757263206789,0.06629178057121315,1,,-0.27247071369669734,-0.9527725338689629,-0.021496924733701548,0.022052915131858364,0.04545510961999716,-0.03063875323881414
391,0.993246454439294,0.07173921774872373,1,,-0.2752032861412409,-0.9513527600477696,-0.023607081297305692,0.027180847220605438,0.04751598048814886,-0.03995510242868941
392,0.9942669021124264,0.07699174340988241,1,,-0.2838097032910151,-0.9497009148405452,-0.023162155289392704,0.023018328911614892,0.06067840094754324,-0.04245780169269439
393,0.9952042304788485,0.08179906398060843,1,,-0.2938159491767021,-0.9479937634052448,-0.022108313284253195,0.016641751483093447,0.07648649368988752,-0.0433367019900381
394,0.9960242300880069,0.08597693759981256,1,,-0.30261766584886146,-0.9470497539488815,-0.022073550503536495,0.011271233152789759,0.0874823879058737,-0.04288767501701918
395,0.9966928475232849,0.08941669434113608,1,,-0.30847282523959174,-0.9479725664255579,-0.024531691402824633,0.008361768259886783,0.08670653059580305,-0.03919023055129672
396,0.9971797982658056,0.09208584805236975,1,,-0.3143279846394695,-0.9488953789036761,-0.02698983230595312,0.005452303362438351,0.08593067328452028,-0.035492786079797764
397,0.9974631241477134,0.0940191264802686,1,,-0.30889182002318893,-0.9509043829261757,-0.026558628564464063,0.0047912598,0.08446155296598865,-0.028750604034391503
398,0.997533172558545,0.09530201248271034,1,,-0.3001359675240784,-0.9532327309787345,-0.025277947614867912,0.0047912598,0.08278861095149175,-0.021113258725279596
399,0.9973946579748283,0.09605092328522478,1,,-0.29175348226533804,-0.954938108820964,-0.023967113156501255,0.005357898312176576,0.08456813784347608,-0.014068871108857262
400,0.9970661325680258,0.09639450771169086,1,,-0.2844594134998303,-0.954827443426399,-0.022568377102263164,0.007576365468296779,0.09641208307184296,-0.008753036141758095
401,0.9965770666175369,0.09645913130688775,1,,-0.2771653447343225,-0.9547167780318341,-0.02116964104802508,0.009794832624416982,0.10825602830020983,-0.003437201174658929
402,0.9959634888713083,0.09635934489842495,1,,-0.27231318660665055,-0.9556626357149406,-0.01869843511433691,0.017157892369796035,0.10055499620168701,0.0003978855784001728
403,0.995263503344313,0.09619246822004045,1,,-0.2683277498424895,-0.9569834912002891,-0.01584657128848888,0.026346951901810287,0.0859167530782904,0.0037074018657740336
404,0.9945138844128342,0.09603634310972883,1,,-0.26444487737638817,-0.9580386577436864,-0.013898298982177565,0.03769881502030363,0.07378506009003394,0.005597787599927623
405,0.9937484590659613,0.09595030243874199,1,,-0.2609242352693997,-0.9581554802173047,-0.015141276329062493,0.05668913649752716,0.07050584864519231,0.0024761742306297486
406,0.9929983512147091,0.09597985822539652,1,,-0.25740359316241124,-0.958272302690923,-0.016384253675947417,0.07567945797475069,0.0672266372003507,-0.0006454391386681256
407,0.992293601196615,0.09616454032224704,1,,-0.25363822019853893,-0.959801456612533,-0.019514244419178244,0.08598623563812097,0.058444014224376103,-0.0052718587970420104
408,0.9916652744956169,0.09654640823776406,1,,-0.24976959772370394,-0.9619264590734549,-0.023440347278917875,0.09262951288067658,0.04733955685679955,-0.010533141211733625
409,0.9911469643144855,0.0971756394809441,1,,-0.24507741138951697,-0.9635783699383356,-0.026468193330086747,0.09734468323825736,0.03556234676465369,-0.01613699787286282
410,0.9907746447661606,0.09811027352495573,1,,-0.2367789488498753,-0.9631586758852291,-0.025562692777396014,0.09361693103015839,0.020839242240670065,-0.023240941455093193
411,0.990584238446055,0.09940938511352711,1,,-0.2284804863102336,-0.9627389818321227,-0.024657192224705284,0.0898891788220594,0.006116137716686438,-0.03034488503732357
412,0.9906069799921425,0.10112159051983305,1,,-0.22906655771344675,-0.9622300576532882,-0.025551243143782397,0.079288801450838,0.01004151317407708,-0.04591399047148999
413,0.9908634232749391,0.10327268120595814,1,,-0.23405762776897218,-0.9616768927088599,-0.027337521146338556,0.06528094038085164,0.023212903077919414,-0.06568016766982838
414,0.9913574315364252,0.10585654132381013,1,,-0.23981622698853844,-0.9608168961161858,-0.02916911282751768,0.051197947798511126,0.030644068222644653,-0.08437617996274681
415,0.9920715728225088,0.10883222821266202,1,,-0.24988490241525882,-0.9582338799319912,-0.0312551644266278,0.036693052624091504,0.005840880176494036,-0.09706265866048702
416,0.9929651186530177,0.11212776481023962,1,,-0.2599535778419792,-0.9556508637477964,-0.03334121602573791,0.022188157449671887,-0.01896230786965658,-0.10974913735822724
417,0.993975467937778,0.1156487075343322,1,,-0.27007787834164454,-0.9537800343677584,-0.030309647183780233,0.0006492864419749374,-0.034134595866895545,-0.1165656471134972
418,0.995023340519638,0.11928766881584087,1,,-0.2802343204998451,-0.9523207256179067,-0.024320980040267986,-0.024954004393117447,-0.04374189159770218,-0.11999033143156555
419,0.9960214698010403,0.12293021475331987,1,,-0.2896920595895248,-0.9513923352156387,-0.018493264281963313,-0.04969507039370355,-0.0457429804345053,-0.12105412783962001
420,0.9968857699620167,0.1264533251213156,1,,-0.293846236782628,-0.9544939232865312,-0.013887262966121257,-0.06789134938772402,0.009991456717033014,-0.10419741443530421
421,0.9975471780574595,0.12971499590937743,1,,-0.2980004139692411,-0.9575955113525779,-0.009281261657475158,-0.08608762835331647,0.06572589378149747,-0.08734070105732364
422,0.9979618321996434,0.13253706810231602,1,,-0.29509421819127646,-0.9587239935237358,-0.00922457166460006,-0.0903773613543168,0.08321188532006184,-0.06864309589065228
423,0.9981172740674575,0.13468704654857835,1,,-0.2874620528729593,-0.9585317468317134,-0.0122130333677871,-0.08535853332463136,0.07509568991636027,-0.048713261412004584
424,0.9980331556952952,0.13586774082054573,1,,-0.27996862683129237,-0.9582564807591039,-0.015045141707953997,-0.079378545327776,0.06105712486071542,-0.029838624292144372
425,0.9977563245147576,0.1357251913047864,1,,-0.27403558444124665,-0.9570475058812913,-0.016118762924481535,-0.06258850890357599,-0.019589606295156006,-0.02283166262539849
426,0.997351642391788,0.13388384074306828,1,,-0.2681025420512008,-0.9558385310034787,-0.017192384141009074,-0.04579847247937599,-0.10023633745102743,-0.015824700958652606
427,0.9968908858275566,0.13001121837227045,1,,-0.26225495138131005,-0.9575017030690356,-0.01906748672097085,-0.03412520416926323,-0.14739491227748203,-0.007808751149068832
428,0.9964422337772828,0.12390277200640822,1,,-0.25647334478100836,-0.9613826882276237,-0.02156147680797637,-0.02640299948548292,-0.16869461809992342,0.0009863186561215255
429,0.9960621943274912,0.11556548302368666,1,,-0.250637877398198,-0.9651611413083871,-0.023661975491444758,-0.01877915607492442,-0.1867620471900053,0.009671371657590612
430,0.9957907061727148,0.10527342982695959,1,,-0.24370786213456158,-0.966855958332031,-0.01776602180634687,-0.013154190477602497,-0.13914380513200347,0.016120685522725425
431,0.9956491072522582,0.09357382731254191,1,,-0.2367778468709252,-0.968550775355675,-0.011870068121248988,-0.007529224880280577,-0.09152556307400163,0.02256999938786024
432,0.9956401108588875,0.08123665145412091,1,,-0.23288707398961436,-0.9689894254160906,-0.011302444417193167,0.0029615667688624907,-0.04865118036434466,0.023736233020391732
433,0.9957489536833444,0.06915814236378798,1,,-0.23169663516032044,-0.9683119846918216,-0.015468984370431874,0.01777559229543761,-0.009991665590461931,0.020208506906767138
434,0.9959452692187625,0.05824067840575361,1,,-0.2305907899592908,-0.9676243181784725,-0.019654715003984285,0.03245163665927264,0.02799797050972315,0.01662283459039822
435,0.9961856948603484,0.04927453231441413,1,,-0.23636436006580344,-0.9661050588918767,-0.025401091074090377,0.03590662640489787,0.01151100244261046,0.008324797970093152
436,0.9964175116190999,0.04284190797878312,1,,-0.24213793017231605,-0.964585799605281,-0.03114746714419647,0.039361616150523096,-0.004975965624502231,2.6761349788085388e-05
437,0.9965836275228938,0.03925493721415379,1,,-0.24611577140486116,-0.9638781701966331,-0.03326996502189782,0.034809286051958384,-0.016223687319705117,-0.005563181594326603
438,0.996628952084272,0.0385313677538321,1,,-0.24825992557668575,-0.9639993269298481,-0.031691983029072834,0.022080377071025562,-0.022121415249495322,-0.008387787072837284
439,0.9965077621419348,0.04040636203984638,1,,-0.25040407974851037,-0.9641204836630634,-0.03011400103624785,0.009351468090092739,-0.028019143179285527,-0.011212392551347965
440,0.9961911631148128,0.044375693205529684,1,,-0.2541273924933473,-0.9642422342673371,-0.030470401194274407,-0.00553983331379977,-0.038069849776237785,-0.005043815359290816
441,0.9956733463543669,0.049763379958174196,1,,-0.2578872290201403,-0.9643639986070377,-0.03087154097066769,-0.02048114790237749,-0.04821660910019241,0.0013327618706111572
442,0.9949751767887302,0.05580459182722129,1,,-0.25687455091112543,-0.9643924998734069,-0.02910863029471593,-0.03411194104813376,-0.05698592597771777,0.00936561562042947
443,0.9941438481666093,0.06173265825008372,1,,-0.2502597537907632,-0.9643115261824351,-0.0248054931122518,-0.04620440531491199,-0.06413836012045145,0.019342655797808347
444,0.9932479797053048,0.06685829084856354,1,,-0.243644956670401,-0.9642305524914632,-0.020502355929787667,-0.05829686958169021,-0.07129079426318512,0.029319695975187226
445,0.9923685143604276,0.07063088023597783,1,,-0.23857240888315726,-0.9621703671463655,-0.020387790983806896,-0.05068845754707096,-0.051171686507508876,0.01829313485774991
446,0.9915868682125678,0.07267636918318557,1,,-0.23359370564496731,-0.9599897484839891,-0.020528097043020006,-0.04188126420796715,-0.02939312900152207,0.005988522750159092
447,0.9909726383531005,0.07281251652317827,1,,-0.2334819576716455,-0.9580869545127687,-0.021756345333870903,-0.03452273419007703,-0.02628995259299021,-0.007406453229044558
448,0.9905734930351051,0.07104743298180433,1,,-0.23994778993530474,-0.9565596343436364,-0.0244549230056909,-0.029122039967481146,-0.04842613240197211,-0.02227503138100891
449,0.9904094623563735,0.06756816586586277,1,,-0.246413622198964,-0.9550323141745043,-0.027153500677510895,-0.023721345744885262,-0.070562312210954,-0.037143609532973264
450,0.9904727596847925,0.0627225502256879,1,,-0.24734701908499312,-0.9591822382028286,-0.022269179724339398,-0.024126378516313843,-0.06966268594520277,-0.03428133161469291
451,0.9907327806582747,0.05699261608738732,1,,-0.24771910919531312,-0.9639081609401975,-0.016615517226767212,-0.02512044553346354,-0.06642590557803164,-0.029620126285241518
452,0.9911445249495241,0.05095556546683916,1,,-0.24560194067036986,-0.9660381277729759,-0.014172570937376746,-0.02340188445460272,-0.056336543671340854,-0.02287355843761236
453,0.9916578980629048,0.0452305319003979,1,,-0.23959967569878243,-0.9641164709947334,-0.01674073195314215,-0.017449604296662227,-0.03555205357974269,-0.012872272741638468
454,0.9922255155760847,0.04041477164381431,1,,-0.23359741072719495,-0.9621948142164907,-0.019308892968907553,-0.011497324138721733,-0.01476756348814453,-0.0028709870456645743
455,0.9928076150250604,0.03701865414767006,1,,-0.23421480298639885,-0.9636445567179759,-0.018861887781341555,-0.009493179461745401,-0.005869819715175553,0.004341200051208682
456,0.9933738804134978,0.035411838528004204,1,,-0.23579402085081538,-0.9655841581410912,-0.017976783768228147,-0.008062692553750878,0.001300798834640673,0.011148135583756285
457,0.9939027901110158,0.03579157962240772,1,,-0.2362784044719091,-0.9665872200791301,-0.016697636265410626,-0.008516888988339076,0.013370731844292428,0.016424035420035527
458,0.9943793654783868,0.038178431844704694,1,,-0.23478015624775453,-0.9658943056430295,-0.014704916668117138,-0.012384052481465591,0.03431281774717236,0.018927387568611783
459,0.9947922104847662,0.04243681139979588,1,,-0.23328190802359994,-0.9652013912069288,-0.01271219707082365,-0.016251215974592108,0.05525490365005229,0.021430739717188042
460,0.9951307627471643,0.04831087095396996,1,,-0.23688632080765365,-0.9641359310062977,-0.009878965182759008,-0.012531319580370225,0.07179618973584621,0.01572197566006393
461,0.9953836931365179,0.05546253795533974,1,,-0.2414743939274114,-0.9629986536711922,-0.006883704384528999,-0.007348835359171336,0.08748911607003652,0.008430129173841497
462,0.9955391873046197,0.06349985659647701,1,,-0.24734518888818505,-0.9623409397342272,-0.007032645734549955,0.001976122356856439,0.0846819776602391,0.005294376352396495
463,0.9955873052331103,0.07198985408170543,1,,-0.25592921432389704,-0.9626976047412346,-0.013832245719373125,0.020063295674431478,0.04274325370577674,0.010949648698997583
464,0.9955238462420309,0.08045903039524355,1,,-0.2645132397596091,-0.9630542697482419,-0.020631845704196294,0.03815046899200651,0.0008045297513143704,0.016604921045598672
465,0.9953544247619251,0.08839246882180067,1,,-0.25591492157077594,-0.965129520361002,-0.01855714821025158,0.05188774783075462,-0.017704187192534922,0.026181431870853606
466,0.9950971250991331,0.09524533236572144,1,,-0.243117999857689,-0.9676247171544876,-0.014313965585069845,0.06456210517939556,-0.030487648481065825,0.03671611965122408
467,0.9947823744273938,0.10047633486677023,1,,-0.231458204182994,-0.9692621672391593,-0.012656606131061829,0.07623878805955313,-0.02326037719541159,0.04475228536467398
468,0.9944495040269585,0.10360367636500903,1,,-0.22263374481024706,-0.9687608918885952,-0.017446797836831496,0.08542784639985054,0.033862116414406986,0.04655857850605942
469,0.9941405558522165,0.10427406843175752,1,,-0.21380928542371366,-0.9682596165372482,-0.022236989550084872,0.09461690475450403,0.09098461011346799,0.04836487165026683
470,0.9938928466865834,0.10232837341630706,1,,-0.22053637615953725,-0.9653223099974194,-0.02761029329664234,0.08661355982460718,0.10617702339728978,0.03145479115882928
471,0.9937323068855598,0.0978451437987334,1,,-0.2319382698382318,-0.9616527313886973,-0.03315888078438751,0.07344217075496663,0.10876523571501233,0.00891856035261544
472,0.993669488233564,0.09114708654675335,1,,-0.24482019207692735,-0.9586147369302258,-0.036738708128069765,0.05594901426205236,0.10056656094440859,-0.008972723494554887
473,0.9936993867378336,0.08276481204870989,1,,-0.26210691254568574,-0.9574564364333067,-0.03445919502903725,0.025593596856573714,0.06026441030944972,-0.013039913201327472
474,0.9938050438697534,0.0733644333474476,1,,-0.27939363301444414,-0.9562981359363874,-0.03217968193000473,-0.004761820548904924,0.019962259674490838,-0.017107102908100056
475,0.9939636406188695,0.06365608134514941,1,,-0.2813784303335088,-0.9573768441058106,-0.026836426576694584,-0.026262136746365947,0.0002849298776223564,-0.010525922210178729
476,0.9941529470524838,0.05430469601783779,1,,-0.27782132373596863,-0.9592657306409335,-0.02038357440785025,-0.04455539723020394,-0.011922699917245025,-8.821674253168657e-05
477,0.9943559174643899,0.045860717965374664,1,,-0.2729608402791658,-0.9602978890761319,-0.015205833216796727,-0.05577000628042136,-0.015760231540199156,0.007641786292404944
478,0.9945620173404127,0.03871904980128088,1,,-0.26339034951135293,-0.9582340928873737,-0.014635955043306342,-0.041404523304678836,0.010649224347340402,0.005586976774109076
479,0.9947652557513799,0.03310524918024882,1,,-0.25381985874354007,-0.9561702966986158,-0.014066076869815959,-0.02703904032893632,0.03705868023487996,0.0035321672558132075
480,0.9949603166098588,0.02908260137189197,1,,-0.2515206252888547,-0.956965534590063,-0.013041879849008873,-0.018612602923574553,0.023170799008967822,0.0018800767090545191
481,0.9951389888547191,0.026573098197659305,1,,-0.25234701061756837,-0.9589897553462259,-0.011822389569424078,-0.012739120463479334,-0.008039274058220759,0.00040109872183546067
482,0.9952888684505172,0.025387294368124532,1,,-0.25443033509423607,-0.9608643760298098,-0.01195117865687101,-0.005376413938526979,-0.02904209478602098,0.00031757887644814084
483,0.9953951397038604,0.025260007543351396,1,,-0.2621632496692743,-0.9620665862220834,-0.018140106578907158,0.008679938486440572,-0.004166169906018052,0.006506253267721917
484,0.9954447220219514,0.025889455152757493,1,,-0.2698961642443125,-0.963268796414357,-0.024329034500943307,0.022736290911408122,0.020709754973984876,0.012694927658995691
485,0.9954309037358178,0.026976653083322484,1,,-0.2677519884593497,-0.9634571361594312,-0.02670786463482991,0.022318258413550767,0.01957771245119053,0.021433639691142446
486,0.9953562713248408,0.02826067434507244,1,,-0.2606235613232178,-0.9631338490020291,-0.02716401467199732,0.01459605333253152,0.00532133452760701,0.031459170826263566
487,0.9952323950041239,0.029544879670907936,1,,-0.2538767290747458,-0.9625481047444071,-0.026871902413130835,0.00806173519171822,-0.006991228513993698,0.03895185221863474
488,0.9950760631992016,0.030710281664714956,1,,-0.24933995819693527,-0.9604423026521294,-0.022246122044274102,0.008407234166280744,-0.008045909646505471,0.03177517205726648
489,0.9949032996368075,0.031714719952218445,1,,-0.24480318731912476,-0.9583365005598516,-0.01762034167541737,0.008752733140843266,-0.009100590779017243,0.024598491895898217
490,0.994723346740586,0.032579636377653695,1,,-0.24658066102327517,-0.9587697686671048,-0.01584393404444089,0.007697083427507114,-0.013579877850260094,0.020140116514280704
491,0.9945348689276644,0.03336879039599168,1,,-0.2520686762204776,-0.9606951115913597,-0.01574194932119929,0.005818054087851672,-0.02007162140272911,0.017279142459948292
492,0.9943257957956835,0.03416434458668407,1,,-0.2569189908712308,-0.9623418603318881,-0.015469137153016647,0.004471530332789525,-0.025598582051513996,0.015532952906340313
493,0.9940768756032292,0.035045142027001444,1,,-0.25673788768187017,-0.9617905182060548,-0.013848507015397665,0.007326442684211283,-0.023513465303994653,0.022582344072814182
494,0.9937677721910202,0.036070219967597274,1,,-0.25655678449279257,-0.961239176081083,-0.012227876880310594,0.010181355031172814,-0.02142834855973289,0.02963173522827479
495,0.9933838988941761,0.03726857056305997,1,,-0.25711097785225173,-0.9608687990995054,-0.01182366461976611,0.011622248325801028,-0.013903586478132553,0.03452402552831447
496,0.9929222078672149,0.03863462695390678,1,,-0.2581654384007935,-0.960621543766993,-0.012247055796308658,0.01210109802315174,-0.0026779011595987777,0.037948708257427057
497,0.9923945972006357,0.04012825071182795,1,,-0.2589617460033853,-0.9602551360767138,-0.012850236277528052,0.012245414561042018,0.006708323151738547,0.04092153567005538
498,0.9918282138146702,0.04167804994693156,1,,-0.2566952117839547,-0.9584750516096001,-0.015586517349523772,0.008420680318286867,-0.005729639288262917,0.03853334984404617
499,0.9912626099348223,0.043187357790670344,1,,-0.25442867756452414,-0.9566949671424863,-0.018322798421519494,0.0045959460755317155,-0.01816760172826438,0.03614516401803695
500,0.9907443845466716,0.04454276630602621,1,,-0.25387588912829273,-0.9558230018332898,-0.019430538771133914,0.0009885904856525277,-0.027986831863767832,0.030109094157192075
501,0.9903204595014635,0.0456253718483551,1,,-0.25466766519029943,-0.9556635253843873,-0.019260564502445243,-0.002448214943171724,-0.03575146643350181,0.021210980570250764
502,0.9900313331388217,0.046324592032017595,1,,-0.2555657041658935,-0.9554866492212487,-0.019053823161194364,-0.005855581447282817,-0.04334050953132896,0.01240457054407377
503,0.9899054840960527,0.04655356470948807,1,,-0.25882983101753,-0.9549223448245855,-0.01802841308886785,-0.008607450370008445,-0.04701977038444674,0.005640064659136475
504,0.9899556991406113,0.04626403131911898,1,,-0.2620939578691664,-0.9543580404279224,-0.017003003016541337,-0.011359319292734074,-0.05069903123756453,-0.0011244412258008215
505,0.9901776650588294,0.04545772603455133,1,,-0.2622536293252807,-0.9544061202016444,-0.015501008256059049,-0.011826906325183338,-0.051409044036698985,-0.0042060604882866596
506,0.990550820134257,0.0441911399590763,1,,-0.25961130264667825,-0.9550069214945385,-0.013568860949308249,-0.010232761819088373,-0.049439093217765316,-0.003963605103717016
507,0.9910412225454538,0.04257141762741684,1,,-0.25700338795871774,-0.9556186303380032,-0.01165520879444501,-0.008674423634445549,-0.04740525954460003,-0.0037258873242851584
508,0.9916060016559936,0.04074302218593138,1,,-0.2585436622981216,-0.957545188475229,-0.011971052367328322,-0.011432353907027012,-0.03767067534764921,-0.004059263552550719
509,0.9921987435860078,0.0388672274856762,1,,-0.2600839366375255,-0.9594717466124548,-0.012286895940211633,-0.014190284179608473,-0.027936091150698387,-0.00439263978081628
510,0.9927749353063071,0.03709870501289459,1,,-0.2618162583494335,-0.9599996986685856,-0.009625273507156988,-0.01849236211666941,-0.01493469732670748,-0.003473441542146838
511,0.9932964880096304,0.03556459145129562,1,,-0.26374778670771104,-0.9590769064454585,-0.003875189045239549,-0.024396151515487127,0.0014552884974995274,-0.001254974505198318
512,0.9937345462522205,0.03435077104205854,1,,-0.26567931506598863,-0.9581541142223315,0.0018748954166778915,-0.030299940914304848,0.017845274321706534,0.0009634925317502024
513,0.9940702852133199,0.03349768152350058,1,,-0.26557170376354644,-0.9571085682522248,0.0002801009117369326,-0.021340111696304367,0.030653593837838892,0.0007627123642322761
514,0.9942940225235308,0.03300469909295104,1,,-0.2654085290165019,-0.9560596774298005,-0.0015148303388364797,-0.011975271548686852,0.04336431841168917,0.0004960114014817746
515,0.9944034539656168,0.03283960786525154,1,,-0.2670684608856406,-0.9556239229751683,-0.004186781001551433,-0.001465893367672993,0.043009617935742026,-0.0006055940328873045
516,0.9944019600589712,0.03294902999888807,1,,-0.27090247003761847,-0.9559193412543006,-0.00790458820585341,0.010408360633363787,0.02707423581492811,-0.002702833419200906
517,0.9942976733362262,0.03326711723700301,1,,-0.27473647919558614,-0.9562147595338946,-0.011622395415963714,0.022282614652951702,0.011138853669218357,-0.004800072808791024
518,0.9941034741062135,0.0337222094859182,1,,-0.2713375448571429,-0.9570904373994951,-0.01344000300376768,0.027038739558751097,0.005490903594444202,-0.0010878718899748677
519,0.9938375519386808,0.03424292340700754,1,,-0.26746645153213916,-0.9580039940040419,-0.015133567547909477,0.03133020044163024,0.000514506324638114,0.00300356321622105
520,0.9935238669098179,0.03476519503536211,1,,-0.2652675708059076,-0.9582604707840987,-0.015583324991161527,0.03335376914074544,0.004257234924839002,0.0032206825656731744
521,0.9931918485142712,0.035240387155133064,1,,-0.26536522937097223,-0.9576145445828792,-0.014324895401207542,0.03226271981087231,0.01997440694265905,-0.0018830038058594116
522,0.992874903749076,0.03564276351373391,1,,-0.26546288793603684,-0.9569686183816596,-0.013066465811253553,0.03117167048099918,0.0356915789604791,-0.006986690177391997
523,0.992607638184876,0.03597349552574578,1,,-0.26859781639463437,-0.955985265350091,-0.013587600424913193,0.02559855419053594,0.03635711574576115,-0.008172677669180351
524,0.9924220250148171,0.036258567651274214,1,,-0.2720554051512642,-0.9549660662312596,-0.014297784657616691,0.019549291521252538,0.03542366222716979,-0.008942473669119058
525,0.9923430419920075,0.03653967811441258,1,,-0.27404919834862346,-0.9536261876873529,-0.015461970496666035,0.013945252260471674,0.028803066719848766,-0.01098935769860879
526,0.9923845297919516,0.036860005444007145,1,,-0.27372037387078324,-0.9517774841944732,-0.017346524797547093,0.009047653015478153,0.013158631496157133,-0.01506260887440889
527,0.9925461906350432,0.03724930083820819,1,,-0.273391549392943,-0.9499287807015934,-0.01923107909842815,0.004150053770484632,-0.0024858037275344988,-0.01913586005020899
528,0.9928126485016782,0.03771368632608398,1,,-0.2754739160804149,-0.9515286951548402,-0.018710891184061565,-0.010979259043970768,-0.017671866586195985,-0.017840358983756716
529,0.993155182486004,0.03823389029917348,1,,-0.27791907850899217,-0.9536474999873987,-0.017828877861226597,-0.02764806909295418,-0.03278896125785987,-0.015737057829126412
530,0.9935360811003504,0.03877187207855565,1,,-0.2778875016475804,-0.9556810567360575,-0.014677155109296293,-0.040286210449972874,-0.03805970931791835,-0.011490465055862624
531,0.9939147609211575,0.03928175627898472,1,,-0.2732932431849163,-0.9575575683524251,-0.007344143871960409,-0.04549900111891046,-0.025191388535547362,-0.003295472342378593
532,0.9942542244059402,0.03971906154472363,1,,-0.26869898472225223,-0.9594340799687926,-1.1132634624526664e-05,-0.05071179178784805,-0.012323067753176374,0.004899520371105437
533,0.9945263607049198,0.04004359269235106,1,,-0.26649585038186846,-0.9594703292920369,-0.00032031490674490565,-0.03700768044530297,-0.0036629989208663595,0.00898742111366976
534,0.994715001213278,0.040215336316612525,1,,-0.2647670600542635,-0.9591415129156164,-0.0021455325456322554,-0.019550890968713427,0.004162249544664898,0.012260569301908619
535,0.9948163079859039,0.04018709637634875,1,,-0.2628795178654958,-0.9591168666875903,-0.004774101237761923,-0.0028571262249719826,0.001964389186236009,0.014914840927100294
536,0.9948367428837299,0.039900021469888435,1,,-0.26065006789523215,-0.9597473191769783,-0.009132866819331462,0.012193293415764734,-0.02182048676113273,0.016236222902107505
537,0.9947893564000883,0.03928711646246675,1,,-0.25842061792496857,-0.9603777716663663,-0.013491632400901002,0.027243713056501452,-0.04560536270850147,0.01755760487711472
538,0.9946893808027775,0.03828574871534392,1,,-0.25582094471774935,-0.9602217978009691,-0.01351299052006097,0.03132459435522804,-0.036210172936574116,0.014172216327292526
539,0.9945501470329877,0.03685556629595476,1,,-0.2531285472140292,-0.959868859447073,-0.012448022835100379,0.03265809887105134,-0.018504866606387414,0.009607993111945094
540,0.9943802277981716,0.0349959680387882,1,,-0.2521030358129035,-0.9597064868634391,-0.012372507331870092,0.03202186865950348,-0.0009416000819921958,0.004595402849882753
541,0.9941824487831495,0.03275805632883643,1,,-0.25531462502087116,-0.9600285183071664,-0.014812105749952703,0.026378719138887896,0.01626061181083711,-0.0015569031274742509
542,0.9939549844778377,0.030248244765921514,1,,-0.2585262142338563,-0.9603505497513967,-0.017251704171846693,0.020735569609456023,0.03346282373054142,-0.0077092091144429975
543,0.9936942156151268,0.027622510032564437,1,,-0.2635363814963904,-0.9589241262669825,-0.01843504387224825,0.012222307690640869,0.03178906305444502,-0.009591122275509094
544,0.9933985384311346,0.02507135351283706,1,,-0.269099189001252,-0.9569604636270401,-0.019232379128526555,0.0028271604362291353,0.024315375025642395,-0.010160892816555724
545,0.9930720655644739,0.02279671784915514,1,,-0.2733126105976065,-0.9554912267540143,-0.01922831671705424,-0.004960765803647115,0.01730089293636401,-0.008958368256852622
546,0.9927272071861886,0.020983845155149308,1,,-0.27342509881162796,-0.9555246046036195,-0.016788717942349585,-0.00786416918779868,0.011681988609450135,-0.0023696423916601743
547,0.9923853967767967,0.01977276898211422,1,,-0.2735375870256495,-0.9555579824532248,-0.014349119167644935,-0.010767572571950245,0.006063084282536259,0.0042190834735322735
548,0.9920756275048741,0.019234828136785183,1,,-0.26948159236945457,-0.9553697589854123,-0.013769453496139438,-0.011559755201956939,-0.00039676733762421463,0.007390906663931748
549,0.9918309356079438,0.019358846773725603,1,,-0.26388541511640756,-0.9550996576490439,-0.013877001059291575,-0.011571878140011973,-0.007167334492969556,0.009300243189829197
550,0.991683453763227,0.02004976296245223,1,,-0.25939093050668316,-0.9550341060531767,-0.014001386496370704,-0.011035742013140129,-0.012881374305785585,0.00912748546021511
551,0.9916590409158176,0.021140206666760312,1,,-0.2589712445549965,-0.955725116655623,-0.014188049689861985,-0.008471775968766592,-0.01468766704993208,0.0012537460369416063
552,0.9917726175960209,0.022413442834577697,1,,-0.2585515586033098,-0.956416127258069,-0.014374712883353267,-0.005907809924393056,-0.016493959794078576,-0.006619993386331897
553,0.9920251258866282,0.023634443018865525,1,,-0.26075610910425545,-0.9566433363581143,-0.015421505597407329,-0.004966768257667284,-0.02230908654265903,-0.009515359735202698
554,0.9924025843946048,0.024584535112790615,1,,-0.26410986196845737,-0.9566674380820781,-0.016844965161765584,-0.0047364356121733535,-0.029879756896012737,-0.01023060315059349
555,0.992877215328103,0.025094083399884795,1,,-0.26639037106333013,-0.9569060538158346,-0.017592405306501056,-0.0042643242635545964,-0.03562737253914751,-0.010527051331585246
556,0.9934102499629096,0.02506736368764914,1,,-0.26371713746816366,-0.9581347961579765,-0.01521956061072289,-0.002676241385382726,-0.032960363110261966,-0.00889047749567113
557,0.9939558426293096,0.024494821203575344,1,,-0.26104390387299714,-0.9593635385001184,-0.012846715914944727,-0.0010881585072108548,-0.03029335368137642,-0.007253903659757014
558,0.9944655284931162,0.02345041901189026,1,,-0.2615588085112451,-0.9592781690327864,-0.012469572481822264,0.0014730752102314207,-0.01955680140044459,-0.007859981751601694
559,0.9948927789202409,0.022075190262780004,1,,-0.2637109952408084,-0.9585179317980888,-0.013117330008989228,0.0045340747234559105,-0.004676100707664148,-0.009617783379110368
560,0.9951973462378066,0.0205511974928383,1,,-0.2659522095040287,-0.9579468195096871,-0.013893357930135809,0.006746337434171074,0.00886069434680697,-0.010665842991595427
561,0.9953491574512255,0.019071713633784237,1,,-0.2687255766480109,-0.9585061820402679,-0.015436108873574697,0.0038853636312909112,0.014364432351153806,-0.0074714930665125
562,0.995331468169602,0.017813137188908687,1,,-0.271498943791993,-0.9590655445708486,-0.016978859817013584,0.0010243898284107488,0.01986817035550064,-0.004277143141429574
563,0.9951428682639608,0.01691253188994704,1,,-0.27093268518955255,-0.9590747764028461,-0.017196903036285367,-0.0022956680802168434,0.01607640250596002,-0.0004036521249645774
564,0.9947976774834619,0.01645288568630744,1,,-0.268370704341887,-0.9587552564056543,-0.016623316032807294,-0.005890069412879538,0.006729746407910003,0.0038756858595834325
565,0.9943244209525054,0.01645696333583916,1,,-0.2658987097879726,-0.958355073296353,-0.015837613321867113,-0.009212689763204473,-0.002300380241388768,0.007737810405281789
566,0.9937624440640059,0.01688984192905442,1,,-0.2641655851980631,-0.9572925720869927,-0.013310246191449849,-0.010303739094782148,-0.008731509947831746,0.00817423013791286
567,0.9931571754461264,0.01766930151980458,1,,-0.2624324606108613,-0.9562300708792923,-0.010782879064981085,-0.011394788424655277,-0.015162639644227375,0.008610649869862111
568,0.9925548824275175,0.018682020217334918,1,,-0.2611557328041398,-0.9560777865201538,-0.008498873972804943,-0.010289193970707253,-0.01842243207570626,0.008824896729079525
569,0.9919978482473918,0.019802457459900353,1,,-0.2601946046433983,-0.9565549196491683,-0.006383154405752052,-0.00766461421675724,-0.019489235947894343,0.008885510427461083
570,0.9915207066875819,0.020910986920807575,1,,-0.25926450053584094,-0.9570010795553994,-0.004593916630057517,-0.004459291427880752,-0.020413314833121025,0.008751946593027768
571,0.9911482879583942,0.021908397935274486,1,,-0.2587236740537788,-0.9570585996360298,-0.006901244050164042,0.006032966704879415,-0.01954653667935446,0.006181919397417867
572,0.9908949238621187,0.022724955777505135,1,,-0.2581828475717166,-0.9571161197166601,-0.009208571470270564,0.016525224837639584,-0.018679758525587897,0.0036118922018079677
573,0.9907648782793962,0.02332330396753732,1,,-0.25822566523928125,-0.9569985517365236,-0.011203612316558007,0.021405176092641736,-0.017661205367730724,0.0024955332794645334
574,0.990753470286967,0.023695382162806103,1,,-0.25873373363035346,-0.9567414126718465,-0.012949714568148807,0.021811288558901194,-0.01652166508011535,0.0025379630065226286
575,0.9908485152430861,0.0238543711685726,1,,-0.2591653171249767,-0.9564973594771169,-0.014615831118832813,0.021844027728016482,-0.015047106880000006,0.002565476740664063
576,0.9910318594325681,0.02382371525757589,1,,-0.2577152804500942,-0.9565752343750125,-0.014314203512355999,0.012691336056793864,-0.0053307062956538505,0.002226039162542669
577,0.9912809580181485,0.02362641464376237,1,,-0.25626524377521165,-0.956653109272908,-0.014012575905879185,0.0035386443855712443,0.004385694288692307,0.0018866015844212743
578,0.9915705782991578,0.023278334702623873,1,,-0.2572374311858112,-0.9567048651297783,-0.014148509226302322,-0.0036219064581133166,0.014332930345604322,0.0010665204726517633
579,0.9918747417766305,0.022788298591970978,1,,-0.26043048023077014,-0.956732673253266,-0.014685628498660742,-0.008955925554227771,0.024491812210375035,-0.00019424768600595762
580,0.992168922795375,0.022164966790561236,1,,-0.26361311372277246,-0.9567616529702957,-0.015210537724118057,-0.014262999305809534,0.03458280851770534,-0.001440107131772332
581,0.9924323365528049,0.02142712841078075,1,,-0.2643881968092666,-0.9570614460102571,-0.012913100071733942,-0.013341668725273207,0.028982088597874007,0.0007601757364370046
582,0.9926499718551269,0.020612046054077487,1,,-0.2651632798957608,-0.9573612390502186,-0.010615662419349829,-0.012420338144736882,0.02338136867804268,0.0029604586046463413
583,0.9928139531193138,0.019777169362364296,1,,-0.2654435744663683,-0.9573747950382476,-0.009203368135389644,-0.009031573205989199,0.01905568642476982,0.003366243758672092
584,0.9929238939735902,0.01899339289806544,1,,-0.26520252077071815,-0.9570867490570064,-0.008723730826481396,-0.003042924511950866,0.016073484578842848,0.0018812043643219646
585,0.9929861042863101,0.018331458111425107,1,,-0.26496146707506796,-0.9567987030757653,-0.008244093517573148,0.0029457241820874673,0.013091282732915877,0.00039616496997183713
586,0.9930117618853486,0.017845597881659903,1,,-0.26557377498368956,-0.9566946550288504,-0.009269226269303429,0.00623690172489183,0.007417487160798702,0.0011678333314201297
587,0.9930143781082729,0.01755942657090414,1,,-0.26621287978943153,-0.9565963848065905,-0.010341611168661306,0.009443374429134212,0.001659171310513923,0.0020103658672819408
588,0.9930070184532186,0.01745839817989059,1,,-0.2662843478896992,-0.956316727121864,-0.011133950841920948,0.012863631491513736,-0.001928411579435021,0.002644595742884348
589,0.9929997805961622,0.017491250753925797,1,,-0.2656681133920726,-0.9558173150978557,-0.01158701043047455,0.016542892344631525,-0.0028861104577258202,0.003026463008339943
590,0.9929980022338497,0.017580321693252937,1,,-0.26505187889348325,-0.9553179030730672,-0.012040070019735966,0.02022215320349742,-0.0038438093375128316,0.003408330274392129
591,0.9930015682331038,0.017638220283652455,1,,-0.26570100421062764,-0.9560405055490631,-0.014150810680465573,0.02005407016590613,-0.00809356523345089,0.004583464315694862
592,0.9930054795878015,0.0175867907933258,1,,-0.2664383832893396,-0.9568483386251274,-0.016377167933717813,0.01961765035450909,-0.01257292887551045,0.005813925526453944
593,0.9930015392151552,0.017373975505221715,1,,-0.26624333048274074,-0.9574451346143634,-0.017319430541968914,0.016954678734439003,-0.014537301026945386,0.007064628082620963
594,0.9929806958893933,0.01698506247141843,1,,-0.2647469374837221,-0.9577473985873661,-0.0164695579833126,0.011184240065270874,-0.01299164787583161,0.008343580290846184
595,0.9929354105046972,0.016446536877778955,1,,-0.2632505444847033,-0.9580496625603688,-0.015619685424656285,0.005413801396102744,-0.011445994724717834,0.009622532499071405
596,0.9928614491723163,0.015822811691639953,1,,-0.2627432699952474,-0.9578807024341153,-0.014610707905570041,0.0006526374084322077,-0.006801595094158864,0.00928118956724362
597,0.9927587297409259,0.015207859666533019,1,,-0.26234583863587807,-0.9576594121476899,-0.013584061536192387,-0.003996445075292114,-0.0018130749064004382,0.00875991037082589
598,0.9926311490620622,0.014714655291497259,1,,-0.2614192987831091,-0.9574116307860028,-0.012939640182453856,-0.006520846391644313,0.0028205584991045033,0.008217755566214636
599,0.9924856012843827,0.014465121444778118,1,,-0.25963919811315583,-0.9571211138717205,-0.012911826387972144,-0.005617700019571064,0.006881686538230099,0.007641924112275009
600,0.9923305981783206,0.01458213276360763,1,,-0.25785909744320257,-0.956830596957438,-0.01288401259349043,-0.0047145536474978164,0.010942814577355695,0.007066092658335382
601,0.9921749744353513,0.015183538835072721,1,,-0.2603137820480432,-0.9564416930130616,-0.011702035866086277,-0.001980941505680402,0.018271507546455065,0.006138853622442493
602,0.9920270710966017,0.016376722596588057,1,,-0.2634277166827408,-0.956037472671155,-0.010340384869029834,0.0010376283249257968,0.02610887856504673,0.0051569092240225855
603,0.9918945469847116,0.018251464140457665,1,,-0.26642875229397245,-0.9557095950608795,-0.010192661936908206,0.002546247965987385,0.02831556947212459,0.00586416891220035
604,0.9917846492001297,0.020869317270212084,1,,-0.26921818860414193,-0.9555248016750798,-0.012320125563646245,0.0012248660028973423,0.019969042217766835,0.009737394152421641
605,0.9917045087890978,0.02424949537192667,1,,-0.27200762491431146,-0.9553400082892799,-0.014447589190384285,-9.651596019270035e-05,0.011622514963409077,0.013610619392642933
606,0.9916609381360411,0.028353872451614585,1,,-0.26746284228818074,-0.9560376332471408,-0.01298879519464755,-0.0025254297187600966,0.006382110880613,0.017181790476232025
607,0.991659353510986,0.03307589108692268,1,,-0.26142163784229044,-0.9569153005619423,-0.010798286724041697,-0.005180316380403354,0.0017754580573791571,0.020691332580013013
608,0.9917018020709898,0.03823866099406156,1,,-0.2561792741195814,-0.95763173608743,-0.008523384219714719,-0.00882797054132569,0.006291636258697572,0.020873300150411157
609,0.9917845185995592,0.043605809379414606,1,,-0.2526889272719616,-0.9579945581734908,-0.006063388783911439,-0.014652961637263583,0.03081600062252407,0.013757233749297434
610,0.9918958052895382,0.04890510226916379,1,,-0.2491985804243418,-0.9583573802595513,-0.003603393348108159,-0.020477952733201476,0.05534036498635057,0.00664116734818371
611,0.9920151765941436,0.053860578783211474,1,,-0.25611125263930146,-0.9562067668349209,-0.0024921018242218076,-0.01655930507353526,0.06860166228873855,-0.0014782042932817076
612,0.9921145736163849,0.05822553558897203,1,,-0.2656934904658346,-0.9534111693949879,-0.0017269072902370874,-0.01014029835491856,0.0789726931860387,-0.009855038614709787
613,0.9921620290880585,0.061807884820393164,1,,-0.27557566948393525,-0.9513083711481359,-0.001970467729205474,-0.0011696931141866509,0.07875256525423133,-0.013209679218140282
614,0.992127505461245,0.06448207796233696,1,,-0.2862352341330691,-0.9510011653085712,-0.004828512699788845,0.014414128476397661,0.05108234124425267,-0.0035478310454691926
615,0.9919898567228543,0.06618714858721102,1,,-0.2968947987655496,-0.9506939594694861,-0.007686557665907094,0.02999795004263538,0.023412117277503187,0.0061140171121072005
616,0.9917432134433409,0.06691595333680896,1,,-0.29357255116123576,-0.9514362093246361,-0.00892270407684003,0.038422501429895554,-0.007118124303964733,0.0199136648048847
617,0.9914008751638523,0.0667032374731855,1,,-0.2858600359612718,-0.9525079866580155,-0.009649576829275145,0.044599052962562086,-0.038546407029472894,0.03501257520474419
618,0.9909952379035701,0.0656180907793887,1,,-0.27616648501858115,-0.953588044865335,-0.00997795349696063,0.050108039717858696,-0.05727619032681428,0.04449478497053268
619,0.990573325418542,0.063761244167668,1,,-0.2603236198413925,-0.9546938076548052,-0.009069362252613492,0.05354484498778737,-0.03658868215070061,0.03654224764161829
620,0.9901887758050857,0.061263296633595296,1,,-0.24448075466420388,-0.9557995704442753,-0.008160771008266352,0.05698165025771604,-0.01590117397458694,0.028589710312703905
621,0.9898921940266217,0.05827923228734665,1,,-0.24626559270489726,-0.9549812907834826,-0.01195403822808893,0.05127051817965472,0.006516430175088491,0.011555269140048115
622,0.9897222388314756,0.05497718329561825,1,,-0.25469385636006836,-0.9534378892653822,-0.01751931434608873,0.04211176501641288,0.02958606276909384,-0.008901906797198588
623,0.9896995188020087,0.0515227875851449,1,,-0.2632924333565911,-0.9520863763239903,-0.021667210119869214,0.030555978840090883,0.04441359914289966,-0.02486765299808849
624,0.9898244682012363,0.04806261121652678,1,,-0.2725359589224095,-0.9514615138142691,-0.020447720004218024,0.009923023487985917,0.028029674787720168,-0.02382509462595761
625,0.9900792222730453,0.04471067804917976,1,,-0.2817794844882279,-0.950836651304548,-0.019228229888566834,-0.01070993186411905,0.011645750432540678,-0.022782536253826726
626,0.9904325142976655,0.04154172469176688,1,,-0.28280486990344894,-0.951105955492729,-0.015590784559381796,-0.024531491267150575,0.011617559122973195,-0.01806811157635599
627,0.9908460519356875,0.038593380562079824,1,,-0.28016439439514723,-0.9517741200923628,-0.01087476336993319,-0.03531469532210638,0.01888515999686702,-0.01171577965650532
628,0.9912807887510464,0.035876782803617745,1,,-0.2779697722244002,-0.9523572434115195,-0.00677962248806792,-0.043186528272432155,0.024893418675750623,-0.006489783182226615
629,0.9917018875067974,0.03339191094002764,1,,-0.2778894182920436,-0.9525370949312371,-0.00562874017771638,-0.037252432322954734,0.024929787092676778,-0.006604949504793656
630,0.9920817510857908,0.031141976916614533,1,,-0.2778090643596869,-0.9527169464509545,-0.00447785786736484,-0.03131833637347732,0.024966155509602937,-0.006720115827360697
631,0.9924010580671186,0.02914187328780355,1,,-0.2766208857624548,-0.9530084288424265,-0.004982831820847432,-0.019281403806382248,0.010097748820424312,-0.005386206790215629
632,0.9926481676061534,0.027418578700043793,1,,-0.2748537716684524,-0.9533582481496967,-0.0063531358207512285,-0.004055204145900681,-0.012559709380145142,-0.0032950288549936056
633,0.9928175285406261,0.026004712241205586,1,,-0.2726334460876252,-0.9537865677832738,-0.007823990500128868,0.009873985591744554,-0.031125882803204115,-0.0016263297296102261
634,0.9929078461375324,0.024928258779925615,1,,-0.2676151755150974,-0.9546995167813351,-0.009915604534078538,0.01579595900040588,-0.024434113553499656,-0.0025658444391618417
635,0.9929207228383586,0.02420142396240883,1,,-0.26259690494256965,-0.9556124657793967,-0.012007218568028206,0.021717932409067206,-0.017742344303795198,-0.0035053591487134573
636,0.9928602835202194,0.02381079667940806,1,,-0.2640484319749503,-0.9559560020383933,-0.01389429654269869,0.016683343464338155,-0.009949640225111446,-0.004859609601142663
637,0.9927339220217322,0.023710824713454818,1,,-0.2694313717572548,-0.9559535311053523,-0.01565708690895012,0.004990931267337015,-0.0014879462509477057,-0.006465876806949295
638,0.9925538228678086,0.023823010782528048,1,,-0.2743099278807881,-0.9559031304144385,-0.016757412716535924,-0.006959643344432556,0.005823751532381858,-0.007182213155039287
639,0.9923384726861405,0.02404297287606948,1,,-0.27487300896394,-0.955442645711884,-0.012189733182303346,-0.021119039454100586,0.0032961538215378243,-0.0002843567282953573
640,0.9921131846781731,0.024255594977197363,1,,-0.2754360900462123,-0.9549821610100488,-0.007622053655206847,-0.035278435541647404,0.0007685561146426545,0.0066134996876720566
641,0.9919088485079237,0.024355356824780322,1,,-0.272158058102732,-0.9549322203375348,-0.004413391913506889,-0.03748801148230933,-0.002737951386958674,0.008876662835367194
642,0.9917586461985517,0.024266318679030584,1,,-0.2661805186643958,-0.9551708071508536,-0.002159838410675216,-0.03129933701158777,-0.0069324298776666,0.0078825958182175
643,0.991693152650448,0.02395587736149565,1,,-0.26067399576849887,-0.9553445906675959,-0.00014963420609522522,-0.024420530640308143,-0.010990068218420865,0.006471229864603535
644,0.9917348326170271,0.023438620313868872,1,,-0.26143548062184685,-0.954656010491092,-0.0013777775960932843,-0.008357859773958651,-0.013226719304936888,-0.0004933019161886749
645,0.9918932600883668,0.022770088514823626,1,,-0.26219696547519483,-0.9539674303145881,-0.0026059209860913434,0.007704811092390839,-0.015463370391452909,-0.007457833696980884
646,0.9921623137642152,0.022033162933380458,1,,-0.26358784526861295,-0.9546319082597285,-0.0049214163659744466,0.013864428801689196,-0.01360416968880332,-0.011763243203173958
647,0.992520150546021,0.02132099743765465,1,,-0.26548847076103627,-0.9563922252625128,-0.008117555940561377,0.012003583630772937,-0.008427746840933472,-0.013915034915021579
648,0.9929320572774066,0.02072009520445569,1,,-0.2673762812114494,-0.9580583639112097,-0.011290824226496965,0.009972124032011465,-0.0032123446562897133,-0.015982903927625344
649,0.9933555624584411,0.020296182938470325,1,,-0.2689122294231793,-0.9571386502093444,-0.01383611619990787,0.0032561090111643226,0.003073312053365145,-0.015746509808769103
650,0.9937467129220658,0.020084670169447313,1,,-0.2704481776349092,-0.9562189365074792,-0.016381408173318776,-0.003459906009682821,0.009358968763020004,-0.01551011568991286
651,0.994066322940695,0.020086734406530735,1,,-0.27209261773080834,-0.956086176549519,-0.01741170365456746,-0.0093756368258785,0.0048423601531848845,-0.012489988595799148
652,0.9942852053480883,0.020271209989356713,1,,-0.27383810508463574,-0.9566863702359275,-0.0170309604177515,-0.014545998244444726,-0.009735271457848107,-0.006877145936532261
653,0.9943876951068916,0.020581420552935367,1,,-0.27558093571113884,-0.9572863911147794,-0.016649017988369805,-0.01971415053841214,-0.02430389736081943,-0.001265715706905878
654,0.9943730572566136,0.020945133225587123,1,,-0.2704742786485157,-0.9574408851905006,-0.013175356419913669,-0.019186809883319184,-0.015654300627475286,0.0007042345161693771
655,0.9942546676141729,0.021285410583090088,1,,-0.2653676215858925,-0.957595379266222,-0.009701694851457533,-0.018659469228226228,-0.0070047038941311365,0.002674184739244632
656,0.994057218404462,0.021530659428651084,1,,-0.2641047206379458,-0.9572832683459346,-0.008077513364249694,-0.01114659648324522,0.00258468986847789,0.0010606096898604898
657,0.9938125617203893,0.02162330093995192,1,,-0.2669559667305335,-0.9564717288703086,-0.008432914549767084,0.0038432090630747483,0.013179991147406702,-0.004388575490477641
658,0.9935550074624528,0.02152719240829375,1,,-0.26980721282312126,-0.9556601893946827,-0.008788315735284472,0.018833014609394714,0.023775292426335512,-0.009837760670815772
659,0.9933168572402733,0.021233476971266298,1,,-0.2719649254840829,-0.955002626341377,-0.009013007307903142,0.022707814911402086,0.011420653977309226,-0.007069217057151374
660,0.9931247411172471,0.020763408995555767,1,,-0.27409795640651236,-0.954350543061104,-0.009233047135786678,0.026187050067284435,-0.0017507358868092129,-0.0040082177028224605
661,0.9929970566360857,0.020166207755748268,1,,-0.27295443139982745,-0.9547108477369016,-0.009862863905776651,0.023821878656319972,-0.00953418633056386,-0.0022622776333994566
662,0.992942583977003,0.01951091832280268,1,,-0.26777793199704736,-0.9563172580169008,-0.010997057817917868,0.014263073883255588,-0.010685849556234266,-0.00213498853167296
663,0.9929602032633472,0.01887322131294306,1,,-0.26260143258617996,-0.9579236682994096,-0.012131251731831032,0.00470426909525749,-0.011837512783703917,-0.0020076994297476
664,0.9930395722507045,0.01832011342407813,1,,-0.264324168005716,-0.9568160761060069,-0.013777522976808938,-0.00032930534843884885,-0.008260818518955264,-0.006134803752394012
665,0.9931626208711117,0.01789645189512217,1,,-0.2665591755499673,-0.9555069676793786,-0.015461816256123499,-0.0050268788564730325,-0.004333041010859787,-0.01057779921587078
666,0.9933057419072003,0.017617026080427863,1,,-0.26884197889543177,-0.9552398696937792,-0.016005953804282453,-0.009218157059038041,-0.0045032485481864915,-0.01061452075967048
667,0.9934425331913191,0.017466202606125622,1,,-0.27119257344678077,-0.9564507078981475,-0.014932950726086195,-0.012691330984236237,-0.010485835852645096,-0.004401600810077794
668,0.9935468314931039,0.017404963243926427,1,,-0.2735431679981297,-0.9576615461025155,-0.013859947647889939,-0.016164504909434434,-0.0164684231571037,0.0018113191395148925
669,0.9935956382206039,0.017383171333622004,1,,-0.26856251055190067,-0.9570938509505432,-0.012817962364214177,-0.014287375512736542,-0.0011910251803762886,0.0020927357956837967
670,0.9935715328905708,0.01735374530189562,1,,-0.2627320766944217,-0.9563200033305697,-0.011779572399608232,-0.011790084435948858,0.016550649566736568,0.0016866230116331844
671,0.9934643803934077,0.017285179670848968,1,,-0.26134162874580813,-0.9560361376074067,-0.011724880965547807,-0.009786382163154021,0.026137781441417953,0.0010670044431611368
672,0.9932724074137532,0.017169312977122212,1,,-0.2672338723857053,-0.956555965209329,-0.013283702087851542,-0.008592289448768884,0.02234941573476064,9.718278571088198e-05
673,0.9930027847183287,0.01702230129749788,1,,-0.27312611602560255,-0.9570757928112512,-0.014842523210155275,-0.0073981967343837475,0.018561050028103324,-0.0008726388717393729
674,0.9926716370853823,0.0168785253691882,1,,-0.272308440348706,-0.9562560538547523,-0.014140744990571913,-0.005488809405820139,0.009619431234939135,0.0018749823345110214
675,0.992303156714622,0.01677941565871364,1,,-0.2704109095956844,-0.9552207329088872,-0.013075159165615274,-0.003464306752812243,-0.00015152191061361907,0.005220867004314417
676,0.9919275235821552,0.016761030198484697,1,,-0.26868879053333844,-0.9544069687908993,-0.01276140443261756,0.0007933476742545469,-0.006204725659287414,0.007134281783647959
677,0.9915776818778592,0.016844630634297936,1,,-0.2673011793212223,-0.9540157107135455,-0.013881381995523367,0.00930959404569607,-0.005168228775323741,0.006315994769992428
678,0.9912854546524739,0.017033140368851722,1,,-0.2659135681091062,-0.9536244526361917,-0.01500135955842917,0.01782584041713759,-0.004131731891360069,0.005497707756336896
679,0.991077738910281,0.017313886950546618,1,,-0.26741831085099305,-0.9532388198889521,-0.01436528348951598,0.018134927057787714,-0.009809272503791553,0.005947071124726558
680,0.9909735093364674,0.017665616273611046,1,,-0.26952970288111777,-0.9528543670120064,-0.013360888500169064,0.016722624239084584,-0.0168950315200438,0.006662314538999926
681,0.9909821212585799,0.01806643151661588,1,,-0.27048468878353443,-0.9529819909117584,-0.012476530350134265,0.012196847848082337,-0.020409949486217046,0.007420670453973457
682,0.991103056378466,0.0184994582139375,1,,-0.26885663961123063,-0.9542534277362836,-0.0118602954474367,0.0007165844055433586,-0.015948770251240037,0.008275325669684988
683,0.9913269161742917,0.018954426348235593,1,,-0.26722859043892677,-0.9555248645608091,-0.011244060544739138,-0.010763679036995622,-0.011487591016263026,0.00912998088539652
684,0.9916372340011737,0.019425288069607787,1,,-0.2666053769655185,-0.95561327850914,-0.01080011045529751,-0.012908285052831744,-0.00973351218571822,0.006735155448984641
685,0.9920126052300305,0.01990562152422162,1,,-0.2662462693804394,-0.9553907527605886,-0.01040144282715836,-0.012599154502056778,-0.008690953813587336,0.003486253097131953
686,0.9924287202349799,0.02038434907577775,1,,-0.2661358837815385,-0.9556085020535765,-0.00914191563523721,-0.011246817940737416,-0.009047655821785208,0.003004259115355622
687,0.992860050084511,0.020844117615288826,1,,-0.26668289164776804,-0.9569899359076907,-0.005607063045031675,-0.007137198738829648,-0.013102722596837986,0.009835440415513956
688,0.9932810790757691,0.021263735809061615,1,,-0.26722989951314297,-0.9583713697596467,-0.002072210460348636,-0.003027579543342334,-0.017157789365555537,0.016666621704999943
689,0.9936670737889531,0.021624659477162998,1,,-0.2647107982100187,-0.9581720072569352,-0.002621759076696557,0.006979125748190922,-0.007789527900961131,0.014090000112374225
690,0.9939944953944423,0.02192009529528013,1,,-0.26120808454506333,-0.9574655229426575,-0.0044815896468922735,0.018877624992283338,0.005884957139379143,0.008495341423227049
691,0.99424135334943,0.022164230050581688,1,,-0.26024666465972446,-0.956857733061993,-0.006266440954627497,0.027756471328268122,0.014614360984251947,0.005028099391536705
692,0.9943879655600717,0.02239853777981266,1,,-0.2673441808285824,-0.9565629223952129,-0.007813518461314362,0.027059411923838362,0.007661952101790875,0.008307308691288033
693,0.9944185324617897,0.022692204039112703,1,,-0.27444169699744037,-0.9562681117284328,-0.009360595968001227,0.0263623525194086,0.0007095432193298032,0.011586517991039361
694,0.9943235698869284,0.02313471812266298,1,,-0.27480890684759207,-0.9562532101365516,-0.010430381216488482,0.020651887741791993,-0.0037383522094600443,0.014060079761707523
695,0.9941027428716914,0.023820665288041873,1,,-0.2725893527616229,-0.9563458903791447,-0.011316721263221854,0.013014542432680088,-0.007223648794646013,0.016223994411610175
696,0.9937672698176881,0.024829144217174387,1,,-0.2708616458397481,-0.9566729757215175,-0.011805223643823755,0.005202004432586529,-0.008427712604888475,0.017862330907139286
697,0.9933409661838956,0.026202167986461647,1,,-0.2710415054608854,-0.9579091713698819,-0.010750763338324568,-0.003289996092236909,-0.0007843058267490521,0.0174622795126684
698,0.9928591408173766,0.02792722020353072,1,,-0.2712213650820227,-0.9591453670182463,-0.009696303032825381,-0.011781996617060347,0.00685910095139037,0.01706222811819752
699,0.9923649039452381,0.029928602295330228,1,,-0.269856765844383,-0.9570924481523014,-0.009952555863111532,-0.01402219508465245,0.01087229465305065,0.019496326914938245
700,0.9919030347963186,0.032070513492270476,1,,-0.26779049872258376,-0.9535452414897655,-0.010804282836761691,-0.013422117992946122,0.013236235000188744,0.02321801725677076
