id,ASVM,GSVM,walking_nonwalking,normal_abnormal,ax,ay,az,gx,gy,gz
1,1.0037754580238536,0.01888082127563872,1,,0.3883591440502108,0.8875168890497775,-0.26278978040411355,-0.016342163,-0.006958008,0.0063171387
2,1.0039631645467915,0.020058307030575418,1,,0.3879548923449494,0.888020644068294,-0.2631686894098789,-0.016342163,-0.006958008,0.0063171387
3,1.004138207237227,0.021139802962665884,1,,0.38755064063968786,0.8885243990868105,-0.2635475984156443,-0.016342163,-0.006958008,0.0063171387
4,1.0042923774262278,0.022035044153973615,1,,0.3869598808923177,0.8887109547104582,-0.26459972424369244,-0.01702694373557408,-0.007432086956029332,0.0063171387
5,1.0044205131406325,0.022664114765561686,1,,0.38616929885368906,0.8885576670268053,-0.26637312582168304,-0.018445389647432107,-0.008414087941372442,0.0063171387
6,1.0045209595377842,0.022963986931070556,1,,0.3853787168150604,0.8884043793431523,-0.26814652739967365,-0.019863835559290135,-0.009396088926715554,0.0063171387
7,1.004595331523987,0.022895356633692028,1,,0.3865003507042594,0.8880857595724962,-0.266714395311775,-0.021165224504331327,-0.011812032258123236,0.006129848238359776
8,1.0046476446597465,0.022448556266812535,1,,0.38769023827035975,0.8877612385211932,-0.26516784651185954,-0.02246243527666937,-0.014279158008921555,0.005935872724854081
9,1.0046830221300505,0.02164695084321176,1,,0.388024417491788,0.8878909135600329,-0.26394551491509816,-0.02192261252723289,-0.012903730859812486,0.005279921274579657
10,1.0047062696763192,0.02054642420247747,1,,0.3873055411954517,0.8885795333629971,-0.26312217290031464,-0.019122091610637,-0.006799564580432985,0.004055450991553629
11,1.0047206139808897,0.01923038597224481,1,,0.38658666489911536,0.8892681531659613,-0.2622988308855311,-0.01632157069404111,-0.0006953983010534846,0.002830980708527601
12,1.0047268283853228,0.01780089222250448,1,,0.38667984096046865,0.8901737037230012,-0.25975525797613896,-0.015925359078198795,-0.0011551095145929632,0.0018717746192174623
13,1.004722856445769,0.016367437189866794,1,,0.3868331326950047,0.8910953135130605,-0.25708433756687704,-0.015707136813657464,-0.0021007400294345757,0.0009322058546923365
14,1.0047039331596879,0.015035330801395155,1,,0.3871521883276322,0.8914544076948964,-0.2553335528093319,-0.014510561314114549,-0.001124784698168907,-8.262085615279164e-05
15,1.0046631305181817,0.01389534706351528,1,,0.3877060292055748,0.8910167640663698,-0.254886032981737,-0.011928262463514314,0.002572873064786996,-0.0012040416777320344
16,1.0045922301139678,0.013015835442657327,1,,0.38825987008351737,0.8905791204378432,-0.2544385131541421,-0.00934596361291408,0.006270530827742898,-0.002325462499311277
17,1.0044828346027312,0.012437986967648678,1,,0.38866739844682774,0.8898705028214278,-0.25636470076206785,-0.008133287544821774,0.007989844622970182,-0.0025718465463432432
18,1.0043276367644574,0.01217447196153004,1,,0.389058055187334,0.8891306385893354,-0.25856460587529634,-0.007078545738392845,0.009481031157283127,-0.0027173281487887016
19,1.0041217431704548,0.012211179802472992,1,,0.38875622124945647,0.8888893097375653,-0.2595277439744118,-0.005966311749496082,0.011107899461054671,-0.0026765348738637166
20,1.003863905337261,0.012511346918527642,1,,0.3873215473734745,0.8894635309098116,-0.2584676648498852,-0.004760026761125414,0.012956728481574253,-0.0023310160233638
21,1.0035574763500397,0.013021084608539978,1,,0.3858868734974925,0.8900377520820579,-0.25740758572535855,-0.003553741772754747,0.014805557502093836,-0.001985497172863883
22,1.0032109101571893,0.013675316786581689,1,,0.38656468057048,0.8890020674772137,-0.2589571807692275,-0.004145236126644452,0.014360127110294683,-0.002382084963093219
23,1.0028376540801625,0.014403438301589922,1,,0.3875802641369399,0.8877089659576878,-0.2609240513346278,-0.0050241875591705626,0.013547854641274849,-0.0028973323696425937
24,1.002455340437084,0.01513454206132089,1,,0.38792852908773934,0.887154384515577,-0.26128232552094904,-0.0059742256040969,0.01210834760843364,-0.0030090588438702413
25,1.0020842574564781,0.015802662135267705,1,,0.38700937821972975,0.8880024494355756,-0.2585854466678097,-0.007059276062804649,0.009477555049256308,-0.002354391573276408
26,1.001745182532604,0.01635287730452539,1,,0.3860902273517201,0.8888505143555739,-0.2558885678146704,-0.0081443265215124,0.006846762490078975,-0.0016997243026825749
27,1.0014568012664404,0.016749043765821002,1,,0.38508614759587856,0.8886333973420822,-0.2534224286458111,-0.007528547729825057,0.010261690056278746,-0.0030569522747300017
28,1.0012331014953533,0.01698321208988069,1,,0.3840643863413222,0.8881945181759365,-0.25100432758901503,-0.006558670221283947,0.01493528702645058,-0.004833040354985224
29,1.0010812670942568,0.017085515576538837,1,,0.3839643117457773,0.8878997561075042,-0.250049828440502,-0.005908711342953573,0.019021739226337382,-0.00599187369349597
30,1.001000601389317,0.017131912380329205,1,,0.3859114096583259,0.8879250947560573,-0.2523461581502947,-0.005969328687237392,0.021804075086634993,-0.005779712968639512
31,1.000982800685086,0.017246252386888036,1,,0.3878585075708744,0.8879504334046103,-0.2546424878600874,-0.006029946031521211,0.024586410946932605,-0.0055675522437830536
32,1.0010135105684772,0.01759325987718394,1,,0.3878536775645845,0.8879742939410163,-0.25540905787947754,-0.00489810810243922,0.02460878986999344,-0.003922521914184976
33,1.001074713337866,0.018360371941337744,1,,0.38734000987831146,0.8879977691562491,-0.2557768430030302,-0.0034554153672309114,0.023911690337296274,-0.0019039644484880921
34,1.0011473192009945,0.019728760996323997,1,,0.38608254993301283,0.8881930437131588,-0.2560651307504192,-0.0025865501912852866,0.02234464819117691,-0.00016144648297958768
35,1.0012134354980173,0.02183680787245128,1,,0.3828738668388413,0.8888390070859326,-0.2561448695126773,-0.0032230322464275405,0.01849544708887786,0.0008569248449741988
36,1.0012580693929674,0.02474211141103146,1,,0.3796651837434165,0.8894849704589584,-0.2562246082749665,-0.0038595143018183738,0.014646245985075503,0.0018752961733257125
37,1.001270312785286,0.028390086383103866,1,,0.3773100859212648,0.8899259501733408,-0.2574674825318811,-0.007954730020020662,0.006915168370880202,0.0040619100456239544
38,1.0012442249231048,0.03259759836030659,1,,0.37522638210839526,0.8903017561567572,-0.259080171047674,-0.013149636214595231,-0.0020501362885575495,0.00661996194262019
39,1.00117960092061,0.037058353817378285,1,,0.37420459776514237,0.8908499958831947,-0.2600753855226391,-0.018552438704862003,-0.012418009276203817,0.009347844675434732
40,1.0010826081346806,0.04137279903963832,1,,0.37651762546203915,0.8919397400634135,-0.2591315076984715,-0.02460811091812878,-0.027190455192276787,0.01260905778995898
41,1.0009659843238865,0.04509975928227965,1,,0.37883065315893594,0.8930294842436323,-0.2581876298743038,-0.03066378313139556,-0.041962901108349764,0.015870270904483227
42,1.0008482879162761,0.04782145408313615,1,,0.38149377994477845,0.8915368948209702,-0.25578065755459956,-0.032697783313419396,-0.04840223126386263,0.01739724724049097
43,1.0007517543212958,0.04920963707260251,1,,0.3842901742640018,0.8890613230356333,-0.2528167486398578,-0.03320090744179767,-0.051669505798978436,0.018264074878405635
44,1.0006987214165788,0.049079690117121245,1,,0.387239517600115,0.8867804185156838,-0.25001500289191236,-0.03280032281806493,-0.053409261658253666,0.018867320875784764
45,1.0007072028739812,0.04742174214683489,1,,0.39077457707229846,0.8852449895850556,-0.2478342587391405,-0.02893899807855585,-0.049299405962113026,0.01846118464127485
46,1.0007867008900555,0.044402522230152376,1,,0.3943096365444819,0.8837095606544273,-0.24565351458636864,-0.025077673339046768,-0.045189550265972385,0.018055048406764935
47,1.0009354872116476,0.04033754113106741,1,,0.39614889429932443,0.883678473759802,-0.24593352782670438,-0.018569418686499053,-0.03415084279557078,0.014608915176002229
48,1.0011402703170784,0.03563918251527634,1,,0.39722566330906905,0.8843237889819455,-0.24731997927704671,-0.010871016478894333,-0.019996693560780918,0.009795898381512118
49,1.0013785327973936,0.030751259659466474,1,,0.3978429323868605,0.8850889164792157,-0.24873235649280506,-0.0034592848665915502,-0.006740220972752484,0.0050770434511813395
50,1.0016230944981503,0.026083381321963382,1,,0.39625744595340723,0.8864284012962527,-0.25026901691010967,0.00257820229037695,0.0022129600509785434,0.0008095826360670624
51,1.0018478689240462,0.021958050539679363,1,,0.3946719595199539,0.8877678861132897,-0.2518056773274142,0.00861568944734545,0.011166141074709571,-0.0034578781790472147
52,1.0020334985810864,0.018579580923603727,1,,0.39260237684010696,0.888604223469393,-0.2518110645178309,0.011800809461525508,0.013886224523397314,-0.005047768641393746
53,1.0021716311451567,0.016027846791357138,1,,0.3902782252536935,0.8891759735664007,-0.251011209870643,0.013485971584944271,0.0133285448288624,-0.005229620594792843
54,1.0022669711295396,0.01427383573836143,1,,0.3881174999078527,0.8895950602965208,-0.2507526929642151,0.014943378498663269,0.012646102212759422,-0.005358720438757524
55,1.0023367680872217,0.013209935341442929,1,,0.38697644243247453,0.8890616321204262,-0.25387175299639625,0.014979748809890727,0.011185224370451477,-0.005158683230429247
56,1.0024079120508083,0.012686514591503002,1,,0.3858353849570964,0.8885282039443315,-0.2569908130285774,0.015016119121118186,0.009724346528143532,-0.004958646022100968
57,1.0025121739462854,0.01254710595101262,1,,0.3849391913535558,0.8889312256421362,-0.25804735422377756,0.014243283571673369,0.00882803094977667,-0.0046268776007646305
58,1.0026803193000768,0.012656432417988079,1,,0.3841925012827764,0.8899060040592347,-0.2578446085769448,0.012976381120335133,0.008276413232215271,-0.004214679667740879
59,1.0029358851202337,0.012917908767656264,1,,0.3835410994503209,0.8907571696154729,-0.25755240466081414,0.01184082,0.007734850342739891,-0.0038427010926407124
60,1.003289423408717,0.013279585619837166,1,,0.3837135480978552,0.8905395934618655,-0.25648675546848004,0.01184082,0.007280220271445657,-0.003818454178281364
61,1.0037340436937148,0.013729496594951759,1,,0.3838859967453894,0.890322017308258,-0.2554211062761459,0.01184082,0.006825590200151424,-0.0037942072639220153
62,1.004243130978649,0.014282865708046865,1,,0.38473196120118186,0.8893236417449581,-0.2557322078899293,0.011563542543845031,0.005492914475810151,-0.002977230832037823
63,1.0047710908122374,0.014964612636355656,1,,0.3860528926992144,0.8877746421552328,-0.2570142017237104,0.011090727504733557,0.0035410361408306505,-0.0016012171962474827
64,1.0052577451776075,0.01579107868477479,1,,0.38736308707545514,0.8865513588098675,-0.2582653514944029,0.010641405545372812,0.0019436520923240466,-0.00030575137467302285
65,1.0056364565546392,0.01675485547001058,1,,0.3885288755579343,0.8897087043044748,-0.2591016727306036,0.01050804714164609,0.005113939051380936,-9.359068159750899e-05
66,1.0058451805357513,0.017815950537390435,1,,0.3896946640404134,0.8928660497990821,-0.2599379939668042,0.01037468873791937,0.008284226010437825,0.00011857001147800489
67,1.0058386180663614,0.018901254323897006,1,,0.3907816349073448,0.8940568120466683,-0.2617535327904994,0.011666697967694886,0.01141436170122305,-0.0014760730938348907
68,1.0055988429860945,0.019912545576982212,1,,0.39180463169952046,0.8936513531603888,-0.2643638753989719,0.014115638613199302,0.014511907720015578,-0.004537248781536871
69,1.0051416533288136,0.020741439713966785,1,,0.3926929925603388,0.8931427625432207,-0.2667166722875573,0.016533408676869314,0.017375674395754066,-0.007552089821517349
70,1.0045166603846676,0.021288200447684966,1,,0.38984096258976003,0.8897690156728011,-0.26191445758585324,0.018085212595192256,0.01374469555657826,-0.00927968391511221
71,1.0038006602818228,0.021480606032587644,1,,0.3869889326191813,0.8863952688023815,-0.25711224288414924,0.019637016513515203,0.010113716717402455,-0.011007278008707072
72,1.0030856694873336,0.021289256230114767,1,,0.38508153255869765,0.8850886499837758,-0.25396768865535774,0.020385742,0.005748674130829457,-0.011423595647215989
73,1.0024644847457178,0.02073665170405839,1,,0.384054829153664,0.8857092544535334,-0.25236860320620613,0.020385742,0.0006992497770574282,-0.010617384996049518
74,1.0020171578616777,0.019898694202999237,1,,0.3830288488359907,0.8863302518325161,-0.250770886251913,0.020384811521104693,-0.00434837667340969,-0.009810726147241109
75,1.0018011722130524,0.018898618532647325,1,,0.3845741620675734,0.8883484316421328,-0.2540395273548892,0.017075104658277166,-0.0030026716620898436,-0.007410279647301774
76,1.0018466910452122,0.01789461464499188,1,,0.386119475299156,0.8903666114517496,-0.2573081684578654,0.01376539779544964,-0.0016569666507699964,-0.005009833147362439
77,1.0021566252763348,0.01706341169583671,1,,0.38644775513280305,0.8915484524710833,-0.2592699059438575,0.011741134533590715,0.002083938284669565,-0.002855348387328392
78,1.002710047525048,0.016582658668868155,1,,0.3854735884077191,0.8918352592364803,-0.2598330194303593,0.011092529160302605,0.008388141732651162,-0.0009640873171803504
79,1.0034670508749308,0.01661481448600977,1,,0.38449942168263523,0.8921220660018776,-0.2603961329168611,0.010443923787014493,0.01469234518063276,0.0009271737529676912
80,1.0043735533724945,0.017294480774659404,1,,0.3809438485138191,0.8911462395804256,-0.2610935694155595,0.010117317432121277,0.01525325407971956,0.0022446907406183645
81,1.005365468612355,0.01872008450758941,1,,0.37729691414841565,0.8901257260163176,-0.2617957598776208,0.009802107273626359,0.015610896168664394,0.003541901765277851
82,1.0063725955563552,0.02095005552866926,1,,0.37441389106792944,0.8916728385447035,-0.26307414158255504,0.00757257365754162,0.008281333315910454,0.006043722700906806
83,1.0073230486510572,0.024003262100149275,1,,0.37246988807584364,0.8963761454217758,-0.2650607929026931,0.002989902683932426,-0.008497546501298659,0.01002628220843589
84,1.0081488085660053,0.027863002984764212,1,,0.37052588508375783,0.9010794522988479,-0.26704744422283117,-0.0015927682896767685,-0.025276426318507773,0.01400884171596497
85,1.0087921801170907,0.03248271176004029,1,,0.3717781313185482,0.9007920907933475,-0.2696132451819102,-0.007541679860545653,-0.04061567246686844,0.015970267794537883
86,1.0092121019520515,0.037789823139677395,1,,0.37326595761781795,0.9001368912702495,-0.27222173245848225,-0.013591290414863792,-0.05584881018360796,0.0177827259079373
87,1.0093888773891622,0.04368321348868954,1,,0.3780285302215093,0.8976521987664337,-0.2718961830840774,-0.01781591177037073,-0.06092024718782178,0.01824213166903195
88,1.0093261634685036,0.050020911735870956,1,,0.3874240283746118,0.8925792432385805,-0.26741972487595117,-0.019458641797332296,-0.05161548570821236,0.0167873156156856
89,1.0090497599970927,0.05659909048842751,1,,0.3968195265277144,0.8875062877107274,-0.26294326666782497,-0.021101371824293863,-0.042310724228602936,0.015332499562339251
90,1.0086035047052688,0.06312954209445545,1,,0.4005763188706995,0.8886269775773534,-0.2583531567049511,-0.013746338430531784,-0.010796981206960333,0.009479381015745594
91,1.008043084712511,0.06922808817399984,1,,0.4036848707567021,0.8904597052157852,-0.2537499810373011,-0.00535689847822843,0.023269964770951328,0.0031206220413335386
92,1.0074287237377428,0.07442730068433241,1,,0.4051373044175827,0.8896438802286663,-0.2517876250397399,0.003610191337692093,0.05359944703819938,-0.0032749592641769165
93,1.0068176817415868,0.07822149902439184,1,,0.4038837401018744,0.884500478902544,-0.25414021019516925,0.013521126428915793,0.07782213748031372,-0.009730706053004972
94,1.0062575726280305,0.0801413499990218,1,,0.40263017578616606,0.8793570775764219,-0.25649279535059855,0.023432061520139495,0.10204482792242804,-0.016186452841833027
95,1.0057816648760103,0.07984387319661378,1,,0.39644129243912696,0.881851728216686,-0.26258072320273274,0.03241244713170954,0.10259600515115759,-0.01441363103517499
96,1.0054072288182543,0.07719634314699407,1,,0.3894651391689148,0.8855647820739652,-0.26926450371184646,0.04124439378468238,0.0993711609574445,-0.011328208254827379
97,1.0051373028731145,0.07233231579208936,1,,0.3839610519777203,0.8891873754261331,-0.2742289165446487,0.0427944884574146,0.09045475516019827,-0.009766115504311319
98,1.0049650912984343,0.06566434488909112,1,,0.38124933452032034,0.8926383737798315,-0.2759318519689094,0.030531600570856042,0.07074199681719015,-0.011093635340154347
99,1.0048791379826802,0.05784830551878106,1,,0.37853761706292044,0.8960893721335298,-0.27763478739317005,0.018268712684297486,0.05102923847418203,-0.012421155175997373
100,1.0048670397069668,0.04970542521532751,1,,0.3783551480698345,0.8935135700340247,-0.27650242861775687,0.0072254170845166225,0.03185350150820575,-0.011911757799727227
101,1.00491604590408,0.0421172355825542,1,,0.37869821028086825,0.8896855099045755,-0.2747809479763777,-0.0035644697212890717,0.012789347684372863,-0.011020682890399118
102,1.0050102814294428,0.03591355081669495,1,,0.3800901745714097,0.8871679574351938,-0.26933289692245943,-0.010918709517727854,0.0010730330381841903,-0.00852479925860653
103,1.0051259749557317,0.031773339812108135,1,,0.38380881467765315,0.8875573745869857,-0.2556185630347535,-0.010651993107640381,0.0056557038312358004,-0.0024691270477048073
104,1.0052272614376798,0.03015353073996084,1,,0.38752745478534883,0.8879467917389295,-0.2419042291416914,-0.010385276697448743,0.010238374626077183,0.0035865451655619717
105,1.0052653207357733,0.03125305392401118,1,,0.38399969972391795,0.8921320613827693,-0.24213872740138642,-0.006852576237547564,0.03335875274736072,0.0044714767025021565
106,1.0051827094114085,0.03501097670812093,1,,0.37858615721195854,0.8973051561211849,-0.24600324196701934,-0.002469942591445189,0.061303346912880446,0.004010784981287961
107,1.0049230606822304,0.04113069709352958,1,,0.374901993733673,0.900265935853591,-0.25083294355700625,-0.0017766081022035675,0.07595105716912404,0.004779301348624454
108,1.0044444712274172,0.0491190470280825,1,,0.3757482114236571,0.8974312074606254,-0.25819110480438967,-0.010747974698673219,0.05576548259521904,0.008767922197292732
109,1.0037334988747804,0.058331148833257095,1,,0.37659442911364116,0.8945964790676599,-0.265549266051773,-0.01971934129514287,0.03557990802131404,0.012756543045961011
110,1.00281613835546,0.06801792911388133,1,,0.37327854888950585,0.8958844663229848,-0.270181487589514,-0.024715371485668738,0.007047967583474476,0.01904570620343116
111,1.0017624262471296,0.07737948190674941,1,,0.36864137770808164,0.8984812423233031,-0.27394833797002033,-0.02844939963930446,-0.02413359282241786,0.02606519474300457
112,1.000682279527621,0.08562947022536167,1,,0.3683505338074789,0.8979888377568364,-0.27484738126920005,-0.03634179650685803,-0.05499268535516165,0.03154416656652549
113,0.9997117120881548,0.09207149047416029,1,,0.3816878142915464,0.8878101545714953,-0.26675427347381925,-0.05727296436633801,-0.08484066390559675,0.032192771952694516
114,0.9989906757172747,0.09617985666875283,1,,0.3950250947756139,0.8776314713861543,-0.2586611656784385,-0.07820413222581798,-0.11468864245603184,0.03284137733886353
115,0.9986361684775704,0.09766945521882274,1,,0.39798998127914353,0.8731229365931952,-0.2503996562667444,-0.07655073025290454,-0.1085295613746861,0.03331429612269819
116,0.9987162698362525,0.0965370377828971,1,,0.39701210389025876,0.8707697437963137,-0.24207413387854076,-0.0663124609265186,-0.08868344383342766,0.03372043275446991
117,0.9992315642198659,0.09306162092632701,1,,0.3976551126064016,0.869547075173307,-0.23697987026318032,-0.05703191542558084,-0.06687034812353694,0.03396066427637544
118,1.000109440540152,0.0877625209065162,1,,0.40449466807817885,0.8726463301450923,-0.24423850794259364,-0.051412688536090774,-0.03753761722679621,0.03356665088304864
119,1.0012139884819082,0.08132512906138216,1,,0.41133422354995614,0.8757455851168776,-0.251497145622007,-0.04579346164660071,-0.00820488633005548,0.03317263748972184
120,1.0023702644488999,0.07451218086324214,1,,0.40946994251261076,0.8835316348302351,-0.259860187711499,-0.03958021040803511,0.009577841017801276,0.03362782804486256
121,1.0033977226429092,0.06807983690879102,1,,0.40369726769868075,0.8934222552557021,-0.2687191544795693,-0.03310021690396014,0.02217412421052324,0.034464347388034035
122,1.004144933771999,0.06271397537550141,1,,0.39710550644874165,0.9004440915898526,-0.27566103684639165,-0.02798150683955699,0.033675302594860484,0.03391967222412913
123,1.0045173464870332,0.05899497646250224,1,,0.3865949175515701,0.8937405505807162,-0.27343084283224683,-0.029375705480001575,0.0399370742315707,0.0267668260753526
124,1.004492033256967,0.05739160846508384,1,,0.3760843286543986,0.8870370095715798,-0.2712006488181021,-0.03076990412044616,0.04619884586828093,0.019613979926576073
125,1.004117341565189,0.05827837046190099,1,,0.37365323596869754,0.8856903355832423,-0.2680707513400687,-0.039985644534042,0.03944458679661685,0.020576777599450997
126,1.0034994990615276,0.061966640732537985,1,,0.3754655752109396,0.8871571415392121,-0.264468320634618,-0.05330933664077555,0.02585417867695346,0.025801992287399662
127,1.0027808219016665,0.06873810057440906,1,,0.3777339405805946,0.8886479012095942,-0.2607868337001775,-0.06705590463515532,0.009946343740467234,0.031723609702826804
128,1.0021146237924126,0.07886860688258884,1,,0.38284089152147616,0.8902877634511256,-0.2566132524372851,-0.08343471083023148,-0.020386573289285104,0.04198006368824922
129,1.0016408696222907,0.09263161052982684,1,,0.38794784246235764,0.8919276256926569,-0.2524396711743927,-0.09981351702530765,-0.05071949031903744,0.052236517673671636
130,1.0014652238796447,0.110272621362966,1,,0.3909122407605661,0.8896064774492636,-0.24708999373122964,-0.10805517861425488,-0.06236070120919778,0.059830795946677645
131,1.001643249378416,0.1319508981146451,1,,0.39257004867964984,0.8848697908017554,-0.24102309892618667,-0.1113345747987684,-0.06260317074523777,0.06580160270999738
132,1.002171294338203,0.1576519172190849,1,,0.3937312903075628,0.8812534626936831,-0.23526026137384823,-0.1151571445635588,-0.06545312491979724,0.07243341776008613
133,1.002985622865146,0.18708317179903688,1,,0.39061223432632464,0.8872943909540059,-0.23211833376835259,-0.12366175702506818,-0.09077905151253648,0.08476298604029346
134,1.0039708622429677,0.21957387297460554,1,,0.3874931783450865,0.8933353192143285,-0.22897640616285692,-0.13216636948657756,-0.11610497810527573,0.09709255432050078
135,1.0049774132161347,0.2540035355752614,1,,0.3852873161992171,0.9007627374278605,-0.22858058905618428,-0.1430360853931616,-0.13556260292576522,0.1050760250495173
136,1.0058453544821635,0.2887840182446886,1,,0.38372469733907827,0.9091667832954492,-0.23011910075444628,-0.15557175309681234,-0.1508866631431635,0.10999815440646318
137,1.0064304102721384,0.3219144274413718,1,,0.3822919249420195,0.9162929798852356,-0.23212064451274103,-0.1684005923216177,-0.16864497554624983,0.11526905681327179
138,1.0066266822742325,0.3511186057876025,1,,0.38259789671881633,0.9063077901951048,-0.24032254427298383,-0.18515522407288976,-0.21899980005417544,0.12521029905115208
139,1.0063816500385065,0.37406082246177064,1,,0.3829038684956131,0.8963226005049738,-0.24852444403322668,-0.20190985582416182,-0.269354624562101,0.13515154128903234
140,1.005701258689223,0.38861795778879715,1,,0.3914660719402562,0.8887525622503597,-0.24477212003104482,-0.21527333230100684,-0.32337176325000283,0.13854815405725715
141,1.0046457546572856,0.39316932704893615,1,,0.4067220168059599,0.8831406084890634,-0.23132790680211093,-0.22588742898342543,-0.380358123867434,0.1366387072175453
142,1.0033190049058265,0.3868535320822577,1,,0.4220204173501578,0.8776912692067064,-0.2179984395242031,-0.23522210832095056,-0.4328227867749786,0.13367935686029395
143,1.0018545800448497,0.36974069296921425,1,,0.4384884931834479,0.8767220405811565,-0.20783028089095515,-0.20930819651976582,-0.360712404280192,0.10179463670674227
144,1.000401053394264,0.3428812377344071,1,,0.454956569016738,0.8757528119556067,-0.19766212225770713,-0.1833942847185811,-0.2886020217854054,0.06990991655319059
145,0.9991075819877262,0.3082172568548951,1,,0.4640488359059971,0.8703811534363849,-0.1926117474735532,-0.15758081117501288,-0.23703148060354584,0.049597690854211694
146,0.9981098665249291,0.26837123745928465,1,,0.4662722324377642,0.860909643575155,-0.19232741178339463,-0.13186087277799405,-0.20458907956367384,0.040062583261794106
147,0.997516640793217,0.2263494902510066,1,,0.46849260559008143,0.8514462699623166,-0.19204304133741842,-0.10614163310205631,-0.1721475238061428,0.03052995694828223
148,0.9973977214559593,0.18520796927916452,1,,0.46533893024984496,0.856445052622836,-0.19169689230780795,-0.08166435067998067,-0.14120843293629046,0.025407791574793483
149,0.9977754631366386,0.1477276758098011,1,,0.46218525490960843,0.8614438352833554,-0.19135074327819748,-0.05718706825790503,-0.11026934206643813,0.020285626201304734
150,0.9986213947694499,0.11614012777106646,1,,0.45796531032664234,0.8652401070809308,-0.19697797400683972,-0.03498039766668496,-0.06839615711725883,0.008079152359470917
151,0.9998588344814777,0.09193409743495433,1,,0.45260554813413784,0.8677509220704904,-0.20899061206420347,-0.015200959565646956,-0.014834673869180198,-0.01170028637718597
152,1.0013710400782827,0.0757638317689357,1,,0.4472457859416334,0.8702617370600498,-0.22100325012156719,0.004578478535391047,0.038726809378898434,-0.03147972511384286
153,1.003013589147239,0.06746539697993634,1,,0.4441015192521134,0.8713554724405727,-0.22171325667746541,0.008001453541706699,0.05749640306166096,-0.03222640056648503
154,1.004629390999971,0.06617164370031244,1,,0.4410349958998818,0.8723994814741624,-0.22202664573092099,0.010850468444962949,0.07504512421196359,-0.03230520260953151
155,1.0060648183949694,0.07050047732437091,1,,0.4347688567451683,0.87711589171225,-0.22366100276171563,0.011941773183185197,0.09476241316991638,-0.030522899874748707
156,1.007185566581168,0.07878025572036314,1,,0.424574132027634,0.8863413878042345,-0.22691728443755588,0.010874907939680448,0.11714233561484087,-0.026455476109057983
157,1.0078907571876092,0.08927331518937516,1,,0.4143794073100997,0.8955668838962192,-0.2301735661133961,0.009808042696175698,0.13952225805976537,-0.022388052343367264
158,1.008123582733276,0.1003640083892212,1,,0.40152013879608656,0.8964123964282623,-0.24204712174812007,0.0008292729074932739,0.1322367729035484,-0.024656929765739546
159,1.0078768174558959,0.11068953908327467,1,,0.3884653429860905,0.896642976104624,-0.25455302288159376,-0.00873008155907595,0.12277440593358575,-0.02739077227499568
160,1.0071921346992536,0.11920766667454305,1,,0.3819926616399089,0.8957416074462405,-0.25945219561658334,-0.025654636497256883,0.08909630287130751,-0.026421917977618
161,1.00615329424322,0.1252112516235792,1,,0.384821200191949,0.8932406767576354,-0.25360226121748874,-0.05298699421029964,0.021198818236409015,-0.020220763724917778
162,1.004874458495925,0.12831087251375173,1,,0.3876497387439891,0.8907397460690305,-0.24775232681839404,-0.0803193519233424,-0.04669866639848948,-0.014019609472217557
163,1.0034857243065216,0.1284092826417713,1,,0.39716965307344265,0.8876005069062703,-0.23903696051414777,-0.09226098640263006,-0.06887536350710499,-0.012490057450875369
164,1.0021182159122923,0.12568447487116818,1,,0.4074564881332312,0.8843881090961017,-0.229993177572946,-0.10243863913952961,-0.08581184979397788,-0.01149593322708734
165,1.0008908080829155,0.12058543744363957,1,,0.4131728965601572,0.8828044049779926,-0.2223218607299906,-0.10827725519279392,-0.08995462614443994,-0.009474627215875595
166,0.9998999161721273,0.11383276672354395,1,,0.41143040772830713,0.8838787150653277,-0.21689039684613684,-0.10703460040963614,-0.07321817706589534,-0.00577696929401497
167,0.999213029011736,0.1064099988198781,1,,0.40968791889645695,0.8849530251526628,-0.21145893296228307,-0.10579194562647835,-0.05648172798735073,-0.0020793113721543468
168,0.9988659414152825,0.09953169991619135,1,,0.4034686885391544,0.8901131571986198,-0.20722730873320086,-0.10221692746308943,-0.050152007049278996,0.003940249297191802
169,0.9988630348311842,0.09457894672445095,1,,0.3965370306893503,0.895923505897971,-0.203186626677526,-0.09827073759252616,-0.04547841014519708,0.01032931697131333
170,0.9991794950164581,0.09299923934211413,1,,0.3920814637739359,0.9001619410636906,-0.2004861709778744,-0.09633078241039829,-0.04409688048113225,0.014192791055158784
171,0.9997641427745948,0.096174552192881,1,,0.39231696939700267,0.9014223109636627,-0.2003248381213955,-0.0981917346693628,-0.048952329444429364,0.013271407453825672
172,1.000541735041031,0.10526770432973452,1,,0.3925524750200695,0.9026826808636348,-0.20016350526491658,-0.1000526869283273,-0.05380777840772648,0.012350023852492563
173,1.0014142542502185,0.12106351011323208,1,,0.39482762507883024,0.8995325054642342,-0.19773982823196107,-0.10404739653579584,-0.06529042377360542,0.014722156254474482
174,1.0022617641206342,0.14382706699830375,1,,0.39752573946958886,0.895467708225042,-0.1948470052652305,-0.10848458682066173,-0.07814736146729545,0.017777270342817092
175,1.0029445772675414,0.1732063848581931,1,,0.402517341061927,0.8916714836345256,-0.18777438454188755,-0.10344634661993371,-0.06486297205877181,0.012744522408995478
176,1.0033092701725979,0.20820886708874575,1,,0.41258968679100594,0.8884702259176456,-0.17144229076369416,-0.07741725988227334,0.006332093419676661,-0.010205202571647054
177,1.0032009655872747,0.24727784981449877,1,,0.42266203252008483,0.8852689682007657,-0.15511019698550083,-0.051388173144612956,0.07752715889812513,-0.03315492755228958
178,1.0024829596251892,0.28848174275468985,1,,0.43640203332234695,0.8841098198648983,-0.1553122403557856,-0.004923815427445083,0.2222256878589192,-0.0987459002576611
179,1.0010622924416903,0.3298010166312964,1,,0.45109486034763197,0.8834811945279726,-0.15980971476736913,0.046849455389600364,0.3860198040795599,-0.1754147137642606
180,0.9989168387730578,0.3694618913210682,1,,0.4576296200624381,0.8839486494420047,-0.17322578084422466,0.06790818923866059,0.5022987560713804,-0.2442095948761484
181,0.9961169632907044,0.4062353103478469,1,,0.44282305471014666,0.8872834262406288,-0.2099726870116979,0.00861836836604043,0.4942790810929038,-0.2924064416256511
182,0.9928339463855215,0.43961416829159145,1,,0.4280164893578552,0.890618203039253,-0.2467195931791711,-0.05067145250657973,0.4862594061144272,-0.34060328837515375
183,0.9893291446839113,0.46980945350598396,1,,0.38085549886263464,0.8940459044874912,-0.23675031276349023,-0.1313458266395748,0.36121385348651996,-0.3156434270833584
184,0.9859223625189072,0.4975590420422451,1,,0.32343912182424417,0.8975030602745707,-0.21197339632532847,-0.2187984655313885,0.19907459248497114,-0.267495074082159
185,0.9829441776751605,0.5238013531148726,1,,0.2795002166121085,0.9010024245513383,-0.18501188555417736,-0.2914194158830566,0.029060903883577998,-0.20216561903230404
186,0.9806827373981944,0.5493077060526965,1,,0.2777558643464718,0.904633932925744,-0.15121096287860852,-0.3176061035287155,-0.1656056244023135,-0.08304648225156526
187,0.9793381552664565,0.5743764535244709,1,,0.2760115120808352,0.90826544130015,-0.11741004020303969,-0.3437927911743744,-0.360272152688205,0.036072654529173506
188,0.9789956141554178,0.5986664594510879,1,,0.3122233616268449,0.9125542216843973,-0.10560573808304806,-0.3457999621797238,-0.479680303944508,0.10085267876784672
189,0.9796222838915648,0.6211996176206441,1,,0.3628428436743394,0.9170924931430754,-0.10215103919290648,-0.3386289337554816,-0.5705214493586249,0.14500635140664292
190,0.9810856107874537,0.6405127997162704,1,,0.39983803660002737,0.9192620385842157,-0.10344251004221117,-0.3192737955029015,-0.6372939128320813,0.17760896898460807
191,0.9831845015470196,0.6549073194883166,1,,0.38483737841510207,0.9123915582134688,-0.12284730283526099,-0.253419118457092,-0.6122104569671674,0.16612804328601716
192,0.9856828837857412,0.6627359815122826,1,,0.3698367202360353,0.9055210778454055,-0.14225209562073218,-0.18756444143700213,-0.58712700111205,0.15464711759191013
193,0.9883376272612128,0.662678664479804,1,,0.36294428721549366,0.8998519083497473,-0.16227354010918624,-0.1399018345020475,-0.5983272560836781,0.14360143047058666
194,0.9909179587437524,0.6539742841088522,1,,0.3596880095259287,0.8947214699393826,-0.1825715237050456,-0.10039751022131121,-0.6257990385364919,0.13275092725707194
195,0.9932182342097091,0.6365881409378837,1,,0.36050225751063736,0.8913470443229863,-0.19549856545957225,-0.06753118235987796,-0.6540129242001016,0.12043511028809493
196,0.99506807471976,0.6112956844992015,1,,0.38075325381537073,0.8963575747182466,-0.17322938124333623,-0.0663612681991751,-0.6857703505486126,0.10112242437543437
197,0.9963430923886304,0.5796623482750433,1,,0.40100425012010404,0.901368105113507,-0.1509601970271002,-0.06519135403847223,-0.7175277768971234,0.0818097384627738
198,0.9969767679092659,0.5439039229175283,1,,0.4035794460061592,0.911123550937961,-0.11203449169252533,-0.030451526115581013,-0.6248979964875715,0.03342009364697122
199,0.9969710726616169,0.5066299117352332,1,,0.39688269032657136,0.9233679718017616,-0.06437150411877388,0.021897609849559428,-0.4670201294777848,-0.030222051663305986
200,0.996401613591068,0.4705026182232589,1,,0.388245046630771,0.933202469634721,-0.027813123682459723,0.07773414998732547,-0.2992702517407295,-0.09276618602662173
201,0.9954132553704508,0.43787613755401367,1,,0.36755455136561066,0.9280714236847916,-0.060213993056327846,0.15522735681781893,-0.0702155078841489,-0.14849170805645306
202,0.9942043528036177,0.4104943840684843,1,,0.3468640561004503,0.9229403777348623,-0.09261486243019597,0.23272056364831237,0.15883923597243174,-0.2042172300862844
203,0.9930011198455063,0.3893133932170944,1,,0.3440162426386646,0.9095264390076505,-0.14574946996081523,0.28217105838434847,0.23581763221801233,-0.21368583516172543
204,0.9920268682023875,0.37447424098488347,1,,0.3520364170952956,0.8910673854470833,-0.21151300952499058,0.31454072078807455,0.22016623622010337,-0.19497932507547386
205,0.9914724162807582,0.3654084840331667,1,,0.36065655673770847,0.8747161991037276,-0.27066867802050154,0.34307703539226125,0.18852876348107914,-0.17263533628960784
206,0.9914732264469512,0.3610290693392183,1,,0.3744327039702225,0.8764796961260489,-0.2730373292159247,0.33867015459392397,0.01950943098344253,-0.11903142071381749
207,0.9920962850798362,0.3599539790453387,1,,0.3882088512027365,0.8782431931483701,-0.2754059804113479,0.3342632737955867,-0.14950990151419408,-0.06542750513802714
208,0.9933367314669684,0.36072028663280203,1,,0.39161030405381225,0.8828350487078981,-0.2569758964373267,0.3180003043363342,-0.23352978365578111,-0.02316017113872932
209,0.9951221648834223,0.36196097052244297,1,,0.3877124097177433,0.8894168588794613,-0.22391239932615564,0.29339571976671996,-0.257746410293733,0.011131058524400456
210,0.9973221264872338,0.36252925053118207,1,,0.3836610274566491,0.8956602958687864,-0.19430067242477309,0.27077932020031703,-0.27582973637045116,0.04458954315355419
211,0.9997611245559631,0.36156561113193897,1,,0.3775632239564087,0.897392276554458,-0.21071064963335523,0.27467096038528177,-0.21213909532556166,0.06694521872432704
212,1.0022346831188815,0.35851294768724945,1,,0.37146542045616826,0.8991242572401297,-0.22712062684193735,0.27856260057024645,-0.1484484542806722,0.08930089429509991
213,1.0045282921543923,0.35309458999268273,1,,0.36416369714921853,0.901124688639015,-0.24744189524113094,0.27530004251850954,-0.12755234384483205,0.1047636255957927
214,1.0064385948634622,0.34527511521094506,1,,0.3558870048281067,0.9033425191750808,-0.2709306401574151,0.26624380820770055,-0.14131247968629512,0.1146442516414484
215,1.0077950949920211,0.3352224832780162,1,,0.34792800409064123,0.9055174220105973,-0.2933568195165889,0.25690999001315284,-0.1553910773996809,0.12353845920439918
216,1.0084797542799844,0.32328282781300616,1,,0.3486493555131592,0.906519402510416,-0.2867503026435827,0.23999169037162546,-0.17817107426126194,0.10548055250512671
217,1.0084416030914962,0.3099694876314593,1,,0.34937070693567707,0.9075213830102344,-0.28014378577057664,0.22307339073009808,-0.200951071122843,0.08742264580585425
218,1.0077041211855327,0.2959590690331705,1,,0.35459552506604025,0.9025324044206618,-0.27921343460550285,0.20579708210956496,-0.22128780848863808,0.07245178601066556
219,1.0063644679882178,0.2820815495824276,1,,0.3640095682496724,0.8919705022283311,-0.2835631792272488,0.18818774556156134,-0.23935177144409864,0.06035256601436232
220,1.0045851423997938,0.26928946833577694,1,,0.3734204580810885,0.8814166572687072,-0.28790958595995947,0.17057599093416506,-0.25739439601883224,0.04826935236496494
221,1.002579759333337,0.25859358626956935,1,,0.3790954607207081,0.8804084990607708,-0.28830147824586777,0.15009945266926517,-0.2501566910298229,0.055149420422330446
222,1.0005949676547317,0.2509594836084327,1,,0.3847704633603277,0.8794003408528343,-0.288693370531776,0.12962291440436524,-0.24291898604081358,0.06202948847969596
223,0.9988901186988332,0.24717107379787626,1,,0.387616071336515,0.8777674113314983,-0.2898481377701571,0.128315622070571,-0.19434383532902982,0.06606011413454417
224,0.9977155859310399,0.24768098308917197,1,,0.38744052372099974,0.8754673669069615,-0.29181748346173897,0.14747676253689757,-0.10162961243119456,0.06704817773226425
225,0.9972902653283269,0.2524801984360948,1,,0.3872649761054844,0.8731673224824248,-0.2937868291533209,0.16663790300322412,-0.008915389533359297,0.06803624132998433
226,0.9977791004639163,0.26102511403944795,1,,0.3912630731051666,0.8715046385746346,-0.2913525582159698,0.16570045771271474,0.04711056152622768,0.0660836185757053
227,0.9992723455574626,0.2722548052692737,1,,0.3954063695180857,0.869864128182221,-0.2887650872317548,0.16406379072801558,0.10186014240226025,0.06402869052900408
228,1.0017692883293279,0.28471419821329086,1,,0.3952658337211381,0.8661102983628198,-0.2957430712890236,0.177126536748911,0.1663076884065803,0.054108119469186144
229,1.00516986477745,0.29677329581181794,1,,0.38987145216963526,0.8597646176595475,-0.31445247312786123,0.20821717107878834,0.2426491673244546,0.03454084117930246
230,1.0092776114185757,0.3069053414809207,1,,0.3844770706181324,0.8534189369562752,-0.33316187496669886,0.23930780540866567,0.31899064624232887,0.014973562889418765
231,1.013816308399896,0.31396568361245203,1,,0.38022037317984775,0.8621471309491894,-0.3562555257547523,0.2716525241610273,0.32571346721078115,0.017070318761273438
232,1.0184601962875937,0.3174058248272155,1,,0.37604679191695534,0.871976582135144,-0.3796694781101674,0.3040888629857842,0.3273501341954803,0.02074979134875252
233,1.0228741105743742,0.31736854283293287,1,,0.3682848910568703,0.882931811739682,-0.39326225686363925,0.29463925353811354,0.2755101374520737,0.029315916057770612
234,1.0267564591523128,0.3146392396739205,1,,0.35545818764422527,0.895476042895955,-0.3929927516758553,0.22606891864208428,0.14818947751344635,0.044779399674843415
235,1.0298762653919094,0.31046809676319437,1,,0.3426314842315802,0.9080202740522278,-0.39272324648807133,0.15749858374605505,0.020868817574819,0.06024288329191622
236,1.0320965145877357,0.3063135418266957,1,,0.3697747653824611,0.8897571157078176,-0.38695573709213993,0.08069734192587717,-0.11754969704025346,0.0721267656651471
237,1.0333795795203575,0.3035747314527489,1,,0.40148518269945527,0.8679737772995403,-0.3805600029394835,0.0029556025800671626,-0.25723629849522417,0.08360162795235593
238,1.033775316087599,0.30337104369273893,1,,0.42393940112914863,0.8543765680692901,-0.3753814575842126,-0.04337398918410288,-0.34719448910844253,0.08805606376700387
239,1.0333967545986835,0.3063965228470034,1,,0.4313055953965288,0.854123120819614,-0.3721869851968813,-0.03850035516450749,-0.3560931137714933,0.08106688590574447
240,1.0323906629654387,0.3128454174856148,1,,0.43867178966390913,0.8538696735699378,-0.36899251280955,-0.0336267211449121,-0.3649917384345441,0.07407770804448506
241,1.0309101596279957,0.3223886924919574,1,,0.42001593532149023,0.8603882134444734,-0.36671181872209574,-0.017009009001669646,-0.3284467969299869,0.06607890335053752
242,1.0290946959064489,0.33418504046042674,1,,0.3972287651239293,0.8679818884168095,-0.3645761980235578,0.0014732179952565065,-0.2846871380817793,0.05791980815048083
243,1.0270601782643884,0.3469249920064503,1,,0.3793839086611635,0.8734761689846771,-0.36983321190608937,0.0021654947527756925,-0.2646865359619798,0.051846128116082295
244,1.02489939249915,0.35892024236426173,1,,0.3708908716774415,0.874997986746778,-0.3890785292000322,-0.030804276693733514,-0.28964269325471126,0.04971845944692616
245,1.022690412501299,0.36825260609508176,1,,0.3623978346937194,0.8765198045088789,-0.40832384649397513,-0.06377404814024272,-0.31459885054744274,0.04759079077777002
246,1.0205086419865386,0.3729855803963137,1,,0.3759777254384697,0.8691166807828861,-0.40353989116754874,-0.09432809108263701,-0.3568468150804008,0.04968186034116665
247,1.0184372295324156,0.37142104906341494,1,,0.394125873173649,0.8598664334290854,-0.3937827898238259,-0.1243821700528,-0.40267352640553994,0.05264604835349426
248,1.016571368676909,0.3623630179280297,1,,0.41160748068693803,0.8508792258491255,-0.38293582785482966,-0.1389629592592581,-0.4252752097102226,0.04773584198119969
249,1.015014249592433,0.34533820749123634,1,,0.4276144420457666,0.8424739645317092,-0.3696776703912846,-0.11931081473188591,-0.3964940999998358,0.02540441327807782
250,1.0138652508807209,0.32072530543183864,1,,0.4436214034045951,0.8340687032142928,-0.35641951292773955,-0.09965867020451369,-0.36771299028944904,0.0030729845749559435
251,1.013203320851947,0.28976090184861464,1,,0.44653056065907576,0.8326543384787228,-0.3539002245314607,-0.07178042840578971,-0.3083812243318237,-0.015499178673492112
252,1.0130697604278227,0.2544155139865864,1,,0.44604285952772416,0.8330530322901691,-0.3541660150045008,-0.04176878414690926,-0.24112627888248012,-0.0330963928173006
253,1.0134546444354093,0.21715986235690213,1,,0.44161434734853205,0.8348105611107223,-0.3572073154175713,-0.015495899240065437,-0.17853639444988623,-0.041848453220138276
254,1.0142901525825152,0.1806625849634645,1,,0.4268912314223307,0.8401177825723342,-0.3674990966787801,0.0010102027463604808,-0.12813307619365732,-0.02749426677702014
255,1.01545256982263,0.1474713991364158,1,,0.4121681154961293,0.8454250040339459,-0.3777908779399889,0.017516304732786397,-0.07772975793742844,-0.013140080333902002
256,1.016773077525747,0.11972886254150936,1,,0.39656651650098773,0.8531634386433267,-0.38507908782945216,0.010226392238637074,-0.07395152584494606,-0.005835371244194043
257,1.0180559766258894,0.09896258914892457,1,,0.3806868928027525,0.8616713101803661,-0.39141671930895544,-0.004594547425739177,-0.08492932741515871,-0.0007616998573656546
258,1.019101852835152,0.08597161310331441,1,,0.3697419817214285,0.8663951810617352,-0.39666670501390283,-0.021384176207945405,-0.08708916430106206,-0.004622057324038045
259,1.0197325639789594,0.08081082263966442,1,,0.374222762196851,0.8592904346564839,-0.398516758535606,-0.04432783937073457,-0.06168443685706176,-0.03640979053714969
260,1.0198148466822645,0.08285932149352293,1,,0.3787035426705235,0.8521856882540073,-0.40036681205658653,-0.06727150252456304,-0.03627970942298332,-0.06819752373784656
261,1.0192795995019297,0.090949287524167,1,,0.382465379248823,0.8572000703298158,-0.40201426127315804,-0.06364386027792465,-0.010857399687549268,-0.08961607403234202
262,1.0181341073016088,0.10352937554728806,1,,0.3859546995234345,0.8668082184989108,-0.40358491315329376,-0.0499443418204716,0.014571574630602673,-0.10710417660684925
263,1.0164645219022301,0.11883919889354676,1,,0.3877618085172264,0.871932229015523,-0.40177636673605777,-0.03731478662822314,0.03468601907496479,-0.12169115391621027
264,1.0144264447619529,0.13507693519148647,1,,0.3831598683871957,0.8599721438418809,-0.3870934280626701,-0.028761679623886864,0.034552660273976264,-0.12522514724508854
265,1.012223412143775,0.15054872771030714,1,,0.37855792825716494,0.8480120586682389,-0.3724104893892824,-0.02020857261955059,0.034419301472987746,-0.12875914057396678
266,1.0100764453352344,0.16379432671947092,1,,0.37375320079196556,0.8493932867770401,-0.36298039991809666,0.0010217903150777498,0.07709470936624718,-0.12479060729060899
267,1.0081910098557851,0.17368659202508893,1,,0.36885765236321705,0.8567495967434661,-0.35590286774801394,0.027929828326359527,0.13894258400299406,-0.11746196921860862
268,1.006728710658691,0.17950241771836634,1,,0.36206644495617046,0.8644538979641089,-0.3516794385901361,0.04715035607424067,0.18786825020935954,-0.10661759915318732
269,1.00578918057373,0.1809608406395653,1,,0.34624121326978535,0.8738165994959806,-0.3610576309280936,0.029734993526295658,0.1752113501212596,-0.07901852344090571
270,1.0054040468406042,0.17822379870434793,1,,0.3304159815834002,0.883179301027852,-0.3704358232660511,0.012319630978350645,0.16255445003315963,-0.05141944772862409
271,1.005541439716296,0.17185844402409833,1,,0.3209841234945492,0.8834070775057599,-0.37485815620914964,-0.01183407031692194,0.1524512765990168,-0.03956437991803537
272,1.006117591995478,0.16276573618610352,1,,0.3149017743419075,0.8788490374451726,-0.376684098518033,-0.03951800889694888,0.14368600875064555,-0.03595764835027301
273,1.0070120279268482,0.15208449893435244,1,,0.3103932181695413,0.8752570913557,-0.37764213487572756,-0.06401833885248118,0.1346722186913493,-0.03385384305096589
274,1.0080840357863345,0.14108090804330572,1,,0.31563491573199726,0.8776504695548122,-0.3732231595501128,-0.06879498705937857,0.12411873780509729,-0.04106124490903369
275,1.0091893953327735,0.13103144726387742,1,,0.32087661329445316,0.8800438477539244,-0.368804184224498,-0.07357163526627596,0.11356525691884528,-0.0482686467671015
276,1.010196763923161,0.12310534701392795,1,,0.3281966980713667,0.8840110099595136,-0.36454931217640807,-0.06823265929599923,0.10072784848901319,-0.05243834691132243
277,1.0110026072758262,0.11825233303968948,1,,0.3367812175011758,0.888935619853445,-0.36039427613063413,-0.056739610756225176,0.08650096022081562,-0.05475999136821529
278,1.011542710937787,0.11710339617456864,1,,0.3447109199147736,0.8927199835660187,-0.35635352296652484,-0.04407768112524308,0.07371347447135607,-0.05709494009839304
279,1.0117979528076964,0.11989500645866305,1,,0.3470301252997669,0.8867346747532794,-0.3532919498666566,-0.021400733975383748,0.07325884409128107,-0.05954388034663565
280,1.011792710265055,0.12642872579667144,1,,0.34934933068476015,0.8807493659405401,-0.3502303767667883,0.0012762131744755852,0.07280421371120607,-0.06199282059487826
281,1.0115859663551225,0.13607668332684977,1,,0.3519542290166798,0.8785100136968912,-0.3460637921567935,0.0056799214653519255,0.0884370116073805,-0.07025516355387006
282,1.0112571449332994,0.14783808122780231,1,,0.35475989999430957,0.8789031577162545,-0.3411206532514461,-0.002758012188260454,0.11537535830014645,-0.0826029145019824
283,1.0108899898813073,0.16044356860642534,1,,0.35734755279069036,0.8792799762380631,-0.3368869041841297,-0.011178111329543022,0.1417931059448654,-0.0941124419960674
284,1.0105579007786305,0.17249520787796496,1,,0.35704095716866946,0.8794400695059797,-0.34207049086495167,-0.019361452609227742,0.1612997648644301,-0.09449433373999651
285,1.0103132376232122,0.18262275341779274,1,,0.3567343615466485,0.8796001627738962,-0.3472540775457736,-0.027544793888912462,0.18080642378399478,-0.0948762254839256
286,1.0101817878200483,0.18963423344739325,1,,0.3548073739215712,0.8797165197677556,-0.3491367378049127,-0.04199793975847645,0.18513284899111232,-0.0898897406616643
287,1.0101623982933279,0.1926408573906148,1,,0.3515696374628494,0.879797498118607,-0.3483492506867468,-0.061522783734339406,0.1771798544062845,-0.08056073050638114
288,1.0102310093695632,0.19114197078829015,1,,0.34844895100788054,0.8799680501698623,-0.3475702766237731,-0.08062825993801066,0.1689966820335272,-0.07126968786062428
289,1.0103479647185996,0.18506324724843776,1,,0.34850025620115394,0.8825660009436548,-0.34702200174153186,-0.08836909685689794,0.1545758163885457,-0.06300754414063128
290,1.010467280902889,0.17474864093279907,1,,0.34855156139442733,0.8851639517174471,-0.3464737268592907,-0.0961099337757852,0.1401549507435642,-0.05474540042063829
291,1.0105463597180961,0.16091255792967474,1,,0.3465842902954756,0.8859689194820746,-0.34864668224055684,-0.09848714079889535,0.11285132182973902,-0.04590824585534697
292,1.0105544841338205,0.1445627891317052,1,,0.34274140776553796,0.8851078915444311,-0.35334813783667157,-0.09588059487551258,0.07357734622017696,-0.036536805358661106
293,1.0104785783677948,0.12690687545893847,1,,0.33889821662093933,0.8842517270356605,-0.3580332354618469,-0.09326626463384069,0.034285559385232534,-0.027161418172120998
294,1.0103252488395191,0.1092543755693529,1,,0.3347808867527405,0.8877156884070038,-0.3481877425415567,-0.08373721727022926,-0.02082772658938363,-0.014280233445374609
295,1.010118931794207,0.09292444051333187,1,,0.3306635568845416,0.891179649778347,-0.3383422496212666,-0.07420816990661783,-0.0759410125639998,-0.00139904871862822
296,1.0098967873645885,0.07916251815591224,1,,0.3264926874680044,0.8958026513188949,-0.3277307469590584,-0.04993377875915111,-0.09955141347984245,0.0033160251612850515
297,1.0097015397347044,0.06906413216148061,1,,0.32226471419326186,0.9016618542756059,-0.3163022386805535,-0.009932396130516278,-0.08956167511008807,-0.0006786575846889489
298,1.0095736221579432,0.0635009272676317,1,,0.31803674091851936,0.9075210572323168,-0.3048737304020486,0.030068986498118556,-0.07957193674033368,-0.004673340330662949
299,1.0095437648270256,0.06304671234393912,1,,0.3139910092061423,0.9144181665923663,-0.29507285750796686,0.017374603620739993,-0.0484992055413433,-0.014890963677825868
300,1.0096267476428982,0.06790799169115827,1,,0.30995156276833224,0.9213510719949604,-0.28532811964232296,0.0028628122970052973,-0.01669934932814382,-0.025323208156329647
301,1.0098167074697222,0.07787060955056158,1,,0.3088015511456992,0.9229745783139663,-0.277506060101154,-0.028240098441563256,0.0015769745176990209,-0.031184040667278538
302,1.0100843942336843,0.09227731736337026,1,,0.3111912227318799,0.9180938400359488,-0.2720393650573415,-0.07966785142943279,0.003286383549217251,-0.031444694867531445
303,1.010377156229587,0.11004807522715336,1,,0.3135808943180605,0.9132131017579311,-0.26657267001352897,-0.13109560441730234,0.004995792580735481,-0.031705349067784355
304,1.010622858734052,0.12974730817601127,1,,0.3148400306751758,0.9070624194528635,-0.295454123913975,-0.12492541397370432,-0.0027597796863228527,-0.030694588445087243
305,1.0107387736688738,0.1496946592330015,1,,0.31601693899576894,0.9008193693932914,-0.32683384654908654,-0.11456591067786792,-0.011203775276964766,-0.029591353089416808
306,1.0106453172915353,0.1681114153158738,1,,0.3190573259823661,0.8979428828527359,-0.34446461226288233,-0.11389829887178789,-0.042568224487718624,-0.02605571213263421
307,1.0102826581689925,0.1832926351744447,1,,0.3247249112326248,0.8998126968744617,-0.34271161123391064,-0.1268946591706288,-0.1062467414996396,-0.01909077955647924
308,1.0096265617100761,0.1937910694030526,1,,0.3303924964828835,0.9016825108961876,-0.34095861020493895,-0.13989101946946975,-0.16992525851156057,-0.012125846980324269
309,1.008699255883762,0.19859148206449068,1,,0.3260195060932753,0.9101302807148859,-0.3058820371746151,-0.15645721284597564,-0.19087998721558924,-0.00532961123994405
310,1.0075719521114102,0.19724634295007637,1,,0.320502741502374,0.9193273796963418,-0.26700940271144424,-0.17343006447830345,-0.20696782694822768,0.0014474073663275624
311,1.0063576636513958,0.18994216252989926,1,,0.31551235090832824,0.9243929779747594,-0.24189068655575552,-0.17478556384855934,-0.19575816638794802,0.0048707658853332165
312,1.005195402243819,0.17747417061589693,1,,0.31137895094919255,0.9227320710842699,-0.2391647543393192,-0.15071441845551725,-0.14010538696688063,0.002834023212739717
313,1.004228877198617,0.1611251837094166,1,,0.3072455509900568,0.9210711641937803,-0.23643882212288286,-0.12664327306247514,-0.08445260754581323,0.0007972805401462173
314,1.0035839288142185,0.14246748198183593,1,,0.31088843779449915,0.9160906714621241,-0.2503321511887947,-0.08224223576661553,-0.04721970411897906,-0.0005330179918808574
315,1.0033489697328146,0.12312680655690417,1,,0.3157629699308906,0.9105844069155151,-0.26685771800534075,-0.034621253370684245,-0.012904228376221249,-0.001751426536505885
316,1.0035618481295228,0.10455791206297518,1,,0.31930001354816295,0.9074434102935989,-0.27716876544516666,0.0077599286085825265,0.01671472488879116,-0.0007988207604108594
317,1.004205118611015,0.08787729296274682,1,,0.3203094113246403,0.9087724031682296,-0.27573533520869004,0.040238700555574686,0.03745797915723107,0.0042566653317621704
318,1.0052101052513978,0.0737814063995511,1,,0.32131880910111776,0.9101013960428601,-0.2743019049722134,0.07271747250256684,0.05820123342567098,0.009312151423935199
319,1.0064686758037724,0.06255382678918735,1,,0.3214941720211416,0.9113791206172888,-0.2822078265870088,0.07488638143944883,0.0604209566513856,0.011785295851027534
320,1.00785046336342,0.05414163470554382,1,,0.32149726289066133,0.9126462555920942,-0.29204281541206345,0.07079471000508286,0.05881459676964421,0.013725050947562116
321,1.00922244330154,0.04826819747439243,1,,0.32206657746756434,0.9131318572305351,-0.30013965223614736,0.06334305838717419,0.051544054043366136,0.015638364258149927
322,1.0104674242471678,0.04454900226897633,1,,0.32388695783168936,0.9118906685457348,-0.30439605907990575,0.048467563156641295,0.0317585542833795,0.017493254699261065
323,1.011498299996513,0.04258615794062478,1,,0.3257073381958143,0.9106494798609344,-0.3086524659236641,0.0335920679261084,0.011973054523392859,0.019348145140372208
324,1.0122658633850816,0.042029866206565875,1,,0.3276789443257981,0.909516314177238,-0.3058752399905701,0.024417655367585625,-0.0006475713235778035,0.024332853320146373
325,1.0127593995195237,0.04260652765791615,1,,0.32968970280781296,0.9084111156494206,-0.3012770064733972,0.016719253159980903,-0.011413211255231856,0.030127871338336675
326,1.013000785318879,0.04412029848197316,1,,0.3313577100784269,0.9075071765898994,-0.2978324128612853,0.011639632202977743,-0.015310219570232606,0.03535008334524764
327,1.0130340406488088,0.04643743981065131,1,,0.3321316022315353,0.90712825138051,-0.29739725246099635,0.013391473328944779,-0.0012894287446453194,0.03907804967957403
328,1.012912929402399,0.04946213341642353,1,,0.33290549438494593,0.9067493261709726,-0.2969620920605374,0.015143314455596002,0.01273136208641782,0.0428060160153564
329,1.0126892145279744,0.0531104430552904,1,,0.333036364969999,0.9060651016861963,-0.2996495047549321,0.015559358740405347,0.01958491251555944,0.04619312402733879
330,1.0124036481418777,0.05728701123885223,1,,0.3329640434829323,0.9052844039330178,-0.30332363722469813,0.015553296922431603,0.024173645557056173,0.04947252226328818
331,1.0120809606479437,0.06186739760678464,1,,0.3330283610574006,0.9045364092047633,-0.3060913956648219,0.015113326952876968,0.026339847067605043,0.05337557169813333
332,1.0117292335647352,0.0666878172542057,1,,0.33351915305827196,0.9038904863411676,-0.3060302021196512,0.013319053697144926,0.020944903664702193,0.059225145679742075
333,1.0113432581550716,0.07154335315488604,1,,0.33400994505914333,0.9032445634775719,-0.30596900857448045,0.011524780441412886,0.015549960261799348,0.06507471966135082
334,1.0109108609209494,0.07619523108921189,1,,0.3353181685457513,0.9035828449552481,-0.3067230014054179,0.0016702778607723535,0.004847490013843988,0.06970184760332225
335,1.0104207158134988,0.08038709303398264,1,,0.33693580326296435,0.9042936639259295,-0.3077855556561262,-0.011235153779851856,-0.007863966236305305,0.07386625966014314
336,1.0098698740507883,0.08386909778474728,1,,0.3385795598741602,0.9042304486899739,-0.3088110497754603,-0.024698375042971822,-0.02026876444425009,0.0766917239779054
337,1.009269225857297,0.08642708066282567,1,,0.3403226685002916,0.9012232716528988,-0.3096955893863576,-0.040283093428064624,-0.031507219415015615,0.07442463429264556
338,1.0086455048635887,0.08791226566610764,1,,0.34206577712642294,0.8982160946158236,-0.3105801289972549,-0.055867811813157434,-0.04274567438578114,0.07215754460738574
339,1.0080392732886172,0.08826585718742097,1,,0.34424409914907794,0.8942701835997526,-0.31161286810718586,-0.06186113897859607,-0.0433875266598216,0.06484764543035032
340,1.007499373753975,0.08753304022019286,1,,0.34661708080258313,0.8899044012946138,-0.3127118929978499,-0.06356448635694402,-0.03928979420212588,0.05528222874866593
341,1.007075240484446,0.08586285728669828,1,,0.3491473778757323,0.8865175070839549,-0.31380501210346384,-0.06236244260663932,-0.03726342982246057,0.045951644335734
342,1.0068088981754926,0.08349362944072776,1,,0.3524259154324919,0.8877865054925471,-0.3148700414803537,-0.04734146573393479,-0.04508912861593865,0.037737994364044285
343,1.0067282965343483,0.08072681276459596,1,,0.3557044529892515,0.8890555039011392,-0.3159350708572435,-0.03232048886123026,-0.05291482740941674,0.029524344392354566
344,1.0068429720683154,0.07789408041484212,1,,0.3565608081607302,0.8898180714747609,-0.31218455279554524,-0.016825954462507217,-0.06543630383982536,0.027562446487886274
345,1.0071422888151615,0.07532227758054486,1,,0.3561497549221481,0.8903156488051809,-0.3059142966002522,-0.0010836307995360525,-0.08041484878207998,0.028871781664692824
346,1.0075960727380668,0.07329912733936693,1,,0.3557975800034859,0.8912200433400375,-0.2999436829330039,0.012431820746731615,-0.09011575765947258,0.030246116365502475
347,1.0081573836027518,0.07204073680520562,1,,0.3558093236872837,0.8946389177156339,-0.29582511752718577,0.012183289392838257,-0.06719634137083504,0.03202220396904353
348,1.008767194191015,0.07166190698402772,1,,0.35582106737108155,0.8980577920912305,-0.2917065521213676,0.011934758038944898,-0.04427692508219751,0.03379829157258459
349,1.0093606007687161,0.07215244565348451,1,,0.3560869603606736,0.8985502743253933,-0.2937721319422889,-0.0006322081360844166,-0.03552352043057652,0.03771606040151721
350,1.0098738795495843,0.07336532306724804,1,,0.35650728620765076,0.8972645455226551,-0.2995954840510508,-0.02068442429843126,-0.0353780387884617,0.04293521366683597
351,1.0102514507914275,0.07502290407226683,1,,0.3567628196018425,0.8959932016303548,-0.30501916318148725,-0.03891920798892016,-0.036234336598207476,0.0474028734176244
352,1.0104517928509444,0.076744522209449,1,,0.35561063418600464,0.8948447390311468,-0.3070286861258828,-0.04162880322676285,-0.04564820942260506,0.045450994288121285
353,1.0104515669403924,0.07809366887225884,1,,0.3544584487701668,0.8936962764319389,-0.3090382090702784,-0.04433839846460554,-0.055062082247002646,0.04349911515861818
354,1.0102475447614445,0.07863842302203719,1,,0.3545723355651999,0.8937815607042089,-0.3095808171316042,-0.04520305559385805,-0.05879511243998994,0.038808322679113404
355,1.0098562237029995,0.07801601946923199,1,,0.35557493182826766,0.8947328639258135,-0.3090937357848606,-0.04477267287391116,-0.05854051966044896,0.03219497143449817
356,1.009311189065609,0.07599184564032424,1,,0.356737209016076,0.8954027576346308,-0.3084012823782153,-0.0444650749328346,-0.058633817267972066,0.026128609546786502
357,1.0086584061281727,0.07250399993694148,1,,0.36001018057713424,0.8923529241676174,-0.3049941800430177,-0.04578047073570911,-0.06332559953279926,0.027292462286897808
358,1.0079498583309094,0.0676860869766021,1,,0.3632831521381925,0.889303090700604,-0.30158707770782006,-0.04709586653858361,-0.06801738179762645,0.028456315027009117
359,1.007236360991602,0.061862971670447964,1,,0.3664552684976719,0.8861609453613526,-0.30095232047271214,-0.04462600850193209,-0.06098795220625244,0.026854149760283705
360,1.006560813904431,0.0555172770148008,1,,0.3695458949608372,0.882944213042159,-0.30255758766090324,-0.03909770689393342,-0.044487912037679885,0.023017072292188065
361,1.005953318922058,0.049229028650830606,1,,0.3724128327724699,0.8799836955230469,-0.304032109467249,-0.03313106962471063,-0.02820747456254823,0.01904649377381182
362,1.005429286565336,0.04359657336532293,1,,0.36926719450317336,0.8839100315300178,-0.30199229762193713,-0.015382312457865128,-0.01782978580910581,0.011487511390525377
363,1.0049909227695841,0.039152037356758256,1,,0.3661215562338768,0.8878363675369885,-0.2999524857766253,0.0023664447089803715,-0.0074520970556633944,0.003928529007238932
364,1.0046315562843924,0.03628701187959972,1,,0.36563707409415563,0.8892454890870635,-0.29842336306903,0.016257708375129135,-0.005921178235789199,-0.00015336466217076043
365,1.0043414744405446,0.03520244829021115,1,,0.36762248987667445,0.8883183092499999,-0.2973682260949806,0.02656871792670819,-0.01260120894819245,-0.001008069180819052
366,1.0041135742551517,0.03589113691323651,1,,0.36959670785153287,0.887395778615183,-0.296313463589861,0.03686356396881715,-0.019245146554721693,-0.001849788360759948
367,1.0039473066405868,0.038153693331982076,1,,0.3636157335478186,0.8897761532396892,-0.29552473283218983,0.035675463560030596,-0.00024767238960324387,0.006533589849169788
368,1.003849969154241,0.04164248415996557,1,,0.35763475924410437,0.892156527864195,-0.2947360020745186,0.03448736315124404,0.018749801775515204,0.014916968059099523
369,1.00383516760139,0.04592409545819111,1,,0.352664748877412,0.8935379224676637,-0.29210520613471086,0.03320534549017398,0.029523591984045076,0.024932169385263443
370,1.003919035602405,0.0505496099285278,1,,0.34877179264087727,0.8938550302868062,-0.28751192286990124,0.03182327088269792,0.03153608770303458,0.03668587172285217
371,1.0041154279000952,0.05512209154134672,1,,0.34487883640434247,0.8941721381059489,-0.2829186396050916,0.030441196275221866,0.03354858342202408,0.04843957406044089
372,1.0044316072160537,0.05935173122854811,1,,0.3455229618995236,0.8978787481408771,-0.28171904194384234,0.03126298779037763,0.025344751846097344,0.05676438837890944
373,1.004865739566094,0.0630911720062038,1,,0.3463222008033733,0.9017012382236818,-0.2806354673498341,0.032160124914820905,0.016791645239022872,0.06497197613548399
374,1.005406798107341,0.06634670156079439,1,,0.341128805200171,0.9043464940407486,-0.2837546323832985,0.03502000025085902,0.017539738683485524,0.06143857076827165
375,1.0060365744915083,0.0692649926753162,1,,0.3286025075686214,0.9055512242384224,-0.29201649015109277,0.040281585051404244,0.029669268563579165,0.04353827014140116
376,1.0067328724374873,0.07209924125967213,1,,0.3160762099370718,0.9067559544360959,-0.300278347918887,0.04554316985194947,0.041798798443672805,0.02563796951453066
377,1.0074728286758,0.0751619963743175,1,,0.3307975142116949,0.8999460030267467,-0.3119720170781846,0.0508612790822764,0.008403585250230364,0.02059696740204307
378,1.008235516098725,0.07877371756850843,1,,0.3474918271104356,0.8925557056484326,-0.32391418493087537,0.05618348126683163,-0.028288090912838747,0.016487111705902432
379,1.009003282417272,0.08321542743536582,1,,0.357315477075646,0.8882023822805729,-0.3267156618734587,0.057188826327630685,-0.05789407984358217,0.019910990332011318
380,1.0097616198789006,0.08869082175596696,1,,0.35746383071070775,0.8881257384387464,-0.3166451795781663,0.05211515509970702,-0.07752197432569045,0.03394390519604298
381,1.0104978393594333,0.0952991141118456,1,,0.3576121843457695,0.8880490945969199,-0.3065746972828739,0.04704148387178334,-0.09714986880779873,0.04797682006007464
382,1.0111993432929256,0.1030169003826416,1,,0.35805084246915314,0.8876849182790038,-0.317188920524658,0.044275869576990916,-0.08264682394670607,0.05350149567736045
383,1.0118524902705874,0.11168721818027955,1,,0.35852246946799105,0.8872880878934631,-0.3301522341460105,0.04177237331561194,-0.06426764649513322,0.05805992002625027
384,1.0124426347016702,0.12101660613830197,1,,0.362585339587976,0.8865716509061177,-0.3361828249557966,0.03470367324843352,-0.063501583394528,0.062839777198882
385,1.0129550996355363,0.13058396265507285,1,,0.3724881520684514,0.8853354818734583,-0.33093968679346153,0.020211213165462736,-0.0913772939440248,0.0679797199696618
386,1.01337617620967,0.13986538930451747,1,,0.38239096454892674,0.8840993128407989,-0.32569654863112646,0.005718753082491948,-0.11925300449352161,0.0731196627404416
387,1.013693209519934,0.14827586346363128,1,,0.38435519693212444,0.882127697305734,-0.3207636420876623,-0.009256170813894777,-0.13395287312607188,0.07757961312678782
388,1.0138934564220752,0.15522321367857753,1,,0.3850629533898871,0.8800396792385545,-0.3158798373427116,-0.024307456497782848,-0.14656734009193648,0.08193193796170666
389,1.013962325279399,0.16016549642435512,1,,0.3842929811304864,0.8793472313765454,-0.31366779246699567,-0.03529263227198622,-0.15274484998587468,0.08442954593733913
390,1.0138823148844631,0.1626616257924226,1,,0.3807313434211875,0.8812912384195741,-0.3165031285014133,-0.038596277316960394,-0.1467619203813718,0.08342329768058258
391,1.0136340412730214,0.16240729716142735,1,,0.3771697057118886,0.8832352454626029,-0.31933846453583103,-0.041899922361934565,-0.14077899077686898,0.08241704942382604
392,1.013200085716571,0.1592527878408267,1,,0.373929831108877,0.8823448790237041,-0.3284071422944682,-0.04007354356932615,-0.1273497372763949,0.07731582732613675
393,1.0125713073456406,0.15320437276127097,1,,0.37075637906484576,0.8808694040496842,-0.33876258817608634,-0.03718815799730682,-0.112383315969847,0.07136926703970685
394,1.0117542107062294,0.14441504991118745,1,,0.36955829390787764,0.8800015241125088,-0.34416478236038295,-0.03546084475390628,-0.10245346987212692,0.06515255271421484
395,1.010777318602327,0.1331716429161146,1,,0.3727230931363948,0.8804756059732619,-0.33862700147928737,-0.03629130227890006,-0.10364763090651505,0.05833916399800766
396,1.0096944477744332,0.11988365069992651,1,,0.37588789236614795,0.8809496878342002,-0.33308922059602897,-0.037121759804218175,-0.10484179194136956,0.05152577527913949
397,1.0085833320812188,0.10507522207549494,1,,0.3803422017736444,0.8766630256616541,-0.32830275503934225,-0.0394354221673589,-0.09968899187911762,0.03993530979573193
398,1.0075390747508526,0.08937724566670514,1,,0.38513019766536905,0.8711444259935675,-0.32371070731215196,-0.04213289337223307,-0.09289378901107133,0.027108680396785094
399,1.0066631802635,0.0735138884066802,1,,0.3895756821938694,0.8668120126703438,-0.32101780078672926,-0.03954756384722029,-0.08081242403539203,0.016387442213235157
400,1.0060500105529773,0.05827824651958695,1,,0.393128043243666,0.865572667164615,-0.32327704411322805,-0.023186944297489617,-0.05494700399620156,0.01115616590606403
401,1.0057730259369297,0.044494948282249876,1,,0.39668040429346263,0.8643333216588863,-0.32553628743972685,-0.006826324747758947,-0.029081583957011096,0.005924889598892904
402,1.0058729774545536,0.0329720777447528,1,,0.3960923733764195,0.8660135040303838,-0.3237904264099103,-0.0011486264858215024,-0.013627291372069791,0.008948807444750883
403,1.0063495662811168,0.024448353288082928,1,,0.3941965847080874,0.8686158298226314,-0.3207795387090342,0.001154832517511275,-0.001461390982117792,0.014580158168578565
404,1.007157396620552,0.019542153281765662,1,,0.39067528306998056,0.8714028470746941,-0.3187692572820354,0.002103157529159163,0.010502931304643285,0.02018208156828196
405,1.0082065833424583,0.018706577812631586,1,,0.38208273467111753,0.874766061493277,-0.3198806497017215,-0.001176240641663364,0.02183837377201537,0.025692198119982346
406,1.0093681245322925,0.022191170342272606,1,,0.37349018627225455,0.87812927591186,-0.3209920421214075,-0.0044556388124858915,0.033173816239387456,0.031202314671682732
407,1.0104839373642327,0.03000888031875007,1,,0.37700307131631594,0.8789282499639055,-0.3212289536326895,-0.009217090717860046,0.02198380159887228,0.03224867863459241
408,1.0113811048357078,0.04190804962578637,1,,0.38509617490002956,0.8787570166027001,-0.3211349960604208,-0.014539293299677073,0.0022710424613405526,0.03160613468189585
409,1.0118893397478057,0.05735332080765664,1,,0.3908811797804949,0.8788638521786802,-0.3204576108948573,-0.018088995643508327,-0.013687147118903032,0.033681676943911415
410,1.0118600835802058,0.07552409758995439,1,,0.3878919281068924,0.8800277691486016,-0.31756232084633246,-0.014900523485379673,-0.01537230907715719,0.04609004671906431
411,1.0111852775046137,0.0953415900732862,1,,0.3849026764332898,0.881191686118523,-0.3146670307978076,-0.01171205132725102,-0.017057471035411345,0.05849841649421721
412,1.0098138279683662,0.11553360748195417,1,,0.37469464696639987,0.8834200693186678,-0.31226081495733243,-0.02804793882294873,-0.027551842908644736,0.08042810524953095
413,1.0077640555798935,0.13473992673207322,1,,0.36125908681873803,0.8861243776012951,-0.31007326522029693,-0.053113208439778875,-0.041984830997547545,0.10661479567602249
414,1.0051307091715267,0.1516515781444924,1,,0.35060818703648133,0.8892086737322522,-0.3073544612104837,-0.07790349988397709,-0.0584543451564723,0.12878638095066583
415,1.0020852242686416,0.1651671807737025,1,,0.353194418432134,0.8940992759595805,-0.3021102926768861,-0.10138665808226469,-0.08460466745667629,0.13187180611458424
416,0.9988678167760587,0.1745415619565898,1,,0.3557806498277866,0.8989898781869087,-0.29686612414328856,-0.1248698162805523,-0.11075498975688028,0.13495723127850268
417,0.9957701123291455,0.17949894032390043,1,,0.36055763132076585,0.890976662287938,-0.2934831533764567,-0.1198882281577133,-0.11747111726831647,0.137680476502939
418,0.9931079656935501,0.18028618883004904,1,,0.36648050699977214,0.8762139726994319,-0.2910737010829957,-0.10001786413956502,-0.11402199097843246,0.14021427981755782
419,0.9911862753079229,0.17765063961196317,1,,0.37107887099995546,0.863451317206838,-0.2886879342282416,-0.08144065790942195,-0.10674238054528153,0.14401759080456772
420,0.9902603903665403,0.17273951566728424,1,,0.36749621699829954,0.8630421314529855,-0.28644846355459463,-0.07085080831194453,-0.07580328848364379,0.15566218042079594
421,0.9905007999449637,0.16693155696604361,1,,0.36391356299664357,0.8626329456991328,-0.2842089928809476,-0.060260958714467114,-0.04486419642200605,0.16730677003702418
422,0.991967983183844,0.16162341414400022,1,,0.35914575482459243,0.8679864909821401,-0.29236214297069435,-0.04682395729874298,0.005035794821702517,0.14159898942849708
423,0.9946023385563445,0.15800274374065024,1,,0.35365804359698816,0.8768405155997332,-0.3068281252890767,-0.03165749878386681,0.0664532827744316,0.09320210547066612
424,0.9982307384428911,0.15684587799172003,1,,0.3503344709512703,0.8834633048724865,-0.32235293547428784,-0.017357555657336446,0.11588259727774765,0.044128792831258874
425,1.0025877206269678,0.1583789985098832,1,,0.3654816193374709,0.8710427084970034,-0.3469147427874587,-0.010453240584370013,0.06299396905794138,-0.010717775541380248
426,1.0073468253681421,0.16223597057729602,1,,0.38062876772367155,0.8586221121215203,-0.3714765501006296,-0.0035489255114035823,0.01010534083813511,-0.06556434391401937
427,1.0121567186935865,0.16753188128566618,1,,0.3960726837459423,0.853861484432657,-0.3742698270164527,0.016471242624447813,0.009188545341522554,-0.12296141648466695
428,1.0166772566894056,0.17304876822878665,1,,0.4117248429429937,0.8544758909596032,-0.3617880289939128,0.04569486339394763,0.04474061683041741,-0.1821481892346126
429,1.0206117346003682,0.17750225690739332,1,,0.42691189483303,0.855579475174571,-0.3503360738864682,0.07229601927713719,0.07965286479245086,-0.23794291640085688
430,1.023732473758732,0.17983283837055108,1,,0.4359587686437516,0.8631410059140905,-0.3524797316559461,0.06427634429866058,0.10611839447031715,-0.2489570872891425
431,1.0258973521693315,0.17945336289786198,1,,0.44500564245447316,0.87070253665361,-0.35462338942542404,0.05625666932018397,0.13258392414818343,-0.2599712581774281
432,1.0270552312247072,0.17639130682019338,1,,0.44743571803850235,0.8703393520917739,-0.34652503872301543,0.041332660080827956,0.10302005753625978,-0.23310380264802985
433,1.027239276589392,0.17128956960665284,1,,0.4445212670870196,0.8635752089751467,-0.3301540032296277,0.0208318754278804,0.028200073844703456,-0.17563856392177765
434,1.0265494663529589,0.16526566856193056,1,,0.4414658598085026,0.8573035544691846,-0.31387001222742117,0.0007124605864903731,-0.043792760862798534,-0.11930305151776098
435,1.025128562253596,0.1596653955876246,1,,0.43463062250623463,0.8642382829338544,-0.29992017243425695,-0.009180289768050234,-0.03997386837516028,-0.09326184062723121
436,1.0231378758671543,0.1557725851089811,1,,0.4277953852039667,0.871173011398524,-0.2859703326410927,-0.019073040122590843,-0.03615497588752203,-0.06722062973670144
437,1.0207388559709214,0.15454510332298585,1,,0.4136913993901531,0.8808940566770644,-0.28881783195108435,-0.03131146731783004,-0.03421954237926162,-0.03469893685713742
438,1.0180837744881233,0.15643810130499003,1,,0.39284329003420076,0.893200315185975,-0.3072503153764222,-0.045726271144958176,-0.03403162840937826,0.003835506508597908
439,1.0153148734976833,0.16135262236681233,1,,0.3720351753563008,0.9054704707067437,-0.32564884671880706,-0.06025732688269638,-0.033990014555886586,0.042344122110803
440,1.0125680598402402,0.16871548178351436,1,,0.3780705457228082,0.8935091499954821,-0.32125954058758566,-0.15281394410539148,-0.1321416098076111,0.06351775829611907
441,1.0099760742594304,0.17766075771474582,1,,0.3841059160893156,0.8815478292842208,-0.3168702344563642,-0.24537056132808657,-0.23029320505933565,0.08469139448143513
442,1.0076674624767623,0.187253776063544,1,,0.39965251824419007,0.8675184226069641,-0.30851689303766683,-0.2657067648703506,-0.20895807685356685,0.059344317633332415
443,1.0057606882849812,0.19668771273332306,1,,0.42532880479562374,0.85128645598725,-0.29594176128808247,-0.2091265380437877,-0.06036679243849326,-0.01554840707794065
444,1.0043555341700137,0.20539855108713112,1,,0.45100509134705735,0.8350544893675356,-0.28336662953849806,-0.1525463112172248,0.08822449197658032,-0.09044113178921372
445,1.0035249983914212,0.21307981854288396,1,,0.44615351341900483,0.8417405306897057,-0.3171350155511768,-0.057383427117957686,0.09777869492765429,-0.11244243315632389
446,1.0033098130421105,0.2196160333409787,1,,0.4402609306918579,0.8492080795512984,-0.3524837225335669,0.039095131433732895,0.10259171235776328,-0.1326401289823648
447,1.0037153962528218,0.22497641984173347,1,,0.43273409684301894,0.8524624045983187,-0.3569902249086014,0.11098590256932209,0.05114019458139714,-0.11523906939325067
448,1.004709381879397,0.2291133072899429,1,,0.4232081706642809,0.8505629174190147,-0.32376910155380934,0.15279974331135635,-0.06913673153255238,-0.05184545543686683
449,1.0062184305843795,0.23189775648459002,1,,0.4136822444855428,0.8486634302397107,-0.29054797819901734,0.1946135840533906,-0.1894136576465019,0.011548158519517009
450,1.0081255572619416,0.23310642581151272,1,,0.40119746264651707,0.8703696750223112,-0.27093946766836496,0.20880152709268954,-0.07931646923250982,0.024364951220345935
451,1.0102714856338837,0.2324559206593623,1,,0.38849870826897187,0.893782991379673,-0.25231536653657494,0.2209916763431022,0.04744044839920566,0.03352423166752041
452,1.0124633856042486,0.22966908767257554,1,,0.369679109332952,0.908939005771829,-0.2582657849994798,0.19330783011713676,0.14814256471857748,0.041767099949980215
453,1.014491708331275,0.22455305377345736,1,,0.342243024270169,0.9124709824763787,-0.29881045024265684,0.10949223188235224,0.21216659978647479,0.048719908890428466
454,1.0161525881143136,0.2170690340432359,1,,0.31480693920738606,0.9160029591809286,-0.33935511548583386,0.02567663364756775,0.27619063485437206,0.05567271783087672
455,1.0172713601715249,0.2073772611099018,1,,0.30958740506584315,0.9095796694994096,-0.34663600055171634,-0.0641818342297772,0.15639160113767017,0.07207636011081531
456,1.0177228316691511,0.19584694278736484,1,,0.3068886668298603,0.9020268077779402,-0.350142618352998,-0.15472595493895921,0.015735124662078957,0.0895523390496158
457,1.0174455292454894,0.1830301140227788,1,,0.31008138382647893,0.8995633053958548,-0.3433763363092874,-0.19541815196315557,-0.06052687823943516,0.08308240254464842
458,1.0164490968741633,0.16960639009528378,1,,0.3228512282029783,0.9053730463383637,-0.3199104670682038,-0.155071250086759,-0.032109468053567305,0.03768607631447984
459,1.014815196585214,0.1563104505437684,1,,0.33562107257947765,0.9111827872808727,-0.2964445978271202,-0.11472434821036245,-0.00369205786769946,-0.00771024991568875
460,1.012692196370944,0.14385596560192543,1,,0.35888554995021343,0.906296673612991,-0.29684269704572613,-0.028004747997810484,0.04924665825321673,-0.05325839365834617
461,1.0102831065405156,0.1328689259407275,1,,0.38380710530869305,0.8997217095351215,-0.30100886103195984,0.0660369927495588,0.10605723119066165,-0.09883050903090598
462,1.0078257397084274,0.12383840397071524,1,,0.39750984452518073,0.8936085852885817,-0.2930290657557857,0.1132615977362279,0.12458425302128447,-0.11730050929222108
463,1.0055649191944867,0.11708459725969378,1,,0.39004475038680236,0.8883668674714102,-0.2621320893228689,0.0721509171172052,0.0708772868658155,-0.08463382550743763
464,1.003719026678283,0.11273871551339192,1,,0.382579656248424,0.883125149654239,-0.2312351128899521,0.031040236498182498,0.017170320710346527,-0.05196714172265419
465,1.0024464166493179,0.11073187763224351,1,,0.35825741649058457,0.887100285446845,-0.2409341950443865,-0.03906666867017253,0.0037585077669719585,-0.02751831536974734
466,1.0018194544957009,0.11079706540650049,1,,0.330462199125831,0.8929743148549873,-0.2589970420725182,-0.11514749379023213,-0.0013515340502624309,-0.0047625653823179254
467,1.0018135197865512,0.11249045489095925,1,,0.3101191789661384,0.898052789534506,-0.28155446056455136,-0.15973550825334407,-0.007459967033250716,0.006299906889882494
468,1.0023149478118625,0.11523278976524909,1,,0.3062138673534107,0.9013764667492714,-0.31402579487686655,-0.13485815181187366,-0.015770604620725534,-0.008430106698478757
469,1.0031467596665649,0.11836383273880938,1,,0.302308555740683,0.9047001439640371,-0.34649712918918174,-0.10998079537040327,-0.024081242208200352,-0.02316012028684001
470,1.0041060805185742,0.12120081244611101,1,,0.3105213594942344,0.9051982608722641,-0.34303068062642256,-0.07172096368385428,-0.04327417296997482,-0.04545812165312957
471,1.005004135949089,0.12309577191376557,1,,0.3218645711166347,0.9049664659129981,-0.330280617004661,-0.03000410880965319,-0.06527826826965621,-0.06971112078724889
472,1.0056996024569167,0.12349125890826468,1,,0.3347262003767702,0.902315458911013,-0.31875379736440035,0.0065658733880460535,-0.07153730714782912,-0.09418445884556467
473,1.0061186339453358,0.12197397713053258,1,,0.3515416648282331,0.8933650218496848,-0.31041220488525983,0.029733820593588957,-0.03679750840603736,-0.11923154141978752
474,1.0062588816992009,0.11832184462810255,1,,0.36835712927969605,0.8844145847883566,-0.3020706124061194,0.05290176779913186,-0.0020577096642456056,-0.14427862399401037
475,1.0061788292735936,0.11253511512710082,1,,0.37979852611779935,0.8796163914598938,-0.29487986583489234,0.05497708010561852,0.012501915696828353,-0.133011536564756
476,1.005976724300098,0.1048408940146407,1,,0.38954511931534364,0.8761276788267346,-0.2880520580978559,0.05040047118821977,0.020697380095779448,-0.11029215788170856
477,1.005764830916662,0.09566446296259078,1,,0.3959475418701504,0.8742387279483665,-0.2826967785540241,0.04234592846249849,0.027730587078429885,-0.08536905671104175
478,1.0056446849932161,0.08556921565164415,1,,0.3919328183375553,0.8773330610243897,-0.28192844834537184,0.02345756520722671,0.03114334325571733,-0.053581324054096637
479,1.0056878858532496,0.07517622753536744,1,,0.3879180948049602,0.8804273941004129,-0.28116011813671954,0.004569201951954933,0.03455609943300477,-0.021793591397151525
480,1.0059251957177513,0.06508054444243029,1,,0.3789954391053317,0.88419062848735,-0.28712606970005294,-0.011177925762150582,0.03661821235366067,-0.0040270317930330354
481,1.0063447866872024,0.055781617446664954,1,,0.3682184358898959,0.8882065916085073,-0.2956364123123312,-0.025738211008983748,0.03817001627198361,0.00844195511970716
482,1.0068987143936812,0.047639932622034545,1,,0.3586565299731742,0.8921681525325081,-0.30263658220367157,-0.03613053202011506,0.0362226012220427,0.01998936314291989
483,1.0075153412496158,0.04086335529032711,1,,0.3537059616364084,0.8959232551782736,-0.30390559276509255,-0.030705280123838115,0.02099552540260889,0.028039346416139692
484,1.0081146260609335,0.03551880677639567,1,,0.34875539330157607,0.8996783578225727,-0.3051746033260179,-0.02528002822968001,0.005768449589122056,0.03608932968621555
485,1.0086230148843118,0.03156036872032467,1,,0.34595639160833286,0.901583598703365,-0.303133163667696,-0.0058959481334646385,0.001198023246996441,0.03379276568765503
486,1.0089851090892,0.028864152235378533,1,,0.34411809392325654,0.9026628509411773,-0.29961356259405425,0.019720940154570668,0.0013859370182488992,0.02687632646254154
487,1.0091702471520427,0.027261916902952075,1,,0.3438180321232767,0.9029391428650354,-0.2963646990812368,0.03905269470979619,0.001442998439103261,0.01963381177692933
488,1.0091733957173314,0.026567996641068403,1,,0.3508158214801272,0.8994059508775815,-0.2944002955401321,0.028565894824040497,0.0008792571690446847,0.010844297570846761
489,1.00901101004104,0.026596963864997186,1,,0.3578136108369776,0.8958727588901275,-0.29243589199902736,0.018079094938284804,0.00031551589898610826,0.002054783364764191
490,1.0087135280264032,0.027172474553856168,1,,0.3605201997051447,0.8932003076657036,-0.29154825262026085,-0.003134335041407323,-0.0013272590676227354,0.0031199121769163026
491,1.008316735447037,0.02813014147153235,1,,0.36098502922147,0.8909775146803023,-0.2912231239274936,-0.02995144711198389,-0.003533730344057494,0.009333189672274825
492,1.0078542998200426,0.029317823931792126,1,,0.3602745710917701,0.8896596227304667,-0.2916775786515821,-0.05057494546016557,-0.004730502103190006,0.014485986437318368
493,1.007353286557725,0.03059525353467915,1,,0.3523217800212353,0.8939178930080115,-0.2969359659951591,-0.0330322869222399,0.00029467537643038246,0.013103911035318702
494,1.0068334900920017,0.031833297992632716,1,,0.34436898895070056,0.8981761632855563,-0.3021943533387361,-0.015489628384314233,0.005319852856050771,0.011721835633319036
495,1.006310151104856,0.032913387022330695,1,,0.3407965597725579,0.9001215222873957,-0.30365944869902345,0.004856195541736178,0.0028862711024420233,0.004767384327807058
496,1.005798504755271,0.033729171513720756,1,,0.3398817312607443,0.9006636194815404,-0.3028231234118798,0.02690272237460568,-0.004072599655859587,-0.005567872097923637
497,1.005318056389385,0.03419278128653779,1,,0.3397836456140914,0.9006883057729771,-0.3017426535346248,0.0456874406861584,-0.010678963038273129,-0.01527205750857196
498,1.004894712041492,0.0342456905916304,1,,0.3466355645639477,0.8963101275822154,-0.2985846558381923,0.036716074208867286,-0.01428569460603549,-0.019606197287192515
499,1.004559760620924,0.03387080606973014,1,,0.353487483513804,0.8919319493914537,-0.2954266581417598,0.027744707731576175,-0.017892426173797854,-0.023940337065813073
500,1.0043458478978375,0.033100755618814884,1,,0.35931130425359975,0.8888874887534293,-0.2934552009520395,0.015683475890732126,-0.02251485746490892,-0.019250787032088008
501,1.004281085253144,0.032018521211990524,1,,0.3644145404797373,0.8867778183958396,-0.2923153790142806,0.0014565860334873474,-0.027849183285170866,-0.008236616382159478
502,1.0043829841522323,0.03074923765250758,1,,0.3689742526126895,0.8849020690676017,-0.2914239401938272,-0.011853661837941544,-0.0322548680826024,0.002618566804755807
503,1.004653891161419,0.029444351011174093,1,,0.36638925270371314,0.8861012494733461,-0.2937975375906705,-0.013114502670552112,-0.02445341656053776,0.011383834096960558
504,1.0050791151653062,0.02826064562424062,1,,0.36380425279473677,0.8873004298790903,-0.2961711349875139,-0.014375343503162682,-0.016651965038473118,0.020149101389165307
505,1.0056281883103324,0.027337243048068127,1,,0.3598056579423749,0.8901164089968705,-0.2991536867694933,-0.009577143314832082,-0.011584798238335166,0.021452958302468537
506,1.0062588927814013,0.026774079186469596,1,,0.35466657087056264,0.8942368256836459,-0.30262754459462,0.00010950753897959891,-0.008723659739098376,0.016736929163489705
507,1.0069230163247047,0.0266156410050534,1,,0.3498701648830215,0.8980445261731058,-0.3059336566773205,0.00972851242313488,-0.0057603933901097535,0.011985978897306583
508,1.0075724757872626,0.026843476098373047,1,,0.35418900080956994,0.8935340441835041,-0.30477776869956774,0.0175481493987596,-8.054852071698958e-05,0.006306134226544721
509,1.0081646180718211,0.027379685321785984,1,,0.35850783673611836,0.8890235621939024,-0.30362188072181506,0.025367786374384325,0.005599296348675774,0.000626289555782859
510,1.0086660949320938,0.028101206236025193,1,,0.36011745830095265,0.888495272358163,-0.30434174888732596,0.028075103701279948,0.013780244943134233,0.0011472953702964086
511,1.00905533122649,0.028861826522492938,1,,0.35921623285578036,0.8916576005126775,-0.30680003124787875,0.02604442292599217,0.024279167670073043,0.007415128427598185
512,1.009323832270571,0.029516615154260368,1,,0.35830858953525024,0.8948158953723211,-0.30925445741754864,0.024008520565949314,0.03474964509548586,0.01367615305373658
513,1.0094763360738155,0.029942778381051905,1,,0.35377896683990695,0.8956979679589229,-0.3095326113686677,0.019025775016778844,0.029166788715854156,0.016094785007235993
514,1.0095294901918221,0.0300522356037514,1,,0.34924934414456366,0.8965800405455245,-0.3098107653197868,0.01404302946760837,0.023583932336222458,0.01851341696073541
515,1.009508757868317,0.02979415546278358,1,,0.3483000019658835,0.8952901018888991,-0.31097695167871353,0.010032475747344309,0.016282851483186006,0.0180125365162187
516,1.0094437184683587,0.029149286127333276,1,,0.351159453320851,0.8916895223929006,-0.3130878495139577,0.007056164437464042,0.0071538797056254115,0.01440580447956702
517,1.0093625477591683,0.02812075525091735,1,,0.3540189046758186,0.8880889428969021,-0.3151987473492019,0.004079853127583774,-0.001975092071935183,0.010799072442915341
518,1.0092868896608056,0.026726898059486706,1,,0.35603409179114126,0.8887240065085771,-0.31342139666063895,0.002979877187581927,-0.012435089050986394,0.012451943902885003
519,1.0092283480168547,0.025000111001752125,1,,0.3580207431112793,0.8895022331710126,-0.3115126247199467,0.0019433206360821773,-0.022940074151945086,0.014282587867106308
520,1.0091874211346288,0.022992253993904765,1,,0.36039715579341347,0.8901118663844935,-0.30918877778640186,-0.0004355238073009254,-0.028665204676064714,0.015758562001837496
521,1.0091550388500976,0.020783246742880127,1,,0.3632498015073303,0.8905155023464167,-0.3063577681591232,-0.004454453427426565,-0.028550031725898074,0.0168011799739288
522,1.0091161930284998,0.018487079139584032,1,,0.36610244722124724,0.8909191383083401,-0.3035267585318445,-0.008473383047552204,-0.028434858775731438,0.01784379794602011
523,1.0090546788397028,0.016249676970344542,1,,0.3647296740556624,0.8913861840462874,-0.3056638443938002,-0.006074295684276545,-0.016507141615877418,0.012055610504475432
524,1.0089577696531604,0.014235869677546361,1,,0.36305270112517907,0.891857794831987,-0.3081585973943088,-0.003213157264492114,-0.003729006243317125,0.0057756542087287355
525,1.0088197369072354,0.012606887273763223,1,,0.3615928083339274,0.8919923629296082,-0.30811313041706556,-0.0002613233380959549,0.003259732568825811,0.0015816944990093337
526,1.0086434738377787,0.011493558624785028,1,,0.3604381518428509,0.8916530154333183,-0.3044958611073542,0.002818037505219754,0.002108003106885603,0.00032085378557730607
527,1.0084400260953927,0.010972137728236015,1,,0.35928349535177445,0.8913136679370286,-0.300878591797643,0.0058973983485354625,0.0009562736449453945,-0.0009399869278547216
528,1.0082264259103704,0.011048999317141393,1,,0.3614379314617066,0.8893006151458334,-0.30319981374972643,0.0017992835128748663,0.00265266235346229,-0.0014765451644079713
529,1.0080226506206158,0.01165804962300267,1,,0.36396667997500176,0.8870982389582264,-0.3061927760265962,-0.00311072101466127,0.004671219730612077,-0.00193117522649597
530,1.0078486056642388,0.012671676439335146,1,,0.3652887038050297,0.8864566972386236,-0.308061707430335,-0.004723767906423115,0.009154986580120797,-0.0026977108643058477
531,1.0077217579529036,0.013923111206359556,1,,0.36465141755194,0.8883494193430942,-0.3081055953469496,-0.0009836779746602122,0.017641414382593715,-0.003970674975087515
532,1.0076555842715775,0.01523555865649178,1,,0.36401413129885035,0.8902421414475646,-0.3081494832635642,0.0027564119571026903,0.02612784218506663,-0.005243639085869181
533,1.0076585975359809,0.01645182280511297,1,,0.36393541715138544,0.8898327094953705,-0.30591048631605294,0.008748336568849775,0.02254862521294876,-0.0043276104606856484
534,1.0077335817010724,0.017457997635111237,1,,0.36394468975994465,0.8890606402663161,-0.3033118873913783,0.015094972106186011,0.01706881755188427,-0.003066769826705982
535,1.0078768645822473,0.0181963297853347,1,,0.3644607666185015,0.8882802289272363,-0.3018644757755291,0.017871152480101654,0.013740949949843567,-0.002669647279922443
536,1.008077834205386,0.018665132430510618,1,,0.3659319030325533,0.8874840970966783,-0.3025864469923282,0.013918902061839374,0.01446835796207086,-0.0039001792218971098
537,1.008319178103627,0.018906717398470333,1,,0.3674030394466051,0.8866879652661204,-0.3033084182091273,0.009966651643577094,0.015195765974298153,-0.005130711163871777
538,1.0085782883463208,0.018986931792833353,1,,0.3658533183544641,0.8885086837421066,-0.30493377248028775,0.004591500399706587,0.012066761729828186,-0.004360132226588585
539,1.008829922495917,0.018971630950041212,1,,0.3636824625535896,0.8908674668403475,-0.3067448761849105,-0.0010762211120627174,0.008144819884392366,-0.0031780941520957373
540,1.0090497131525278,0.018906060590248748,1,,0.3621071782441877,0.8925314711284849,-0.3075767442855713,-0.00403563753445932,0.006847908876628276,-0.0027947316167984204
541,1.0092177216597205,0.018802422573253347,1,,0.3618438588463862,0.892664969955514,-0.3062514863803997,-0.00102901747250325,0.011333592234452372,-0.004170745240670907
542,1.0093211403745195,0.01863878976556208,1,,0.3615805394485847,0.8927984687825432,-0.3049262284752281,0.0019776025894528196,0.015819275592276468,-0.005546758864543392
543,1.0093555199105828,0.01836941555114096,1,,0.3618228698781463,0.8912332106400557,-0.30535723837783424,0.009080380588040865,0.016801539039733922,-0.00758297691277119
544,1.009324404037939,0.017943241081242546,1,,0.36219559715227434,0.8892298774968005,-0.3062411541610614,0.017239474718620626,0.01688034148160717,-0.009789448304411873
545,1.009237756004651,0.01732504906137009,1,,0.36298363979863246,0.8880149280753982,-0.3070220576933767,0.0223780315729391,0.015940512376557626,-0.010795449651833483
546,1.0091098320269294,0.01651297130130085,1,,0.3648516146922299,0.8888499894683215,-0.3075351015242244,0.019662374914504847,0.01235196586509354,-0.008679904340300804
547,1.008957097156747,0.015547176925308112,1,,0.36671958958582734,0.8896850508612447,-0.30804814535507213,0.016946718256070595,0.008763419353629455,-0.006564359028768124
548,1.0087964679438037,0.014507245073488034,1,,0.3652512688242115,0.8901487780829832,-0.3066192097495581,0.011077751811276846,0.006977422441587719,-0.00490060376418865
549,1.0086438443254948,0.013499110988758061,1,,0.36273241271276907,0.8904955793144189,-0.30457878216090806,0.004215868748212694,0.005759013738057971,-0.003379108498144525
550,1.0085127836916357,0.012635448283997732,1,,0.36044544997220024,0.8907028142242271,-0.30384580745791817,-0.0008910252175567228,0.003748647852120748,-0.0021555189406999653
551,1.0084132936311898,0.012014987515945342,1,,0.3588797361915987,0.8904759614154385,-0.307179352769866,-0.0005394446421627075,-0.0007249117508180865,-0.0018584939576818682
552,1.0083509029615738,0.011706148252471571,1,,0.3573140224116086,0.8902491086067382,-0.3105128980805119,-0.0001878640669060029,-0.005198471352009761,-0.0015614689747797748
553,1.0083262412029383,0.011738602603627427,1,,0.35881045209972046,0.8893369185902392,-0.3107515433876223,0.0011143743854585596,-0.011230053766025866,-0.00034459451332719926
554,1.008335288086886,0.012103601832231716,1,,0.3614622074986259,0.8881661555497388,-0.30982250416771523,0.002775289529054044,-0.01784946749168092,0.0012193328420715649
555,1.0083703208449692,0.012761058707766912,1,,0.36374013865954496,0.887490439298349,-0.30899647230820276,0.0034450261967076453,-0.022495385321261687,0.002173109478236547
556,1.0084214416895076,0.013649550958588962,1,,0.36460180664618475,0.8886902476002604,-0.30856069211346265,0.00035960353553857616,-0.019664555315398995,0.0008152810695670608
557,1.0084784165092486,0.014695300427791852,1,,0.3654634746328245,0.889890055902172,-0.3081249119187226,-0.002725819125630493,-0.016833725309536304,-0.0005425473391024254
558,1.008532427495575,0.015817731213984505,1,,0.3642859931550855,0.889930047079196,-0.30755661201330975,-0.004289441953517948,-0.013306976099972227,-0.0006636513984813911
559,1.0085773284287094,0.016931584149452117,1,,0.3621992025236392,0.889452845992137,-0.30692921816306046,-0.00517445512444506,-0.009469898631876585,-0.00023326828584721747
560,1.008610159700119,0.017947616506893718,1,,0.36054816831723324,0.889058852921232,-0.306918220537743,-0.005692701427414288,-0.007281686558555218,0.0001971148254015709
561,1.0086309588728861,0.018774767028111605,1,,0.36096045709343466,0.889058852921232,-0.30982588210873413,-0.00447429288278926,-0.01290091384530708,0.0006274979300905085
562,1.0086421076559478,0.01932602130654805,1,,0.3613727458696361,0.889058852921232,-0.31273354367972533,-0.003255884338164232,-0.01852014113205894,0.0010578810347794461
563,1.0086474703969746,0.019528392048193396,1,,0.3625961990795569,0.8891315525999017,-0.31056299560177214,-0.002224694556907943,-0.022342865102419122,0.0016197156367265856
564,1.0086514704259073,0.019335239134344376,1,,0.364242883109124,0.8892421838536163,-0.30574285547723073,-0.0012911874986359223,-0.025228250674438454,0.0022501359934425993
565,1.0086581760002746,0.018737547790677593,1,,0.36552575531823994,0.889409375828525,-0.30182009540020405,-0.0009318151658590567,-0.02693568477799343,0.002914478634405905
566,1.0086704883358917,0.017770418711002576,1,,0.364571989142175,0.8899242911950452,-0.30341423869887846,-0.004102102105052855,-0.021401321550772304,0.003787368328531016
567,1.0086895625781505,0.016512024776461014,1,,0.36361822296610996,0.8904392065615653,-0.30500838199755287,-0.007272389044246654,-0.01586695832355118,0.0046602580226561266
568,1.0087145604372023,0.015074267264924212,1,,0.3623411497175794,0.8908401847765316,-0.3054116790086768,-0.007181533620912102,-0.012095272752337904,0.00443855133721094
569,1.008742744729139,0.013586608866818948,1,,0.36086815797162725,0.8911721190471057,-0.305093343753801,-0.005114482296039782,-0.00939173937207475,0.0035535381662838293
570,1.0087698625001222,0.012176349696353058,1,,0.3594910388805299,0.8914450707277902,-0.30497483556948835,-0.002984155180873361,-0.006717606856862593,0.0025080985063184046
571,1.0087907640956786,0.010949511719001121,1,,0.3589273096394946,0.8912176102730324,-0.30655167327092164,-0.0003169921383217866,-0.004292913196261591,0.00010159006128154959
572,1.0088002303279124,0.009976403103711784,1,,0.3583635803984594,0.8909901498182742,-0.30812851097235494,0.002350170904229788,-0.0018682195356605892,-0.0023049183837553053
573,1.0087939681026836,0.009284918005652535,1,,0.35877426091733927,0.8908564763198238,-0.3086029540226056,0.0037800836403377963,0.0001678277580221376,-0.004768475752202591
574,1.008769669752933,0.008862870435334682,1,,0.359867104068537,0.8907884609866439,-0.3083056350602031,0.0043438249141488205,0.0019317923607864395,-0.007271971803981179
575,1.0087279452394848,0.00866853417005999,1,,0.3608674204618628,0.8906963627674991,-0.3081305447944509,0.004840448466708294,0.0036815589801969997,-0.00965112798799953
576,1.0086728781223089,0.008646621304543642,1,,0.36065664179495405,0.8902890404474331,-0.3095553222166495,0.004458559225528558,0.005245486295869583,-0.010402783073009363
577,1.0086119641278808,0.008745719143507361,1,,0.36044586312804516,0.8898817181273668,-0.31098009963884804,0.004076669984348822,0.006809413611542167,-0.011154438158019196
578,1.008555281835719,0.008932999024293738,1,,0.3603692585936096,0.8894271318060434,-0.3116148863104615,0.0049400997049507305,0.005755150186284336,-0.011170985775097255
579,1.0085139093462763,0.00920276329202045,1,,0.3604007830321452,0.8889344561166704,-0.31161303097856113,0.006807113781768591,0.002590925096724842,-0.01059512102426406
580,1.0084978051312272,0.009576838505269712,1,,0.36043761134675456,0.8884434074738927,-0.3115862812421005,0.008541991486727372,-0.0005080064815350418,-0.009992032197399815
581,1.008513563242533,0.010096612293918455,1,,0.36061439449988913,0.8879952921576748,-0.3109026359971577,0.00679015036007615,-0.001884020196777743,-0.008670574179410147
582,1.008562570109398,0.010808331022356595,1,,0.3607911776530238,0.8875471768414569,-0.3102189907522149,0.005038309233424928,-0.003260033912020444,-0.0073491161614204804
583,1.0086400720506408,0.011744852195072118,1,,0.36126550802384844,0.8880571792168377,-0.30983770992371,0.0032644338677254156,-0.0025585344729331214,-0.0062574437612433675
584,1.0087354733148501,0.012908112610739361,1,,0.36201528896443924,0.8894541469152445,-0.30973633912572557,0.0014701605841850476,6.619646702175329e-05,-0.005378492487621977
585,1.008833849477954,0.014256852631211132,1,,0.3627602663101447,0.8908476693099612,-0.30963576660449815,-0.0003137368950568272,0.002694655240354057,-0.004504002187899355
586,1.0089182996021284,0.01570340260416892,1,,0.3611667468566944,0.8905639412612547,-0.3099238129584576,0.002953537866498207,0.007137906191014071,-0.005801213172832662
587,1.0089725484637955,0.01712154675599543,1,,0.35957322740324427,0.8902802132125485,-0.31021185931241707,0.0062208126280532405,0.011581157141674086,-0.007098424157765968
588,1.0089832531701792,0.018364912096150397,1,,0.35834740850172037,0.8903641994635657,-0.3101828461079788,0.010428515925890535,0.015039896999741164,-0.007799050777530399
589,1.0089417016467805,0.019292611147032988,1,,0.35751231875219597,0.8908389294753861,-0.3098169163236306,0.015635545557540924,0.01745246713538722,-0.007865729741036677
590,1.0088448349801824,0.019796774834529296,1,,0.35667722900267157,0.8913136594872066,-0.3094509865392824,0.020842575189191314,0.019865037271033274,-0.007932408704542955
591,1.0086956477858982,0.01982577059787759,1,,0.3560861641537876,0.8922919453880882,-0.30791638925890574,0.017926230103737964,0.020435918471439107,-0.006438930738624379
592,1.0085030162828186,0.019397590987844448,1,,0.355503273963491,0.8932871000489281,-0.3063426424583072,0.014737757810299536,0.020945104417670744,-0.004893188638154796
593,1.008280953138879,0.018599993609178345,1,,0.35470158075775327,0.8933527788288086,-0.30639321624068033,0.010905021787808207,0.019243045798218446,-0.0036313593892702734
594,1.0080472761455135,0.017576951233969344,1,,0.35363284476800555,0.8922840590428328,-0.30842622655267155,0.006285980423519192,0.01484222681773453,-0.002716037605790523
595,1.007821744847145,0.016504054533033614,1,,0.35256410877825783,0.891215339256857,-0.31045923686466276,0.001666939059230178,0.010441407837250612,-0.0018007158223107725
596,1.0076238441798482,0.015557920110942564,1,,0.35417108508931383,0.8902971401998271,-0.310786694417822,0.0025345519026129305,0.008088185464823242,-0.002452201410286108
597,1.0074705087371294,0.0148858175875569,1,,0.35596982940182004,0.889389728947006,-0.3109919151949109,0.0037953926405920667,0.0058817141137704814,-0.003215979907515463
598,1.0073741207939104,0.014581403391274774,1,,0.35718167487414854,0.8887908043761032,-0.31121872776320303,0.005648673963364041,0.005530716358914755,-0.004131019804674705
599,1.007341066242053,0.014670816895036217,1,,0.357569236694192,0.8886251410615423,-0.31147586542196504,0.008334022168150376,0.007785681415313352,-0.0052585022732847325
600,1.0073710311656034,0.015110994360989914,1,,0.35795679851423545,0.8884594777469814,-0.31173300308072704,0.01101937037293671,0.01004064647171195,-0.006385984741894761
601,1.007457113751304,0.01579957699674516,1,,0.3574661418248543,0.8885760197741767,-0.31185405092665536,0.011100843570661743,0.01122791394492372,-0.006304136308325118
602,1.0075867365136129,0.016593840788987294,1,,0.3568764501012371,0.8887243855620675,-0.3119597521827218,0.010888682726626743,0.012294779188428471,-0.006085913924520021
603,1.0077432714224457,0.017334985947575474,1,,0.35651710685283994,0.8890278760500819,-0.3120744121818663,0.010766694440255577,0.013694589038768157,-0.00612433641694891
604,1.0079082179698038,0.017873844702589063,1,,0.35653132566281936,0.8895829362618716,-0.3122036008055285,0.010790941314407216,0.015634343738040936,-0.006578966518940646
605,1.008063686702934,0.018094310365356428,1,,0.3565455444727988,0.8901379964736614,-0.3123327894291906,0.010815188188558856,0.017574098437313716,-0.0070335966209323815
606,1.0081948491195483,0.017931314591680073,1,,0.3568364673522985,0.8899724498323381,-0.3131879271429356,0.010174141940919132,0.017146038213992458,-0.007226300183755999
607,1.0082919596255833,0.017380931728095697,1,,0.35717087269811115,0.8896936639341089,-0.3141571436156563,0.00942854867376266,0.016345889380679348,-0.0073778434848762765
608,1.0083515799591685,0.0165012071693734,1,,0.3572511335132234,0.8894693565528882,-0.3148563456676987,0.008933237188986228,0.014855888252370787,-0.007424226414003445
609,1.0083767545402078,0.015403549444137058,1,,0.35685305949605844,0.8893475852058847,-0.31504734357986974,0.008908990314834588,0.012067490574219816,-0.0072726831128831675
610,1.0083760734625054,0.01423583580764591,1,,0.3564549854788934,0.8892258138588814,-0.3152383414920408,0.008884743440682947,0.009279092896068843,-0.007121139811762889
611,1.0083617755005285,0.013159570485952217,1,,0.357275000768028,0.8888619687865446,-0.3142389531199089,0.00848327503253489,0.007265257049000658,-0.005822842803373766
612,1.0083472403240719,0.01232435912359396,1,,0.35834497634633805,0.8884484485236669,-0.31299528930892706,0.008004398175570056,0.005410366607889518,-0.004289224060527641
613,1.0083443543125836,0.011843528199655968,1,,0.3589963623290871,0.8881539125802445,-0.3122646695783185,0.006445770098011119,0.0029379341764071793,-0.0023691680665666333
614,1.0083612728871423,0.011774841206098117,1,,0.3587268571413031,0.8881211404512604,-0.3126627395445405,0.002511704656594758,-0.0008930818710969033,0.0004010443963813389
615,1.0084010238118157,0.012109813651438595,1,,0.3584573519535191,0.8880883683222767,-0.31306080951076243,-0.0014223607848216024,-0.004724097918600985,0.003171256859329311
616,1.008461204252927,0.012773935877372043,1,,0.3572194425882245,0.8894295730582968,-0.313223419744964,-0.003028021565776556,-0.00914806169675066,0.004553103879522317
617,1.0085347557531816,0.013638159664114165,1,,0.35573223203229287,0.8911244876153895,-0.3133254143881726,-0.004034269345818946,-0.013724671011411213,0.005577536954220067
618,1.0086115289312563,0.014539681972922963,1,,0.35506600906193597,0.8921833376721413,-0.31259507944251563,-0.0045045623742665745,-0.017360831262901305,0.0057946670424201836
619,1.008680174084998,0.015308104671491452,1,,0.3565315875816,0.8915905631811218,-0.3097034920145337,-0.0035831788924718527,-0.018554992694551232,0.003915529489534225
620,1.0087298946509902,0.01579210939738226,1,,0.3579971661018364,0.890997788689871,-0.3068119045854224,-0.0026617954103172825,-0.01974915412666754,0.0020363919359143636
621,1.0087517636846077,0.01588203235926816,1,,0.35891252127421686,0.8911010184256437,-0.30701095130982897,-0.004009420162485822,-0.018651248249957467,0.002656852938515296
622,1.0087395090419593,0.015524866250334276,1,,0.3596548889890919,0.8914230683952633,-0.30818167789184225,-0.006070409709230961,-0.016832727921442883,0.004063175174940421
623,1.00868979841039,0.014729799142502682,1,,0.3598132357205031,0.8915141598717908,-0.30894469026283616,-0.00777851942861443,-0.01434093067199781,0.005311513594783281
624,1.008602098040598,0.013564050151815762,1,,0.3581578947928409,0.8908880055976689,-0.3084415388248366,-0.0083907545028337,-0.009758259845736634,0.006069230433241911
625,1.0084782369701768,0.012140258542076036,1,,0.3565025538651786,0.8902618513235467,-0.307938387386837,-0.00900298957705297,-0.0051755890194754555,0.006826947271700541
626,1.0083219302108384,0.0105979042391705,1,,0.3560984987153669,0.8902795032103955,-0.3074698059086974,-0.006418720809714678,-0.002816381539042959,0.004493829646285074
627,1.0081386080632186,0.0090820825012365,1,,0.3561658780505202,0.8905397155349051,-0.30701424901016255,-0.002630137113758024,-0.0012948862070533747,0.0009962090916574484
628,1.0079358197969028,0.0077232919082246675,1,,0.3564370945627159,0.8908842056333581,-0.30682625392532137,0.00038395701989250635,0.0001949196814376426,-0.0020742380041357737
629,1.007724186613512,0.00662155978075022,1,,0.35747925231534816,0.8915474462783389,-0.30765021573438606,0.00046882130188985357,0.0015648715804160304,-0.0035290542272212594
630,1.0075184832235617,0.005837148841662767,1,,0.3585214100679805,0.8922106869233198,-0.30847417754345074,0.0005536855838872008,0.002934823479394418,-0.004983870450306745
631,1.0073381264121413,0.00538847644599065,1,,0.3577784784784658,0.8915729822210536,-0.3102599613638033,0.00015204699911545207,0.0046402945751679095,-0.005004341971629718
632,1.0072063260226745,0.005256250687253831,1,,0.3562405784725989,0.8903559169019023,-0.3124740812360682,-0.00046624988079856176,0.006495185175183771,-0.004386045051989524
633,1.0071474903772168,0.00539172682876878,1,,0.35500171273660247,0.8890882166129289,-0.31406724884498044,-0.0006462577049749784,0.0077762770811346735,-0.00389055377265448
634,1.007183091952082,0.005726671271448677,1,,0.3551760248144985,0.8875812253022596,-0.312725916797929,0.0012450033254468827,0.0063457079308317284,-0.003975418070542299
635,1.0073268618341678,0.006183016779501975,1,,0.35535033689239454,0.8860742339915902,-0.31138458475087755,0.003136264355868744,0.004915138780528784,-0.004060282368430119
636,1.0075806182683906,0.0066810298965622825,1,,0.35628130475705055,0.886974548978703,-0.31006844881954665,0.0020865346172846363,0.001232998073971534,-0.003519488711882102
637,1.007932037446428,0.007145730096197581,1,,0.3576065707641081,0.8891293265867547,-0.30876544274435147,-0.0004957641141370577,-0.003622450889325577,-0.0026526607164318104
638,1.0083551978368561,0.007511940099877981,1,,0.3587083613991838,0.8910085519955948,-0.30798078577452087,-0.003038973800236438,-0.007527016897717273,-0.0016379742485551788
639,1.0088139435408188,0.0077284906408472505,1,,0.3584394760056809,0.8911976905249224,-0.3103753994637213,-0.005342432604938313,-0.005599385556067952,0.00028359543414550187
640,1.0092673364529277,0.007761822323393882,1,,0.3581705906121781,0.8913868290542499,-0.3127700131529217,-0.007645891409640189,-0.0036717542144186328,0.0022051651168461823
641,1.009675978762559,0.007598835080462235,1,,0.3569532958889626,0.8920130205972567,-0.314455727308173,-0.006875544341735128,-7.082459367871942e-06,0.00218955730352319
642,1.0100078779009738,0.007248613919808646,1,,0.3551619688888342,0.8929037419468456,-0.31571237439102423,-0.004244751863037618,0.004708946796947646,0.0010014574291205161
643,1.010242728229252,0.006742647635080213,1,,0.35354107165344695,0.8936795797700504,-0.3165902595874763,-0.001772250194212647,0.008733495070059454,-0.00018023391385667517
644,1.010373889519948,0.006133232060780347,1,,0.3533618133741307,0.8934836356564592,-0.3142642567201054,-0.0006387059474754386,0.00690891292369151,-0.0013077164793985833
645,1.0104078631715885,0.0054898461283930675,1,,0.35318255509481444,0.893287691542868,-0.31193825385273444,0.0004948382992617698,0.005084330777323567,-0.0024351990449404913
646,1.0103616092761787,0.00489346130752771,1,,0.35423171585774427,0.8925279224226171,-0.31094543215148457,-0.00024799973429346235,0.0041801035654648235,-0.0025709814457051485
647,1.0102584831375494,0.004429025802346062,1,,0.3561398680041554,0.8913738897767649,-0.31088485840059493,-0.0023029276618161424,0.003919449052578907,-0.002013301870348774
648,1.0101237721859557,0.004176675252127736,1,,0.3579143841682609,0.890340321214878,-0.3108940534797787,-0.004111646542912867,0.0035788845853927365,-0.001434025015631475
649,1.0099807300091719,0.00420247572353923,1,,0.3579471481953588,0.8908768281076633,-0.31181258455350724,-0.0027113858859840203,0.0021968092072287785,-0.0005732587983083639
650,1.009847683617864,0.004549708819216093,1,,0.3579799122224567,0.8914133350004485,-0.31273111562723577,-0.0013111252290551735,0.0008147338290648204,0.0002875074190147475
651,1.0097363621023,0.00523186660501499,1,,0.35810547921841435,0.8919118454237634,-0.31298219923317705,-0.0019728969355929885,-0.0016017161524112967,0.00011725748938595467
652,1.0096512234726784,0.006228512687614386,1,,0.35830574974312185,0.892379769860613,-0.3126960082054345,-0.004294541120782851,-0.0048508057990418445,-0.000882928651570886
653,1.0095893889146752,0.0074848393958823235,1,,0.3584903727683405,0.892718056151253,-0.31239612554145024,-0.006529423471712339,-0.007799463069788962,-0.0018099582842015655
654,1.00954090371145,0.008915187344428782,1,,0.35826537529145225,0.8896626728923102,-0.31173782299600344,-0.006493053081032519,-0.002883396603303311,-0.0008218956240193431
655,1.0094893848677264,0.010410298979870003,1,,0.358040377814564,0.8866072896333673,-0.3110795204505567,-0.0064566826903526995,0.002032669863182341,0.00016616703616287903
656,1.009413486742729,0.011847834805621162,1,,0.35782405178039506,0.8868324899515456,-0.3119219710263391,-0.004593630573163041,0.007153450476570539,0.0003070273090033952
657,1.009289703936204,0.013105486176911239,1,,0.3576157441887248,0.8900912305497953,-0.3141521609895409,-0.0010414544126525964,0.012463529303502302,-0.0003355165006789103
658,1.0090966184784265,0.014075531055043318,1,,0.3574062161642001,0.8933406227619374,-0.31637115959423145,0.002506835919267015,0.017763109329072144,-0.0009803918075897992
659,1.0088199350072857,0.014678904057448353,1,,0.3566743565955036,0.8925890107951042,-0.3138003825461776,0.0043920352907402364,0.01856932037750042,-0.0026231217224753824
660,1.0084570276711946,0.014876245973905064,1,,0.35594249702680714,0.8918373988282711,-0.3112296054981237,0.006277234662213458,0.019375531425928696,-0.004265851637360965
661,1.0080196771305836,0.014673495720142857,1,,0.3553599622305209,0.8913655300837423,-0.30975748406785053,0.00553652871406677,0.017447036797813013,-0.0035973144661815993
662,1.0075341961323345,0.014120583449695093,1,,0.35493592571957866,0.8911905901096792,-0.3094515122910537,0.0020085994277079643,0.012615834510036639,-0.0004755214540588909
663,1.007038861799005,0.013303396188966112,1,,0.35451188920863635,0.8910156501356158,-0.30914554051425697,-0.0015193298586508412,0.007784632222260266,0.0026462715580638178
664,1.0065791577828205,0.012330793308115076,1,,0.3544821103326145,0.8890244102958731,-0.31048299763218734,-0.0013980121642407093,0.009389481364318894,0.00011818549034814197
665,1.006201689096438,0.011319385560633355,1,,0.3544654204473965,0.8869728709705355,-0.31187501507823107,-0.001155542826831612,0.011208001494202577,-0.0025974713667170106
666,1.0059478108526405,0.01037876125167373,1,,0.355322541169561,0.8862458145700025,-0.3116662089504529,-0.001587787415402778,0.010715558033729531,-0.0035648814755219298
667,1.0058480198561635,0.009599137371083418,1,,0.3572449121259516,0.8871334166938186,-0.3095058612957569,-0.0028425662712552643,0.007405851329806726,-0.0024010285367797213
668,1.0059179652452346,0.009042631005741009,1,,0.3591672830823422,0.8880210188176346,-0.30734551364106094,-0.004097345127107751,0.00409614462588392,-0.001237175598037513
669,1.0061565735793574,0.008738831735362423,1,,0.35867103393945826,0.8881730325889121,-0.30755532286000725,-0.0033887812516429847,0.005454328140653539,2.852221523699207e-05
670,1.0065463832256318,0.008684978424990275,1,,0.358002223247833,0.8882725642587681,-0.30793423591671565,-0.0025401385508480537,0.007145552121651844,0.0013014863657448393
671,1.0070558713658764,0.008850513824989447,1,,0.3582466380855531,0.8882982538792759,-0.30927602232266116,-0.0011844275662992753,0.009005798781236689,0.0015325639902976636
672,1.0076433599483314,0.009185059978316019,1,,0.359772170562398,0.888220354245115,-0.31196857476866147,0.0008826237188468639,0.011103158758387828,0.00030203200859681606
673,1.008261945840731,0.009628172036022942,1,,0.36129770303924286,0.8881424546109543,-0.3146611272146617,0.002949675003993003,0.013200518735538966,-0.0009284999731040314
674,1.0088647804499227,0.010118899712614614,1,,0.3604627991780803,0.8891108839662621,-0.31464762665171353,0.0004939394651361568,0.01223546138540517,0.0008053005891391418
675,1.0094099688102105,0.010603389881387185,1,,0.35936253469885393,0.890196941788338,-0.3143299111911189,-0.002470248467739093,0.01092612660586042,0.0028723518742852804
676,1.0098644338260296,0.011039458290383755,1,,0.3571752769946145,0.8913139098034071,-0.31466764627327115,-0.00479813596467422,0.009329878276785112,0.003976854104450016
677,1.0102063055240587,0.011397991572668189,1,,0.35322731292448734,0.8924809459995112,-0.31606707697282244,-0.006095347094547895,0.007268888768562331,0.003522224033155783
678,1.0104256871379382,0.011661871859534935,1,,0.3492793488543601,0.8936479821956151,-0.3174665076723737,-0.007392558224421569,0.00520789926033955,0.0030675939618615496
679,1.0105239415779903,0.011823586899592144,1,,0.35253021979584864,0.8931509970451236,-0.313553382957221,-0.008553523341262883,-0.0008775893577345484,0.002419075300410113
680,1.010511875313743,0.0118827004320914,1,,0.35690963757517274,0.8923931466260488,-0.3088074196502106,-0.009693129445579632,-0.007593990579996161,0.00174016111593846
681,1.0104073296708758,0.011843965174542953,1,,0.3608204910509862,0.8918022964684946,-0.30564765639287333,-0.010205471617722993,-0.00982061393446272,0.0018842676006153825
682,1.0102326850343046,0.0117162779002396,1,,0.3638505356613758,0.8915253740040517,-0.3054696377021194,-0.009538680790874799,-0.0036073366816746625,0.003575491303530425
683,1.0100126332666792,0.011512215167589043,1,,0.3668805802717655,0.891248451539609,-0.3052916190113655,-0.008871889964026606,0.0026059405711133937,0.005266715006445467
684,1.0097723419199864,0.011247734905716275,1,,0.36364471885221117,0.891828858598317,-0.30490581441633796,-0.009407586048316237,0.003294822645091074,0.006238459318505504
685,1.009535948755431,0.010941687757102348,1,,0.3591256083539894,0.8925848455836052,-0.3044774555491997,-0.01018954982533107,0.0028523160596275188,0.007062855224601156
686,1.0093252830218014,0.01061486092379869,1,,0.35592874140615255,0.8929928143878917,-0.3052010075286425,-0.009746694659345094,0.003338851682389158,0.006802736556634225
687,1.0091587813716358,0.010288364736791277,1,,0.3556369884394492,0.8926361491103558,-0.30845543387131125,-0.006612778052465803,0.005866594846666997,0.004159820521687088
688,1.009050630592279,0.009981391201588917,1,,0.3553452354726318,0.892279483832681,-0.31170986021525104,-0.0034788614443625535,0.008394338011932052,0.0015169044857077547
689,1.0090101528305966,0.009708723376966348,1,,0.35625728213840246,0.8917959396322439,-0.3105380491115138,-0.00245234137076513,0.008375844518963612,0.0009283383213456413
690,1.009041396475816,0.009478668689967459,1,,0.357478694119408,0.8912797887281043,-0.3082287361293609,-0.001967402616494575,0.007702991874262057,0.0008677209770618219
691,1.009142888832773,0.009292143739635574,1,,0.35874328762622437,0.8911367972366343,-0.30665315619258304,-0.0020004025415658214,0.007337190857325282,0.0007429939633049521
692,1.009307546245228,0.009143415138371407,1,,0.36011985072466934,0.8919614071965813,-0.3069801442617369,-0.0033764162051644875,0.007767573965986838,0.00045203073219475634
693,1.0095227526065707,0.0090225779893614,1,,0.36149641382311426,0.8927860171565284,-0.3073071323308908,-0.004752429868763154,0.008197957074648394,0.00016106750108456046
694,1.0097705859191253,0.008919351543978247,1,,0.3604779369221241,0.892636298935382,-0.3073810176743611,-0.004573690729427083,0.008628340183309949,0.00024379856303300028
695,1.010028179653249,0.008827337138017378,1,,0.35870763431553926,0.8921807298840181,-0.30737545167865976,-0.00390689998203125,0.009058723291971504,0.00044383579758055716
696,1.010268339689317,0.008747656203345706,1,,0.3574449985039046,0.8918832853087185,-0.30705334630416653,-0.003002120836232505,0.00949058460984083,0.00042510108547114036
697,1.0104607467589832,0.0086909277499503,1,,0.3577565281745167,0.8920761507056191,-0.3057497204346901,-0.001359390881620741,0.009927029536355747,-0.00027199835392969287
698,1.0105741718856716,0.008676819677408968,1,,0.35806805784512885,0.8922690161025195,-0.30444609456521377,0.00028333907299102264,0.010363474462870663,-0.0009690977933305261
699,1.0105799518670997,0.008730842565476437,1,,0.3585682313580008,0.8935052390129552,-0.3054349028822714,0.0011288360934329764,0.010319817786869351,-0.0010891943598387156
700,1.0104565025368146,0.008878596080609605,1,,0.35913937786449956,0.8951340016706281,-0.30728618789065076,0.0016743921919873512,0.010095533704389434,-0.0009922066010393685
701,1.0101940559719216,0.009138299514497156,1,,0.3592044511449542,0.8962346861482828,-0.3086156080521345,0.0017604685813358309,0.009141413064244389,-0.0007822528435181818
702,1.0097983763674463,0.00951308998164859,1,,0.3573587321322761,0.8953414937231073,-0.3079746111352439,0.00011167688832306694,0.005431631784760306,-0.00014577077223687631
703,1.0092922063176717,0.009985113318504869,1,,0.35551301311959804,0.8944483012979322,-0.3073336142183533,-0.0015371148046896968,0.0017218505052762226,0.0004907112990444292
704,1.008713698959077,0.010513580996535217,1,,0.35606320725249735,0.8927173865903064,-0.3065052240052318,-0.0024222901937040056,-0.003519359175651427,0.001580328355021415
705,1.008111907558268,0.011038379929514274,1,,0.3576789866698984,0.890613893879039,-0.30559349039577444,-0.002967846303092794,-0.00944167350006686,0.0028714777463737066
706,1.007540191411963,0.011489392629852348,1,,0.3590125515900377,0.8889047453577197,-0.30458865941903257,-0.003612017115813262,-0.014406470603404373,0.004102185848620668
707,1.007048883484945,0.011799823354274647,1,,0.3590150226652763,0.8890555619661341,-0.3031447250873204,-0.0047213143692202905,-0.014855038768364207,0.005047816363831599
708,1.0066786534820376,0.011920345259190016,1,,0.35901749374051484,0.8892063785745483,-0.30170079075560824,-0.005830611622627318,-0.01530360693332404,0.005993446879042529
709,1.0064557362961768,0.011830471590664424,1,,0.3586878232027149,0.8895450279471272,-0.30186471554339056,-0.004994357163785146,-0.013710940677126526,0.006073944706629225
710,1.0063897047267987,0.011544335477938672,1,,0.35818528751804574,0.8899814360380346,-0.3028654605055899,-0.0031455283418964646,-0.011055901402702274,0.005704178902525309
711,1.0064738966157336,0.011109631081807169,1,,0.3577303320161537,0.8904372874885713,-0.3039119613774913,-0.0013639652899390569,-0.008661410535357605,0.005241603360775075
712,1.006688092459034,0.010600206185747809,1,,0.3575665280844362,0.8910121163022697,-0.30523845076933925,5.986595532429543e-06,-0.007861261543139772,0.004211108587402506
713,1.0070026743425358,0.01010415999051914,1,,0.3574027241527187,0.8915869451159683,-0.30656494016118707,0.001375938481003916,-0.00706111255092194,0.003180613814029936
714,1.0073833364915614,0.009709985288916496,1,,0.35702588474742336,0.8918451278944677,-0.306792739511958,0.0018845340620556698,-0.006956093281726697,0.002958585055673259
715,1.0077954799544768,0.009493287216120756,1,,0.3565202581932344,0.8919118874353398,-0.3063563435738798,0.0018724106249798501,-0.007271303440221613,0.003225301346686356
