id,ASVM,GSVM,walking_nonwalking,normal_abnormal,ax,ay,az,gx,gy,gz
1,1.0786461211512528,10.931936310935601,1,,-0.4193326977102273,0.4393590573743328,0.8958137590308617,-3.0072415,10.488594,-0.12463594
2,1.0705088786473373,11.000785802756582,1,,-0.2567235015394542,0.3182516269250742,0.87178642951507,-3.0072415,10.488594,-0.12463594
3,1.0662967048459642,11.00594599192352,1,,-0.3268222396057678,0.29971131567113757,0.7678392549754811,-3.0072415,10.488594,-0.12463594
4,1.0687385351165597,10.891740160506371,1,,-0.5133036086754558,0.2037744179238072,0.52367260746066,-3.0072415,10.488594,-0.12463594
5,1.0790706786334088,10.61697459779406,1,,-0.7162235503121279,0.054642946358931604,0.5002499194601705,-3.0072415,10.488594,-0.12463594
6,1.0966992326621747,10.160467108610906,1,,-0.8241811269327365,0.050300954241367934,0.5130789096078664,-3.0625996211071236,11.138537191459061,-0.3122377408440435
7,1.1192542433345598,9.524297586072363,1,,-0.9109514511593986,0.010085616659713702,0.6356799472317952,-3.064766,11.163972,-0.31957933
8,1.143020173861074,8.734125179509329,1,,-0.8984344699270833,0.1405543416241667,0.2968200263022994,-2.639183457630501,10.261374260199574,-1.367399156885993
9,1.1636466604478826,7.836219167473862,1,,-1.262049102557052,0.23125423786253577,0.10701981702763946,-2.6152241,10.21056,-1.4263891
10,1.1769831534968818,6.891382169533208,1,,-1.7275241143071296,0.017337204521007597,0.017548267781553627,-1.7496862391210144,3.3644010767615216,-0.9406986525639923
11,1.179849298303406,5.966631011988568,1,,-1.5471506850557593,-0.013491690261382154,0.11542761436343163,-1.6831179,2.8378644,-0.9033443
12,1.1705642351632495,5.126104221609446,1,,-1.2151262309727133,0.004774990212060772,0.2725704996912083,-1.6831179,2.8378644,-0.9033443
13,1.1491256777020533,4.422877125695157,1,,-1.0857710928317748,0.0752171465155858,0.19697606008214685,-1.8148584829915095,1.9912371546886818,1.6520367613215132
14,1.1170389222830264,3.893048655333918,1,,-0.8080528546653102,0.05274957886570968,-0.013809761828528399,-1.8279938,1.9068234,1.9068234
15,1.0768995589816146,3.5527892902534544,1,,-0.8152384925327636,0.035769477617509836,-0.08782026335590075,-1.3394762684766583,2.8551784911519107,2.4546132144635973
16,1.0318848591424448,3.3983287568983798,1,,-1.007601846133624,0.17047350777937728,0.06032329442968168,-1.2836437,2.9635658,2.51722
17,0.9852943123609206,3.4083478176336843,1,,-0.9943429031232242,0.32197150940940344,0.006319411025169633,-1.1855985541967307,3.3416052266314193,1.681007985106688
18,0.9402227735223095,3.5479975171433056,1,,-0.7340338990660213,0.25706662184940293,-0.24931909291517648,-1.1728562,3.3907368,1.5723304
19,0.8993878651485341,3.7737699982677815,1,,-0.51735404252426,0.27693451561862753,-0.5195644118558534,-1.0893317598138883,3.348974667026095,1.5890351486465815
20,0.8650899795065818,4.038591857517911,1,,-0.7144822626061667,0.3133864159555513,-0.6055571423926317,-1.0769824,3.3428,1.591505
21,0.8392569982204883,4.296690356064282,1,,-0.8036184913389499,0.26845409830231437,-0.5187292392439637,-2.635999936079339,2.27668012767088,1.1670652546585092
22,0.8235089456916183,4.507910054213372,1,,-0.747673875114244,0.2580395752609401,-0.3642844860973882,-3.9328784742124503,3.0855992754436863,0.4171822380485822
23,0.8191745161264402,4.641200269484345,1,,-0.9669291940233508,0.343279840282939,-0.20505267141463182,-4.125769,3.2692966,0.2908172
24,0.8272107436228783,4.67698138694497,1,,-0.8976823649132764,0.2583357890855105,0.21384353832316666,-3.959170251537886,4.290045543413658,0.4106978926782393
25,0.848018133833094,4.608113883341382,1,,-0.4814334460583537,0.44267493178945694,0.27588441597351054,-3.9244342,4.502873,0.43569317
26,0.8811950698542192,4.439325824342021,1,,-0.3358384287621325,0.5237477257890025,0.12013494870073188,-2.8690878728098332,2.382656721708032,-0.1261770885420248
27,0.9253191124866141,4.185220557097462,1,,-0.5118845242599174,0.4336178899084094,-0.14043679470342577,-2.625877,1.8940402,-0.25566345
28,0.9778566984063571,3.867295013555492,1,,-0.8149070875957827,0.38372788047780304,-0.11152961825770155,-2.625877,1.8940402,-0.25566345
29,1.0352737490801895,3.5105954865948665,1,,-0.9296981963242347,0.5563691885699384,-0.02458448038735771,-1.8337215379115595,1.9894703626189392,-0.7480158475022504
30,1.0933590502822583,3.1406208436659835,1,,-0.7515444912569235,0.7317589559686232,0.028874973878464726,-1.6266588,2.014415,-0.8767126
31,1.147708841982098,2.7808833878900496,1,,-0.872575329491893,0.761593359960803,-0.006804170168729202,-1.1729776529511955,2.6812517296569767,-0.9281353562802761
32,1.1942780380473075,2.451272467627236,1,,-1.1034486214044845,0.7675564443277071,-0.1487546447544625,-1.0439591,2.8708878,-0.94275904
33,1.229886006772319,2.1671501398020774,1,,-1.218315759814689,0.8552196043254638,-0.3938163610873843,-0.1902956773365667,2.0563606785250386,-0.9933102398501588
34,1.2525705158005889,1.9390102354393683,1,,-1.137648211620203,0.8433647315144417,-0.47916180265997493,-0.10179939190682526,1.4176553646842327,0.19695576664605058
35,1.2617153712400087,1.772554511214949,1,,-0.8522959547275119,0.7490399962884482,-0.307122425554275,-0.15765914,1.2921658,0.5858955
36,1.2579368769892303,1.6691107837572705,1,,-0.7337275883917854,0.7389198688906558,-0.1740927744582254,-0.15765914,1.2921658,0.5858955
37,1.2427843115252348,1.6263445049363419,1,,-0.7085976126984224,0.8255756578535606,-0.28778259191876965,-0.17258629204955564,1.5160730438680134,1.2686161073372413
38,1.2183575311734403,1.6391658105979263,1,,-0.6475315783403777,0.9152519125962212,-0.3686426557789079,-0.17789917,1.5957662,1.5116103
39,1.1869491763964786,1.7006615524924107,1,,-0.5237688837145471,0.8723964983500101,-0.4117310307213491,0.1506597044876855,1.266436013114003,1.4892435219513536
40,1.1507874278791137,1.8028633390186939,1,,-0.37880095640987876,0.8469322254443505,-0.5522267414285189,0.2759035,1.1408982,1.4807175
41,1.1119115168827673,1.9372284462774685,1,,-0.34484494024459555,0.7847196139812493,-0.6464100791292295,0.03650832878029431,0.4249854690921157,1.7958706917083636
42,1.072172522887684,2.0948257310914284,1,,-0.370383521880889,0.7289149154792856,-0.7299337247226613,-0.060720075,0.13422333,1.9238676
43,1.0333202144879596,2.26632124122944,1,,-0.3830112883551148,0.7573694213680776,-0.7760163925486518,-0.6548130592460033,-0.17175690112752914,2.025860917193669
44,0.997114643520151,2.441907581078092,1,,-0.4497873672038405,0.8496684587435567,-0.6390108951968487,-0.9108011,-0.30360037,2.0698087
45,0.9653948277366238,2.6113146058891092,1,,-0.44189912289519206,0.8718129114632985,-0.3976704739259052,-1.4910079667709992,0.009155963291643626,1.9813894045650278
46,0.9400516780816107,2.7639961201974135,1,,-0.3315097184672486,0.8078755964759357,-0.38770690757553317,-1.3779055107528686,0.7395223031906567,2.271296175586818
47,0.9228860332370434,2.889529925442644,1,,-0.2497895454909387,0.7565533041925401,-0.47606304638670993,-1.1973573,1.019458,2.428803
48,0.9153734528286358,2.978213756537393,1,,-0.07252789160231518,0.7467449994940434,-0.3805771784495111,-1.1373888838060975,1.279791205432534,2.502175954249923
49,0.9183904088447675,3.021799349649481,1,,0.148208658222125,0.757820123871561,-0.2166815276969318,-1.1068097,1.4125407,2.5395904
50,0.9319716563941836,3.0142876090818524,1,,0.14124541715780756,0.7834644629473135,-0.16069452056545713,-1.1068097,1.4125407,2.5395904
51,0.9551629850005676,2.9527090841000887,1,,-0.12087994222440027,0.8971602101518953,-0.47517213445507567,-1.3010388452497113,1.1410303176790157,1.9596388048392241
52,0.986010976696385,2.8378262483249252,1,,-0.04218258803928528,0.909046191363479,-0.4913492841423679,-1.4093449,0.9896307,1.6362462
53,1.0217024430530905,2.6746963648272626,1,,0.2984071202034023,0.8373388677956786,0.00887754332233477,-2.0853830245131966,0.6379036253079021,1.6469451028527469
54,1.0588433790914586,2.4730025706496024,1,,0.23917967862188547,0.8584116041332128,0.1693765728897855,-2.4863272,0.4293016,1.6532904
55,1.093852867986353,2.247000036646074,1,,0.08587258319958532,0.9577542147316859,0.007910394522536371,-2.6796140219842184,0.12397401081718698,1.2391980891553618
56,1.1234301317835762,2.014884083602668,1,,0.051615262281755184,1.2200612368457908,0.28940641479309137,-2.8005803,-0.06711166,0.9800433
57,1.1450239843476215,1.7974352345573992,1,,-0.13647297709159137,1.4490478441186974,0.6049149341621823,-1.758275927365809,0.19586973778752267,0.2924431506485172
58,1.157205305994204,1.6159567351582644,1,,-0.2325963454186389,1.3501122635074227,0.2250734991940982,-1.0695255,0.36964676,-0.16192019
59,1.159843644004078,1.4897413268177337,1,,-0.14469277247695786,1.11657289162678,-0.3093126221017166,0.3666472042772242,0.5026024720408584,0.05758218311272082
60,1.1540365625105904,1.4334815948740722,1,,0.16605565527074673,0.9442024432481898,-0.39048439198662804,1.3699301,0.5954828,0.21092236
61,1.1418184215748506,1.4550851483666989,1,,0.3462599849364686,0.8356309819296636,-0.2829221992431564,0.5630295690609847,0.40234173564268644,0.7535568312591322
62,1.1257420535488856,1.5542671450645438,1,,0.21546288649765138,0.8293890235632053,0.08439730773542566,-0.03195793,0.25992453,1.1536814
63,1.1084483931764273,1.7221351879959448,1,,0.038414349773345235,0.9955883562207325,0.567514873687434,-1.5198930767663899,-0.35011090452490706,0.2643959660384181
64,1.0923118117667026,1.941823249698937,1,,-0.02542658381499753,1.2010906059428348,0.5601205079853607,-2.6770096,-0.8245147,-0.42717105
65,1.0791970385763894,2.1901045714248086,1,,0.1752880701990958,1.058385341593314,0.3569856958198779,-1.1589179648902377,-0.9293115941572029,-0.4412220346741727
66,1.0703222570271396,2.439834928065808,1,,0.3769526410475203,0.7715916920933363,0.14629615524872708,0.08522116,-1.015197,-0.4527374
67,1.0662127876403482,2.663039199391734,1,,0.17380470413793006,0.8203732288723721,-0.27848830639137173,1.712453221682864,-1.3649918618173045,-0.6927927031118499
68,1.06673901551181,2.8343943481782348,1,,-0.13656822711936487,0.9981934029066548,-0.4834132670779645,3.1197194338075787,-1.6496716187142741,-1.4421961081612518
69,1.071231700593009,2.9347255286643574,1,,-0.2693095761467974,1.0870456886615891,-0.4820820658027232,3.1212249,-1.6341157,-1.9249328
70,1.0786469864298214,2.9539767537205655,1,,-0.32055193440542185,1.1307524153929855,-0.5952499881731682,3.1212249,-1.6341157,-1.9249328
71,1.087732989854757,2.893087566573545,1,,-0.04016397752259435,1.028918373724073,-0.46990521756759196,2.823990508079986,-0.8764383951222873,-0.8440807775143342
72,1.0971560509099538,2.76437906811296,1,,0.3154382050630151,0.8072433665570675,-0.2757296052484215,2.5353293,-0.14061491,0.20559604
73,1.1055787965340127,2.5903535366931334,1,,0.27962565043466137,0.6951445454242209,-0.466965497994157,2.3840707807440285,-0.17842955953504777,0.9009653968994565
74,1.1117176877226937,2.401095630581429,1,,0.04720521433829489,0.7798376088473779,-0.864792728158569,2.222324620193741,-0.40202033105487683,1.1539814462997957
75,1.1144160010315989,2.23063488497717,1,,0.006367666249942612,0.8524926484595187,-1.0112889416329425,2.21575,-0.59761333,0.664725
76,1.112747014940852,2.112695260239652,1,,0.22011648406762674,0.761086210018277,-0.7326556512444222,2.21575,-0.59761333,0.664725
77,1.1061368671616905,2.076282398012831,1,,0.3476191582385731,0.6620400618155132,-0.5170294067105334,1.8787474149729424,0.06599977378029472,0.7612235645760624
78,1.0944890592813743,2.141593894585803,1,,0.3175658828124703,0.6140331378950346,-0.7931678920750364,1.258775979234734,0.7919119197273097,0.9250939721871322
79,1.0782965852770652,2.316784198656703,1,,0.3333480188363962,0.5147541525550124,-1.0370866211088388,0.98430437,0.7456851,0.98750013
80,1.058723514838846,2.5961334349803282,1,,0.43771634895409556,0.4214953450207367,-0.866967388031777,0.039228770291268505,0.24343685992207142,0.6210711274458565
81,1.0376231280730657,2.960095809449675,1,,0.32201695592313684,0.47332495248206424,-0.9402258926070065,-1.1504856,-0.3888215,0.15978967
82,1.0174505294671812,3.3774746748324915,1,,0.07101481682744164,0.5461761551082398,-1.3060060439907564,-2.7621096689838804,-1.003771361828371,-0.03790533164475287
83,1.001038320309008,3.8095664059264966,1,,0.13523823874255855,0.4466813840765004,-1.1039597326659183,-4.919391,-1.8269285,-0.30253512
84,0.9912392533072503,4.215617219572498,1,,0.29525676438690446,0.41725145880964665,-0.17775850651601163,-4.919391,-1.8269285,-0.30253512
85,0.9904949393714356,4.558538609907883,1,,0.19889894888360216,0.5717811734940381,0.3177899644991561,-6.011787495077291,-1.557718514291166,-0.4148860150529814
86,1.0004391226475076,4.809717118823855,1,,0.03916446810291984,0.6490187656085209,0.23189023513448695,-6.624164667470356,-0.7433197031537043,-0.9486014596931728
87,1.0216471135248766,4.95198681965808,1,,-0.0535745730517213,0.7820352054726635,0.5001898878961515,-5.128183,-0.10759171,-1.5073493
88,1.0535818565328865,4.9803176171294625,1,,-0.3630872328819443,1.3574439548919062,0.6241764680242214,-5.128183,-0.10759171,-1.5073493
89,1.0946936219943042,4.900353275103905,1,,-0.5075424068913749,1.619943186921026,0.3240924243445742,-4.054956409387172,-0.029248164697578093,-1.496157329364194
90,1.142567058355354,4.725448354767142,1,,-0.17169161439613323,1.0854677177549712,0.05016882899346918,-2.267948,0.101200126,-1.4775218
91,1.1940241620885508,4.473165363696068,1,,-0.13879652969666695,0.855735839808458,-0.3305215864822864,-2.3702833097989084,-0.04169029176866942,-1.063632315325339
92,1.245177420251679,4.162212789172675,1,,-0.1606122788838003,0.7784203286333055,-0.14145752629075856,-3.1304561448542962,-0.03282226783040111,-0.33050294421676263
93,1.2915193309343524,3.8105154499006164,1,,-0.12610904364616193,0.7443315269156103,0.6114738358308341,-4.2514706,0.4889564,-0.36218992
94,1.328161610429705,3.434605561990269,1,,-0.23537941621726696,0.9368310279751441,1.14870902911427,-4.2514706,0.4889564,-0.36218992
95,1.3502822017129785,3.050010326889611,1,,-0.3520451946112777,1.0502098672771736,0.9624440043051012,-4.072896560689223,0.47168618662448064,-0.41607297354009504
96,1.3537445798831615,2.6720035040149046,1,,-0.20729485323153585,0.7866638096757407,1.0245377325814178,-3.7007287,0.43569317,-0.52837116
97,1.3357812903265314,2.3160807652248105,1,,-0.10246734668007203,0.6623205896037733,1.2878237252947515,-3.1114519005289707,0.31829946971432094,-0.386575404650075
98,1.2956091606673243,1.9977614784998983,1,,-0.12359324780124448,0.6807376059117556,1.1938734000110345,-1.3300260954495564,-0.1696594759147105,0.030010454166489432
99,1.234855466393643,1.731679100058565,1,,-0.22910327582546597,0.8944396321291762,1.15015049242307,-0.2545982,-0.69029135,0.2609898
100,1.1577025229735622,1.5302439074328331,1,,-0.08352623985293242,0.8680651212788241,0.8976110596219554,-0.2545982,-0.69029135,0.2609898
101,1.0706968173434637,1.4023143779429272,1,,-0.052913031329130916,0.8301988169394423,0.5649236467242306,0.1829067325477284,-0.7167521246046912,0.407426169555837
102,0.9822175422194275,1.352247683998329,1,,-0.17693147142213814,0.8702405459701957,0.4764975247877847,1.2953615,-0.7840346,0.7797736
103,0.9016489420829417,1.3794815260921738,1,,-0.19508223846702524,0.8230935128249698,0.5357201148751625,1.4604523155303233,-0.7247638298175757,0.8688243093895924
104,0.8383378821783117,1.478565847421056,1,,0.08940433454604158,0.7495284793224262,0.3327918049334915,1.8138040021837885,-0.6201709793230717,1.1211508068501705
105,0.800439886993022,1.639435102583373,1,,0.11593744274094492,0.8511880794835733,0.3646947846819678,1.5648735,-0.77125144,1.1579424
106,0.7937729059300251,1.8477379505284823,1,,0.2128861840056797,0.7533527632103433,0.41062472579776593,1.5648735,-0.77125144,1.1579424
107,0.8208174533262084,2.0851918150987885,1,,0.14825147291496482,0.584870450950713,-0.11747893158817928,1.4127451423158963,-0.7372735495287968,0.959737957566517
108,0.8800241384260313,2.3301254734995682,1,,0.27693553679199445,0.2736216941401033,0.034180966019171026,0.4154448232436517,-0.4731496532119046,0.07011150106523706
109,0.9656010331188833,2.558515891342325,1,,0.49702070477781507,-0.03429537668974222,0.40347103758094793,-1.2729911,0.03834952,-0.79894835
110,1.0679285469564959,2.745821618690762,1,,0.45899922790735936,-0.1803568746671492,0.29000519704832967,-1.2729911,0.03834952,-0.79894835
111,1.1746673505069811,2.869708248864518,1,,-0.08314016915515482,0.026738897201039107,0.4416713427466217,-1.7897421523132526,0.08435849543038665,-1.3537757798525982
112,1.272484657873694,2.9133815399412497,1,,-0.3573609352085026,0.3982613599254431,1.2540496670707069,-3.8593574378504156,0.1294289116355263,-3.4959648705283586
113,1.3491470412261444,2.868825779217144,1,,-1.2064014001099332,1.546956241000633,1.825693444611909,-4.463458,-0.350472,-3.8381479
114,1.3955626457864452,2.7390006831245177,1,,-0.3430399122605201,2.181568977045835,1.4408828660623532,-3.7221709569086885,-0.38357246164213443,-3.28218260089851
115,1.4072871335337134,2.538178739836201,1,,-0.6838453398296352,1.2111602414037377,1.0097024918318631,-0.59867865,-0.5230448,-0.9395633
116,1.3851138460268981,2.2901336875577614,1,,-0.3899939638613441,1.2130974770924068,0.38512883935369724,-0.59867865,-0.5230448,-0.9395633
117,1.3346334193918203,2.02457712920189,1,,-0.11408880043216174,0.6121346463147453,0.572486657434595,-0.4634092463742255,-0.6155784966458947,-0.7639122637909751
118,1.264945133365733,1.7727194034831775,1,,0.04317979689121527,0.47314999565605154,0.8604025471118891,0.19707392,-1.067395,0.09374327
119,1.1868940400251995,1.5629094583707548,1,,0.05428854657936038,0.4442004947877737,0.8198175449359698,0.10229241370202902,-1.1310245356626007,0.04784383426323958
120,1.1112457010451633,1.4170749051533469,1,,-0.00728943377374281,0.42641001000460077,0.6689224730133707,-0.41225734,-1.4764565,-0.20133498
121,1.047135234943215,1.348350594219894,1,,-0.10372010950885983,0.643570144917088,0.5865888275690873,-0.35578781713387836,-1.3972485879003262,-0.26156913664952985
122,1.0010055844756334,1.3600071824961493,1,,0.08938248186137872,0.5211313873189456,0.6841482414046913,-0.0127831735,-0.91612744,-0.62744075
123,0.9761250339519276,1.4456227283710468,1,,0.16685019678321605,0.3213749982146916,0.6260232285572113,-0.07501204039782035,-0.822716352468465,-0.6857379497431236
124,0.9726629857985772,1.5903592551218544,1,,-0.049614865304911944,0.7043410759262965,1.1040538488327565,-0.5805730202904421,-0.24965815655932744,-1.134066942579088
125,0.9882126003426503,1.7731546693231386,1,,-0.43636534330164145,0.8877677593753224,0.02988813897921974,-1.1536814,-0.74035877,-1.4871092
126,1.0185882928174563,1.9695731629543596,1,,-0.8679663476396963,0.7098040217140852,0.8837848316047798,-1.1536814,-0.74035877,-1.4871092
127,1.0587072751852105,2.1549777524324623,1,,-0.592946490739229,0.6778259205054156,0.43790538219859726,-1.2463306011850293,-0.5085419592778984,-1.3574390922655857
128,1.1033905406571278,2.3076304295218084,1,,0.10955751104956382,0.27210835123861016,0.9387858647860695,-2.1720743,1.8077538,-0.06178534
129,1.1479734845575655,2.4113071678127183,1,,0.06220676579138321,0.18317536389868536,1.358711605027187,-2.2229197832330736,1.8690144177604684,-0.043251335710353556
130,1.1886717856040032,2.4570369743793226,1,,-0.4316766212470506,0.5852881623612046,1.3704680209638413,-2.8325381,2.6035063,0.17896444
131,1.222690938900288,2.4436539688894525,1,,-0.41840709881504035,0.6800103593816069,1.5561279039626963,-2.727431806955842,2.5121335210443108,0.13583151788109712
132,1.248113725301085,2.3770303571632434,1,,-0.02995365951202119,0.25389508529537663,0.10775064447324703,-1.1866874290410208,1.1147921923735187,-0.49985533386609965
133,1.2636652740946306,2.2681465050540455,1,,-0.1919570674610186,0.24040874366483722,0.5003736028063615,-0.81705785,-0.11930962,-0.7052051
134,1.268510593888897,2.1304690002572477,1,,-0.5211823464510065,0.23315697262733365,1.1839874914292097,-0.8447050300565594,-0.09429550436574258,-0.7031622036539357
135,1.2622212469084657,1.9772919272936387,1,,-0.256514310803849,0.24800445557663253,1.335139981854679,-1.4658039,0.4676511,-0.65726817
136,1.244938862566664,1.819643506289059,1,,-0.39278943211878564,0.2576845098952485,1.2778720471119593,-1.4658039,0.4676511,-0.65726817
137,1.217629874282891,1.6651136873827284,1,,-0.3517471129533952,0.49042625865347533,2.0797677808877193,-1.4455430530550122,0.4491230883980023,-0.6531360235126087
138,1.1822563611836832,1.517664919354871,1,,-0.8232595043936111,0.3029260292525383,0.8937159262183886,0.0027825820921165995,-0.8698340330891973,-0.35315313003253535
139,1.1417197963830565,1.3782623927600077,1,,-0.742268837240109,0.44387404295498756,0.35240780065629096,1.2197117520751097,-1.390772543412143,0.390291495566326
140,1.09954424477025,1.2460222709253133,1,,-0.17800815969011408,0.3262069881936703,0.37767112372852385,1.220793,-1.3912354,0.39095205
141,1.0593873127281754,1.1195073100094797,1,,0.0880294845471726,0.14988643953693526,1.0101093384747863,1.220793,-1.3912354,0.39095205
142,1.024527710510751,0.9978063206843742,1,,-0.059501500701154356,0.11753403217392792,1.1630290822540965,-0.22798240631959593,-0.38702999366653457,0.9830147764246561
143,0.9974525813613017,0.8811394183777691,1,,-0.17360311286117297,0.1740735590671145,1.0386554960403576,-0.2545982,-0.3685815,0.9938917
144,0.9795990619778677,0.7709136005280468,1,,-0.218472919031888,0.25797468005725716,0.8821096873004143,-0.13792334028714234,-0.0815406709289218,0.20091560440710396
145,0.9712537586661447,0.6693390220108487,1,,-0.1368192763710405,0.2943425715775482,0.7150386509784631,0.21239475184043372,-0.16446048875424835,-0.21686070121755788
146,0.9716001338018586,0.5788306050732651,1,,-0.16506523349155133,0.45621568294860027,0.8428218140711597,0.22690132,-0.16831179,-0.23329292
147,0.9789040155254546,0.5014317025625481,1,,-0.18273705139039884,0.3119556372603414,0.850322380913043,0.22690132,-0.16831179,-0.23329292
148,0.9908167643874848,0.4384258454860678,1,,-0.319754503210255,0.21941445893922693,0.9434957572693509,-0.27147288173280254,0.0643296919598726,-0.32253900672563696
149,1.00475286107273,0.39019759096730866,1,,-0.37932891229093313,0.22672932807188187,1.0708699362063223,-0.30253512,0.07882957,-0.32810146
150,1.018278415031611,0.3563107763707001,1,,-0.3150991091465328,0.2927381501070608,1.0277362733359336,-0.4213009989602413,0.2164000535852253,-0.2459550414945422
151,1.0294426631721765,0.33571706147230684,1,,-0.2694595538596573,0.12192958364594174,0.9601738807094186,-0.43036684,0.22690132,-0.2396845
152,1.036999612478711,0.3269947211485116,1,,-0.3229676555740758,0.13467084109862038,1.0121265728036704,-0.12515136281246114,0.22105055025029235,-0.08171355198821903
153,1.0404945203076834,0.32854061152002434,1,,-0.34440233009433285,0.23291663876629615,1.0389171845288778,-0.096939065,0.22050974,-0.06711166
154,1.040217797685444,0.3386797561500053,1,,-0.22935773613928778,0.2702841022944128,0.9966459382176845,0.017359227844355982,0.4231731088249195,-0.1314644727640952
155,1.0370503477113686,0.35569419847564504,1,,-0.2462707100664418,0.10697525232662988,0.8601396653935712,0.0944784509720037,0.28745594184298534,-0.20883992724712308
156,1.032239516051707,0.3777928194709869,1,,-0.26284326222570753,0.1766580358547542,0.8941238131431991,0.10226539,0.26844665,-0.21731395
157,1.027152130151247,0.40305157723999935,1,,-0.31513335893812466,0.3337461056272152,0.9538821402193185,0.10226539,0.26844665,-0.21731395
158,1.0230455966690344,0.4293586611847817,1,,-0.36671042744837784,0.35580029047545114,0.9883544472197567,-0.0065870585838532555,0.16424600896395256,-0.34384329171968503
159,1.0208819623622292,0.45440185937448796,1,,-0.2947443601114605,0.25989094967349646,0.9601491534731106,-0.022370555,0.14913702,-0.36218992
160,1.021195769737158,0.47573075141536025,1,,-0.2188927784883523,0.15858644648516984,0.8717319831109185,0.06379214051467923,-0.12493368164453998,-0.3374410771728279
161,1.0240237840145217,0.4909118591381274,1,,-0.38151636901954655,0.12961388262640458,0.8226572717505237,-0.004745448564290798,-0.15940334123810254,-0.41503085177193905
162,1.0289075556368719,0.49777201652157493,1,,-0.3875971091686699,0.2395581596999307,0.9281765323395158,-0.01917476,-0.15765914,-0.4293016
163,1.034975005121968,0.4946971136702616,1,,-0.32170541531138724,0.38020313726101873,1.003511989859009,-0.2624028869647961,-0.43385223000538303,-0.3802995845122932
164,1.0410910930818056,0.48092653672901287,1,,-0.299125318644186,0.31158601524780244,0.9690158543587659,-0.30999196,-0.4878911,-0.37071204
165,1.0460506442522175,0.45676950181829556,1,,-0.33232121724586067,0.12955578421043648,0.8766598647782285,-0.30999196,-0.4878911,-0.37071204
166,1.0487795238361408,0.4236804076543968,1,,-0.3814521889323973,0.18982251735653205,1.0160832247685097,-0.1846963107788015,-0.08590093081194909,-0.20887182608228505
167,1.0485125514451166,0.38416892584185053,1,,-0.38700372548292694,0.29148642380818096,1.0624509790758165,-0.15659387,0.004261058,-0.17257284
168,1.0449204240657934,0.34157053070766963,1,,-0.27873751721859913,0.31649430351133573,0.9775074868148528,-0.14974376829902095,0.22346470790310735,-0.07838376879358641
169,1.038163082773359,0.2997365859156221,1,,-0.2795528791013898,0.30262003213006217,0.9753852150320195,-0.14807177,0.27696875,-0.05539375
170,1.028858866856792,0.2627038225320167,1,,-0.2621444507621697,0.30660302459000693,0.9723982440041614,-0.03689331885633922,0.19611170698582378,0.09958226097038937
171,1.0179773879805545,0.23438034911020436,1,,-0.22530351378932342,0.24258123804670517,0.9218535953057209,0.03232183209727689,0.12663746420718439,0.21519993837630025
172,1.0066818817888112,0.21826033311876852,1,,-0.2324435439177961,0.10508306525583584,0.8564319533820933,0.043675844,0.112918034,0.23648871
173,0.9961565015749342,0.21716468104235587,1,,-0.26745523052997167,0.23815418963097865,0.8967137075358586,-0.09584810843965777,0.23702946167967506,0.10751016971916474
174,0.9874521522997388,0.23300171883559476,1,,-0.28137721736484217,0.37793841401177886,0.9952952752574533,-0.13954964,0.2759035,0.06711166
175,0.9813725459465918,0.2665486624721515,1,,-0.24397900369842715,0.17406158170143976,0.9154836619210294,-0.14511614346213406,0.18922518812386915,0.021784471579473982
176,0.9784081743256805,0.31726985940780805,1,,-0.23368497809075303,0.024723880913533152,0.8590169919488808,-0.1470065,0.15978967,0.0063915867
177,0.978718491966552,0.38320532106196137,1,,-0.2808394571418891,0.09693009271967429,0.8851172448176339,-0.1470065,0.15978967,0.0063915867
178,0.9821608790605791,0.46097176844368476,1,,-0.3244947012019792,0.26381403197783876,0.9437547709922652,-0.31103881934698635,0.2046664333932622,-0.22495590802499232
179,0.9883604893045556,0.5459085685151465,1,,-0.3338847654826252,0.15921246148489726,0.8389121578450235,-0.37284255,0.221575,-0.3121225
180,0.9968045793995693,0.6323735148987653,1,,-0.4276397591579571,0.26799007863789015,0.8988275056324002,-0.49740414555365936,0.3005652870631904,-0.4959268286757813
181,1.006933718826301,0.7141619822000471,1,,-0.48318764829317395,0.3693837758040167,1.0870537340833741,-0.5385529305140754,0.4028075167499061,-0.3758180332234111
182,1.0181978831816894,0.7850044036341025,1,,-0.4326156211091294,0.21767900824643172,1.0556908423720162,-0.53476274,0.43249738,-0.294013
183,1.0300550277208853,0.8390984607911814,1,,-0.3316818259833677,0.053055031321246865,0.888334650430554,-0.53476274,0.43249738,-0.294013
184,1.0419175010801058,0.8716455226369013,1,,-0.07946955947310294,-0.18859473488787776,0.7821845496904687,-0.27596621825584894,0.5030121417924552,0.02294005368235421
185,1.053087682136666,0.8793671528295447,1,,-0.31316245134686893,-0.041920555874771226,0.6502368009155621,-0.6071469085359523,0.428846896876119,-0.4233388423141535
186,1.0627423082199914,0.8609613616197704,1,,-0.498572895324117,0.5083046133629029,0.9969518913322564,-0.82557994,0.37710363,-0.7105314
187,1.0700045922358212,0.8174223423881429,1,,-0.5021276202952322,0.3201807636380339,1.0240412198563196,-0.82557994,0.37710363,-0.7105314
188,1.0740943400980267,0.7521186086168529,1,,-0.4780230334960605,0.050165108888019685,0.9917161749722662,-0.9822115547062968,0.3457772952959092,-0.5636457877485221
189,1.0745035267687488,0.6705385943572755,1,,-0.37900597721759,0.024993442728310295,1.1529073475984268,-0.6238118149937438,0.2425264734987005,-0.14538822249330383
190,1.0711345528543745,0.579684354969989,1,,-0.31404887305213175,0.03468080397966441,1.0285487684339623,-0.38136467,0.1949434,0.041545313
191,1.0643583249715174,0.48719856542785467,1,,-0.4073471861780584,0.04463017021324595,0.9078484690037506,-0.022022667728111567,0.05322159697201211,-0.014874739262990539
192,1.0549799580641332,0.40039713616139316,1,,-0.4992759640771155,0.02225229322303864,0.9767916591061055,0.18855181,-0.029827405,-0.0479369
193,1.0441248856236982,0.3254057060357105,1,,-0.4658053679862541,0.024111275838511977,0.9950406810005453,0.18855181,-0.029827405,-0.0479369
194,1.0330717172491204,0.2665539761333615,1,,-0.41289658155987424,0.027272190702650558,0.86722059317227,0.25548496921428543,-0.08311400188871716,0.010548388896138532
195,1.0230633697233271,0.22609593510379766,1,,-0.3717540410115694,0.025465366491488832,0.8499411599323647,0.29827404,-0.11717909,0.0479369
196,1.0151292118284938,0.20423961010073943,1,,-0.33360636531981536,0.05676386809089329,0.9509368698927865,0.21367297766933258,-0.12099568129842991,0.05557007961122456
197,1.0099470206802539,0.1994168534070843,1,,-0.2970950240664767,0.06521064653946086,0.9979487916110649,0.15659387,-0.12357068,0.060720075
198,1.0077620631498811,0.2087070657786445,1,,-0.34791255782629665,-0.04895560192474003,0.955007523111951,0.12119791631525514,-0.09562650450431553,-0.035532088603081526
199,1.008366263273812,0.2283356459750367,1,,-0.4570857141532362,0.06051811337429852,0.915342971888609,0.20485306242012352,-0.16685799330567258,-0.17051816949629972
200,1.0111316819378264,0.2541812988502002,1,,-0.46384205222192837,0.17661787907264387,0.8939357811877037,0.28549087,-0.23435818,-0.21944448
201,1.0150923020689475,0.28223852742653843,1,,-0.37023195683021526,0.13120430047994477,0.867267561564699,0.23302498312724107,-0.1473125023984245,-0.13478361391170546
202,1.01907194485183,0.30899732329501484,1,,-0.4160433813161568,0.09415647356959202,0.7978675959614089,0.1917476,-0.07882957,-0.068176925
203,1.0218567948679436,0.3317257781770678,1,,-0.4701053580865375,0.0779999770235384,0.8074276971147448,-0.11016694597068308,-0.01554363703811225,0.04097679341196656
204,1.022402142685149,0.34866411383861257,1,,-0.3953165604777476,0.15913858084254848,1.0275763991793265,-0.36218992,0.037284255,0.13209279
205,1.0200436199642853,0.3591436182660383,1,,-0.4086532550344511,0.2234448206628345,1.1468951761614965,-0.2700529077393442,-0.15546862921834154,0.2163161952779966
206,1.0146631834389745,0.36362643554183544,1,,-0.4684655222630321,0.06642247255886377,1.0238051091275684,-0.18855181,-0.32597092,0.2908172
207,1.0067567105942954,0.36363750283172375,1,,-0.4315832944989462,-0.06671450410247749,0.883861178248391,0.10428272665680761,-0.3589354149911355,0.33257221942446585
208,0.9973729199486159,0.36154986718045856,1,,-0.37982657855231167,-0.0499604537298407,0.8596881626171541,0.37923414,-0.3898868,0.3717773
209,0.987932326212506,0.36020119112594184,1,,-0.35593441651535773,0.03737319403501243,0.9046436395028185,0.2511776649971966,-0.19406709516248188,0.2730670940489845
210,0.9799682664912919,0.36236233250233624,1,,-0.3256559950626925,0.10460525732737037,0.9357427367113635,0.12357068,0.0010652645,0.17470337
211,0.9748462996654715,0.3701374433381361,1,,-0.28196118862222697,0.10210146190922625,0.8884302092787091,0.07232074979342092,0.00779505298857757,0.13950139981817897
212,0.9735166678260553,0.3844257857774471,1,,-0.27820486602642225,0.048898232516758025,0.7898561780012239,0.018109497,0.014913702,0.10226539
213,0.9763458039816408,0.40459069061640474,1,,-0.3314578582443396,-0.040282577886702295,0.81295048558308,0.018109497,0.014913702,0.10226539
214,0.9830589363993868,0.42844618499067333,1,,-0.3894987485341928,0.017871230720209397,0.9175943477676987,-0.21095407777415234,0.1279580649066613,-0.009291549589827471
215,0.9928035584654995,0.4525938847076134,1,,-0.39926028665701885,0.14873986619190227,0.9329507222765451,-0.47404268,0.257794,-0.13741912
216,1.0043154164675365,0.4730451382869043,1,,-0.3742852857218249,0.10280231111033108,0.9265695403868941,-0.5975260587673497,0.3404365621704663,-0.17729896251588811
217,1.016145019847567,0.48597809254279417,1,,-0.3667706745587522,0.04053902371299258,1.056832459422863,-0.74781567,0.44101948,-0.22583607
218,1.026892637610083,0.4884388326349671,1,,-0.39246734265427297,0.014701125113911421,1.096044198354212,-0.6658277211014906,0.37487013117120793,-0.16853767830258082
219,1.0354053388169688,0.4788192784868182,1,,-0.38642303804198086,-0.03978995198577074,0.9061612172737858,-0.38288694803028106,0.2530713946823365,-0.0677566282731652
220,1.0409079095473457,0.4570244950298114,1,,-0.33041852500242674,0.01822649214922071,0.8328118666716923,-0.14807177,0.20453078,-0.03195793
221,1.043062812848213,0.42434297309211694,1,,-0.3997036804520759,0.09477237912283912,0.9377637473370306,-0.224286320745989,0.20984807298053745,-0.06829277715255161
222,1.0419699059599816,0.38310979346622365,1,,-0.502133575234053,0.17675724477227867,1.0793895507223288,-0.33129725,0.21731395,-0.11930962
223,1.038116459130877,0.3362781844516673,1,,-0.5018273367150246,0.03334716939278703,1.0218043298087425,-0.13838945137514902,0.08856617368723638,0.014570956652229912
224,1.0322809030835547,0.2869976044014484,1,,-0.37997029803759,-0.10009707434685276,0.86959481252924,0.14913702,-0.10333065,0.21411815
225,1.0253963701510784,0.23826178164097192,1,,-0.30531530127038214,0.014321150155367633,0.8729199690599211,0.15119770013965841,-0.09179085978841948,0.17949877549640292
226,1.018395032902181,0.19265659298057108,1,,-0.40095209993207825,0.003364136934938189,0.8800096743001654,0.15446335,-0.07350325,0.12463594
227,1.0120661374708078,0.15221169884396804,1,,-0.496940821018479,-0.040628583482106725,0.9094166396901077,0.08009237646369391,-0.030779499079176608,0.1179109073712731
228,1.006956419117601,0.1183440634846444,1,,-0.4157863588310099,-0.010388368352925444,0.9830230257502716,-0.04580637,0.041545313,0.10652645
229,1.0033256947452915,0.09187597419324092,1,,-0.28359805112544734,-0.03181304224905198,0.8966796784785903,-0.034814161900665,0.03472256366056488,0.06104144728737945
230,1.0011565080223586,0.07311054581443756,1,,-0.3123733742420346,-0.021395796929905144,0.85020794775676,-0.014913702,0.022370555,-0.02130529
231,1.0002104865688672,0.06194828243468342,1,,-0.39449598492178994,0.09418988089762008,0.9529100334563486,-0.014913702,0.022370555,-0.02130529
232,1.000119681943061,0.058025793330398555,1,,-0.47644571956376186,0.08098379576499114,0.9363165217263637,-0.04265245103065844,0.05295430450475414,-0.06504716264966959
233,1.0004930267312744,0.06085207376377045,1,,-0.5249784126521181,-0.05932875703101809,0.9136237058809653,-0.09835311718373693,0.10282202461416581,-0.08083092543686222
234,1.0010104654081877,0.06991248119343495,1,,-0.43140351631402524,-0.027327054550185644,0.9733834802668022,-0.099069595,0.07989483,0.066046394
235,1.0014789903298607,0.08471240600597513,1,,-0.3066003042068332,0.08031433115515237,0.9400532919041961,-0.08473942915039835,0.04256974650763232,0.07037876927089778
236,1.0018377696379526,0.10474643067766679,1,,-0.3924322996230434,0.05079538454666144,0.8828667630218197,-0.053263225,-0.039414786,0.07989483
237,1.0021172719745506,0.12940180088223732,1,,-0.44898665245390407,0.00313514095575359,0.9481771705933821,-0.053263225,-0.039414786,0.07989483
238,1.002371505744515,0.15782823658933284,1,,-0.3566191134306728,-0.015233883940758473,0.9098324147036488,-0.042690431873516864,-0.043768288056143016,0.08362640569309067
239,1.0026094874786997,0.18882067624084928,1,,-0.3643598828433583,-0.060623497559671224,0.7920683054997641,-0.017044231,-0.054328486,0.09267801
240,1.0027524257406593,0.22076330998234142,1,,-0.4153253283643611,-0.08500523633124885,0.8611271803783863,-0.07165581746993237,-0.04868924681809463,0.05082891531369887
241,1.0026366990918523,0.2516718781696419,1,,-0.3273690362536695,-0.003996224037089126,0.9723674398789949,-0.2130529,-0.034088463,-0.05752428
242,1.0020681592978506,0.27934841771778596,1,,-0.3683337096776436,0.10092533069509119,0.9441783408512177,-0.24730361160939612,0.0032759565010878427,-0.12121363386815535
243,1.000914039666573,0.3016333000770816,1,,-0.505684172260252,-0.006679176159381913,0.8807724816390468,-0.34194988,0.10652645,-0.2972088
244,0.9992036572870139,0.3167132360555262,1,,-0.47214721252949926,-0.11677505158570785,0.9587777970485466,-0.2985596055646288,0.10840133711643327,-0.2605145527764023
245,0.9972046696059635,0.32343270845106487,1,,-0.3200390120817396,-0.027836469891730456,1.0062623251008591,-0.1495334140341683,0.08943986147202863,-0.15570626242184402
246,0.9954479851096468,0.3215651160833831,1,,-0.38360528075091044,-0.026707593223373616,0.908527163491336,-0.08841695,0.013848438,-0.16937704
247,0.994688373270925,0.3120192853510746,1,,-0.4826043232303269,-0.14980509549508392,0.8419713667093457,-0.12085728383058378,0.00043326143645541586,-0.2027930303538796
248,0.9958047505915938,0.296967741796034,1,,-0.34390171312361256,-0.10858830106705558,0.88217727847663,-0.23009712,-0.04474111,-0.3153183
249,0.9996577346847969,0.27987434250989346,1,,-0.36521974528339374,0.09350820450612159,0.9343002110121217,-0.23009712,-0.04474111,-0.3153183
250,1.0069276248108958,0.26538009110071875,1,,-0.5570579070647532,-0.03891299595735543,0.9275753525302651,-0.25005159592542475,-0.046714628456952505,-0.31356405560792305
251,1.017954812743691,0.2589983191711103,1,,-0.4094573731202245,-0.1163452214579392,0.9494177937033678,-0.3270362,-0.054328486,-0.30679616
252,1.032603228370512,0.2665881007656825,1,,-0.24201919832688762,-0.017391581424864376,0.8664862355859407,-0.29256372965816635,-0.008841146702539835,-0.2815027512699679
253,1.0501701146241267,0.293617356079469,1,,-0.45641156914717673,-0.060852650026921036,0.8733933069736939,-0.1470065,0.18322548,-0.17470337
254,1.069368124222732,0.34428426041123783,1,,-0.5602321316152017,-0.10974939160966424,0.978626974153983,-0.15609241846850494,0.16297145308078348,-0.17602840144252838
255,1.088400385871533,0.42062216958352777,1,,-0.35363503490333603,-0.08983049567070503,0.9770553669248627,-0.19813919,0.06924219,-0.18216023
256,1.1051349982725371,0.5217524387135488,1,,-0.28449350809868557,0.0024529257189973563,0.9660310038761628,-0.1693313289901033,0.019179748952707496,-0.1723233977542526
257,1.1173693966395677,0.6434574122979545,1,,-0.23163516721438643,0.11204192119907973,1.0388118040490657,-0.023435818,-0.23435818,-0.12250541
258,1.1231604820298804,0.7782147448752191,1,,-0.44430266815716385,0.06920469540153655,0.915544616280231,0.01226315484622549,-0.3813350127132775,-0.11382187648057573
259,1.1211789008531254,0.9157624672919655,1,,-0.7525249198711605,-0.1553218680023784,0.9167083602517454,0.2130529,-1.2080098,-0.06498113
260,1.1110232788632066,1.0441621094449796,1,,-0.7826777742101019,-0.11407173003398306,1.1875226959178589,0.24113007590113317,-1.1405082071673491,-0.0038805385550559866
261,1.0934118243745297,1.1512248505593026,1,,-0.7475382072451257,0.15960599987554802,1.145874176996536,0.41864893,-0.7137272,0.38242993
262,1.0701731802013017,1.2260988574915015,1,,-0.6138805672427252,0.28015280461720704,1.006500517052723,0.5391461135198273,-0.5831332255063196,0.4762237757235743
263,1.0440003822816195,1.260791237212298,1,,-0.33345984113039107,0.08696753136932833,0.8244839639202612,1.3848438,0.3334278,1.1345067
264,1.0180041967349829,1.2513898338122484,1,,-0.14665048845113474,-0.03123977712143507,0.6922574328009875,1.3731617023961287,0.36564206377932923,1.182887092581449
265,0.995171992599786,1.1987498143705386,1,,-0.006815637618375684,-0.08761431777518269,0.8124247960855906,1.1752987942505884,0.5851714652851937,1.5202898551934843
266,0.9778675886211744,1.1084550982095907,1,,-0.18950424508159477,-0.11512568771201621,1.014879219953482,0.29188246,0.25353295,1.087635
267,0.9674831069906105,0.9899936919905282,1,,-0.17918492594573704,-0.23156962862407315,0.8860976473093912,0.2717617535388977,0.2290257380007679,1.0084871971209801
268,0.9642972134294688,0.8552782424276163,1,,-0.42267014870732056,-0.08342333027403986,0.6007119505211603,0.06711166,-0.020240024,0.2034655
269,0.9675383650450443,0.7168225858975821,1,,-0.319192852972484,0.11769735929268191,1.0602282444156799,0.06528726648494389,-0.014528878490845998,0.18030363298289515
270,0.9756125705320551,0.5859751084028247,1,,-0.3455438436932833,0.17942316474392614,1.0878604015656668,0.04261058,0.056459017,-0.10759171
271,0.9864312628493449,0.47157747659888505,1,,-0.36961058168743743,0.1521945580382686,0.9493276235990199,0.04261058,0.056459017,-0.10759171
272,0.9977675951139734,0.3792819712208457,1,,-0.24212939730775862,0.13838116242880436,0.9444176138049266,0.060322031090833006,0.03298473544534763,-0.102463319655998
273,1.00758353032068,0.31157452540553504,1,,-0.17733842244852988,0.15663362930592165,0.8441642014414782,0.39947417,-0.4165184,-0.004261058
274,1.014296874942509,0.2683707625929574,1,,-0.45225225901682164,0.08599482303651713,0.9000387721231559,0.3978223473790931,-0.42650442002955935,-0.005575007948245048
275,1.0169767203658584,0.2479240313430272,1,,-0.5345929547800494,0.10297835285356656,0.9310061404412104,0.35260254,-0.69987875,-0.041545313
276,1.0154569291556985,0.24773842163667503,1,,-0.43260085663254894,0.19244453479718454,1.0021030115525322,0.3466798243384623,-0.6883673064627042,-0.042391415258264245
277,1.010349038245648,0.2652275408430983,1,,-0.41489237874478446,0.13372556781146547,1.0159838614824215,0.06924219,-0.14913702,-0.082025364
278,1.0029351394323607,0.29798348857251483,1,,-0.5002028329035735,0.05296874574964615,1.0158793452646533,0.06987131536291563,-0.1476410998559441,-0.08171779162951687
279,0.9949375352557833,0.34367171107679007,1,,-0.31990596973341945,0.08592920138731981,0.8907985385745187,0.1652530666521009,0.07888197785482035,-0.034736480899978106
280,0.9881923048199249,0.3996871942969393,1,,-0.17793883066437313,0.1938532164651603,0.8224707651377027,0.23686549780853136,0.1062632105460169,0.18326022922279078
281,0.984286136703944,0.46275971697184154,1,,-0.25457687557025543,0.21872499952618576,0.79051642508696,0.23755397,0.10652645,0.18535602
282,0.9842342114904973,0.5286856745666575,1,,-0.32364386978186555,0.24791421458936816,0.8186716298836461,-0.07127246900849843,0.22818534045432795,0.1863958353216763
283,0.988271174649164,0.5923189095680865,1,,-0.4451041744928804,0.378381209951183,0.9277827014679191,-0.07882957,0.23116238,0.18642128
284,0.995800568888178,0.6478918685261871,1,,-0.2956480777098128,0.09929405875172381,0.5181403771131539,-0.07882957,0.23116238,0.18642128
285,1.0055135279476302,0.6896624889282924,1,,-0.33860904248044127,0.10902935768159329,1.1092099796913142,-0.5814435665270352,0.4722536603488585,0.03318530222126972
286,1.0156537346284968,0.7127908672734808,1,,-0.37080731093096075,0.12125177987190872,0.8979415188027493,-0.922234945593577,0.6118995805290675,-0.07744246093704854
287,1.0243734348233886,0.7142599609874789,1,,-0.5630137403009974,0.190307833417232,1.1249537455723129,-0.9395633,0.61891866,-0.083090626
288,1.030100156828223,0.6936034965871551,1,,-0.3410221456448265,0.08661231798357368,1.1552909373490075,-0.9395633,0.61891866,-0.083090626
289,1.0318300185842897,0.6532264105212008,1,,-0.3779749639859706,0.08253608597472158,0.8917516914777588,-0.6264505298361738,0.38111151739491406,-0.327833803016929
290,1.0292890268659045,0.5982010352413555,1,,-0.3543024527973388,0.11023098096826289,0.9294567951985894,-0.60293967,0.36325517,-0.34621096
291,1.0229471765309222,0.5355616640519931,1,,-0.3221778348090722,0.12600787962939847,0.9259014074570934,-0.13463225903212267,0.06470919814109556,0.0586798392856066
292,1.0139083271288667,0.473251931800016,1,,-0.4184226959821791,0.1500476579393958,0.9299920428692615,-0.1640496575695321,0.06722484801851146,0.036958446300248554
293,1.003716655355684,0.4189618916196332,1,,-0.36762481355849325,0.10307669020439438,0.9529514035262425,-0.17150758,0.070307456,0.03089267
294,0.994120971428077,0.37910225373539547,1,,-0.3603105293621066,0.06266685854268511,0.9042842370585532,-0.11173059179410848,0.04848410773453415,0.062204423351670424
295,0.9868335136762271,0.3581058603411695,1,,-0.3911485946107763,0.09663884167750088,0.8100140007342526,-0.10439592,0.04580637,0.066046394
296,0.9833166448369807,0.3581481063944788,1,,-0.3848851249640353,-0.015002763138453019,0.8302764250490251,-0.3246291942662482,0.23244475569110104,-0.04780300278757185
297,0.9846260230384041,0.3792712505527809,1,,-0.4601976102527017,-0.021723100300349203,0.67654776881922,-0.35579833,0.25885928,-0.06391586
298,0.9913257649914154,0.41980722265742226,1,,-0.5254698672326815,0.09862935210400492,1.1185535305663452,-0.614650216455564,0.32035955349272605,-0.19334180753616995
299,1.0034692884145155,0.4769380911667506,1,,-0.41114740894349106,0.06271385239906765,1.0004573833945782,-0.6562029,0.330232,-0.21411815
300,1.020619664106624,0.5472264335794867,1,,-0.5262774222497241,0.14102751103636443,0.9430624189086338,-0.6562029,0.330232,-0.21411815
301,1.0418813445555903,0.626991624397112,1,,-0.4906808053511645,0.12368516735417907,0.9615836463821595,-0.4301764896625806,0.14725822297240151,-0.05805229804980679
302,1.0659361673953882,0.7124861911086864,1,,-0.27556357913771207,-0.06786328041687638,0.7445619070389918,-0.4010669098836307,-0.05390885451185252,0.3803186713571882
303,1.09110619879164,0.7999052375354929,1,,-0.592605902592274,-0.18262002201540334,0.5653943111258412,-0.40373522,-0.08735169,0.46232477
304,1.115479503135525,0.8853063590492036,1,,-0.5160723220814191,-0.21399311346058972,0.8745763144056745,-0.9810422309534237,0.5789060293383627,0.10216189534473324
305,1.1371148580037154,0.9645166448160016,1,,-0.5014505393827327,0.051102551551719645,1.3174411140245321,-1.1089402,0.72651035,0.022370555
306,1.1542936454715786,1.0330823481444413,1,,-0.8750805049755022,0.147600003968895,1.2396408061533277,-0.49118435519323916,0.4977436077249438,0.22029236156078533
307,1.1657443696113223,1.086312664368492,1,,-0.6713755025745326,-0.09945931672529759,1.1388704805556291,-0.34088463,0.44208476,0.26844665
308,1.170765295029157,1.1194867408290505,1,,-0.8334198571051361,-0.07096186813542128,0.3078870968142739,-0.34088463,0.44208476,0.26844665
309,1.1692203942292052,1.1282919834580563,1,,-0.6800053667709818,-0.1329177570332653,0.5749601708683314,0.2506828186099088,-0.09676875809004187,1.0541351837165949
310,1.1614466670345707,1.1094997557505335,1,,0.19595049233202477,-0.3895185350812686,1.1837387094911247,0.41225734,-0.24394555,1.2687299
311,1.1481395194678052,1.0617719412677737,1,,0.15557011273525137,-0.48655861679218676,1.008311419553765,-0.5546447254472134,0.5815388218425035,1.2243313994062999
312,1.1302640887790856,0.9863899165456207,1,,-0.3981411662102372,0.1519121819594122,0.8260685864336966,-0.21049113328361826,1.3734790058304267,-0.09513505016730187
313,1.1090004094130945,0.8876679018527805,1,,-1.2381390431495758,0.4627478405370354,0.8249379425570172,-0.014913702,1.5435683,-0.5006743
314,1.0856999982735644,0.7728764221223622,1,,-0.598555924775795,-0.15695706878505541,0.8483465577399565,-0.007736077319969048,0.3441073375433259,0.1054362641385767
315,1.0618239248308008,0.6516350600479203,1,,-0.21396095607937934,-0.317162315235352,0.9008414301551043,-0.0053263223,-0.058589544,0.3089267
316,1.038847687697429,0.5348807914732349,1,,-0.43788679782802,-0.09002423021239861,0.8190831279880305,-0.03420044501919241,-0.2099835904404379,0.3822825675838795
317,1.018144529419843,0.43361312830302473,1,,-0.6391113788517074,0.20660018765040797,0.6933421928280186,-0.04474111,-0.26525086,0.40906155
318,1.0008746851155672,0.3576275412005272,1,,-0.6735447390583236,0.12390724782523678,0.8540123538890568,-0.09058334604848732,-0.006242189747425396,0.2318048790819496
319,0.9879020935812161,0.31440069695009687,1,,-0.6054922532295721,-0.0649138853090346,0.9116375486573631,-0.10865697,0.0958738,0.16192019
320,0.979743815749436,0.3082356136261253,1,,-0.42172993911029727,-0.03614603909639942,0.6980901574162806,-0.0667693881844516,-0.052976722565754024,0.3421864022627042
321,0.9765488172376278,0.3397364421591587,1,,-0.43309401593488656,0.030447501556796683,0.7605018785392871,-0.049002163,-0.11611383,0.41864893
322,0.9781040868200251,0.4056580529250882,1,,-0.5555176583358338,0.002625623879870777,0.935270639883118,-0.08122624927887825,-0.06338350587320495,0.09640807408618234
323,0.9838652579886179,0.4991585674923229,1,,-0.5573980013908294,-0.038900421762349466,1.0428512665735472,-0.0958738,-0.039414786,-0.05006743
324,0.9930014618557566,0.6104651103308976,1,,-0.44019611679577175,-0.06873190486140517,0.891576588311657,0.22322010429623132,-0.1390868115227886,-0.38421969600483113
325,1.0044426145519685,0.7279262544864241,1,,-0.2786340133377121,-0.0564922672911698,0.8074052211529416,0.37816888,-0.18748654,-0.54648066
326,1.0169320319505635,0.8393574056746947,1,,-0.21041550907804354,-0.06320699706958867,0.8739474690370301,0.45746991653978886,-0.29134983265980074,-0.9142128574458028
327,1.0291065636875065,0.9335051398367851,1,,-0.4963014986185086,-0.0456828044186396,0.6791473518501564,0.49854377,-0.34514567,-1.1046792
328,1.0396273577068378,1.0014018391214732,1,,-0.7807237446970003,0.13421059898453336,0.7552965853815263,0.18895847099036647,-0.6876801564346988,-1.0545690091534679
329,1.0473583125855537,1.0373831164914422,1,,-0.7767636708192163,0.15337744533316708,1.0187830796165067,0.018109497,-0.8767126,-1.026915
330,1.0515516884933995,1.0396016811195716,1,,-0.5421213144428816,0.08306290359045675,1.0696576861462892,0.018109497,-0.8767126,-1.026915
331,1.05197869123065,1.0099744687636056,1,,-0.37640669326155546,0.0952493565202325,1.0312653932446676,-0.019843116379049213,-0.5437949852746407,-0.21792508833508506
332,1.0489552722365725,0.9536152611166155,1,,-0.4875451082583237,0.04982825368015453,0.8221430655107826,0.18486344474484553,-0.48280013543840095,0.6099073174088616
333,1.043253310378057,0.8778970741290746,1,,-0.5534073922402203,0.07083300861301126,0.7582157243150919,0.32597092,-0.56885123,0.8223842
334,1.035928480865081,0.7913288536219132,1,,-0.4357229632090436,0.1908603800865125,0.9008247393146346,0.14684391950910647,-0.3165325438532043,0.5854742840709966
335,1.0281151281734724,0.7024206977650542,1,,-0.24772353876053962,0.20628756652207453,0.9708325417048937,0.02876214,-0.15020229,0.4293016
336,1.0208322959622453,0.6186793407041079,1,,-0.3704790242754483,0.13612905546566773,1.0824405448533367,0.16663332620629984,-0.3570090693094497,0.20745431406565176
337,1.014828219129556,0.5458406589132326,1,,-0.5552555600526116,-0.16827478607390464,0.6791759777546249,0.26312032,-0.50173956,0.05219796
338,1.010478947139894,0.48740432405438405,1,,-0.542358890951444,-0.27762054511196144,0.6501485104294102,0.26312032,-0.50173956,0.05219796
339,1.0077535649724068,0.4444855291110951,1,,-0.4459879899655926,-0.01912123607464128,0.9501680896211476,0.08238440375782967,-0.41167383742771696,0.10720454049032097
340,1.0062544820353163,0.41595589796402066,1,,-0.4113373225807115,0.10224612255879684,0.9378927643519395,-0.22989445560596788,-0.04106344056266993,0.18963547372464654
341,1.0053291880540467,0.39882412104455717,1,,-0.41978862384804144,0.03146607655855748,0.895684794396735,-0.36751625,0.19707392,0.221575
342,1.0042346317704962,0.3888012729636648,1,,-0.42362138873788024,-0.010077428678844475,0.8946999691000933,-0.3223280953123365,0.12002232659970381,0.20825028946338695
343,1.0023259772702042,0.38099310422376353,1,,-0.44065341563548754,-0.02686704345448031,0.9104346276410638,-0.28442562,0.05539375,0.19707392
344,0.9992390412818947,0.3706577901637814,1,,-0.45847744116939076,-0.04651530649278096,0.9150335803105201,-0.28442562,0.05539375,0.19707392
345,0.9950357306232487,0.35396548821684054,1,,-0.4496293785971458,-0.034613426137373816,0.9412926161972117,-0.30035057452090863,0.09459363495545967,0.1701240044834921
346,0.9902829913232077,0.3286953568073279,1,,-0.44209092861410304,-0.015678118790332454,0.9583375339481339,-0.3121225,0.12357068,0.15020229
347,0.9860410731341209,0.2948040659309929,1,,-0.44993448645103634,-0.002150249245744577,0.9473710903157698,-0.2948045764203265,0.12775086632391522,0.1406475776016461
348,0.9837489766249077,0.25479906183103207,1,,-0.45360687846732256,0.0022327452018537633,0.8993385337265226,-0.28122982,0.13102753,0.13315806
349,0.9850134315283615,0.21385500884414022,1,,-0.4503403423561242,0.0004884480735011447,0.8540480747421301,-0.2136255805827936,0.06692006219081699,0.1558870688870763
350,0.9913289081002902,0.17962609949959024,1,,-0.4385305461624444,-0.013113846246191331,0.8712682094331047,-0.15765914,0.013848438,0.17470337
351,1.0037741507820814,0.16172947751359018,1,,-0.4192072061338097,-0.09543673102123668,0.9001322389407176,-0.18841397060862708,0.033782124743209796,0.18438544333248894
352,1.0227406991742873,0.17090283062392497,1,,-0.3715772577652894,-0.17983596509265704,0.795740186400036,-0.21518342,0.051132694,0.19281286
353,1.047748920467241,0.21787039211287304,1,,-0.41937201046531375,-0.10454335608007331,0.7602434464675292,-0.26841257191758083,0.04836034123156305,0.1656438159859232
354,1.0773960758155812,0.311986902792431,1,,-0.4973176778054794,-0.1224010387970239,0.9164823628780895,-0.3174488,0.04580637,0.14061491
355,1.1094570919614697,0.4597691381380864,1,,-0.6715372686119818,-0.163753036288108,1.0645366626623531,-0.4804803921002637,0.10213622089974372,0.12328264896692427
356,1.141125556674671,0.6634660622840038,1,,-0.7205667913487142,-0.118866360686723,0.9440239362332454,-0.6380934,0.15659387,0.10652645
357,1.1693538287957639,0.9198547629683756,1,,-0.5400254408221306,-0.23021310177490886,0.8222392110906709,-0.51606396078229,0.18353543469581957,0.38703565033345394
358,1.19124048313304,1.2194722341612942,1,,-0.5737078409745017,-0.26739391708982846,1.0094092391087233,-0.33377808769708267,0.3040011171299968,0.8276597803649394
359,1.2044173339224638,1.5464927444137577,1,,-0.6779659108870002,-0.00850964585778288,1.0358291798422856,-0.2727077,0.4016047,0.99069595
360,1.2073912537798892,1.8794238058301893,1,,-0.7054575788234084,0.21313495547788103,0.9479720459590538,0.020023581242576464,0.29730973704530833,1.3857067889757373
361,1.199790703385341,2.192710404717285,1,,-0.8634008517087702,0.25350416092779904,1.066562236751344,0.34621096,0.18109496,1.8258632
362,1.1824623071370768,2.4592077371822305,1,,-1.0143250925760265,0.2672778086984317,1.0515006989970954,0.34621096,0.18109496,1.8258632
363,1.1573735256179372,2.6533191952373967,1,,-0.9737144341144283,0.15048327347087564,0.7736184293069082,0.7253916710423254,-0.009696859335007324,2.4674427652555693
364,1.127312967210454,2.7544181108125843,1,,-0.6149673226153226,-0.15501992840280385,0.7343913311542143,1.1867046,-0.24181503,3.2479913
365,1.0954366022731163,2.7500104719510268,1,,-0.1890495633583805,-0.27555137445516775,0.9085927381479589,1.123429859211485,-0.3897662374742645,3.857010636414356
366,1.0647638336694685,2.6380094876097817,1,,0.499759738734028,0.07869853044124686,0.434247258057562,0.8078175317966141,-0.8599169953233607,3.9935112113812568
367,1.0377508004682046,2.4275576897957913,1,,0.7094906767118663,0.24440570177505172,0.3978053956303833,0.49747851,-1.2303804,3.1329427
368,1.0160416064655744,2.1380919823254447,1,,-0.12705895087921315,0.15446668216057904,1.1783341166511938,0.11768980709217408,-0.8080978763734281,1.8926537597978108
369,1.0004307988256456,1.7967563131315316,1,,-0.11676097254650203,0.3094897135082451,1.0829969461301507,-0.4165184,-0.21411815,0.14807177
370,0.9909955030249429,1.4346850338854187,1,,-0.23715437351696994,0.3710534297515641,0.9738738637755577,-0.4165184,-0.21411815,0.14807177
371,0.9873104837775485,1.0829363510130763,1,,-0.40572956180331,0.3147625789578971,0.9755721880335954,-0.28532019968161354,-0.14369867112533297,-0.12396540852884266
372,0.9886597191937242,0.7688503791088749,1,,-0.36748766006061867,0.24332061373031963,0.9113190074953476,-0.030564530440463672,-0.136286062889124,-0.4574400029357942
373,0.9941903389608384,0.5133768524722925,1,,-0.2763703819915683,0.16881151586331047,0.8836113630419358,0.05965481,-0.30999196,-0.30999196
374,1.0029944102833857,0.3295983563066546,1,,-0.29655716759320894,0.1756248516097983,0.9091443645825221,0.036415045826240354,-0.32844706972655613,-0.28367634265450364
375,1.0141337232109724,0.22239780012995064,1,,-0.3157312661590533,0.259982066249591,0.8950862344501853,-0.0127831735,-0.36751625,-0.22796659
376,1.0266357747779937,0.18904733902502907,1,,-0.35970386499187196,0.37061283869382744,0.8846106041495504,-0.0127831735,-0.36751625,-0.22796659
377,1.0394874430982735,0.22043129298546554,1,,-0.3258684262413533,0.4122194505594695,0.9191293144187503,-0.048321508806546495,-0.3154779664555184,-0.2384377077578532
378,1.0516439278682543,0.30263053610220597,1,,-0.2522375621918788,0.3828707334240116,0.9136303230696748,-0.13209279,-0.19281286,-0.26312032
379,1.062062005455255,0.41865644551446496,1,,-0.3034027878417762,0.41773239004069346,0.8890575450268174,-0.1421210391570886,-0.14084830253970124,-0.3108304711906703
380,1.0697611027359697,0.5501957990765209,1,,-0.2942169448100461,0.35866500788580596,0.9189550527194001,-0.16724652,-0.010652645,-0.43036684
381,1.0739106542486418,0.6792863823914341,1,,-0.3030734838927987,0.3747177427923144,0.9244415820755297,-0.17388456647817727,0.022248979207038402,-0.49184092908098065
382,1.0739342380386427,0.789870242471136,1,,-0.32025926804584653,0.3915648404333472,1.0098661546144312,-0.13983500912973426,0.060285578888540754,-0.720748248231146
383,1.0696102900912354,0.8691657944584283,1,,-0.32335298715239014,0.4070800433109701,1.0807112458626293,0.004261058,-0.07989483,-0.8969527
384,1.0611413161046894,0.9087722478380669,1,,-0.3110377876047728,0.3660890190471592,1.023790793811434,0.11543753192256202,-0.24785928372831298,-0.9702705115419373
385,1.0491663258662673,0.9053891622219229,1,,-0.40099318429694814,0.12770136477863167,0.8797781305080203,0.44847634,-0.75101143,-1.1899004
386,1.0347075011239397,0.8610237949636227,1,,-0.5544899067089063,-0.10119561947615684,0.8275148541093564,0.4204027316150417,-0.7091516782538276,-1.0151923465588353
387,1.0190638119366704,0.7825925849053922,1,,-0.5715847126109295,-0.09534913687967828,0.6600926736186541,0.3291667,-0.57311225,-0.44741106
388,1.0036771454388196,0.6809114720265527,1,,-0.31792960454363295,0.22357925622647631,1.0580144574484496,0.2601637666168217,-0.3919795471884181,-0.31430066540683077
389,0.9899930247778812,0.5691927053428241,1,,-0.35448749222060705,0.2783098964800222,0.95181894219071,0.013848438,0.2545982,0.16085494
390,0.9793251048283614,0.4612737166988013,1,,-0.3686324149364167,0.22594503063393556,0.8805374692776903,0.04154786862884736,0.2117506450362059,0.13834915154755692
391,0.9727248281907319,0.36985123071951626,1,,-0.3204154739749455,0.21128707074153258,0.8500851425441435,0.15020229,0.043675844,0.05006743
392,0.9708620662196314,0.3049718168073515,1,,-0.26741469341187446,0.22045752316766923,0.8709411160898354,0.15020229,0.043675844,0.05006743
393,0.9739326383572754,0.27296159254429164,1,,-0.2387937534595253,0.25551141274482,0.8941420247662114,0.16404735037354695,0.03636872754127508,0.05525932831699841
394,0.981613216016007,0.2758931477791963,1,,-0.2342716560117886,0.27613224601681424,0.8819422849668287,0.21720926739736285,0.0072962781597772225,0.036520023995915814
395,0.9930795085665869,0.31160822072753064,1,,-0.24413011531297102,0.26612785170441516,0.8765414838394461,0.17150758,0.026631612,-0.16298546
396,1.0070933549343695,0.3742498140779703,1,,-0.2704530761956371,0.2572905201710601,0.9106221625157975,0.1564484894550661,0.03450340915506074,-0.2273288422005921
397,1.0221522272424495,0.45520818643247063,1,,-0.3127452552246021,0.2480685692273677,0.9445143164112145,0.0777643,0.07563378,-0.5635249
398,1.0366822080481397,0.5443485300449442,1,,-0.3386852766283951,0.23098780377006656,1.0046118553268246,0.0777643,0.07563378,-0.5635249
399,1.0492446640130157,0.6313633898402041,1,,-0.3320501763558674,0.24183387517063906,1.0245138131148888,0.08581992070042732,0.06933574933307157,-0.604828257193946
400,1.0587214777706726,0.7070827031523067,1,,-0.32262565457136944,0.22104841956651824,1.018974904781396,0.13635385,0.029827405,-0.86392945
401,1.064447143130271,0.7645796014734214,1,,-0.3604242854181959,0.20484262696444783,1.0065251754685451,0.1526141298571258,0.008279228089065607,-0.8943348439432287
402,1.0662677967598166,0.7999287832103124,1,,-0.4632913160125835,0.1390036049141466,0.9621890700491563,0.26738137,-0.1438107,-1.1089402
403,1.0645230028308008,0.812508457168353,1,,-0.40845214039602407,0.09846760333055442,0.9737509544720818,0.26478693166377687,-0.1415700494141053,-1.0907791416097954
404,1.0599606385924984,0.8047946837046794,1,,-0.2881597291331315,0.17372501659202597,0.9709126215768388,0.234954182852135,-0.12413264024891728,-0.8901546025533132
405,1.053605144340725,0.7816819747282855,1,,-0.29658238956127864,0.143712158558368,0.9911039331994045,0.1587244,-0.128897,-0.4261058
406,1.0466033885750237,0.749461626257156,1,,-0.334375813151756,0.150762522210884,0.9593845040076839,0.16513258837481234,-0.12074112459919231,-0.42901861140617487
407,1.0400707935606381,0.7146649005095966,1,,-0.29317036629425114,0.18639284467650702,0.9822847993933906,0.22903186,-0.039414786,-0.45806372
408,1.0349551075131245,0.6829972797233258,1,,-0.3197056368477367,0.1681189855420298,0.9820163147429226,0.24005876920450997,-0.03296200127157555,-0.45822708018086905
409,1.0319292084645302,0.6585458699226887,1,,-0.3299732109054814,0.1731056824449335,0.9444173857685848,0.37284255,0.04474111,-0.46019423
410,1.0313199127537993,0.6433603997809724,1,,-0.34895991283001304,0.1848914584049005,0.9529757512099469,0.37284255,0.04474111,-0.46019423
411,1.0330774212297849,0.6374236881409064,1,,-0.36802367566643884,0.16494180239580086,0.9234265883725861,0.3824247518370566,0.04795396583225929,-0.4555722268543243
412,1.0367884809189742,0.6389606536551825,1,,-0.38216785889589416,0.21478362663454578,0.9327887909635165,0.5539375,0.10546118,-0.37284255
413,1.0417339487716848,0.6449903236551863,1,,-0.41356357859557785,0.30840923769339185,0.9345499545971496,0.5600470565665339,0.11140561297620316,-0.3724710229874269
414,1.0469878466515035,0.6520001785867703,1,,-0.4712900296254023,0.3486605713995421,0.7932873104030931,0.71159667,0.25885928,-0.36325517
415,1.051550678838843,0.6566148846323606,1,,-0.49596017480372995,0.5064468339982673,0.4413271547125236,0.7068017150075887,0.26877216582543595,-0.3587086584104108
416,1.0545035704725931,0.6561441184749739,1,,-0.30084565639544536,0.3372201664837621,1.3936690983287539,0.505704318885103,0.6752076869441183,-0.16560539432263657
417,1.0551601296201212,0.64892949071675,1,,-0.3901857414810538,0.2068547953181368,0.8819426154175013,0.49002165,0.21518342,-0.022370555
418,1.0531851448545313,0.6344643418479261,1,,-0.5082987916618646,0.4330133657605741,0.6949143544292812,0.49002165,0.21518342,-0.022370555
419,1.0486536019986228,0.6133159213827899,1,,-0.4465911514316146,0.4344652993005707,0.9006066569288089,0.49002165,0.21518342,-0.022370555
420,1.04203964884483,0.5869149011011503,1,,-0.4817030251420928,0.3559755828222108,0.9434634445613889,0.5563944465187668,-0.19464233214710341,-0.056083726289391844
421,1.0341401799717795,0.5572814324347035,1,,-0.4799380956759383,0.3195794080408402,0.8940026345847377,0.5571333,-0.19920446,-0.056459017
422,1.0259456051680844,0.5267395944382927,1,,-0.39414527026843477,0.3132236808527889,0.846547309902196,0.4508576122124522,-0.07938380821476312,-0.05750093422278652
423,1.0184774742443383,0.4976518001560509,1,,-0.3638115868849739,0.31877764847328566,0.8265621553329263,0.44847634,-0.07669904,-0.05752428
424,1.012621786447164,0.47219158142518214,1,,-0.37611053882144974,0.3177785826603982,0.8290285279524119,0.4700570013817516,-0.12088799906482559,0.09045735394617038
425,1.0089910305697094,0.452164881715581,1,,-0.39480997095317716,0.31983737359670694,0.8356799415049095,0.4708469,-0.12250541,0.0958738
426,1.0078413155704864,0.4388824344641333,1,,-0.413999849143116,0.3450290088498759,0.8585183974192331,0.40902089975447775,-0.09007210494672646,0.12932065118806815
427,1.0090558828907543,0.433080565003709,1,,-0.39562395103798803,0.36907105120004113,0.859898506131579,0.3817975770381856,-0.06434875762417372,0.13704458044745957
428,1.0121902751563698,0.43488778938378736,1,,-0.37178115569360465,0.397245020590869,0.8640292648167076,0.38029942,-0.0628506,0.13741912
429,1.016563417665832,0.4438377209021237,1,,-0.3591458439978336,0.43439381037051106,0.8518522063121458,0.38029942,-0.0628506,0.13741912
430,1.021374432177239,0.45892952176635826,1,,-0.35467243027459455,0.47252750976895597,0.8400638087881644,0.3979855923940243,-0.12966506183939217,0.24844903588364853
431,1.0258253293675512,0.4787329160910888,1,,-0.36462684643313237,0.4975807420868574,0.8378157771851934,0.39947417,-0.13528858,0.257794
432,1.0292322630270454,0.5015282485875948,1,,-0.36737738551434534,0.510991619036499,0.8454496890879278,0.3627191699149423,-0.08015607079262989,0.3409763939413689
433,1.0311114968591195,0.5254677770087184,1,,-0.3469242849183235,0.5277221931856768,0.8249448945856462,0.35899413,-0.07456851,0.34940675
434,1.0312307126012574,0.5487441375804385,1,,-0.3317241818990895,0.5438812873809767,0.8146900642314289,0.3371002279800396,0.0006322590295643415,0.36844492061881096
435,1.0296218595234639,0.569753152499195,1,,-0.3133593870015185,0.5449491482017642,0.8109492201521367,0.3269631678231655,0.03594192024896933,0.49495482488961423
436,1.0265574442780627,0.5872369383906626,1,,-0.3047070611047214,0.5527995114836962,0.8120808934279767,0.32597092,0.039414786,0.5113269
437,1.0224965152680632,0.6003890770416135,1,,-0.2980889702857583,0.5511432472325054,0.8199234537732173,0.2408718919883195,0.06808946355997555,0.6251006628807143
438,1.0180090433843918,0.6089006575892169,1,,-0.28710545227604084,0.5321806678864669,0.8227671466264155,0.22796659,0.07243799,0.6423545
439,1.013688705241215,0.6129300006731656,1,,-0.28779170089941913,0.5025420145132888,0.8259544416753649,0.10790450789314322,0.11609692817173325,0.615977196571256
440,1.0100652526197622,0.6129923845265236,1,,-0.2873555261309825,0.4915493835012598,0.8177513955666004,0.08735169,0.12357068,0.6114618
441,1.0075287141332512,0.609786306839409,1,,-0.28394268038414316,0.491830198754004,0.8047699813149147,0.006359131644625902,0.16451196717491698,0.5180088422672632
442,1.0062775251396407,0.6039926761567329,1,,-0.26669374151260805,0.48644103845006825,0.8148734720888289,-0.00958738,0.17257284,0.49960902
443,1.0063001043925262,0.5960948071662445,1,,-0.2556910010557643,0.48287866662617485,0.8277939175533543,-0.0731235733696747,0.27701589557937795,0.4317210428607936
444,1.007394076913992,0.5862648461077349,1,,-0.259734735843775,0.48412438868158886,0.8269496097258991,-0.08735169,0.30040458,0.4165184
445,1.0092201263255163,0.5743459698920552,1,,-0.2772908829007014,0.49977904719105254,0.8303126069911434,-0.07542152249055262,0.3941416252875283,0.4045882324905526
446,1.0113798940489038,0.5599343560102936,1,,-0.30208878558604524,0.5214247739245974,0.8454901543481705,-0.07243799,0.41758367,0.4016047
447,1.01350119925496,0.5425387308643038,1,,-0.3252576478842978,0.5293086290335776,0.8447698741364928,-0.014065786087182017,0.42925811563592087,0.37825582438414945
448,1.015311054970409,0.521776267303435,1,,-0.34137808157002264,0.5377948970088249,0.8348276065571779,0.002130529,0.43249738,0.3717773
449,1.0166792577882617,0.49755625476365745,1,,-0.3430992514572595,0.5442943262538945,0.8349420107752563,0.002130529,0.43249738,0.3717773
450,1.017623216261503,0.4702074581254741,1,,-0.3705776197500394,0.507796152743838,0.7854583187163735,0.04680213505331086,0.4357462180601799,0.2946172416745795
451,1.0182763230471175,0.4405189556784608,1,,-0.3833277335999305,0.46952431734078487,0.7379637427635825,0.07516575170346042,0.40064420622314273,0.15260410985726558
452,1.0188333409521688,0.4096840467508632,1,,-0.412210357751277,0.4677857360799472,0.7715258763243092,0.07989483,0.3888215,0.113983296
453,1.0194917724881933,0.3791578395734516,1,,-0.4603401769607491,0.4795177593893988,0.7838742611371655,0.07989483,0.3888215,0.113983296
454,1.0204052754628066,0.35045625446680717,1,,-0.46830858617112203,0.4946495843790452,0.7686565689119199,0.08926775594137515,0.28493831447154283,0.02806485263739557
455,1.0216565426705002,0.3249346902454343,1,,-0.46746293365552605,0.49841859204772,0.7705257060759991,0.09267801,0.24714136,-0.0031957934
456,1.0232488202885661,0.30358831271185993,1,,-0.46424657372576555,0.4918969702818103,0.7667177117323677,0.140920145276714,0.17669251954537446,-0.08283360428708737
457,1.0251114472876157,0.2869121722086948,1,,-0.46019928749449884,0.49098812265821623,0.7660875225814355,0.15978967,0.14913702,-0.113983296
458,1.027114889913371,0.2748470003090961,1,,-0.45242347274353567,0.512809584439785,0.7668634447033391,0.1815779722310435,0.0634864575703543,-0.17709423154075735
459,1.0290919878659075,0.2668174643628585,1,,-0.43596961250143185,0.5388916495616963,0.7648164457330758,0.19068234,0.027696876,-0.2034655
460,1.0308627547253317,0.2618495524347635,1,,-0.41806383636922856,0.5566516245775688,0.7576716115823902,0.15599105100967184,-0.06604341452457588,-0.2263469964438617
461,1.0322599958802199,0.2587386853154123,1,,-0.4042037360276188,0.5623982649374358,0.7619251985903336,0.14061491,-0.10759171,-0.23648871
462,1.0331527902089048,0.2562334217360714,1,,-0.39630214810519915,0.5647610371525008,0.7772628910405492,0.05885646383407432,-0.12495633745338935,-0.2524062845996081
463,1.0334648251861356,0.25320134279977674,1,,-0.3885199797658738,0.5698853024965411,0.7854413595613338,0.020240024,-0.13315806,-0.25992453
464,1.0331848093861167,0.2487519716364636,1,,-0.3784836662303135,0.5753833282594827,0.7803115998550093,-0.01518045064915746,-0.12678237441684986,-0.22875451528797783
465,1.032367118954247,0.24230376635988546,1,,-0.3727972975025839,0.5652238929976194,0.7809730529345473,-0.033023197,-0.12357068,-0.2130529
466,1.0311228108991641,0.23359546246993768,1,,-0.36391947185219786,0.5456753699430295,0.777736240858571,-0.048277975857491544,-0.13743866018779483,-0.15342058323973054
467,1.0296036260307442,0.2226533543295576,1,,-0.3523580598995729,0.5386711086778483,0.7815212650547757,-0.056459017,-0.14487597,-0.12144015
468,1.0279831648746842,0.20973284913648205,1,,-0.3462411295468718,0.5466920393219206,0.7970031822566036,-0.08088672425419258,-0.14962579526015526,-0.08886987068852369
469,1.0264387967108373,0.19525347047104907,1,,-0.34939240343194017,0.5539803891955003,0.8085062683754779,-0.094808534,-0.15233281,-0.070307456
470,1.025135326726656,0.17974223108710974,1,,-0.3628814683662689,0.5472415454005897,0.8094864794240784,-0.09945403784697074,-0.12047795317723996,-0.06367102531481345
471,1.0242089961778664,0.16379353285044435,1,,-0.3755232545189693,0.5283490982369493,0.8034214124003194,-0.10226539,-0.101200126,-0.05965481
472,1.0237502278464055,0.1480471824328306,1,,-0.38106469354281897,0.5048356971277991,0.7983886571093358,-0.10615781665900105,-0.07460184711984452,-0.05186994815609771
473,1.023786076883343,0.13318090688098533,1,,-0.3795661666339922,0.49029128298933694,0.7956781191358292,-0.10865697,-0.05752428,-0.046871636
474,1.0242668092157028,0.11990968138211579,1,,-0.3749080639997396,0.48858130591327037,0.7989194358633461,-0.11816527633460602,-0.05181929738933892,-0.032926122819483754
475,1.0250628650745004,0.10898102816606814,1,,-0.3697733529001255,0.48938222470106624,0.8052312223019805,-0.12463594,-0.0479369,-0.023435818
476,1.0259772294531193,0.1011539525063758,1,,-0.3640106670995329,0.4887551533309495,0.8153093374067659,-0.12463594,-0.0522682921767802,-0.007966557752977395
477,1.0267742724224722,0.0971507705731044,1,,-0.3606106670685025,0.48690641237039556,0.8298066304991158,-0.12463594,-0.05539375,0.0031957934
478,1.0272210051925537,0.09757690558805478,1,,-0.35749162361233705,0.48742466796910233,0.8472772052567678,-0.11435940909596885,-0.052371241244382964,-0.0010357207872503287
479,1.0271322652856063,0.10281373911783682,1,,-0.34684160617404447,0.4952537285381892,0.8534662832948916,-0.07134782790453345,-0.03993121497547261,-0.022148492821495336
480,1.0264091370179913,0.1129019355905664,1,,-0.33941999114077487,0.5133717233714122,0.8413261174153333,-0.043675844,-0.03195793,-0.036218993
481,1.0250608438322855,0.1274434311263703,1,,-0.3416467910512578,0.5319852522245287,0.8296073330091025,-0.043675844,-0.03195793,-0.036218993
482,1.0232043739701095,0.14555454075139795,1,,-0.3415000019399289,0.5342864008755005,0.8103705331586372,-0.024744211457589968,-0.047447449639894695,-0.042529535924213734
483,1.0210421407843115,0.16589675407205412,1,,-0.3398605780183849,0.5226712847098323,0.7838467739000292,-0.056051405416818904,-0.08618219262314161,-0.08924211498067973
484,1.0188241803840399,0.1867958258697376,1,,-0.36106769674923,0.5041533930334376,0.7745050315336538,-0.098004326,-0.10865697,-0.1257012
485,1.0168054924353571,0.20643802222920407,1,,-0.385693321955634,0.4814578948920776,0.7891547953151191,-0.098004326,-0.10865697,-0.1257012
486,1.0152092447522858,0.22311149402778102,1,,-0.3993455092743251,0.46241103515990617,0.8120029518523653,-0.1387394314101197,-0.08693158425488336,-0.20554199934344247
487,1.0142025531416925,0.23544644626204997,1,,-0.406752161708831,0.45817970219270954,0.8245121678248984,-0.18806830138767877,-0.0569476962788327,-0.28925291440755985
488,1.0138856862971917,0.24260327698673811,1,,-0.39804452091654385,0.4590421844662542,0.8231947826336734,-0.19813919,-0.0479369,-0.29614353
489,1.0142910932417375,0.24436536778104928,1,,-0.37870187903912483,0.4550310590517737,0.8253284710637339,-0.17007792729687937,-0.028190085451009626,-0.2322262077723942
490,1.0153874700046237,0.2411140400869279,1,,-0.36401774171738494,0.45058087203273034,0.837098095997677,-0.14061491,-0.007456851,-0.165116
491,1.0170856402269508,0.2336937207843632,1,,-0.3631459901974548,0.44130600743319226,0.8417900233994693,-0.11893769884553103,0.03791405169831733,-0.12276982143501931
492,1.019245485492348,0.2232049688602417,1,,-0.36209438406976047,0.4184213129922077,0.847426345957012,-0.094808534,0.08841695,-0.07563378
493,1.0216850250826652,0.21077976623775926,1,,-0.3661753621089057,0.40296707747530075,0.8540630006213658,-0.07383406690741565,0.11963475952727637,-0.0512448634449772
494,1.0241933957229843,0.1973920761199541,1,,-0.3948777729082962,0.4193184318581319,0.8435593313694405,-0.049002163,0.15659387,-0.022370555
495,1.0265488355423174,0.18374049476935378,1,,-0.4148401717083222,0.4303701711610957,0.8390744731675697,-0.049002163,0.15659387,-0.022370555
496,1.0285411477590354,0.17021691595440627,1,,-0.4103912250844451,0.417594656632935,0.8453743463273977,-0.029527507241280976,0.16262174083142616,0.008232477343448567
497,1.029996284005574,0.15695326179005317,1,,-0.41364451684823034,0.4226082732754392,0.8331558563556538,-0.004261058,0.17044231,0.0479369
498,1.030799380528744,0.14392230067944436,1,,-0.42988142696588594,0.4614079340198258,0.8188963473580361,0.022640165074215617,0.16371700717764034,0.06452598955462144
499,1.030911886590004,0.1310601510516972,1,,-0.451608105195731,0.4934354395647288,0.8198275734933469,0.04554068539295107,0.152258014860124,0.049861045040082194
500,1.03037822891989,0.11837734025602308,1,,-0.45300409846583845,0.4873097135897598,0.8156998652753435,0.025566347,0.14913702,-0.0031957934
501,1.0293184504903115,0.10603142789724626,1,,-0.42673722219684007,0.46715948443058075,0.8039218962713114,0.025566347,0.14913702,-0.0031957934
502,1.0279064632662145,0.09434552492867561,1,,-0.3977665245388014,0.45742391091309886,0.8061009360790313,0.014452642662864551,0.11194885755532025,-0.008325195025185852
503,1.0263383384384932,0.08377126096200596,1,,-0.3870784058434385,0.45473401479934117,0.8153907140722595,-0.002130529,0.056459017,-0.015978966
504,1.0247986857756661,0.07480913715026877,1,,-0.3949934783163137,0.4580156015365335,0.8211091244574619,-0.005860137658518113,0.022478137117136896,0.0018402753252518412
505,1.0234332224198934,0.06791010598249347,1,,-0.4085233572749165,0.46019692636509596,0.8241481282226769,-0.011717909,-0.03089267,0.029827405
506,1.0223324185926232,0.06338578675481181,1,,-0.4167371939122406,0.4563956932053206,0.8181234444825372,-0.011717909,-0.03089267,0.004679166371660279
507,1.0215271342223913,0.06134960171292897,1,,-0.41748199743370834,0.44857674659319574,0.8101554828405665,-0.011717909,-0.03089267,-0.037284255
508,1.0209945731691246,0.061700020846278986,1,,-0.4177225660453468,0.4419659290781466,0.8139846977605723,-0.0005816525469704056,-0.028204607786784085,-0.05494866192429881
509,1.0206719190831448,0.0641448137887397,1,,-0.4193742730772408,0.4424241240354996,0.8235714251233544,0.009378011485254155,-0.030971779375471607,-0.08025765217298995
510,1.020474656081834,0.0682555888073663,1,,-0.4154137746848069,0.44938353438206075,0.82834963772973,-0.008522116,-0.04474111,-0.06924219
511,1.0203161724136631,0.07353694818635173,1,,-0.4078966852284661,0.4526804586065325,0.8230919075831026,-0.008522116,-0.04474111,-0.06924219
512,1.0201251774044642,0.07949463360391279,1,,-0.40305229601960474,0.4462195184718924,0.8124359069426756,-0.009226911076064714,-0.055665430536331356,-0.06607061232311255
513,1.0198582121851978,0.08569078267386372,1,,-0.4039937019825972,0.4414457016394245,0.8243740349875311,-0.010652645,-0.0777643,-0.05965481
514,1.019505685711378,0.09177966689741647,1,,-0.4079475451260005,0.4465388200441666,0.8404521725609546,-0.004244306216737162,-0.06832043398580812,-0.06572586762802946
515,1.0190906447860546,0.09752233823447087,1,,-0.40577336513723555,0.45209155653949956,0.8379614977575529,0.00958738,-0.0479369,-0.07882957
516,1.0186601024682507,0.10278280825095097,1,,-0.3912517168464174,0.4483354741954757,0.8242034960739033,0.011853662790392603,-0.04761314544590943,-0.08206711858010114
517,1.018270284044184,0.10751135840487902,1,,-0.38168606247800024,0.4407362729487674,0.8061107950262844,0.017044231,-0.046871636,-0.08948222
518,1.0179696962104374,0.11172184463399046,1,,-0.37856115436281185,0.4397726135644111,0.812450242675875,0.022291981098225257,-0.0511933127219378,-0.08793876340692458
519,1.0177856328539674,0.11546926616268817,1,,-0.3832058563756025,0.4469154970033655,0.8319402272784442,0.03183055360512943,-0.05362845731706373,-0.09080224237175175
520,1.017718567055449,0.11883191799117596,1,,-0.3898795984796159,0.45127697445874243,0.8405274494159055,0.023435818,-0.033023197,-0.10759171
521,1.017745144431098,0.12189989464525958,1,,-0.39244964886611333,0.4482851269859535,0.8366223740449918,0.02400850865795117,-0.030159744516650433,-0.11475034524040532
522,1.0178268371393981,0.12476917482887383,1,,-0.39021310891954725,0.4459020763644576,0.8266319388591493,0.025566347,-0.022370555,-0.13422333
523,1.017920122130578,0.12753855011834928,1,,-0.38723681161699147,0.453989735832041,0.8209501842462738,0.030700193476261482,-0.0191281249924262,-0.1312511000622616
524,1.0179853101821046,0.13030592014147363,1,,-0.39184494540440096,0.4635619311408171,0.8181705783916502,0.04580637,-0.00958738,-0.12250541
525,1.0179931046989794,0.13316139148993775,1,,-0.39275533416312397,0.4687350892531477,0.8144611036940712,0.04275150838458844,-0.00882366458419835,-0.12377826850855643
526,1.0179291517115623,0.13617678859619642,1,,-0.38938771497752955,0.46654583720509546,0.8121574516876292,0.033023197,-0.0063915867,-0.12783173
527,1.0177970783319064,0.139393399200911,1,,-0.3904855672510946,0.45999788847064627,0.8137401491726126,0.033023197,-0.0063915867,-0.12783173
528,1.0176202390914766,0.14281088301402084,1,,-0.4019843007271447,0.4573715170635716,0.8183812840261848,0.030260881712563754,-0.008002937367172292,-0.13358655558635427
529,1.0174418480141907,0.14637992524809887,1,,-0.41362546317534277,0.4602470351415734,0.8204127094264556,0.020240024,-0.013848438,-0.15446335
530,1.0173225806205386,0.14999988839652392,1,,-0.4123772709728199,0.45320944084809234,0.8187555911032448,0.018086609720331808,-0.024184826704125997,-0.1508025446733927
531,1.0173346215479784,0.15352136013217868,1,,-0.40588080782340064,0.4459335517880697,0.8081243010707002,0.0019147825957973438,-0.07120215515907868,-0.13220649989394753
532,1.0175519273534348,0.1567529948704838,1,,-0.4110083580001084,0.4498417886343537,0.8117023255347762,-0.029827405,-0.096939065,-0.11504856
533,1.0180377369893858,0.1594724635117729,1,,-0.4210843659378049,0.45168742703251585,0.8197170986504443,-0.03589012301785732,-0.0967553461676631,-0.11412996670063062
534,1.0188311691023613,0.16144181553483383,1,,-0.41974226170860435,0.43698338626587396,0.8232592311918141,-0.06498113,-0.0958738,-0.10972224
535,1.0199348755552882,0.1624272811807452,1,,-0.4098471491704978,0.424705582436408,0.8270191239169479,-0.06498113,-0.0958738,-0.10972224
536,1.0213058289046517,0.16222242891465316,1,,-0.398426391476607,0.4245605382802572,0.8282650665307536,-0.06466478814545369,-0.09919538873033439,-0.10940589814545369
537,1.02285172786263,0.16067215689040296,1,,-0.3929594699733167,0.42418367416346997,0.8330481866896443,-0.0628506,-0.11824436,-0.10759171
538,1.024435530968863,0.15769384989374355,1,,-0.3998766745466179,0.4260433179500648,0.8343717295839342,-0.05880945814153208,-0.11593513557764844,-0.10788036315440709
539,1.0258894497648816,0.15329176730531607,1,,-0.4058699048100491,0.4183598462580543,0.8452972596898062,-0.033023197,-0.101200126,-0.10972224
540,1.0270374090435905,0.14756178392947153,1,,-0.4021342988409805,0.40334685181499425,0.8606816735217956,-0.03121425780692675,-0.09616093717355095,-0.11101433907707006
541,1.0277224459515033,0.14068580219503093,1,,-0.41390482695954267,0.40213204750232684,0.8512473638803013,-0.018109497,-0.05965481,-0.12037488
542,1.0278338146265573,0.13291754679390413,1,,-0.42855170334871384,0.41369537896258457,0.8457891843879309,-0.015148581149567462,-0.057263300990429256,-0.11991935533978341
543,1.0273281914360948,0.1245630384568659,1,,-0.4283894538030391,0.4233809741831267,0.8536747318673392,0.008503943360718804,-0.03999284596254121,-0.11329689430053358
544,1.0262403059653127,0.1159594942469858,1,,-0.4111052406200147,0.41988140942059066,0.8475591656534978,-0.0010652645,-0.06391586,-0.08841695
545,1.024680415134858,0.1074559629611068,1,,-0.3868288871068303,0.41647690654524766,0.8419256488029457,-0.003660852491556161,-0.06632604915076513,-0.08127908318203249
546,1.02281900666137,0.09939796446875565,1,,-0.3758468771106543,0.4254149587702431,0.848001650631521,-0.03089267,-0.09161274,-0.0063915867
547,1.0208620512285491,0.09211693779332288,1,,-0.3696509590312669,0.4306210944306191,0.8484352808647418,-0.032105109449608184,-0.08956674829540827,-0.003512042761765197
548,1.0190218136823068,0.08592370758569141,1,,-0.36842468688460817,0.42515955978604614,0.844974718673231,-0.0479369,-0.0628506,0.034088463
549,1.0174883012024865,0.08110391807081582,1,,-0.3710947263680508,0.428962013113359,0.8400811672841596,-0.0479369,-0.0628506,0.034088463
550,1.0164055149390465,0.07791283272879286,1,,-0.38137499906285866,0.43874107048012273,0.8310589924969438,-0.047680160827257165,-0.0609507294468753,0.03465328932464018
551,1.0158554870719445,0.07656714575155772,1,,-0.38387871638928706,0.4357926029327816,0.8306685119472769,-0.04261058,-0.023435818,0.04580637
552,1.0158518406701065,0.07723227848169073,1,,-0.3775869027945813,0.4271147737538111,0.8373532634968334,-0.0440173988227791,-0.023904757562443334,0.04627530966403016
553,1.0163433201933183,0.08000449440351427,1,,-0.378449218498466,0.42621354511264486,0.8347009542728082,-0.084155895,-0.037284255,0.05965481
554,1.017226445150141,0.0848876027952031,1,,-0.3917415886911428,0.42747733300008095,0.8329388253976372,-0.08400883371165822,-0.03684307137163417,0.05927665253945824
555,1.0183651142041683,0.09176465487283413,1,,-0.4041761334431185,0.41940845881033967,0.8397959567676893,-0.07669904,-0.014913702,0.040480047
556,1.0196136379042189,0.10036741049696972,1,,-0.4031828108092328,0.40822775133349054,0.8500211860359538,-0.07671671655441133,-0.01472515189084345,0.04018543746204829
557,1.0208386146802835,0.11025071627574667,1,,-0.39760714416249326,0.3875799357898353,0.8718764472042184,-0.07989483,0.01917476,-0.0127831735
558,1.0219349010619856,0.12078283766942136,1,,-0.4094600052196493,0.3834677032293131,0.8680061077061038,-0.07989483,0.01917476,-0.0127831735
559,1.0228322101410432,0.13116293884129035,1,,-0.41751542210723863,0.3981302783519579,0.8508640389952027,-0.053619179870456994,0.014970654795312175,-0.11788580016397618
560,1.0234916556757563,0.14047205715622352,1,,-0.40879012384022045,0.415279205667858,0.8375021592014366,-0.053263225,0.014913702,-0.11930962
561,1.0238951555852247,0.1477557583769636,1,,-0.3822168728376899,0.4197079426462199,0.822233261208923,-0.02528507295413637,-0.03793391431585928,-0.1680123153903996
562,1.0240335726426422,0.152128646338304,1,,-0.3810073055331944,0.40687866788083166,0.8189899885720839,-0.024501082,-0.039414786,-0.16937704
563,1.0238999757969869,0.15288625451139015,1,,-0.39012086192163725,0.4157542936589934,0.858686654575092,-0.039820133874500896,-0.08332940872361128,-0.05090969847338475
564,1.02349136361721,0.1496095086423004,1,,-0.40813195570441063,0.41824410211888596,0.8789461974023336,-0.13451485304874958,-0.07814326291171098,-0.03165059480700777
565,1.0228168217828948,0.1422488292996299,1,,-0.4033099814477452,0.40221297653348626,0.8727902265133323,-0.13954964,-0.0777643,-0.03089267
566,1.0219060116329362,0.13117604295732624,1,,-0.3849327569095385,0.38253825159789817,0.8655188377270566,-0.13556614550747004,-0.09768176778834983,-0.034876162622809986
567,1.020812262069349,0.1171924728878813,1,,-0.37118561677006323,0.3612491736446316,0.8623163400266134,-0.13528858,-0.099069595,-0.035153728
568,1.0196087999455115,0.10148425203704141,1,,-0.36417804132369885,0.36019131198858007,0.8661546080746577,-0.07453514338147306,-0.059873825938257214,0.0020822537124877295
569,1.0183810499435721,0.08552382005774045,1,,-0.36811760869753873,0.37117708216248,0.8743258699472717,-0.06924219,-0.056459017,0.0053263223
570,1.017219292471979,0.07092826073405294,1,,-0.36941648275803196,0.3812422608698068,0.866451038047323,-0.026903399423454034,-0.0064222626528021775,0.0053263223
571,1.016214202027609,0.05929566799204731,1,,-0.3771861465996592,0.3861578437374741,0.8545653736770943,-0.022370555,-0.0010652645,0.0053263223
572,1.0154549113078788,0.052045300470445637,1,,-0.39741283467876276,0.39247809361257047,0.8539710951522804,-0.022370555,-0.0010652645,0.0053263223
573,1.0150270125150676,0.05028406536274678,1,,-0.41944116806242715,0.40939281748126066,0.8581534390703064,-0.04214618424712521,0.03001072273833494,-0.01539100338009249
574,1.0150070321603502,0.05471262779488902,1,,-0.41324386717367806,0.39589327102081395,0.8670389192649856,-0.04474111,0.034088463,-0.018109497
575,1.015450925393444,0.0655734388183863,1,,-0.37744898022787515,0.3512879611407986,0.8559200463163588,-0.08542941730520685,0.009120634495695851,0.034600365075883065
576,1.0163774039508198,0.08263478632618453,1,,-0.35660206351878815,0.3265092303206163,0.8588986875851399,-0.09161274,0.0053263223,0.04261058
577,1.0177511870349218,0.10520222012957438,1,,-0.3697662933019679,0.3265165904957743,0.8805238500237383,-0.012471361097713357,0.05535822391291732,0.08809413025895979
578,1.0194735171730098,0.13215112470502827,1,,-0.3836322949448057,0.3224568298048772,0.8901008252429555,0.0010652645,0.06391586,0.0958738
579,1.0213854853108106,0.1619792408341124,1,,-0.38111561726362075,0.3310816975608261,0.8928150312064294,0.09145984973264362,0.1364105380498385,0.0045842158585268555
580,1.023285174474274,0.19288223398280374,1,,-0.366800889062523,0.3436829003257803,0.8802829488713932,0.10865697,0.15020229,-0.0127831735
581,1.0249554275108779,0.22285685994451165,1,,-0.3780468427227297,0.37081677383607003,0.8773380582499272,0.14294752688055115,0.10008533304489536,-0.06114164508871196
582,1.0261967452797178,0.24983470006128403,1,,-0.40241018863191497,0.400728792502296,0.8778533579134382,0.15020229,0.08948222,-0.07137272
583,1.0268590187708637,0.27184494419844224,1,,-0.40930283795089656,0.4118954602913242,0.8678717530206042,0.19604613216967912,0.169925193544432,-0.09472713245998142
584,1.0268661136900856,0.28719661395750296,1,,-0.40035216440019805,0.4114541109639205,0.8326317535076533,0.2066613,0.18855181,-0.10013486
585,1.0262290830101828,0.29465961577980376,1,,-0.4107535367095129,0.4344167890637941,0.8099323187851531,0.2772205271241489,0.2072542572821181,-0.08738319393773675
586,1.0250464306219567,0.293614384897465,1,,-0.445503064815792,0.4782653537894281,0.8125696033980319,0.29507825,0.21198763,-0.084155895
587,1.0234915785089496,0.2841376963947905,1,,-0.46888877650556393,0.507152338326382,0.8075439838366014,0.2608493691595413,0.19946486049758455,-0.03239515566502406
588,1.0217879440439745,0.26700107701508796,1,,-0.44475329490592885,0.4755237618633577,0.8018952954030334,0.2514024,0.19600865,-0.018109497
589,1.0201730173125192,0.24357683579397646,1,,-0.4122395311515841,0.4180159431151202,0.8041936731471788,0.12843375987449115,0.11812851279297579,0.05321231750497103
590,1.01885659553858,0.2156691294429555,1,,-0.4073484197815008,0.3981639012590704,0.8031547523051819,0.09161274,0.094808534,0.07456851
591,1.017983106078071,0.1853052371599459,1,,-0.41694823741576326,0.41020356060159624,0.8034420379767614,0.05059841903733243,0.07470347568154576,0.0938693700321525
592,1.0176092937938874,0.15452794760083052,1,,-0.43116102191297284,0.42036236944583066,0.808496730785163,0.037284255,0.068176925,0.10013486
593,1.017704107462118,0.1252216787727316,1,,-0.440932105842304,0.4215398163171227,0.82311460354221,0.037284255,0.04687451359062958,0.11985931487152063
594,1.0181694452138936,0.0989878328192958,1,,-0.4440990300665147,0.4268489825945365,0.8440038960353801,0.037284255,0.039414786,0.12676647
595,1.0188729390956481,0.07706789497394426,1,,-0.4423595966201073,0.42761600160639934,0.8472394464330734,-0.0106759669492457,0.025490849025938626,0.0811268979197149
596,1.019680802531228,0.060302961369942,1,,-0.4320612033865143,0.4162452028402603,0.8339268847878132,-0.02876214,0.020240024,0.06391586
597,1.0204810441271546,0.049117433792618584,1,,-0.41672469090850583,0.40053548279752,0.8225364121242421,-0.03558471622474755,0.030094857194393747,0.007819127054350313
598,1.0211933342171355,0.04351946644903001,1,,-0.40700964541776985,0.3938197358256573,0.8300249581954842,-0.03834952,0.034088463,-0.014913702
599,1.0217678300534825,0.04311683194729479,1,,-0.40150726322248026,0.41294110129624007,0.8455426497211397,-0.012273155006397574,0.016952565434698003,0.013397780112950088
600,1.0221781004825572,0.04715127171812732,1,,-0.40190373669149554,0.42458212522129407,0.8480147191717432,-0.0010652645,0.00958738,0.025566347
601,1.0224125224756149,0.0545561706749623,1,,-0.40071646999939375,0.4237503386225086,0.8436207076520563,0.012809076783703464,-0.002826504577059813,0.039440687255467954
602,1.0224663939119853,0.06404126714450596,1,,-0.4012872011556178,0.4325356879752804,0.8318030708458841,0.01917476,-0.008522116,0.04580637
603,1.0223358407465535,0.07420413798122172,1,,-0.4057594843397977,0.4428929688900279,0.8135133963358677,0.052034376065270366,0.022194481203477327,0.015089773467097455
604,1.0220146952672124,0.08366227808823433,1,,-0.40842082843304855,0.4387350844822583,0.8177823144722786,0.068176925,0.037284255,0.0
605,1.0214955737711522,0.09119314942634353,1,,-0.41875940485045293,0.42319709033649794,0.8325670585423418,0.11008585558638669,0.030997915903808758,0.03841652041451757
606,1.0207752991598198,0.09586408354011203,1,,-0.41779059469343893,0.4324254433201571,0.8353834493570167,0.13209279,0.027696876,0.058589544
607,1.019862903867288,0.09713133221895055,1,,-0.40740169520767644,0.46321654868617346,0.825656931586731,0.10408925364524804,0.05160233408274795,0.03195203266730327
608,1.018787057925731,0.09489017032013232,1,,-0.4057832027798898,0.4662930276138554,0.8056463490670235,0.08841695,0.06498113,0.017044231
609,1.017599952063487,0.08946640304953318,1,,-0.4141689568491082,0.44675582010334325,0.8057889680750101,0.05567229781480708,0.05495725652361709,0.034418946824038364
610,1.0163761624812218,0.08155129962976695,1,,-0.42806295866439725,0.4461175588055904,0.819713447949937,0.036218993,0.049002163,0.04474111
611,1.0152066173167733,0.07209249290735903,1,,-0.43443538199812376,0.44619517556672134,0.8113610940659656,0.00682477274393092,0.04573614063918733,0.034289830351348916
612,1.0141887314012072,0.062159676004892674,1,,-0.42805323041420573,0.4331941847834945,0.7958025685001876,-0.011717909,0.043675844,0.027696876
613,1.013414390335001,0.05280548997143723,1,,-0.42913920219374524,0.4326547864561798,0.7961114276320428,-0.0200096903890651,0.03347057422961089,0.0021837027715314356
614,1.0129580153517517,0.04494000692404194,1,,-0.4397050915712742,0.44635977680127903,0.800501936398226,-0.025566347,0.026631612,-0.014913702
615,1.0128668432990324,0.03923324881535468,1,,-0.44249092056013906,0.4518945153634192,0.8025827672934381,-0.01250150317113754,0.02165452902040819,-0.0037152645658938203
616,1.0131544610668888,0.036055487296517905,1,,-0.43247293165730344,0.44840444182481687,0.804624387584277,-0.0031957934,0.018109497,0.004261058
617,1.0137974744330598,0.035460224028898014,1,,-0.42477964355276243,0.4472763309540609,0.8035030121238177,-0.01654692149607921,-0.001310325446972547,0.009116013469320885
618,1.014735172103531,0.03720965741810063,1,,-0.4229036659983206,0.4454317372713122,0.7977689850937238,-0.026631612,-0.015978966,0.0127831735
619,1.0158730731451429,0.04083686769669371,1,,-0.4215831724816743,0.4377972197221614,0.7975896718328797,-0.043246240222832154,-0.027846557428587083,0.007442757329284532
620,1.0170920096503115,0.045733407289642966,1,,-0.4187533866473809,0.43352272920365204,0.8100410872268685,-0.056459017,-0.037284255,0.0031957934
621,1.018263686727352,0.05124701243980996,1,,-0.41768719953894495,0.43958482307262253,0.8230638704404568,-0.052404452662616764,-0.039601148130309585,-0.005492555512418983
622,1.0192713820308534,0.056773431195509594,1,,-0.41796262408464263,0.4416043724610973,0.8288906069797356,-0.049002163,-0.041545313,-0.0127831735
623,1.0200317089995186,0.061829306255606536,1,,-0.4167169923682161,0.4363963940436615,0.8334684446196535,-0.05013143310529869,-0.03589896883400603,-0.021817325596702738
624,1.0205117478891923,0.06609832537032642,1,,-0.4150183060719597,0.4324514456640629,0.8376298398712893,-0.051132694,-0.03089267,-0.029827405
625,1.0207363012183492,0.06944832320452266,1,,-0.41508438930660374,0.4266532874661987,0.8365198054092198,-0.05936185281092505,-0.024857952714655837,-0.02818157334081488
626,1.0207823688457316,0.07192116082201086,1,,-0.4171507482731969,0.4207755248749193,0.8352590361503728,-0.06711166,-0.01917476,-0.026631612
627,1.0207612299658901,0.07369970504405479,1,,-0.42006716197153154,0.41664362022478657,0.8306000070726329,-0.07084400667330848,-0.01597560531532237,-0.027164804238893805
628,1.0207917534594142,0.07505761632702639,1,,-0.4224994913435207,0.4062335762874715,0.8283701501330424,-0.07456851,-0.0127831735,-0.027696876
629,1.0209709642429998,0.07629868429395158,1,,-0.42264514628329525,0.3911819113818992,0.8338504796673477,-0.07353020820329093,-0.015378939444419107,-0.01939042702471481
630,1.0213489688609798,0.07769363106677835,1,,-0.41850167084717926,0.37852672967607454,0.8379721689740333,-0.07243799,-0.018109497,-0.010652645
631,1.0219148357987995,0.0794236237765721,1,,-0.41042136790921074,0.37014632942344006,0.838860941931149,-0.05028385310308444,0.00404463706098293,-0.0010860871422566048
632,1.0225978884923488,0.08154047480222575,1,,-0.4097435612445542,0.3757149215599505,0.838352572578311,-0.025566347,0.02876214,0.00958738
633,1.0232851836966417,0.08395217324588314,1,,-0.4236578808334932,0.3994247289413151,0.8446767999067002,0.022443143183960845,0.057665811239901554,0.02526394882399244
634,1.0238510964515795,0.08643750096770744,1,,-0.4453595421606439,0.43101921818391886,0.8465448132427229,0.07882957,0.09161274,0.043675844
635,1.0241901687691062,0.08868554471687592,1,,-0.462354169396289,0.4555944630303245,0.8405845903771403,0.07978569192554788,0.07344639155171283,0.047500338882558266
636,1.0242420520476674,0.09034868168264712,1,,-0.4547742429950992,0.44786922977637755,0.8388858467374835,0.080960095,0.051132694,0.05219796
637,1.023999782423142,0.09109578293387956,1,,-0.41900840111016097,0.41003960186727484,0.8262305568394916,0.05497466264230201,0.0339637462595672,0.046629652412812625
638,1.023499858819496,0.090656993835591,1,,-0.3884606992631471,0.395598208067191,0.802912901184713,0.02130529,0.011717909,0.039414786
639,1.0228012511617046,0.08885837639913768,1,,-0.39715914885309916,0.4274555839910341,0.7939722820280808,0.040591457410873166,0.016651579899470473,0.058252439329048424
640,1.02196516281243,0.08564818601999473,1,,-0.4317039543181237,0.46503501268054676,0.8053345620585618,0.06711166,0.023435818,0.084155895
641,1.0210447534969467,0.08111427181789073,1,,-0.4498803757039252,0.4748043271851629,0.8240980141850021,0.056746448646849044,0.007456117552423631,0.09624864002455068
642,1.0200860983400846,0.07548708974209366,1,,-0.4369082067511362,0.46129973122059015,0.8295675135818376,0.041545313,-0.015978966,0.113983296
643,1.019134518681399,0.06912085971599759,1,,-0.41630791443343157,0.4478579635355637,0.8165747858509698,0.019540235801267326,-0.004353642255726606,0.07661618379779847
644,1.0182389594502392,0.06244995000505456,1,,-0.409138261491398,0.438686961966684,0.8041091265442409,-0.014913702,0.013848438,0.018109497
645,1.0174509540742742,0.055926883785358594,1,,-0.41613303663083,0.43426230098821716,0.8051201149489464,-0.013713588155845552,0.013848438,0.0037081289925002354
646,1.0168195573232635,0.04995676400510286,1,,-0.4226366719386273,0.4374671937076329,0.8147514583588267,-0.011717909,0.013848438,-0.020240024
647,1.0163856175338122,0.04484501442004187,1,,-0.41963897565137986,0.4386812503511584,0.8230206171459171,-0.02325331892520171,0.008080733217877169,-0.02254710634599639
648,1.0161775464247695,0.0407699749551956,1,,-0.4149948429737715,0.4328283161270599,0.8280030077547085,-0.043675844,-0.002130529,-0.026631612
649,1.0162085862386838,0.037782575511064995,1,,-0.4126851868693835,0.4240437297172984,0.8301751548625473,-0.040363557941482886,0.005230105956238614,-0.027367675184688325
650,1.016474625114041,0.035827034592211725,1,,-0.4095612442917553,0.42319984374631997,0.8256894459812845,-0.034088463,0.01917476,-0.02876214
651,1.0169522805468616,0.03477241227363738,1,,-0.4079438648245984,0.4342089255373819,0.8168664398913685,-0.030211034845112422,0.01917476,-0.02840964665170027
652,1.017598252675271,0.03444520962173904,1,,-0.4087415913350053,0.4401708408824664,0.8116424715578644,-0.022370555,0.01917476,-0.027696876
653,1.0183516119501888,0.03465653484766998,1,,-0.41904641522498387,0.4414183259104645,0.8130904403784145,-0.021358890096894335,0.012767552270890714,-0.022301332699154484
654,1.0191401215177698,0.03522166085371398,1,,-0.4292604724960693,0.44487616046594813,0.8155841389611389,-0.01917476,-0.0010652645,-0.010652645
655,1.0198901667146971,0.03597338990507125,1,,-0.43349764700483856,0.4455908800335197,0.8127526503495565,-0.023001061526709214,-0.005210425485012881,-0.009058352138467536
656,1.0205382614446523,0.03677232442859616,1,,-0.43286046981881193,0.4377729104278422,0.8165935084936262,-0.03195793,-0.014913702,-0.0053263223
657,1.0210413039779591,0.03751647359659504,1,,-0.4293602513547257,0.4252228120239485,0.827792170749435,-0.03407276793030449,-0.02035185339615452,-0.0017008882344238935
658,1.0213830348383,0.038150295892061405,1,,-0.4235887458767535,0.4127400542207121,0.8363630633487575,-0.039414786,-0.034088463,0.007456851
659,1.0215751683892462,0.03867092203228009,1,,-0.4218117411794023,0.40664105747059004,0.8378117724503131,-0.03454589206648465,-0.03122440766591491,0.009461689599430258
660,1.021652952359779,0.03912850246602079,1,,-0.4233038855757752,0.4103376684119644,0.8341540383639019,-0.02130529,-0.023435818,0.014913702
661,1.0216661334497172,0.03961885889005504,1,,-0.4237954766693234,0.41310267355441066,0.8300506639281159,-0.013437239671966125,-0.021536633279977416,0.0200686317360414
662,1.0216672408098275,0.04026895072218377,1,,-0.4251269406386014,0.412016272500767,0.8307056789125171,0.00958738,-0.015978966,0.035153728
663,1.0216995616094122,0.041217482439051725,1,,-0.4255930878478359,0.41033639640676184,0.8347270759729275,0.010355737688433746,-0.014698370213252165,0.03694656272655932
664,1.0217871524036228,0.04259334839978125,1,,-0.4210181662296596,0.413192649574289,0.8304506779509768,0.0127831735,-0.010652645,0.04261058
665,1.021928865754041,0.044493951722888135,1,,-0.41472369837822487,0.41895316978094055,0.8241459018205158,0.014465740285986028,-0.009691178068521343,0.04309131365753368
666,1.0220977969526595,0.04696478345035852,1,,-0.4172079573007393,0.42678573485704663,0.8250941546034302,0.020240024,-0.0063915867,0.04474111
667,1.0222466550885665,0.04998162918263108,1,,-0.42280347310065314,0.43283079103415717,0.8298733002605376,0.02091611721509775,-0.006616951027461612,0.044966473417765676
668,1.0223182225306404,0.05343733015314843,1,,-0.42135952819451683,0.4329447108704203,0.8299228908562312,0.023435818,-0.007456851,0.04580637
669,1.0222586517094012,0.05713577369719078,1,,-0.41387683822880866,0.4283275132354858,0.8308882872713682,0.0259573000592793,-0.005355616233325671,0.04265451816558861
670,1.0220305739622038,0.06079626128641289,1,,-0.41029801973130986,0.4274560012183861,0.8337956044113545,0.036218993,0.0031957934,0.029827405
671,1.0216231808060914,0.06407110171254371,1,,-0.41489647524099216,0.4333655323496593,0.8320022737171251,0.0404928467063833,0.006109784647993827,0.029050340623434243
672,1.0210572260855075,0.06657771553011675,1,,-0.4214561139568258,0.4347085065898995,0.8280261192538174,0.05965481,0.01917476,0.025566347
673,1.02038384248461,0.06794357219331519,1,,-0.42164659144061817,0.43329206536693543,0.8257987113851867,0.06019285498643904,0.02132694162936171,0.025925044050467323
674,1.0196771228183703,0.06785856661351564,1,,-0.4174637021951605,0.4334520156351744,0.8226706480852822,0.0628506,0.03195793,0.027696876
675,1.0190216790900473,0.06612631315238651,1,,-0.4114037629266548,0.44070286236323986,0.8163606467196546,0.06251981509848051,0.03245410898250722,0.02951619645170287
676,1.0184976453561079,0.06270449166261942,1,,-0.4121563633381423,0.4472271602785968,0.8123997725876052,0.060720075,0.035153728,0.039414786
677,1.018166346256846,0.05772528282479524,1,,-0.4201697521428464,0.450349099845513,0.8067435344505854,0.05738100117158411,0.03469839912895116,0.036834592768468004
678,1.0180597537003842,0.051489976363995965,1,,-0.4203729294646248,0.4502509997431318,0.8032548954436998,0.037284255,0.03195793,0.02130529
679,1.0181759235483396,0.04443661268024713,1,,-0.418187509149187,0.4497732085338067,0.8073997264708039,0.03509608705167882,0.02908595997704523,0.01925388240241467
680,1.018481132535488,0.0370850998467661,1,,-0.42253748464047386,0.45112556530369247,0.8140274659016652,0.020240024,0.00958738,0.0053263223
681,1.018917786548835,0.029969149260514524,1,,-0.42597475254680595,0.4536101123658511,0.8139676857687776,0.018799350749847846,0.008746987261352847,0.004605985641113697
682,1.0194158012510381,0.023567152712934032,1,,-0.4221024712907471,0.4556787720491064,0.8118260166799397,0.007456851,0.002130529,-0.0010652645
683,1.0199045825794157,0.018244082252326117,1,,-0.4185279028874486,0.4506253318336591,0.812837688696646,0.006618574935100381,0.0020257444857397487,-0.00043655743411144895
684,1.020323163186494,0.014213854251997287,1,,-0.41818874193446204,0.44633440633919247,0.8199328824564306,-0.0010652645,0.0010652645,0.0053263223
685,1.020627111001271,0.011527220742947012,1,,-0.42138931163196053,0.44465490386755535,0.8178676809453209,-0.0016819535799643742,0.0011533629399949105,0.0038286488779772205
686,1.0207919134633134,0.010085217956740243,1,,-0.42003739362377185,0.43811179636361297,0.8149116373930363,-0.008522116,0.002130529,-0.0127831735
687,1.020813304874843,0.009673532986107031,1,,-0.4229699567605885,0.4347187877613661,0.8176435153779426,-0.008229333146185342,0.0017645504396028087,-0.013295543425464346
688,1.0207053432843038,0.010009718504571743,1,,-0.42585560530192407,0.43450552348826765,0.8241967024117929,-0.004261058,-0.0031957934,-0.020240024
689,1.02049693150657,0.010793660032414292,1,,-0.4243671827898099,0.4310424000196927,0.8270566987528242,-0.004317829331936264,-0.003933820805769845,-0.01961553931139587
690,1.0202271149526352,0.011752327758155016,1,,-0.41810907167215855,0.43106863770494147,0.824551439870347,-0.004624440436399025,-0.016669894045319468,-0.008007402631309434
691,1.019939346220746,0.012672279243219162,1,,-0.4126042374701666,0.43694129358494804,0.8203101494652479,0.010652645,-0.008522116,0.0031957934
692,1.019675236303855,0.013416793791452282,1,,-0.4092245038300264,0.4436662868691501,0.8193284713035824,0.010652645,-0.008522116,0.0031957934
693,1.019468790066016,0.013927931717174874,1,,-0.40675232920549104,0.4478695924134113,0.8181802715282618,0.010587588419150112,-0.008326946257450334,0.0031632651126285967
694,1.0193422210244436,0.0142164398959571,1,,-0.4106060696393075,0.44662533857950104,0.8191526083244252,0.008522116,-0.002130529,0.002130529
695,1.0193040107179736,0.014343917549758925,1,,-0.4137698008780004,0.44375510495429127,0.8203136360133791,0.008403710846355925,-0.0019275487366101568,0.001995208829170383
696,1.0193492157049613,0.014402030793372964,1,,-0.4171536403395124,0.4437594876891769,0.8181372908332356,0.0010652645,0.010652645,-0.0063915867
697,1.0194615081676563,0.01449298804054676,1,,-0.42031115529411295,0.4444871269113982,0.8159550677876148,0.001061050445945402,0.01065545436871042,-0.006385967961656124
698,1.0196162454435203,0.014714239035180494,1,,-0.42152078078526184,0.4440032423718129,0.817890454432166,-0.0021045805273327517,0.012765874522281619,-0.00216512696112046
699,1.0197839669158457,0.015148868482925511,1,,-0.42056629715398003,0.4408650678098831,0.8183885029984563,-0.002130529,0.0127831735,-0.002130529
700,1.0199339948142492,0.01586181848083486,1,,-0.4174521037236406,0.4413015484283374,0.8152930493294546,-0.008374705972949235,0.0127831735,-0.004211921324316412
701,1.02003813361429,0.01690103546620514,1,,-0.4180911405236498,0.4394134734273441,0.8137953055903394,-0.008522116,0.0127831735,-0.004261058
702,1.0200746120611717,0.018301858781127826,1,,-0.42069398948599157,0.440298123002201,0.8193888770895204,-0.0115941443476737,0.019951239804784072,-0.004261058
703,1.0200321606359117,0.020092458554244352,1,,-0.4210315953609993,0.4438394277421597,0.8254551067427525,-0.011717909,0.020240024,-0.004261058
704,1.0199135287438281,0.022298038669411616,1,,-0.41919337800423984,0.4433059591307891,0.8204059998623254,-0.01575011781796773,0.020240024,-0.0032530054643054845
705,1.0197373353565433,0.02494201659317032,1,,-0.4183987941484899,0.4370594443030277,0.816655918299131,-0.015978966,0.020240024,-0.0031957934
706,1.0195374039497807,0.028043450670191088,1,,-0.4204008461652479,0.43053731194937545,0.8218944932735516,-0.013005531690425214,0.02123117047563116,-0.013107243827819257
707,1.01935949551489,0.03161128944023927,1,,-0.42032778987024316,0.42985256771472935,0.8225282932437943,-0.0127831735,0.02130529,-0.013848438
708,1.0192559687669407,0.035637110791609375,1,,-0.41963866192539506,0.43117608362603665,0.8234410481362917,-0.0020533916027049488,0.02618246333995036,-0.017750177953903563
709,1.0192789973692185,0.0400885318164055,1,,-0.420466402986311,0.43552489017973467,0.8273038631037588,-0.0010652645,0.026631612,-0.018109497
710,1.0194728195243994,0.044905217484666256,1,,-0.41945329334239606,0.4291166642380618,0.8254742688693716,0.007575252063136088,0.04967298950169624,-0.014269266515145445
711,1.0198655707016988,0.04999848238262411,1,,-0.42436602129757744,0.4106427721034179,0.8232635202296358,0.008522116,0.05219796,-0.013848438
712,1.0204616966766342,0.05525435954221958,1,,-0.4331893922223529,0.40381653673382906,0.8184815864444845,0.010413674262759343,0.051252179536867795,0.006958702002517741
713,1.021236322655734,0.06053940699915225,1,,-0.43897312881942996,0.4277903285941136,0.828254213487689,0.010652645,0.051132694,0.00958738
714,1.0221326813106715,0.06570864680903954,1,,-0.43490928906648546,0.44791105070014825,0.833469561177816,0.03205764503183089,0.05857791155431246,0.005864771484934228
715,1.0230629902476391,0.07061528412598754,1,,-0.42341484238971455,0.43423189020005987,0.820240548134292,0.035153728,0.05965481,0.0053263223
716,1.0239131447974588,0.07512157135208718,1,,-0.4104387852323668,0.4284292456170838,0.7986271622012887,0.06903362599285322,0.02669058288148178,0.021808435601387097
717,1.0245527020763625,0.07910944838020294,1,,-0.40712642958490397,0.4481173783716729,0.7948118108574108,0.07456851,0.02130529,0.024501082
718,1.0248522353198468,0.08248900738635065,1,,-0.4248359498399647,0.4775793663949875,0.8062646297377392,0.07546889178752895,0.03661170093781723,0.03170409826557339
719,1.024707961703862,0.08520284631543099,1,,-0.44740305783579926,0.49341724801159087,0.8108426366698458,0.07563378,0.039414786,0.033023197
720,1.0240688339103527,0.08722511411745498,1,,-0.45108176594453764,0.4872111934743863,0.8054278454512224,0.06058765828406728,0.05180570487876009,0.012666685395707967
721,1.0229573658612996,0.08855537717886638,1,,-0.4583380355129278,0.47302051376212173,0.8006016396513416,0.05752428,0.054328486,0.008522116
722,1.0214756302804646,0.08920881204726633,1,,-0.4680083236749329,0.48426358803870706,0.7811840141495222,0.06271663016050515,0.06817476988373256,-0.04080526414144933
723,1.0197923709407783,0.08920496200042768,1,,-0.444697133189636,0.48924234830342667,0.7695951805761782,0.06391586,0.07137272,-0.05219796
724,1.018113548302931,0.08855744050155506,1,,-0.414071103348096,0.4686217832876866,0.7863542782949146,0.04181461742451554,0.04162103695932596,-0.021596228462065475
725,1.0166439842922872,0.0872673691810548,1,,-0.4043702578625406,0.4439380195064836,0.7962674776269094,0.036218993,0.034088463,-0.013848438
726,1.0155502026805496,0.08532389924161084,1,,-0.4132225587975866,0.44499729340765376,0.7993588385992391,-0.032260356833413106,-0.046917596279679584,0.060476705812044416
727,1.014933467273837,0.08271402076462724,1,,-0.42807737175674265,0.4430746441559614,0.8095267290441478,-0.051132694,-0.06924219,0.080960095
728,1.0148181429992964,0.07944000938437148,1,,-0.43699497190687514,0.42869975827443535,0.8122891099407036,-0.07572926161274335,-0.029887680434232473,0.024387989182828498
729,1.0151557273222387,0.07553870239518429,1,,-0.4345223899931281,0.42265360126752494,0.8163931501672975,-0.083090626,-0.018109497,0.007456851
730,1.0158412289178227,0.07109592485656517,1,,-0.41979567541497304,0.4293932448824904,0.8237457719776765,-0.05414242098502731,-0.019717729353856427,-0.006213136462835981
731,1.0167369251391072,0.06625225511386908,1,,-0.4046355718350011,0.4352626722749707,0.8237099388195314,-0.04474111,-0.020240024,-0.010652645
732,1.017698499449004,0.06119993938531043,1,,-0.40372854163759764,0.441672851028802,0.8208648880288735,-0.036852960065640566,-0.049426172907280144,0.03667624572030886
733,1.0185991962749679,0.05617228839995573,1,,-0.41580172896044565,0.44440784363931485,0.8256655237671795,-0.034088463,-0.05965481,0.053263225
734,1.0193482890034193,0.051426372084526994,1,,-0.4239080458693232,0.4425996767572532,0.8314067758254056,-0.027112896448399777,-0.015476225599017741,0.03156146279923147
735,1.019900869708131,0.047219619230955356,1,,-0.42033249095175707,0.442505539248293,0.8278742199320035,-0.024501082,0.0010652645,0.023435818
736,1.0202573213351203,0.04378263132248842,1,,-0.4153933138664653,0.44818027344135364,0.8141158957996514,-0.01766018200873016,0.032989463626805555,0.002913117812130951
737,1.02045322348884,0.04129293596090748,1,,-0.4148876401116061,0.4520583889213956,0.7997864538395671,-0.019387063622861227,0.027167367903962635,0.0118215603982253
738,1.0205432391996019,0.03985512795411119,1,,-0.42126284980226153,0.4507640314054804,0.7966955599758354,-0.02130529,0.01917476,0.01917476
739,1.0205842170512052,0.039491166542019895,1,,-0.43365274735422743,0.4455214412045275,0.8064932880658601,-0.02130529,0.01917476,0.01917476
740,1.0206221918917044,0.04014172778490898,1,,-0.43946058542658456,0.44020420180572367,0.8154531381794553,-0.03140147119393169,0.03143440757717114,0.012684358142387789
741,1.020685542504832,0.04167680899675346,1,,-0.4376353719214397,0.4412464699688444,0.8147144474268113,-0.036218993,0.037284255,0.00958738
742,1.0207838743675426,0.04391201043815873,1,,-0.4352915353870672,0.4449699952782674,0.8095307763694228,-0.03409387644261305,0.03090891131259196,0.015254353718187499
743,1.0209107169995746,0.04662658664412008,1,,-0.4363243135394288,0.44539454228437186,0.8082911016247726,-0.033023197,0.027696876,0.018109497
744,1.021048115432393,0.04958056782825268,1,,-0.4374791240692533,0.4435447821602799,0.8089438688605951,-0.032329463202335165,0.013128500959595953,0.025046817393439117
745,1.0211718940889816,0.05253024429924358,1,,-0.435293867028391,0.4418359201269002,0.8089571835322801,-0.03469788444696302,-0.0015235555224322437,0.03492702995016603
746,1.0212569675006309,0.05524282056331492,1,,-0.43274273333454283,0.4417791025240209,0.8112013310691394,-0.036218993,-0.0053263223,0.03834952
747,1.0212822618050905,0.05751128418114266,1,,-0.43295471276255215,0.44235297969808757,0.8159155295571459,-0.036218993,-0.0053263223,0.03834952
748,1.0212346969029404,0.059169635762004937,1,,-0.43121358133676857,0.43994531996417646,0.8203426621658712,-0.04086831000634896,-0.0033337578598005013,0.04631977825959482
749,1.0211115528603554,0.06010727472016385,1,,-0.42818063711723986,0.43297009151701804,0.8212125363783022,-0.043675844,-0.002130529,0.051132694
750,1.0209207367789566,0.06028022481427663,1,,-0.4277426458907295,0.4254265455191654,0.8196473491217837,-0.042378653645991575,-0.001481934431853559,0.04918690999113179
751,1.0206790730426394,0.05971654836417463,1,,-0.42797772086108665,0.423633956661791,0.818442029587201,-0.041545313,-0.0010652645,0.0479369
752,1.0204094049939774,0.05851400573263575,1,,-0.42860818113607774,0.4281465992418071,0.8197513810624666,-0.03138846186218725,0.0014739483738398938,0.04920650706262689
753,1.0201374789768896,0.05682954109671576,1,,-0.4295326014196299,0.43411525056062233,0.8222735224249604,-0.024501082,0.0031957934,0.05006743
754,1.0198891392512384,0.05486186052217303,1,,-0.4281303490720195,0.4355763650327114,0.8211492609984142,-0.0201655018138391,0.011247585190910887,0.04820932379062933
755,1.0196877614617477,0.052829579911454955,1,,-0.4257835272357155,0.43216279746186315,0.8187757612665894,-0.012769329115944751,0.017044231,0.04565023709965605
756,1.0195516987076871,0.05094789944216003,1,,-0.42384389343387324,0.4320138695793722,0.8163533506160782,-0.00958738,0.017044231,0.04474111
757,1.0194919051699927,0.04940659731931399,1,,-0.42176779815574794,0.43813767847531765,0.8152485456987884,-0.00958738,0.017044231,0.04474111
758,1.019510351804974,0.04835156712908146,1,,-0.4205283393245139,0.44490249316268277,0.8157337245548272,-0.002529839804715289,0.01586797424557627,0.04650549319929924
759,1.0195998526589596,0.04787141370840991,1,,-0.419910598934204,0.4452907061551158,0.8158195371442648,0.003775843683311958,0.014333652043395763,0.045036650216978814
760,1.0197454629919864,0.04799001110316252,1,,-0.4193143906536195,0.4418046372732287,0.8171520361699659,0.004261058,0.013848438,0.04261058
761,1.0199270607611588,0.04866551782142349,1,,-0.42064366246842516,0.4418911514411103,0.8185243628332683,0.004261058,0.013848438,0.04261058
762,1.0201223892951239,0.04979600590790218,1,,-0.4236832984402406,0.4459548924508364,0.8174868751318994,-0.0002059208863212577,0.021665650526899085,0.0431689520987086
763,1.0203097851076144,0.05123133391042083,1,,-0.4258266379630447,0.4495340400588677,0.8137839866422515,-0.004261058,0.02876214,0.043675844
764,1.0204700222399161,0.0527901003788822,1,,-0.4249144528561803,0.44959288093105954,0.8098115578996901,-0.0037155757734839393,0.02658021129876082,0.04749421845907457
765,1.0205871563454005,0.05427970402108953,1,,-0.421509207095382,0.4488864511841513,0.8092457269065071,-0.0031957934,0.024501082,0.051132694
766,1.0206487812002327,0.05551708586784519,1,,-0.4206736279141037,0.44949358114705645,0.8113097091611992,-0.010637239283327113,0.025032614076908277,0.04847503411442561
767,1.0206463664862275,0.056347807410082364,1,,-0.4235801002567677,0.44961998301426326,0.8133757714056908,-0.018109497,0.025566347,0.04580637
768,1.0205760938201403,0.056661567675915986,1,,-0.42567590641968006,0.44949103018349007,0.8144805788167532,-0.021219119589263844,0.026084617836975826,0.04787945334790331
769,1.0204400248583931,0.05640277289045022,1,,-0.42650952543606707,0.4488005018461609,0.8134492083497755,-0.02246737456435184,0.025106331184625092,0.04905057580489834
770,1.0202469848735038,0.055575181511675543,1,,-0.4263484605834734,0.4475642844865897,0.8117023336675027,-0.020240024,0.023435818,0.0479369
771,1.0200125491565828,0.05424005917689945,1,,-0.424424856459166,0.4467238071680468,0.8121004829350015,-0.020240024,0.023435818,0.0479369
772,1.0197578996980383,0.05250788297489837,1,,-0.42235281893382937,0.44553176222710983,0.8130218372227009,-0.018304624782380475,0.022468118845396498,0.04551765211349124
773,1.0195077415844078,0.05052446229283425,1,,-0.4199766696449606,0.44396792308631605,0.8154231323704094,-0.01788333967338592,0.018924822237879984,0.040706205432763924
774,1.0192876659979588,0.04845322466316853,1,,-0.4194279946459434,0.4438801391567861,0.8177514516968808,-0.020240024,0.015978966,0.03834952
775,1.019121299978907,0.04645608445265534,1,,-0.4214305824621959,0.44402735569696694,0.8158751542734654,-0.020699876537056426,0.019197929442608973,0.03375100153629336
776,1.0190274628002975,0.04467552311729826,1,,-0.42174623825133145,0.44164050511306036,0.8151077078495813,-0.02130529,0.023435818,0.027696876
777,1.0190175316326344,0.04322016831683537,1,,-0.4219597799659739,0.4407034045664671,0.8154427621435094,-0.02130529,0.023435818,0.027696876
778,1.0190933295383233,0.04215539594263276,1,,-0.4237419422702773,0.44165738974577434,0.8142297096190021,-0.01999233416326229,0.023873469808632964,0.027696876
779,1.0192459597905357,0.04149955614921815,1,,-0.42485620514146283,0.4415051803825371,0.8132141533753533,-0.018109497,0.024501082,0.027696876
780,1.0194559922164441,0.04122558525327015,1,,-0.4256319407982462,0.44252114532643066,0.8128744367051146,-0.018954249100194342,0.022389199965268062,0.028964005538038465
781,1.0196952360089124,0.04126715099219659,1,,-0.4251644206159882,0.444255561160046,0.8130218372227009,-0.020240024,0.01917476,0.03089267
782,1.0199300618828109,0.04152811550819761,1,,-0.4237859125577876,0.4433238368380644,0.8138633503268361,-0.02146355315797151,0.020806131955391296,0.030076983639448274
783,1.020125926434723,0.041893948992474804,1,,-0.4246791479405282,0.4427466832871027,0.8150360367399839,-0.023435818,0.023435818,0.02876214
784,1.0202524535890651,0.042243756523840124,1,,-0.4281891640805297,0.4429196290044421,0.8148213742893592,-0.023435818,0.022258274577939965,0.027977111543248806
785,1.0202881945647708,0.0424617863753692,1,,-0.4300155234706199,0.44373405791118326,0.8155060449148146,-0.023435818,0.020240024,0.026631612
786,1.0202241040771598,0.04244762006512446,1,,-0.42748886960009247,0.4425747179177201,0.8164409864734645,-0.024567534672765377,0.018731068672397443,0.02776332831863846
787,1.020064951723866,0.04212455002125885,1,,-0.42441623183181826,0.4406314581780257,0.8163557806394656,-0.026631612,0.015978966,0.029827405
788,1.0198283778231219,0.04144576717306306,1,,-0.42292609732033726,0.4393590573743328,0.8155270721334991,-0.02553633948074164,0.01634405695399383,0.029827405
789,1.0195419542441078,0.04039791589858418,1,,-0.42389315369092967,0.43911239873338137,0.8142429269934177,-0.023435818,0.017044231,0.029827405
790,1.0192391184515521,0.0390015214402693,1,,-0.42317187249880045,0.4386263912753081,0.8148057658199414,-0.02133151981309293,0.016342798271030978,0.0301781215290992
