id,ASVM,GSVM,walking_nonwalking,normal_abnormal,ax,ay,az,gx,gy,gz
1,0.941954980443283,0.3643956375141304,1,,-0.2743770400697486,-0.896384290252023,0.08855299210229793,-0.05406189,-0.3600006,-0.028015137
2,0.9532220278963115,0.34771375160558526,1,,-0.23183026759686126,-0.900165359581319,0.1017499562418591,-0.05406189,-0.3600006,-0.028015137
3,0.9644402252530302,0.330044212304355,1,,-0.18928349505750697,-0.9039464289165219,0.1149469204020367,-0.05406189,-0.3600006,-0.028015137
4,0.9754381012777088,0.31040957492432397,1,,-0.1780555698566236,-0.9134283468413562,0.1341279255055858,-0.061079430217304824,-0.34123643587588337,-0.050791415032643075
5,0.9859188460318985,0.28821770419315823,1,,-0.2003822378087632,-0.9290180775523008,0.15972015191805425,-0.07561546897154532,-0.30236859779403136,-0.0979698920926592
6,0.9954554587881519,0.26337741327100783,1,,-0.22270890572602384,-0.9446078082388911,0.18531237829054228,-0.09015150770307749,-0.26350075977289905,-0.14514836907897266
7,1.0035287190519113,0.23632397945879294,1,,-0.26927551920780257,-0.9425775626632925,0.20839735308771776,-0.07501956339014125,-0.21456605718440566,-0.14422245795672037
8,1.0096014755094296,0.20795066318342906,1,,-0.31670733619354224,-0.9399184020429344,0.23139283577210018,-0.058828670967811574,-0.16527203508697705,-0.14157954261823816
9,1.0132140141639645,0.17945978435117785,1,,-0.34917390151411615,-0.9386408990618541,0.2439623840551318,-0.037365814722291585,-0.11156206333843052,-0.1175253882838889
10,1.0140805314784482,0.15216317929828982,1,,-0.36322388115832793,-0.9390636960088128,0.24370153571740485,-0.009415157511310276,-0.05241772146423693,-0.0671220667002758
11,1.0121662938929448,0.1272733444521755,1,,-0.3772738607805907,-0.9394864929551109,0.24344068738008545,0.018535499656006264,0.006726620317560831,-0.016718745195403242
12,1.0077285250035837,0.10572897037694685,1,,-0.3491077351647985,-0.9383035904861788,0.22945829424715203,0.03570062333858182,0.029670851141167756,0.02237415791800919
13,1.0013107454731598,0.08808880618489627,1,,-0.317816398894291,-0.9370018199008125,0.2144601106377963,0.05206730610154174,0.04993522850206335,0.060629763436806344
14,0.9936890700109805,0.07450728735461316,1,,-0.289250931191305,-0.9327462605174506,0.19698009764171914,0.06375043163746008,0.051884312641073876,0.08048980051579825
15,0.9857781360974078,0.06478165884267606,1,,-0.26454633128087746,-0.9243070116452486,0.17598486941754926,0.0687998569711298,0.027891968569178048,0.07429470904530314
16,0.9785119731145422,0.05844352809891913,1,,-0.23984173137045,-0.9158677627730465,0.15498964119337938,0.07384928230479951,0.0038996244972822145,0.06809961757480801
17,0.9727196858389114,0.05486385672936188,1,,-0.23531008954033664,-0.9115540915220172,0.14607523718007584,0.0557727199005713,-0.0011082143142914335,0.04538751502970755
18,0.9690165435653103,0.05334801425203631,1,,-0.23310462240138285,-0.9077161469507153,0.13855389151913314,0.03502946447334494,-0.003926920748201338,0.02077081068780185
19,0.9677279520165452,0.05321052783357925,1,,-0.2374500100040443,-0.907286718750131,0.13793140622996303,0.013428423367839901,0.0007651734666416763,-0.0026132571209180502
20,0.9688575996264505,0.05383073155391804,1,,-0.25251185823614664,-0.9124332394913126,0.14859467961174758,-0.009575858420752327,0.017744091711400387,-0.02398087027567865
21,0.9721031227659039,0.054695842941538994,1,,-0.267573706468249,-0.9175797602324943,0.15925795299353215,-0.032580140209344556,0.034723009956159095,-0.045348483430439256
22,0.9769144614717586,0.05543604502961446,1,,-0.28904598631803985,-0.9228797418553006,0.1747014697389664,-0.03492039168527142,0.04283322187076933,-0.04651196428594152
23,0.9825831738014296,0.05585018213227731,1,,-0.3115432597066019,-0.928204261039056,0.1909093216899391,-0.033956575720843055,0.04952537527277567,-0.04444491292490997
24,0.9883465843590771,0.055915939476067905,1,,-0.3270208903880278,-0.9317412989767712,0.2014321700872771,-0.02926488622833587,0.0534514178416284,-0.03554725962798087
25,0.9934895180682422,0.055778222439851546,1,,-0.3291663995172289,-0.931883446572354,0.20115772273894045,-0.017492998402280312,0.05212389875157321,-0.013676522326371347
26,0.9974286003130753,0.05571349345548937,1,,-0.33131190864978177,-0.9320255941681587,0.20088327539017503,-0.005721110557834605,0.050796379659444155,0.008194215009404848
27,0.9997690000842736,0.05607336423119896,1,,-0.31671798473831203,-0.9319206664737844,0.19657681345965056,0.002353100291623863,0.04688500150573755,0.02259935690129849
28,1.0003296879976047,0.0572151640103774,1,,-0.2986390710064749,-0.9317643000677002,0.19143092466560221,0.009657490168583537,0.04243568861360756,0.03545023324891545
29,0.9991391578782995,0.05942933363720087,1,,-0.2821880300914857,-0.9322699728293528,0.1875400504424978,0.01763559310247901,0.03735406374960768,0.043549361456983446
30,0.9964077915819528,0.06287366650252642,1,,-0.26935266529146573,-0.9342461039230308,0.18643669505324545,0.027110083261451475,0.030868007792302005,0.041094359300759636
31,0.9924849631757262,0.06752366423367953,1,,-0.2565173004713942,-0.936222235019796,0.1853333396622694,0.03658457343522507,0.024381951824863753,0.0386393571407006
32,0.9878087053649397,0.07314726243429602,1,,-0.2571943812603179,-0.934723061446371,0.18368476239495424,0.048309345557406916,0.012948161321244217,0.022485524194674388
33,0.9828540902670988,0.07931070056785831,1,,-0.2613939251777215,-0.9323179354679948,0.18189405511986967,0.06062072766347612,0.00022458114703520745,0.002760640666483287
34,0.9780844681711995,0.08541960167423893,1,,-0.26615114493464165,-0.9278574693902268,0.1809609328387304,0.07083587388376904,-0.0055862711882619966,-0.014292503720870108
35,0.9739082331938449,0.09079484930854212,1,,-0.2723713318261647,-0.9180051703283156,0.18227753800410595,0.07555190408406348,0.006737234779463423,-0.024336797827738194
36,0.9706432481789458,0.09477686093981726,1,,-0.27859151872740495,-0.908152871251013,0.18359414317153833,0.08026793429172535,0.019060740766440737,-0.03438109195029757
37,0.9684913106463546,0.09684537614710408,1,,-0.2829919613278258,-0.9019006868333004,0.17557704107314095,0.07355908428731879,0.056004767904620674,-0.035580762183144043
38,0.9675254489881427,0.09673614695610182,1,,-0.286813827711685,-0.8967931361573659,0.1645923455889435,0.06321776564792982,0.100776734568428,-0.03396834002457345
39,0.9676925852043078,0.09453214190697616,1,,-0.2943738495083828,-0.8943862969352417,0.15643407143706636,0.05053540319145516,0.13423292532692951,-0.0312256581365716
40,0.9688325676358733,0.09070654892063527,1,,-0.31367294380949357,-0.9004606051984894,0.15715171627419366,0.03050137119161158,0.13215375231280713,-0.02493357836155614
41,0.9707116851316133,0.086099800636502,1,,-0.33297203808045506,-0.9065349134522477,0.15786936111019984,0.010467339223065347,0.13007457930193286,-0.018641498596370223
42,0.9730652233535467,0.08182403946707065,1,,-0.34122671239510266,-0.910120890437778,0.16035454034069802,0.0031613123271977215,0.09148855467798724,-0.009548291668802944
43,0.9756408043311224,0.07910446912765189,1,,-0.34527728692840465,-0.9127596748181495,0.16351253815800013,0.0007002481901485897,0.03900606028670754,0.000611174811595802
44,0.9782335569843725,0.079083622995796,1,,-0.34654969358575016,-0.914606833010845,0.16427301316645396,-0.0007930870491755281,-0.008901373322282044,0.009481591278774848
45,0.9807061296698348,0.08262581019868112,1,,-0.33718324862404103,-0.9134224992659181,0.15585229734606684,0.0014194459628250142,-0.03928884628672135,0.013415656791311764
46,0.9829905765805191,0.09016005338332239,1,,-0.32781680367696425,-0.9122381655228414,0.14743158153883468,0.003631978971369117,-0.06967631920368907,0.017349722297702846
47,0.9850739056740461,0.10159013747091884,1,,-0.3163712216631388,-0.9133794436742669,0.14830173861870835,-0.007365081980195326,-0.08832611366872162,0.026130232764145042
48,0.9869730794837045,0.11628450088250755,1,,-0.3039907980350173,-0.9155663858501372,0.15334934748068393,-0.02430156781623218,-0.10169830001467703,0.037089848488622505
49,0.9887073509112392,0.13314310495861928,1,,-0.2924327268393043,-0.9186045871483222,0.16005019694195102,-0.03881179058310403,-0.11667230146737413,0.04727523626493143
50,0.9902755443846504,0.1507271771572455,1,,-0.2848168078473852,-0.9257235121265933,0.1746762690371071,-0.04169111405021178,-0.13932500459640323,0.053749168596198944
51,0.9916436020265196,0.16743127491008689,1,,-0.27720088886736366,-0.9328424370937434,0.18930234110941419,-0.044570437512821436,-0.16197770769004408,0.06022310091735282
52,0.9927443178369925,0.18167421966511818,1,,-0.27882488626252033,-0.9347720679845506,0.1978247802811514,-0.03893633420494911,-0.1803518439420513,0.058143879507139166
53,0.9934878326163157,0.1920851278443413,1,,-0.28530778479650826,-0.9339728574079614,0.20313756388256402,-0.02882536149050515,-0.19647605358471334,0.05156689786774223
54,0.9937791506840808,0.19766261184881895,1,,-0.2902455430419849,-0.9329138098492278,0.207961343739999,-0.019610350324124375,-0.21045665478713788,0.046059208648626115
55,0.9935381164624977,0.19788893617662529,1,,-0.28554284363371973,-0.930233584324423,0.2097341255887907,-0.015985433169724277,-0.21106282864949166,0.04722306143146469
56,0.9927177725790096,0.19278613614794568,1,,-0.2808401442254546,-0.9275533587996184,0.21150690743758238,-0.01236051601532418,-0.21166900251184548,0.04838691421430326
57,0.9913182311721964,0.18290760904487266,1,,-0.27332421977244276,-0.9278664075073793,0.21343128848648615,-0.006334319407125748,-0.19474734131233634,0.04293407510912864
58,0.9893944626582355,0.16926631519239807,1,,-0.26409067411770804,-0.930007006893467,0.2154482287815863,0.001157984049354148,-0.16712401890358344,0.033441399098666655
59,0.9870572805529942,0.15320895422176348,1,,-0.2556732902650559,-0.931732599566577,0.2171967890824836,0.008880296769964794,-0.14006880674401015,0.02352766792749342
60,0.9844672339005456,0.13625300500402676,1,,-0.25431217741329765,-0.9298701784474789,0.2166250227607131,0.018591195053064696,-0.11792529239612687,0.009973630217355506
61,0.981821444435881,0.1199085132954268,1,,-0.2529510645615394,-0.9280077573283807,0.21605325643894258,0.0283020933361646,-0.09578177804824359,-0.003580407492782408
62,0.9793340366183634,0.10550761518918061,1,,-0.2507170670170207,-0.9253427729015584,0.2110605098163085,0.03430883349904038,-0.08337500841714873,-0.014635382896947323
63,0.9772118482106893,0.0940619547713528,1,,-0.2478675120114205,-0.9221118215896061,0.20295009204333575,0.03770340481206489,-0.07783458206549057,-0.023928021876283463
64,0.975628394156816,0.0861626842505368,1,,-0.24537739928639593,-0.9189033753193155,0.1952136622594056,0.04041497452332863,-0.07076033901212314,-0.03316528232676871
65,0.9747001745171903,0.08193157712718574,1,,-0.24772132766265426,-0.9159975932792059,0.1925068949549983,0.033941042202174754,-0.04305821427934749,-0.04165777186160874
66,0.9744698815294855,0.08102656878134717,1,,-0.2500652560425743,-0.913091811234557,0.18980012764636242,0.027467109870907246,-0.015356089503295329,-0.05015026140971581
67,0.9749004968680512,0.08270107565367836,1,,-0.2579450236186995,-0.9119059643064324,0.19099829883783637,0.018129046261998103,0.016632195362674174,-0.054159180794568836
68,0.9758825729251475,0.0859125388474813,1,,-0.2703180340208331,-0.9121161272377186,0.19536596904276515,0.006466269651713868,0.05209940322013147,-0.0545289465327952
69,0.9772543810907524,0.08947036223905773,1,,-0.28253588692705056,-0.9125580797718674,0.19967115971628738,-0.004828962109981932,0.08668660963932766,-0.05440373780739525
70,0.9788316001143832,0.09220688010275567,1,,-0.2904435548336571,-0.9194390118282028,0.20224070537199793,-0.005914012529071601,0.09682788945784203,-0.04052842810911455
71,0.980440543276715,0.09314921888806732,1,,-0.298351222752617,-0.9263199438952877,0.20481025103172268,-0.006999062949856345,0.10696916929219921,-0.02665311838915771
72,0.9819474144208917,0.09166732559872726,1,,-0.29908410003794994,-0.9283526608615154,0.20342596712476096,-0.003943219038681667,0.11342128986167671,-0.01687478449487567
73,0.9832764545779822,0.08757505167831518,1,,-0.2931278524624235,-0.9258653412462378,0.1983554906807102,0.002973219656628862,0.116433972532139,-0.010916099709056723
74,0.9844123340286834,0.08116649094584875,1,,-0.2871760748534098,-0.9233772020375495,0.1932859408722637,0.009885788442611024,0.11943879322930127,-0.004959137372954135
75,0.9853861740150825,0.07317790954238805,1,,-0.2969665482251097,-0.9180026131963022,0.19147977925181048,0.003169386973777446,0.09475541087486973,-0.005068248588725456
76,0.9862488447456228,0.06467604364372033,1,,-0.3067570216121044,-0.9126280243466585,0.18967361762853566,-0.0035470145055485555,0.0700720284818776,-0.005177359804667232
77,0.9870383521995525,0.0568854146378704,1,,-0.3072617531517327,-0.9121747331479071,0.18514524137655,-0.0044774222341658195,0.049959464521530404,-0.0018605537303123217
78,0.9877495092490104,0.050978652088737544,1,,-0.2978291684409012,-0.9169880638214678,0.1777036344691985,0.0007841631650237846,0.0347384502551884,0.005122564010508929
79,0.9883137206026396,0.04786205675256887,1,,-0.2883965837448053,-0.9218013944875091,0.1702620275734724,0.006045748555993692,0.019517436012624807,0.012105681740421089
80,0.9885949990313503,0.047991994539850924,1,,-0.28517814755856474,-0.9207856316393495,0.17549349058065739,0.00313438447197898,0.011222352009417322,0.008568176482845202
81,0.9884057213078962,0.051255821499350304,1,,-0.28217962322568607,-0.919563583615427,0.18117343951751685,-6.621125685672895e-05,0.003172369036559927,0.004658358010400634
82,0.9875424683681995,0.05694434828549815,1,,-0.28687157402185376,-0.9187682889194154,0.18674247511180678,0.0016549953465733217,-0.007150888606947785,0.0020048227144264354
83,0.9858387966024502,0.06383182821999266,1,,-0.30101674650057286,-0.9184975643874225,0.19217517474121165,0.009426138752149937,-0.0202684819909332,0.0008955253391096604
84,0.9832282134822413,0.07036456642517559,1,,-0.31516191895719425,-0.9182268398558524,0.1976078743621295,0.017197282145586402,-0.0333860753544262,-0.00021377203447416027
85,0.9798075051109245,0.07494159961702929,1,,-0.3018878756826162,-0.9194201044866095,0.1964033829515076,0.013914259256964176,-0.07504238721927059,0.00039885128552704914
86,0.9758886526715915,0.07625276125704342,1,,-0.28659299289413054,-0.9207212674305014,0.1947097200736286,0.009816526847463751,-0.11880204767397917,0.0011383828811583235
87,0.9720274658591338,0.0736243206077353,1,,-0.2736528823135345,-0.92311597421682,0.1949868602384343,0.010495935523183546,-0.1365798844471495,6.295231622915113e-05
88,0.969018755143077,0.0673143891402897,1,,-0.2640441261502316,-0.9270577444613844,0.19805214411463593,0.017933683610134872,-0.11760059384703961,-0.003580150014315379
89,0.9678509264204629,0.05870255834592518,1,,-0.25443536998692867,-0.9309995147059489,0.20111742799083754,0.0253714316970862,-0.0986213032469297,-0.007223252344859909
90,0.9696169905904466,0.0503308088330664,1,,-0.2641460976958182,-0.9319985923831509,0.20611088718358103,0.03634849362006668,-0.08722625730443757,-0.005641652431361751
91,0.9753841902994006,0.04577216770454465,1,,-0.27607776617920654,-0.9326593822449899,0.21132600669985072,0.04773243008248442,-0.07670308551899031,-0.0034594280725976844
92,0.9860309039830865,0.04932537017966971,1,,-0.2785387277798342,-0.9325750610218574,0.216802794025846,0.05861465838198399,-0.0728102898803863,-0.0027270949548413356
93,1.0020669697877496,0.06555513377104982,1,,-0.2655253442825249,-0.931273290436491,0.22270712470449308,0.06867713734634437,-0.07975097583719552,-0.004363763191411145
94,1.0234611196356906,0.0987180009076656,1,,-0.2525119607648859,-0.929971519849091,0.22861145539236397,0.07873961632642446,-0.08669166180484753,-0.0060004314305377735
95,1.0495049663520575,0.15213303352882496,1,,-0.26298813097146206,-0.9441314986529379,0.2496128952241351,0.09911137231043504,-0.09335527210669459,-0.027011431492078186
96,1.078744552580099,0.22757384652653184,1,,-0.2772111868613315,-0.9607578251854576,0.2730225179808803,0.12112759046503348,-0.09997468528083737,-0.05111288646193588
97,1.1090060375758204,0.32477065325190224,1,,-0.2955005567824557,-0.9726200959754436,0.30503654571884925,0.1617294637451278,-0.08961967439680311,-0.0792654369316615
98,1.1375314994372958,0.4411136431047328,1,,-0.32150321661431247,-0.9754455478126348,0.35337205520723314,0.23758600399219018,-0.047066300563797514,-0.11510240961364299
99,1.1612253892677527,0.5716368334044091,1,,-0.3475058764867909,-0.9782709996542399,0.4017075647711272,0.3134425443577563,-0.004512926664314639,-0.15093938235160934
100,1.1769936364719595,0.7093301520002064,1,,-0.37613963514521725,-1.0318069207422804,0.40734258892724673,0.5689313129108357,-0.04511806666505066,-0.17533321315221512
101,1.1821376656120604,0.8457764194018432,1,,-0.4053200735449067,-1.0958792709182117,0.40410546809302217,0.8617433849830286,-0.10300156746598609,-0.19734943130681357
102,1.1747478682025723,0.9720466579499805,1,,-0.43820638559546715,-1.1185320342253446,0.4251003879740765,1.0796389872816847,-0.04856592536198378,-0.12188740173090608
103,1.1540308115173332,1.0797286751961979,1,,-0.47931292624568356,-1.0493094364405218,0.49984590393499595,1.1313577088011466,0.2550117910097087,0.16979718965868917
104,1.1205076721659175,1.1619294928974058,1,,-0.520419466960117,-0.9800868385475587,0.5745914200126835,1.1830764304014043,0.5585895078556532,0.46148178150395675
105,1.0760409945783498,1.2140923503145216,1,,-0.30801489217293443,-0.925939816298626,0.48550855646894797,1.0817741426851846,0.6394298472869099,0.6295489863054384
106,1.0236799051482912,1.234501663524182,1,,-0.0296386430032478,-0.8757159393217262,0.35379232566806007,0.9406509099705377,0.6623068206028395,0.765447006515717
107,0.967350950450645,1.2244058196227035,1,,0.12060532317990955,-0.8428789749443916,0.2069836683149483,0.8238777345608829,0.4652444956661304,0.7874339794384616
108,0.9114494763473673,1.1877562639521144,1,,-0.06480679908716935,-0.8555888698818301,0.02063880018086162,0.7708921133239102,-0.3079721212712532,0.5110188968360372
109,0.8603945604245291,1.1306253285527752,1,,-0.25021892164390075,-0.8682987648391242,-0.16570606824433473,0.7179064920041628,-1.081188739416563,0.23460381380179451
110,0.8181995322144517,1.0604076546019467,1,,-0.2276081989684267,-0.8299864588795938,-0.14913608514186671,0.4436903824707799,-1.033590661002974,0.16493953138018433
111,0.7880923003612297,0.9849270443727589,1,,-0.13896043737198652,-0.7754771093787866,-0.06815060031569024,0.09924445538313824,-0.7254242205653162,0.16090847598375785
112,0.7722091775874744,0.9115736199242859,1,,-0.08776446493993523,-0.715035796810214,0.025794872356691236,-0.24603550145988823,-0.41114251363208115,0.15890607150582514
113,0.7713869443412583,0.8465909355280014,1,,-0.153997778696704,-0.6359949401110593,0.16037611124394768,-0.5939305430515717,-0.07768651693813049,0.1632644587226726
114,0.7850825400952759,0.794604552135866,1,,-0.22023109235000246,-0.5569540835353829,0.29495734992096007,-0.9418255840997702,0.2557694792348922,0.16762284593271135
115,0.8114458888985577,0.7584206298593621,1,,-0.20720309917165897,-0.6320887072715683,0.3433799254580316,-0.9406372378841847,0.3194081442711416,0.1737249374895949
116,0.8475525506591077,0.7390472614430836,1,,-0.164046857324509,-0.7658274267678755,0.3590524780133165,-0.8067577777936463,0.2804857494508079,0.1804898336479506
117,0.8897725736940757,0.7358468764022276,1,,-0.1572612438536114,-0.8744273697512808,0.3704797817059614,-0.6992514634582594,0.23464422218536266,0.18689903210721973
118,0.9342211865283477,0.7467382144962292,1,,-0.2895146175658964,-0.8869258662392938,0.36567819066570484,-0.6925653881516185,0.16235197841543483,0.19194845625699225
119,0.9772182509754552,0.768413220965446,1,,-0.4217679910715739,-0.8994243627077815,0.36087659963294944,-0.6858793128554226,0.09005973475844264,0.19699788039887653
120,1.015683431269602,0.7965819775646723,1,,-0.4583439045112541,-0.9037385488642707,0.367549084310667,-0.5990956662988882,0.1645718709498172,0.2275737716267702
121,1.0474109531161164,0.8262840002808036,1,,-0.45195744678114297,-0.9043777066764976,0.37937381170854484,-0.476345538624607,0.3050040704847726,0.2696118979945845
122,1.0711942665835232,0.8523013361852546,1,,-0.4597594917127162,-0.9057258975354493,0.37425466207204905,-0.38202067695360337,0.45442998832117987,0.321983056218152
123,1.086798913418172,0.869679914819407,1,,-0.5354426998604781,-0.9104662707225339,0.28807198446383125,-0.42368903208662057,0.6468839886621912,0.4237898906140547
124,1.0948056388041871,0.874316580011657,1,,-0.6111259078900071,-0.9152066439022132,0.20188930699024873,-0.46535738715454306,0.8393379887025492,0.5255967248509139
125,1.0963626814057692,0.8635157425698892,1,,-0.5439205553660784,-0.9094711060162189,0.19358545847650874,-0.5482322086315703,0.85009089577129,0.5161246442704599
126,1.0928965951349907,0.8363872044974189,1,,-0.40167024001757934,-0.89823362764488,0.2261835115339845,-0.6527486346303902,0.7654145274160271,0.4482089625516651
127,1.0858357063248023,0.7939681351266593,1,,-0.2817176672328341,-0.8884108963915943,0.26651030026922695,-0.7180881366876991,0.6537914910476402,0.37312680329242504
128,1.0763974381083252,0.739011753855054,1,,-0.30055440710590925,-0.8873940691482993,0.3549435683376536,-0.539576123563624,0.37444253100349395,0.2534378655408851
129,1.0654763743700992,0.6754751546803857,1,,-0.3193911469789844,-0.8863772419050042,0.4433768364060803,-0.36106411043954906,0.09509357095934762,0.13374892778934513
130,1.0536437655872355,0.607826428982581,1,,-0.3395744733128532,-0.9066781790491527,0.4842996810110048,-0.11213382344497999,0.10186474082265759,0.118789329921266
131,1.0412381613554613,0.5403407127830543,1,,-0.3605789700949796,-0.9399790383378294,0.4962498904242936,0.17973868072961188,0.28311665638812017,0.1676954004289787
132,1.028502345194204,0.47654208130113374,1,,-0.3790804038307826,-0.9676250150657605,0.48270866193692685,0.4319356015212851,0.4241327747942807,0.21390501183281704
133,1.0157130694747405,0.41888034236143507,1,,-0.3760070909852323,-0.9465296475266063,0.24944811558735935,0.3421552570313348,0.21834295772737547,0.23687293026092837
134,1.0032600088568229,0.3686482098742723,1,,-0.37293377813968204,-0.9254342799874519,0.01618756923779185,0.2523749125413845,0.01255314066047026,0.2598408486890397
135,0.99165375628316,0.32608813871936415,1,,-0.37344654100579194,-0.9034231818739816,-0.03011564708242572,0.19348342020480502,0.02429412471170637,0.23467051671883407
136,0.9814687466671228,0.29062224629623534,1,,-0.37648524259295923,-0.880767066953063,0.05526903104657323,0.15634923434505332,0.18925816313550486,0.17559284975425293
137,0.9732453528722685,0.2611455470756516,1,,-0.38146714513189117,-0.8583390890373125,0.13344680776234297,0.11525399191901894,0.33551681402351163,0.11994798635515265
138,0.9673821105413113,0.23633217416128907,1,,-0.4124679599115921,-0.8389658017423243,0.11512620665952673,0.02112132084532036,0.2313156013728531,0.11026739517612316
139,0.9640464599345173,0.2149125090004158,1,,-0.4434687747397227,-0.8195925144170708,0.0968056055280899,-0.07301135037543315,0.12711438855941048,0.10058680398197056
140,0.9631246804175094,0.19589075803774555,1,,-0.4693323531301804,-0.8100680219754554,0.1058800592763431,-0.10984532994918315,0.11677844942609966,0.07957100904818629
141,0.9642216940595215,0.1786865433585214,1,,-0.49103100332891186,-0.808528274683047,0.13716459401328032,-0.1002253569509127,0.18254220559104034,0.049365387892662906
142,0.9667107965241614,0.16319419107357508,1,,-0.512168764576793,-0.8074095354614603,0.16742617631936357,-0.08938459617724573,0.24392395153082577,0.020010219794460438
143,0.9698236154783195,0.14975808200994303,1,,-0.5178561390054176,-0.8178879888204809,0.16950925640485145,-0.044915713645124325,0.18459775639492493,0.014081843434429205
144,0.9727633209841573,0.13906813564227208,1,,-0.5235435134429272,-0.8283664421958711,0.17159233649359354,-0.00044683104353322717,0.12527156116634416,0.008153467065136607
145,0.9748206694221614,0.13199208325315953,1,,-0.5188130979699901,-0.8343937560208611,0.16537198086933505,0.015663337392935257,0.05345937225591584,0.015913231545647954
146,0.9754733566861261,0.12937744591115263,1,,-0.5043811146639534,-0.8362759457455341,0.1514190499496502,0.005364450685620243,-0.02998039964363896,0.036420078483521044
147,0.9744538020454758,0.13186600478352742,1,,-0.48995677111187214,-0.8381544840425249,0.13747291654845947,-0.004956251290815428,-0.11333665456245634,0.05691484249620947
148,0.9717773448555075,0.1397596918326545,1,,-0.48898137286430315,-0.8336050723235403,0.13549306263801483,-0.05368047321517836,-0.049670260040712184,0.05613894130308679
149,0.9677299457414239,0.15296082366772068,1,,-0.4880059746152105,-0.8290556605974483,0.13351320872447725,-0.10240469521565872,0.0139961345804922,0.05536304010875198
150,0.9628202941784174,0.1709890422019644,1,,-0.4868390695523821,-0.8223208148230889,0.1276852991929,-0.14581415830056008,0.07368671494369386,0.06647063065126281
151,0.9577052069775809,0.19305865974777223,1,,-0.48546745260285995,-0.8132498416051931,0.11774399703888908,-0.1835423912673586,0.12912733484814384,0.09028112156876875
152,0.9530996217763157,0.21818630287939658,1,,-0.48409583565548053,-0.8041788684014679,0.10780269490040856,-0.22127062417521778,0.184567954665984,0.11409161244907771
153,0.949683670156339,0.24529249864775465,1,,-0.46116148930717105,-0.808281529684714,0.11811392729954104,-0.23162079906811572,0.18433888471423462,0.08667146461321179
154,0.9480192084705074,0.27326569830997854,1,,-0.43747062171946205,-0.8128463835990353,0.12913571320217673,-0.24101042377402557,0.18215666198785546,0.05745390669442036
155,0.948486518358369,0.30097390869363433,1,,-0.4241373166780871,-0.8215129203266371,0.1422209635581129,-0.23261320881327746,0.18377016229805676,0.014046601406843377
156,0.9512485587311625,0.3272325797278722,1,,-0.4235210466937672,-0.835215511060356,0.1578397395315802,-0.2023772781228779,0.19004405860512522,-0.04678290287111266
157,0.9562455576241248,0.3507589627391257,1,,-0.42290477671041016,-0.8489181017726686,0.17345851548064772,-0.17214134747971319,0.1963179549023925,-0.1076124070540403
158,0.963217937561822,0.37015498446969414,1,,-0.404445722491986,-0.8573998443657798,0.18447839150138545,-0.11902230596375085,0.21682320108292658,-0.1299438406962008
159,0.9717519665248395,0.38395871998332914,1,,-0.3846774641876814,-0.8654985101915691,0.1951608258443301,-0.06422422932767262,0.2383726644100842,-0.1494505003318923
160,0.9813409093316257,0.390788632295006,1,,-0.38587438038346805,-0.8710663507513724,0.19304181507338738,-0.009069442348274009,0.284233669906619,-0.155085665683503
161,0.9914542594691945,0.38957772940407737,1,,-0.41669656882440514,-0.8730579564479325,0.1728334582529328,0.04658940133125133,0.3644486013363383,-0.14111942990586923
162,1.0016073812206985,0.3798622677418285,1,,-0.44751875726534235,-0.8750495621444925,0.15262510143247823,0.10224824501077666,0.4446635327660576,-0.12715319412823545
163,1.0114225008138817,0.36206017445870314,1,,-0.5081667039111774,-0.8849631808362736,0.12722709773331092,0.08258447980131123,0.4773191596503119,-0.05490303065790203
164,1.0206697383423515,0.33765834978749687,1,,-0.5722328561440696,-0.8957847083636561,0.1012343303046577,0.05428830472315503,0.5045242130364713,0.024026810435675214
165,1.0292756114359611,0.3092338954159972,1,,-0.5869398967892357,-0.9069075383305775,0.0866714570013686,0.03812734815513883,0.45790458101042364,0.08151676670090673
166,1.0372889920464954,0.2802643861925639,1,,-0.5210953805078735,-0.9185220784915101,0.09076158898832748,0.04177045036650481,0.2908068215555659,0.10401792235634093
167,1.0448029351988932,0.25473077304556424,1,,-0.45525086412364846,-0.9301366186705873,0.09485172098167599,0.04541355258356208,0.12370906183966658,0.12651907804692666
168,1.0518441084683836,0.23657003386486586,1,,-0.43459154091830626,-0.9235801775292056,0.09621366679434083,0.010065138484719266,-0.009637194196865645,0.10297928847826686
169,1.0582551080885554,0.22907578324657146,1,,-0.4211226005057377,-0.9141321627906027,0.0971414725361616,-0.03148804998499747,-0.13761252642211588,0.07211293908401564
170,1.0636030609778022,0.23435999067336472,1,,-0.4245155057016403,-0.9016589583084801,0.12023873870895067,-0.061313559215787294,-0.1653141100743955,0.05946009350720761
171,1.067147040830185,0.25297611166113143,1,,-0.45985309889549353,-0.8834545459959309,0.185335944364845,-0.06892103458595646,-0.0030475437046030385,0.0813126461858297
172,1.0678866495100727,0.283773137578372,1,,-0.4951906921445516,-0.8652501336549423,0.2504331501224348,-0.07652850996801007,0.15921902291868373,0.10316519889859005
173,1.0646967871793878,0.3240123854698059,1,,-0.547042664881986,-0.8611037456524085,0.261539239390895,0.033733636616032694,0.19367509249917228,0.14464344377228697
174,1.056532945556538,0.3697390663115351,1,,-0.6023190968440032,-0.859872461478075,0.26144960822247487,0.1684374955353156,0.20162808737596982,0.19019131672367742
175,1.0426721180156528,0.41636019339299907,1,,-0.6370010123615563,-0.857940608461006,0.2554504261406592,0.3048098648126457,0.17610342077669305,0.2402074021786509
176,1.0229415683742449,0.45934291199884564,1,,-0.6260614403504097,-0.8544568378504279,0.23636025926331916,0.44487835923566516,0.07641820220878491,0.3001215833527101
177,0.9978850292171257,0.49491927747199177,1,,-0.6151218683221731,-0.8509730672344074,0.2172700923561563,0.5849468538775009,-0.023267016514852405,0.3600357646203678
178,0.9688247505356973,0.5206721160594809,1,,-0.5579978938561424,-0.8403438317871694,0.1482439332342521,0.6063146382925743,-0.11244821989269398,0.3529513368857761
179,0.9377964972179009,0.5358885906482397,1,,-0.48887607937828437,-0.8278583388267292,0.06624534154939875,0.5968462087451006,-0.19890067764080563,0.32846192949342135
180,0.9073589269896235,0.5416065940218487,1,,-0.41594813423413135,-0.8099457925544069,0.011203348074084591,0.5627629729389572,-0.24447039438762722,0.27168141175564897
181,0.8803033605177725,0.5403394766690236,1,,-0.3330637670912476,-0.7778366680819654,0.026676868138880573,0.4642900949450439,-0.1830953305504866,0.13043087949282503
182,0.859309483078364,0.53553374056884,1,,-0.250179399818881,-0.7457275435593629,0.04215038822784943,0.36581721679729545,-0.12172026661746531,-0.010819652990661784
183,0.8466028547573385,0.5308739824103883,1,,-0.2519169849577593,-0.7441712810937021,0.03393822906923295,0.27947279959105154,-0.09034644631886588,-0.15367657156626882
184,0.8436689452698376,0.5295816361001197,1,,-0.2804762072171054,-0.7522990043474955,0.0182186953231311,0.1969725995631838,-0.0684817715956987,-0.2970426479723902
185,0.8510660961334302,0.5338482845760568,1,,-0.31312161567740715,-0.7631863174368194,0.013767222063144898,0.10537678122144165,-0.029934459265045153,-0.4197594138016211
186,0.86836003989098,0.5445033652563147,1,,-0.35855936001318406,-0.7827128843497064,0.04459187299905698,-0.014694050064670425,0.06084001320235445,-0.47783083653584224
187,0.8941812796844762,0.5609556917955725,1,,-0.40399710427797764,-0.8022394512320887,0.07541652388681451,-0.13476488116320676,0.15161448552794535,-0.5359022591793438
188,0.9263890020302415,0.581388079893895,1,,-0.4238441635036909,-0.8183760339659741,0.1373899849212973,-0.15014612139507866,0.1812782857130636,-0.592673075506457
189,0.9623138105713112,0.6031391716792835,1,,-0.4339777031657929,-0.8332258720599065,0.21118667693708162,-0.12579007479512566,0.18774615702076936,-0.6489502175669282
190,0.9990462662259951,0.6231830948808542,1,,-0.4536049323542215,-0.85124369378453,0.2705175942633166,-0.0832006633547741,0.16812321175928757,-0.6899517077712497
191,1.0337371698913334,0.6386163356389275,1,,-0.5094624033341699,-0.8813513161532992,0.2746435771037119,0.02897172900762273,0.048931327807819815,-0.6726575739663726
192,1.0638767117015748,0.6470778496148595,1,,-0.5653198742268573,-0.9114589384750338,0.27876955993766156,0.1411441211947828,-0.0702605559574453,-0.6553634401885124
193,1.0875224090145719,0.6470549714932553,1,,-0.5863615717327403,-0.9252108417493062,0.2646821604803365,0.16325497764627608,-0.21720328332847083,-0.5676229402240647
194,1.103451307963059,0.6380546217358682,1,,-0.5917905647406642,-0.9316282243795221,0.24242719425705747,0.14497884840868716,-0.37659053413646887,-0.4482916358348393
195,1.1112215324760872,0.6206390428888555,1,,-0.5888745744105167,-0.9355330747794114,0.2291280834762265,0.137770705144567,-0.5160241270922348,-0.3369443129280443
196,1.1111412943425303,0.5963347565603656,1,,-0.5461133157339737,-0.9274411941100785,0.2585910069266307,0.18340950634475225,-0.5601838510064049,-0.26371856202017574
197,1.1041571025760535,0.5674251143883705,1,,-0.5033520571242327,-0.919349313453387,0.2880539303310075,0.2290483074736402,-0.6043435748515884,-0.1904928112267011
198,1.0916837591622548,0.5366379160839253,1,,-0.4639649526315603,-0.9209776928826854,0.28610985991498855,0.27178852113921115,-0.5364406443729905,-0.14525887008725802
199,1.0754045065163815,0.5067483079318206,1,,-0.42634772428216866,-0.927704729608266,0.2676915905725172,0.3130083119983242,-0.4097564607266019,-0.11470773006855003
200,1.0570697992601077,0.48013710419457567,1,,-0.3916645740662191,-0.9322749829045708,0.2506449356560258,0.3370364967059633,-0.28011522304970143,-0.08184526173391123
201,1.0383186379302916,0.45837092346297853,1,,-0.37520081998470894,-0.9234525148091676,0.24211543177015654,0.25431201072995524,-0.13211192039589756,-0.034630413441880524
202,1.0205392667669797,0.4418911330999991,1,,-0.3587370659031989,-0.9146300467137645,0.23358592788428728,0.17158752475394723,0.015891382257906306,0.01258443485015018
203,1.004778335350908,0.4298993715631763,1,,-0.36383283024064356,-0.8997787244934744,0.2334070262609649,0.10701341860499654,0.183348519626802,0.04851651230301461
204,0.9917006374988827,0.4204979887865724,1,,-0.3820600895111025,-0.8812553412778147,0.23831431855366736,0.05349436571984266,0.3626546193982274,0.07757646732171258
205,0.981595790617087,0.41108467300619445,1,,-0.3995742583041603,-0.8636359091794406,0.24228970173321182,0.00011811831726503007,0.5258376197296163,0.10447033056516315
206,0.9744238710038436,0.39892856163808876,1,,-0.41096073846691356,-0.8537842584640961,0.23825705668067626,-0.05203098036773144,0.5504725202518187,0.11275065726187027
207,0.9698891562984132,0.3817982329110297,1,,-0.4223472186296669,-0.8439326077487517,0.23422441162814073,-0.1041800790527279,0.5751074207740212,0.12103098395857739
208,0.9675297088062347,0.35849358850544066,1,,-0.43180372760102875,-0.8414303679662785,0.22860903437500296,-0.1331860232507922,0.49999971746808547,0.12606258998297298
209,0.9668103531733052,0.3291593716797529,1,,-0.4399024055796477,-0.8440988052464792,0.2218801261136812,-0.14590960419964796,0.35471811908906337,0.12880855900957827
210,0.9672074283316111,0.29531566981528284,1,,-0.44713366564032503,-0.8466810660141306,0.21504576149544521,-0.1558631200261156,0.21481972795600277,0.1303879618275379
211,0.968275501146588,0.2596092586578827,1,,-0.44280122243714,-0.8481144922522882,0.20680553951177477,-0.12888840301446233,0.1466858366769482,0.11641566224551914
212,0.969689162339403,0.22534879239196057,1,,-0.4384687792271867,-0.849547918492685,0.19856531751523146,-0.10191368596066892,0.07855194529145422,0.10244336264167271
213,0.9712570223863547,0.1959237626258858,1,,-0.43832057874711805,-0.8493163377487495,0.18670542550503583,-0.0712043998783448,0.043389438761342464,0.0860996968426928
214,0.972909506614281,0.17421907797710642,1,,-0.44156079045097585,-0.847736429405825,0.171914313957333,-0.03747084867132665,0.0349272575223583,0.06783569163851748
215,0.9746660871939654,0.1621285658096798,1,,-0.44446066745369256,-0.8463724957295808,0.1576976087424814,-0.004259196574179953,0.025070205519678403,0.04963098339160953
216,0.9765903813275678,0.16024789166769413,1,,-0.43806369347513074,-0.8509082962795387,0.15917184013111776,0.014695846753626332,-0.022890234875095474,0.0330460783560117
217,0.9787427014783122,0.16779484697899755,1,,-0.4316667194865757,-0.8554440968365822,0.1606460715220572,0.03365089011104436,-0.0708506753447936,0.016461173294504774
218,0.981139190678221,0.18276560585463614,1,,-0.42094970612188326,-0.8609057081086958,0.16740394056925434,0.03857739851311003,-0.14998354434160768,-0.005063710440760041
219,0.983724922748677,0.20229296877141606,1,,-0.4062142261536153,-0.867228501225938,0.1790766077318652,0.03045467430654515,-0.2581127608495018,-0.031183723459632464
220,0.9863656939307921,0.22313331828405564,1,,-0.39149037830126426,-0.8735495241857152,0.1907596963385896,0.02232575072377706,-0.3661593823310853,-0.05728750756119733
221,0.9888599857737221,0.24218262705627883,1,,-0.39041484073871086,-0.8777935758090879,0.2146706233117315,0.006922883925245506,-0.3772947899852403,-0.06434942670143003
222,0.9909689610854475,0.25691775127533556,1,,-0.3893393031744772,-0.8820376274390908,0.23858155032222725,-0.008479982897348548,-0.3884301976567911,-0.07141134585269493
223,0.9924587393625189,0.26568120985629234,1,,-0.3919604273405352,-0.884021994401566,0.25639953165331564,-0.007328241853026515,-0.34226209331572577,-0.06954661835062816
224,0.9931462913758005,0.2677705917579975,1,,-0.39852862267446043,-0.883593607152923,0.26771183523814257,0.011499505287553634,-0.23490877467840912,-0.05815055902853846
225,0.9929389596752829,0.26334501213106204,1,,-0.40509681799812464,-0.8831652199049491,0.2790241388052972,0.030327252398720903,-0.12755545620880085,-0.046754499724251795
226,0.9918584649074618,0.2532048843946087,1,,-0.40709827614261096,-0.8774927439260531,0.26688811219929826,0.047221861948081305,-0.12961182028621257,-0.03379435608735451
227,0.990043356300889,0.23852388028217897,1,,-0.40894090030247254,-0.871637875263424,0.25393653799276694,0.06404923573409702,-0.13547352169407856,-0.020779812637997292
228,0.9877286204364089,0.22060709222100072,1,,-0.40491377118163346,-0.866308571690528,0.2459124335372812,0.05943286715524934,-0.1625665946881206,-0.012333908144667794
229,0.9852064085627644,0.20072213044123788,1,,-0.3936880121713274,-0.8616238179531555,0.24393134813702017,0.028518022770833637,-0.21569769328572774,-0.00949095479154863
230,0.9827761785582407,0.1800137310501511,1,,-0.3824622531785583,-0.8569390642231015,0.24195026273985398,-0.002396821565286615,-0.26882879180033303,-0.0066480014428707546
231,0.9806948633492276,0.15948207732705366,1,,-0.382357060540567,-0.8568787879251407,0.23569836217027895,-0.033599769464267425,-0.21143558408047633,-0.0005003343756682389
232,0.9791374702388369,0.13999028775521183,1,,-0.3830641972300089,-0.8571563180412242,0.2291344893334098,-0.06482376254964047,-0.1459688546176839,0.005888733684208466
233,0.9781759086661499,0.12226961764728654,1,,-0.3852665207647823,-0.8593173859490709,0.22763908057723398,-0.08354178689528514,-0.08281729955831003,0.012943948806122794
234,0.9777795041259599,0.10690603061551508,1,,-0.3895791791615602,-0.8641369145581513,0.2332973974776041,-0.08460865138343293,-0.022933425488321255,0.020939376409451618
235,0.9778356316886012,0.09430877880578302,1,,-0.3938918375583382,-0.8689564431672318,0.23895571437797422,-0.08567551587158072,0.03695044858166753,0.028934804012780445
236,0.9781843762978855,0.08467276348217449,1,,-0.3954684986331062,-0.8731058275999471,0.24230907049392547,-0.05996583392502776,0.023321219464968727,0.02984168195459632
237,0.9786581755469872,0.0779501362113489,1,,-0.39673256303951326,-0.8771786458558284,0.24539907727624966,-0.031196843790402145,0.0012928772769566649,0.02993866985202529
238,0.979116761742387,0.0738451580598368,1,,-0.39585879478237745,-0.8779316731011766,0.24444609983958326,-0.005156802701181188,-0.025430456031212946,0.02699094312651294
239,0.9794695739100413,0.07184170650433208,1,,-0.3915003931354052,-0.8732734935582706,0.23690312214215117,0.01643509454429323,-0.05980655041999303,0.019080379784461282
240,0.9796816791224376,0.07126538272281616,1,,-0.3871419914816242,-0.8686153140080876,0.22936014443293531,0.0380269918234987,-0.09418264486247578,0.01116981643005167
241,0.9797640388922073,0.07137303382988636,1,,-0.3841059958377149,-0.8649866594933813,0.22598654208205735,0.04907264982755384,-0.07270970646343256,0.0032121716964865466
242,0.9797532289020124,0.07145503978595444,1,,-0.3812799323081062,-0.8615214422024888,0.2232748285760482,0.05844409106554507,-0.04237072729654842,-0.004752947213724589
243,0.9796881626343414,0.07093324043822455,1,,-0.38183631611900104,-0.859835288937222,0.2239017490335417,0.0640470158062254,-0.007686844743552519,-0.009242982570907133
244,0.979591347941337,0.06943977083327028,1,,-0.38879269294080043,-0.8615153365951308,0.23084576237680823,0.06251945870597456,0.03521811207483211,-0.0071577461529096905
245,0.9794599393212305,0.06686610815524106,1,,-0.39574906977346713,-0.8631953842556641,0.23778977573092275,0.06099190160333733,0.07812306896024325,-0.0050725097316546746
246,0.9792682515942306,0.06337478125289515,1,,-0.4001442455232547,-0.8633252006159418,0.24206452357615807,0.04766681426767853,0.07982455824119848,-0.0017266600186498606
247,0.9789797494508328,0.059369103101367504,1,,-0.40400938407600845,-0.8631341986458155,0.24578687043336617,0.03190024354899651,0.07299904404699868,0.0018800719596058044
248,0.9785639708490703,0.055421301037558886,1,,-0.40615943796159243,-0.8625290974839531,0.24864619306684393,0.01898121973725078,0.055845747194800115,0.0050622194245523704
249,0.9780129452181033,0.05216731867582366,1,,-0.40451522089595854,-0.8610078873074577,0.24959625266492957,0.012361805967215264,0.015844362303114194,0.007305061245392709
250,0.9773523342075268,0.050185136940431245,1,,-0.40287100382775604,-0.8594866771285858,0.25054631226449936,0.005742392186838842,-0.024157022651062256,0.009547903069736836
251,0.9766442674534344,0.04987897752119384,1,,-0.39881384391989233,-0.8593521080786142,0.2467710930805686,-0.0017530708502868494,-0.027778305039182036,0.015232366001150847
252,0.9759810745122863,0.05139165518245282,1,,-0.39413093326866205,-0.8595771379761284,0.2417704628993305,-0.00947572057961891,-0.021965101229489664,0.02180934778143727
253,0.975471279299023,0.05456189555304981,1,,-0.38935629900644547,-0.8601861580873893,0.23682527582660343,-0.01593137751203326,-0.010048517129944742,0.02669141217815735
254,0.9752209056310414,0.05893497947588989,1,,-0.3843420658651882,-0.8617982309190263,0.23202491628056948,-0.019077417394626216,0.017811213402935618,0.027146042177660885
255,0.9753140823946477,0.0638258570350273,1,,-0.37932783271609766,-0.8634103037531816,0.22722455672703637,-0.022223457282133947,0.045670943979338706,0.027600672177874645
256,0.9757970264528388,0.06842491332646762,1,,-0.37950288777836977,-0.8635109190786997,0.22908171531059837,-0.03036082929683764,0.06928988440740466,0.021341868681255403
257,0.9766687440030356,0.07192854557849808,1,,-0.3813201773425302,-0.8631332091376102,0.23304575359592136,-0.04007778941319337,0.09156675799323528,0.01295849015045919
258,0.9778803656871863,0.07367110578114108,1,,-0.3841793128371213,-0.8638906943280583,0.23610053510711937,-0.0452401388216487,0.10559684762004952,0.00522451094912563
259,0.9793431654357975,0.07323360525426381,1,,-0.39029504199427323,-0.8681965633508223,0.23631316911406702,-0.036165722682582335,0.09384920625342166,-0.0004795810921902653
260,0.9809433668710766,0.0705091255953043,1,,-0.3964107711418712,-0.8725024323668592,0.2365258031206825,-0.027091306557692107,0.08210156490514608,-0.006183673124595175
261,0.9825602823530077,0.06571442271800147,1,,-0.4018554959854535,-0.8720426947177303,0.23591010776030696,-0.021445491869793384,0.06478464432572627,-0.008120698934428424
262,0.9840836575848728,0.059348998690508636,1,,-0.4070458884491968,-0.8697766376183506,0.2349804487105369,-0.01709922828911667,0.045356786308362,-0.008629884502886891
263,0.9854266025891096,0.05211343857664528,1,,-0.41079303350805707,-0.8678564251701298,0.2337315525307047,-0.012952095704442022,0.028694075885708575,-0.00746410146309149
264,0.9865320137943026,0.04480541692770213,1,,-0.4090418836930191,-0.8672537663548583,0.23126646854248237,-0.009563586271613984,0.022565662418165412,8.275757333765878e-05
265,0.9873723457147172,0.038213426948242486,1,,-0.40729073388071674,-0.8666511075405283,0.228801384558111,-0.006175076844079504,0.016437248960196115,0.007629616597977036
266,0.9879442921377781,0.033025367510993796,1,,-0.4068861209159197,-0.8673279362863775,0.22632093161040198,-0.006529509580686993,0.019925769276520667,0.009566249037276263
267,0.9882609075408848,0.029763059102911004,1,,-0.4070845442139201,-0.8685777737803968,0.2238335957952373,-0.008560190430524955,0.027721160061439282,0.008990384265301968
268,0.9883437721378162,0.02874656255672256,1,,-0.4069531743148585,-0.8701679145823128,0.22219164725855758,-0.009088398096624635,0.03447564897842226,0.008987541118735856
269,0.9882171116875543,0.030085911074144156,1,,-0.4052502388254195,-0.8733797048739579,0.22457822801910535,-0.0024568608787083773,0.036269921706935805,0.011715321517280235
270,0.9879046862182793,0.033694057710664846,1,,-0.4035473033386408,-0.8765914951605852,0.22696480877592481,0.004174676328848032,0.03806419443264633,0.014443101911563252
271,0.9874292209074833,0.03931396908317651,1,,-0.4007958245170566,-0.8757571533420024,0.22772442478753022,0.011096595213132509,0.0367716714549638,0.012174728423842807
272,0.9868135723280592,0.04655419967162309,1,,-0.3974950350091423,-0.8728031245688239,0.22763170680042003,0.018170639181302465,0.033862038504712824,0.007288970748079892
273,0.9860828585348328,0.05492955130987197,1,,-0.3952230419609572,-0.8701090706600662,0.22721295271625497,0.02373153672145035,0.034204491013919744,0.0028531129187767228
274,0.9852671881036047,0.06390502693257635,1,,-0.3993242978378411,-0.8690255243828799,0.22477445102091792,0.019918705590268208,0.05469315405457642,0.0012043212049598368
275,0.9844048819516178,0.07294117809637075,1,,-0.4034255537147251,-0.8679419781056936,0.2223359493255808,0.016105874459086067,0.0751818170952331,-0.0004444705088570489
276,0.9835458032644467,0.08153711869681331,1,,-0.4083696348208367,-0.867537120834033,0.22472685167553919,0.01769391022619284,0.09537650332817203,-0.0009060515189993964
277,0.9827536582315606,0.08926519237293429,1,,-0.41382644576382854,-0.8675451417016546,0.2300557054743064,0.022567544918757926,0.11539234972355279,-0.000645396951641729
278,0.9821053750454527,0.09579055728635953,1,,-0.41884358764041785,-0.8671747478301833,0.23434925727765496,0.027289114930877968,0.12986417239205011,-0.000367001508092954
279,0.98168550942289,0.10087155588874872,1,,-0.42009404492874103,-0.8635624407930494,0.22977328352435175,0.030707933051530138,0.09683984396836702,6.338161636879069e-05
280,0.9815744876259599,0.1043430932000377,1,,-0.42134450221901776,-0.8599501337502726,0.2251973097638999,0.034126751177523215,0.063815515493093,0.0004937647415028838
281,0.9818313698384133,0.10609340182752228,1,,-0.42033153167114223,-0.857109580418833,0.22047902585487825,0.02374338537691234,0.007896720604917938,5.663627436054502e-06
282,0.9824741352165878,0.10604997818156918,1,,-0.4177279905004095,-0.8548113588342806,0.21566073683440573,0.003660859777461073,-0.06411062157512507,-0.0011278806609157364
283,0.9834623645229926,0.10418814314380613,1,,-0.4147067110913945,-0.8531401812489329,0.21170269746979883,-0.016194453495891256,-0.13090227215678293,-0.0014893276235909661
284,0.9846878300864434,0.10056449438151562,1,,-0.40614074466611694,-0.8597918299222538,0.21916284958332427,-0.033033951315320595,-0.12846545426300138,0.008397360920686811
285,0.985977499452702,0.09536280993753558,1,,-0.39757477822745746,-0.8664434786059658,0.22662300170850402,-0.04987344916105675,-0.126028636365413,0.018284049480409664
286,0.9871109517110922,0.0889303286020565,1,,-0.3955711620089929,-0.8722630471005807,0.22875303250674972,-0.05360005474184072,-0.11101845489986108,0.024786117175034716
287,0.9878508489860466,0.08178296098423372,1,,-0.39887565812990117,-0.8774095678417624,0.22657166847961466,-0.04671998696579052,-0.08583801061391834,0.02855045415887146
288,0.9879818463913116,0.07456759344069464,1,,-0.4019278957962367,-0.8823602931595576,0.2247818283994457,-0.03968217717034503,-0.06114525010692337,0.03167907590462106
289,0.9873510276021372,0.06798319066725984,1,,-0.3981462026216936,-0.8820067268403081,0.23359875885554524,-0.028370980565976183,-0.04966432597315473,0.017585543774797718
290,0.9859021606225695,0.06267494856485445,1,,-0.3943645094412427,-0.8816531605205065,0.24241568932541865,-0.017059783943936882,-0.03818340182145048,0.0034920116229573295
291,0.9836969355080286,0.059124087127474044,1,,-0.3884991604095258,-0.8797952435406756,0.24276019413653366,-0.0038412702728680232,-0.022378805591619134,-0.0050272522568469815
292,0.9809186526237708,0.05755849240168967,1,,-0.3806978135449829,-0.876539581534509,0.23523267077550808,0.011149398680217143,-0.0025569337685857328,-0.008367267780610959
293,0.9778570332878544,0.05790602575336338,1,,-0.3729101642449768,-0.8732811508207575,0.2277145736703395,0.02613224900378132,0.017250945746164554,-0.011718205946935253
294,0.974876170617808,0.05980354925328963,1,,-0.3771727489333193,-0.8675869830733968,0.2284890856464651,0.0342367877434291,0.024749311020720356,-0.024678193828132987
295,0.9723703503927135,0.06266237410346119,1,,-0.3814353336283209,-0.8618928153171403,0.22926359762380064,0.042341326495737866,0.03224767630699017,-0.03763818172957693
296,0.9707140370915548,0.06577799481160547,1,,-0.38641459580159776,-0.8572709723507806,0.22796974186255456,0.04844535714614349,0.04574169917545632,-0.046717418515392385
297,0.9702126992035132,0.06846196927729538,1,,-0.3921582134211198,-0.8537927920363336,0.2244699173587549,0.052415793169930815,0.06563024901111972,-0.051657731925937304
298,0.9710606468013476,0.07016891571545412,1,,-0.397901831031669,-0.8503146117273201,0.22097009286042268,0.05638622918751549,0.08551879881571305,-0.056598045328764425
299,0.9733109793628246,0.07059268859051034,1,,-0.4058897527943613,-0.8516512683482412,0.22021649345408864,0.048057133315278465,0.07494857588531988,-0.048166499654808036
300,0.9768612218908781,0.06971272059996654,1,,-0.4139550510013187,-0.853153925205051,0.21955757514111363,0.03930398878126921,0.06332823152485277,-0.03927393489410031
301,0.9814563369666341,0.06778298373797825,1,,-0.42234677141654414,-0.8559308973088986,0.2203713273489491,0.02807437421352365,0.0491115436504003,-0.03351986753954971
302,0.9867087452799868,0.06526917762016206,1,,-0.43113835513500837,-0.8602688903109935,0.22298908328332967,0.013811113538863773,0.03171436608878452,-0.031610421856461374
303,0.9921331141205985,0.06275083544984277,1,,-0.4399299388397382,-0.8646068833063116,0.22560683921362076,-0.00045214711351390695,0.014317188554346778,-0.029700976176355986
304,0.99719232933145,0.06081101846094098,1,,-0.4366427707005787,-0.8652616747103409,0.22916499474734622,-0.008296095433881765,0.031254293275406686,-0.01767659159543526
305,1.0013504328193088,0.059936044812386555,1,,-0.43247722627297597,-0.8656486208089362,0.232791536870775,-0.015673226320829244,0.05068821386370418,-0.004916640755957026
306,1.0041282252766646,0.06044224169044351,1,,-0.4283432335044757,-0.8706657843451283,0.2362164605327025,-0.022869242235155404,0.03564240528694815,0.008114982218467166
307,1.0051571643391546,0.0624384541201683,1,,-0.4242537213118206,-0.8822104862459342,0.23935714866493651,-0.0298099277947028,-0.028011866790429663,0.021529600178620798
308,1.0042266231018029,0.06582460955915123,1,,-0.42016420911916563,-0.8937551881467404,0.24249783679717055,-0.03675061335425019,-0.09166613886780747,0.03494421813877443
309,1.001318695709402,0.0703198002240799,1,,-0.41497429164464045,-0.8970810174610312,0.2268894784210638,-0.049269243808008685,-0.04514920560298822,0.032120215524021126
310,0.9966245457384858,0.07550930208959558,1,,-0.40965903696789857,-0.8994707093421995,0.2091455857906767,-0.062423207484064366,0.01391633295829931,0.027446618541177317
311,0.9905378472922398,0.08089949083006187,1,,-0.3969254041615486,-0.8922687181480523,0.20734297255922574,-0.0672896415732993,0.05746553190411671,0.024821261405566532
312,0.9836243455728046,0.08597207889460631,1,,-0.3721144872478134,-0.8694512541609593,0.23149311582801738,-0.0586637936298367,0.07575378557238109,0.02553048418890157
313,0.9765709575703458,0.09023251873699077,1,,-0.3473035702953183,-0.8466337901382205,0.2556432591345366,-0.05003794567289872,0.09404203926921555,0.026239706973344566
314,0.9701213069924145,0.09325069162330872,1,,-0.3560902201589493,-0.8591550685963009,0.24959870466512935,-0.016241414118640413,0.07257526365195116,0.015378788250830396
315,0.9650053463660067,0.094695406440317,1,,-0.3701976864366113,-0.8772729118919323,0.23877224308897446,0.0215413759464255,0.04481251982471432,0.0026855166307112417
316,0.9618684661361425,0.0943671277796299,1,,-0.38286259053217875,-0.8844017276034297,0.2235137171768014,0.05425409814738661,0.005525177861629965,-0.00911205001556126
317,0.9612023869322075,0.09223305838309803,1,,-0.39280141754438674,-0.8707640654081306,0.19987971267826865,0.0773856765265255,-0.055540734445425115,-0.019216961150286406
318,0.9632794870386504,0.08846314185807512,1,,-0.4027402445721213,-0.8571264031915264,0.17624570814281465,0.10051725494180075,-0.11660664684787792,-0.02932187230079754
319,0.9680955185517427,0.08345693383681073,1,,-0.3969413040928279,-0.8443878125345508,0.17955122160215095,0.08685244441714002,-0.07919549437028744,-0.036980054615480755
320,0.9753310568083606,0.07784593198079764,1,,-0.38789195887464895,-0.8318349118993865,0.1884206968420152,0.06558788018336066,-0.021445350468379656,-0.04413290102685198
321,0.9843457024907293,0.07245901233206788,1,,-0.3886413438411284,-0.8305006030928265,0.19751512834283091,0.04033047085103588,0.022981458109074388,-0.047589438081894864
322,0.9942177347241655,0.06824890515793186,1,,-0.411039721554257,-0.853952282741488,0.20710657077505604,0.006251400780833155,0.03797212684011009,-0.04287947058785746
323,1.0038344652647837,0.06618880666830312,1,,-0.43343809930237653,-0.8774039624267858,0.21669801322226503,-0.027827669342608205,0.05296279559456434,-0.0381695030864621
324,1.0120265971567681,0.06715492060636535,1,,-0.45383216132861964,-0.8911974280361918,0.23739859157532386,-0.03166742867378647,0.04683409876943156,-0.01447329290569114
325,1.0177274170046853,0.07181233077436774,1,,-0.47370734430875555,-0.90249056638423,0.2609751132272079,-0.02767880759300485,0.03523800126589071,0.014138093181752538
326,1.020129192007331,0.08052023853273182,1,,-0.48376066143982605,-0.9085906380789726,0.2728809510401018,-0.024158866434620733,0.02557205870166502,0.045160072668688746
327,1.0188076671122346,0.09326955623085421,1,,-0.468193802378333,-0.9011446804702896,0.2543440012157898,-0.02186146916479946,0.020940893650828886,0.08247004569097614
328,1.0137914527455913,0.10966100414015933,1,,-0.4526269432925212,-0.8936987228499745,0.23580705136251923,-0.019564071891389173,0.0163097285927579,0.11978001877154953
329,1.0055643785778532,0.12892566878214679,1,,-0.43687736961557,-0.8820578339417483,0.22303718935065384,-0.01625329521217222,0.021268818090553757,0.13680858581188413
330,0.9950020315556609,0.149984547064979,1,,-0.4210700627470114,-0.8690914535177009,0.21208958025116978,-0.012622316432654783,0.029258183888287742,0.14742874490510563
331,0.9832550306351462,0.17154105693955737,1,,-0.40703764765437733,-0.8581034996465052,0.20252777655752255,-0.009197270583674613,0.01394329384408547,0.14658579329073373
332,0.9715988125381533,0.19220065700041977,1,,-0.3985446101769251,-0.8532901486226386,0.19729102499615297,-0.006414934482177654,-0.07410339719249094,0.109966857607641
333,0.9612723769347519,0.210611637637481,1,,-0.3900515727127408,-0.8484767976062911,0.19205427344296427,-0.0036325983850272873,-0.16215008809152,0.07334792198175469
334,0.9533274770698786,0.22561708990625157,1,,-0.3667978998667419,-0.8439284564255373,0.200986710800676,-0.014090724621042196,-0.2422507425118783,0.025766356472471216
335,0.9485065809446823,0.23639884952106593,1,,-0.3379574327759926,-0.8394804195522527,0.21528208415022013,-0.029560270528873153,-0.31934387946543474,-0.025964485585862434
336,0.947163719988813,0.24258390135318217,1,,-0.3137340694291291,-0.8375924679859478,0.22926357611761694,-0.04576180155930507,-0.36500961535403315,-0.06891529219934774
337,0.9492373874916887,0.24428070048674955,1,,-0.3070700653687512,-0.8454408057912526,0.24205134235545114,-0.06474715360988814,-0.29115344714831226,-0.0784746470317929
338,0.9542785870989644,0.24202442881681746,1,,-0.3004060613187839,-0.8532891435842966,0.2548391085733082,-0.08373250563081211,-0.21729727905797014,-0.08803400184930435
339,0.9615298067045351,0.23663603856881427,1,,-0.3179537140615494,-0.8670379150061936,0.26521544764536265,-0.0779389452113189,-0.10393558072059252,-0.07441862375543763
340,0.9700428512053929,0.22902998545876918,1,,-0.3463299713773889,-0.8834256409864241,0.27451328176809103,-0.06106307648343416,0.027094869677777623,-0.05043840276352706
341,0.9788167270969169,0.22002500501529507,1,,-0.37312050719383877,-0.8961991589599213,0.2803919242517302,-0.04147327496103944,0.14373210215058466,-0.02880246374443439
342,0.9869330971820286,0.21021047961706466,1,,-0.39236953183737916,-0.8917839144715911,0.27000927994132884,-0.008976317508479999,0.19191682631408516,-0.01831566329840086
343,0.9936677473189941,0.19989833977915042,1,,-0.41161855645084844,-0.8873686699901584,0.2596266356471474,0.0235206398933124,0.24010155040231104,-0.007828862868749908
344,0.9985621807723875,0.18915872204513978,1,,-0.41732802928041646,-0.8839622113939883,0.24746130826793583,0.04045755530518284,0.236516305957334,-0.012902104411244633
345,1.0014482192984555,0.17791209620411264,1,,-0.4159533255143469,-0.8810835706730697,0.2343632438547513,0.04925313137393795,0.2058439315634171,-0.0261166852351786
346,1.0024276735414728,0.16604059136551153,1,,-0.41563896072238876,-0.877894505205011,0.22188380376883696,0.05779797110069658,0.1745316307376925,-0.0377474908803775
347,1.0018164610701061,0.15348620738746635,1,,-0.4218776967591251,-0.8727869545370553,0.21322758232989208,0.06479321143387981,0.13926446061234762,-0.03959025815069524
348,1.0000668336915848,0.14031649190350082,1,,-0.42811643279586153,-0.8676794038690998,0.2045713608909472,0.07178845176706306,0.10399729048700271,-0.04143302542101297
349,0.9976824911359775,0.12675156457117137,1,,-0.4327694925553723,-0.8655755399668651,0.1973754657715435,0.07677394018611747,0.08444239230424529,-0.039882213713524746
350,0.9951398507163188,0.11315562691452627,1,,-0.4364590753842797,-0.865296754058401,0.19106688337279407,0.08053827796447785,0.07443446890804438,-0.03626942059253827
351,0.9928255163055272,0.10000042015897033,1,,-0.43971181392307124,-0.8649776760278461,0.1853339798533769,0.08296462522025826,0.06417940479508343,-0.03196348979705245
352,0.9909960225417521,0.08780903097683948,1,,-0.43923338538271484,-0.8643144556132323,0.18451805508529798,0.07396295051501704,0.05181346674282587,-0.02173734333369
353,0.9897620406173053,0.07708839994727083,1,,-0.438754956841611,-0.8636512351975822,0.18370213031594443,0.06496127579571331,0.039447528671250134,-0.011511196854352167
354,0.9890959156244675,0.06825952883443556,1,,-0.4387650253426708,-0.8634409034058319,0.18959516483707287,0.051190434789537075,0.029026299015093567,-0.00022009150362177656
355,0.9888587951084251,0.06159573714770988,1,,-0.43911797186761625,-0.8635484559468042,0.20019724467144015,0.03407209691397262,0.019970067947169226,0.011818512742417088
356,0.9888416320869534,0.057180094912892984,1,,-0.4393750834427476,-0.863820892717246,0.21064578794268743,0.0171780540555826,0.011071610943341343,0.023700622183386377
357,0.9888129737665508,0.05489180228708247,1,,-0.4383656856091673,-0.866272361530332,0.21906526432851747,0.00324818851250373,0.0042582216006737394,0.033514569979628386
358,0.9885658156005388,0.05442691613698758,1,,-0.43735628777401,-0.8687238303472475,0.22748474072750052,-0.010681677052336504,-0.0025551677526378046,0.04332851779120184
359,0.9879561480222219,0.05535177384366688,1,,-0.42700943459793,-0.8703373245540855,0.23424706005664198,-0.021490057377749998,-0.019081707847661323,0.05032608803387209
360,0.986927334344492,0.057179365456978506,1,,-0.4091184279156426,-0.8712737810850304,0.2396704870686602,-0.02977644827610392,-0.04345594280353023,0.055048179164061295
361,0.9855170656369142,0.05945216439387788,1,,-0.39148353200454467,-0.8721928048500511,0.2449340861518959,-0.037789429103892616,-0.06665410107954928,0.059626496179510526
362,0.983846868098418,0.06181187264628173,1,,-0.3807300157619224,-0.8726434317674812,0.24590330671114158,-0.03845621995521998,-0.05825253603501505,0.060341780780921464
363,0.9820972089546566,0.06403865720433027,1,,-0.36997649950250083,-0.8730940586856152,0.24687252727190137,-0.03912301080758901,-0.0498509709773558,0.06105706538344983
364,0.9804734576906196,0.06604977530490994,1,,-0.36282514267358096,-0.8730528776198764,0.24694794228880335,-0.037082883353313875,-0.04085834874292719,0.05550336623114424
365,0.9791690230882069,0.06785825736388455,1,,-0.35901687530594045,-0.8725552597609805,0.2461938349122107,-0.032530521135829084,-0.03131717857021451,0.0441315532159294
366,0.9783320056962405,0.06950355234007288,1,,-0.35522030136914273,-0.8720540977299355,0.24543716056991677,-0.02797523380403786,-0.0217890854223899,0.032745518969608964
367,0.9780409248522957,0.07097469292413003,1,,-0.35965102045345737,-0.8690593164685393,0.24287441239683338,-0.02136188125618552,-0.02146175201343303,0.011353658145282936
368,0.9782936922569386,0.07215032039250366,1,,-0.36408173954469364,-0.8660645352024645,0.24031166421974642,-0.014748528698001738,-0.021134418603964793,-0.01003820271246165
369,0.9790120928732923,0.07277753432566605,1,,-0.37157477746677503,-0.8661595836106714,0.23702942914133118,-0.010239583633915247,-0.025764328899774664,-0.02846863095207673
370,0.9800616200399805,0.07250298254967817,1,,-0.382330149058168,-0.8695462733736434,0.23298071399094386,-0.007972495053669999,-0.035675264414029545,-0.04374420118392526
371,0.9812837153651487,0.07095655893621751,1,,-0.39308552063275887,-0.8729329631313251,0.22893199884688145,-0.0057054064769664166,-0.045586199912801474,-0.059019771391910156
372,0.9825346923346004,0.06787381341192908,1,,-0.40549114802823805,-0.8741332932012332,0.22615099706180894,-0.00047829533689818925,-0.05963530520696794,-0.06092541928933475
373,0.9837235688182306,0.06323152048646913,1,,-0.4179531698044879,-0.8752589085231653,0.2234133170101263,0.00484996902002591,-0.07382582467805372,-0.06237417513816979
374,0.984840400707684,0.057364718261463866,1,,-0.4264541684930374,-0.874240410267548,0.22076820850627502,0.009654820133417907,-0.08131556478729338,-0.057708264165671895
375,0.9859678777976543,0.0510341938204149,1,,-0.43010852432590985,-0.8705984098113414,0.21823636902556856,0.01381923139619966,-0.08060634120832676,-0.04556054717528953
376,0.9872718182144509,0.04542066692129071,1,,-0.4337628801530735,-0.8669564093608242,0.21570452954881736,0.01798364265247573,-0.07989711763046808,-0.03341283020388444
377,0.9889702230270965,0.04203458424038664,1,,-0.43035117677839546,-0.8657560181136437,0.21599530681109635,0.016687715815423942,-0.0516770607865745,-0.015883911768087736
378,0.9912848535564814,0.04254633435461585,1,,-0.42642793149691455,-0.8647323852858353,0.21649042523728348,0.014996492010694654,-0.021465378408867936,0.0020345745729030006
379,0.9943829520202786,0.04855768785180234,1,,-0.42315101770056784,-0.86536462595383,0.21882775949407668,0.011792428840986984,0.0059320708473154455,0.018825353784651302
380,0.9983190582896505,0.06134757522215057,1,,-0.42078421769921237,-0.8683285390283256,0.223759158949541,0.00645810282489171,0.029366735561738508,0.03402818336751083
381,1.0029875553851737,0.08163098174395395,1,,-0.41841741769785695,-0.8712924521028212,0.2286905584050053,0.0011237768087964373,0.05280140027616157,0.049231012950370356
382,1.0080956143125597,0.10936848936771522,1,,-0.41895764472093894,-0.8737856615331384,0.23264554701147996,-0.0028333142284331985,0.058941692537740537,0.06427053427339775
383,1.0131638488158385,0.14365823907163655,1,,-0.4198279615028647,-0.8762254230717993,0.2364896652201619,-0.006634021723463534,0.06311822758907314,0.07929151209481296
384,1.0175585397133333,0.1827343993233028,1,,-0.42604495450558794,-0.8785858491506429,0.23871883822708773,-0.012419864576732604,0.07519606374290141,0.10081265438360955
385,1.020554997687314,0.22408691781836146,1,,-0.4409559823689199,-0.8808172707267555,0.2383220078269788,-0.021433663494396037,0.10012191693181044,0.1329034765705481
386,1.0214267798663983,0.2647047356234818,1,,-0.45586701025554616,-0.8830486923063537,0.23792517742624997,-0.03044746242614091,0.12504777015965884,0.1649942988076192
387,1.019550581057506,0.30142745847357855,1,,-0.4731817021586223,-0.8808875598370691,0.23292544970500914,-0.05455293313980849,0.1703418827770854,0.2153228498735701
388,1.0145125447246892,0.3313696718054051,1,,-0.49087614492582105,-0.8780324550959263,0.2271985179293475,-0.08104271185610236,0.21885394265783903,0.26853274924232934
389,1.0061994947725528,0.35236120868831533,1,,-0.499749278544336,-0.8726060468049414,0.2178686507673104,-0.10915951779429896,0.2573603071377197,0.31517155903642563
390,0.99485900794012,0.36333118331657166,1,,-0.4919732662905205,-0.8623266164916048,0.20173868224958574,-0.14034713917669295,0.27698214091959156,0.34940823796564907
391,0.9811156665121621,0.3645593923372829,1,,-0.4841972540245574,-0.8520471861622099,0.1856087137066627,-0.17153476060780856,0.2966039747321168,0.3836449169483574
392,0.9659368628898197,0.35773014409991233,1,,-0.4590007035292736,-0.8435358502989337,0.17736749676270747,-0.17519605229729118,0.24786481779056665,0.36415071989072434
393,0.9505490538462058,0.34575183913369245,1,,-0.43021339291478955,-0.8353889579820639,0.17075232682223346,-0.17318355570675154,0.18503494135276535,0.3335813951645566
394,0.9363129389757276,0.3323474551987907,1,,-0.3998038749523325,-0.8281224736957602,0.16810486513857867,-0.16160899257562986,0.11567344293784076,0.2902248365767876
395,0.9245724250248438,0.32146856482158837,1,,-0.3658150439863173,-0.8227985621534794,0.17421193742063765,-0.12893624602499268,0.03190027316077084,0.21865393695571134
396,0.916496625102034,0.3166276093305902,1,,-0.33182621296720444,-0.8174746506028815,0.1803190097122372,-0.09626349942331383,-0.0518728967471703,0.14708303722282637
397,0.9129360650718865,0.3202689912063337,1,,-0.31467919508979236,-0.8141174579562489,0.18961339409041605,-0.053393380784170455,-0.11266464572176065,0.061798434054931045
398,0.9143134739500456,0.33330129100635086,1,,-0.3018846273183772,-0.8112685268480356,0.1997314794043278,-0.007887942871793181,-0.16751727840895145,-0.027030218245511634
399,0.9205659192510198,0.3548877893771392,1,,-0.29756563496768773,-0.8133206354292118,0.210290422755116,0.03454693592165581,-0.2199551664030201,-0.11439085280358216
400,0.9311487064918585,0.38254449242898514,1,,-0.31532374640857624,-0.828138928805537,0.22199770925976103,0.06898364968298036,-0.26610314901511756,-0.19792760810033558
401,0.9451028349295388,0.4125349501964527,1,,-0.3330818578772067,-0.8429572222050115,0.2337049957826953,0.10342036349810228,-0.31225113169930785,-0.28146436352759086
402,0.9611779152944895,0.4404938539146203,1,,-0.354544284657434,-0.8643248243033758,0.2430398349959738,0.11755257696798593,-0.3576012898667359,-0.3324275567491912
403,0.9779930105949316,0.4621693779823916,1,,-0.37717536046927214,-0.8877586228506523,0.2516262071263897,0.12527906315316123,-0.4026997479519466,-0.3731143407288709
404,0.9942108639988833,0.4741544699861872,1,,-0.39979648374861515,-0.9067357522137096,0.2585623328538261,0.12772174550985235,-0.4392970634637995,-0.40001386512553094
405,1.0086980952757452,0.4744808595107116,1,,-0.4223864711086346,-0.9117703859125998,0.26033573449969216,0.11363427732131114,-0.4492989242630258,-0.38378054749928464
406,1.020646027606948,0.46297371477352217,1,,-0.4449764584333637,-0.916805019603625,0.2621091361427878,0.09954680915477751,-0.4593007850466272,-0.3675472298983982
407,1.0296336432490412,0.44130492905714164,1,,-0.45754572333297355,-0.9101904125192012,0.26270349900548395,0.0919986444859818,-0.414610666335905,-0.3274507094303114
408,1.0356245012459306,0.41273302315929855,1,,-0.46631382778482955,-0.8991568991188726,0.2628506171085572,0.08693103369016772,-0.3491742399023394,-0.27830216056111684
409,1.038901312883722,0.38157059033846874,1,,-0.4711534219017072,-0.8883063783422079,0.26076475915762193,0.08369077516420023,-0.27429376712495673,-0.22828716406439115
410,1.0399530718634538,0.3524682040260208,1,,-0.46101246496266257,-0.8781536615151434,0.25016391484435857,0.08741874164266725,-0.1634004016935769,-0.17496815069518476
411,1.0393381436528588,0.3296385242177551,1,,-0.4508715080394601,-0.8680009447039395,0.23956307054765597,0.09114670811531041,-0.05250703643543571,-0.12164913740927383
412,1.0375508983026964,0.31615844358326767,1,,-0.44906443927385564,-0.8653809628354814,0.23603439962981243,0.08426370172808591,0.052224850753018984,-0.07045231706928395
413,1.034918313457634,0.31347532069714346,1,,-0.45099237228407024,-0.8661369296088208,0.23567526730752522,0.07262517168225695,0.15419534577419247,-0.020206600851205674
414,1.0315464357596376,0.321205299895264,1,,-0.4563027670341143,-0.8675817697622886,0.2334929887460629,0.06064418916477029,0.24853209059809028,0.03368738989515233
415,1.027325910192472,0.3372544616096061,1,,-0.47774922579974943,-0.8723128865442318,0.22261337472767267,0.047029534047128056,0.30645196192124985,0.10498550701967196
416,1.0219933155438718,0.3582310777557163,1,,-0.4991956845318806,-0.8770440033187841,0.2117337607262787,0.03341487895075476,0.3643718331539265,0.17628362403280903
417,1.0152335286635725,0.3800651555783706,1,,-0.5131662168945565,-0.8743446186843852,0.20396211993364047,-0.0013011103622650691,0.3809679263140909,0.24075741456758923
418,1.006800215142451,0.3987201995660838,1,,-0.523217546700282,-0.8677498452530701,0.19781981254795145,-0.047079327633397984,0.3759003155261935,0.30165359914661355
419,0.996628410755156,0.4108742731682329,1,,-0.5278861939732782,-0.8611707796301843,0.19264962172991693,-0.09216494031836656,0.3662512461285952,0.3564434155898978
420,0.9849154206167239,0.41445974695434595,1,,-0.4991662586904498,-0.8546891490414062,0.19350943441622165,-0.1329543516283742,0.32818355697015106,0.3733556536371907
421,0.9721531226019362,0.40897818633797967,1,,-0.4704463234076214,-0.8482075184526282,0.19436924710252632,-0.1737437629383819,0.29011586781170684,0.3902678916844836
422,0.9591045740194147,0.3955435862523653,1,,-0.43235625577386033,-0.8422199829388597,0.1941766614322787,-0.18385055285401128,0.23829883583154987,0.37423672294119287
423,0.9467285148153425,0.3766493604570066,1,,-0.38856210878039665,-0.8365332284174868,0.19334342698406515,-0.17527925968418454,0.17811187483038418,0.3381512153208376
424,0.9360648537811839,0.35569803064926514,1,,-0.3467425690399351,-0.8308424108648353,0.19366871369240962,-0.16400906275034008,0.11696391188496162,0.2975359025335917
425,0.9281008440245975,0.33637260547099124,1,,-0.3218679834525101,-0.8251167267796679,0.20393576837438368,-0.1295784127934005,0.04756917913111586,0.2180483853003624
426,0.9236403914986352,0.3219592850378038,1,,-0.2969933978262258,-0.8193910426855556,0.21420282307239702,-0.09514776278267305,-0.021825553731139,0.138560867942957
427,0.9231975135853292,0.31474570522095546,1,,-0.29127902424925245,-0.8234555811933932,0.22224043447661693,-0.05390505510726207,-0.08257886922472131,0.050460403123541255
428,0.9269298167712168,0.31561118722597364,1,,-0.2990377308738764,-0.8344044096096668,0.2287103456868249,-0.007872243860512194,-0.1372557118828524,-0.04369651522246093
429,0.9346201165327648,0.32389219024910776,1,,-0.3074898320566276,-0.8454633819383234,0.23537141936120304,0.03734866666249764,-0.19187111115927116,-0.13646184621070892
430,0.9457056528541775,0.33755105062940155,1,,-0.32516758493799564,-0.8579878246977688,0.24457591975346052,0.07176719338054724,-0.24566900171698924,-0.21071203048967554
431,0.9593466411131981,0.35361138639373296,1,,-0.34284533784698,-0.87051226747678,0.25378042016009733,0.10618572015236576,-0.29946689235875085,-0.28496221488463647
432,0.9745206426433214,0.3687664497848584,1,,-0.3612726084617196,-0.8811738526851641,0.2591263050739512,0.13159901312265745,-0.3341856138301024,-0.3294663167331093
433,0.9901271252083471,0.3800320086440187,1,,-0.3803065279932441,-0.8903276676765686,0.26134908189303957,0.14972359889465794,-0.3534619291460515,-0.34989436556562514
434,1.0050874788713509,0.38530991243797347,1,,-0.3993294062657813,-0.899169429844459,0.26353430888676044,0.16670523037501334,-0.37105389089082486,-0.3685377297077698
435,1.018428985355075,0.38375092953646806,1,,-0.4180517961152569,-0.8995186819092401,0.2646976182348223,0.15258138891645337,-0.34280621194632316,-0.3386109442385016
436,1.0293458900149,0.37584896832180786,1,,-0.4367741859939807,-0.8998679339745667,0.2658609275847015,0.13845754743582903,-0.31455853295769265,-0.3086841587224814
437,1.037235846255732,0.3632542054403193,1,,-0.4471778902249945,-0.8968573498094728,0.26427045596917,0.12181127891065062,-0.26332314813904645,-0.2644458163385502
438,1.0417147104714823,0.34834975101322674,1,,-0.449847567150992,-0.8907230672107833,0.26011974608923977,0.10281986585660968,-0.19071569156483376,-0.20690176944318098
439,1.0426161460471879,0.33368510438540827,1,,-0.45252250959858586,-0.8845907126906932,0.2559705212909639,0.08382210872157332,-0.11807207545916637,-0.14935321232978133
440,1.0399840001451477,0.32139070842647793,1,,-0.46057049407446554,-0.8804257962420059,0.25333669526914604,0.05835070114060548,-0.00853047417981304,-0.08720225174885039
441,1.0340644205351244,0.31270413019516585,1,,-0.4686184785629178,-0.876260879786812,0.2507028692432135,0.032879293519845976,0.10101112727066719,-0.02505129107082668
442,1.025301252823541,0.30771551164383343,1,,-0.47323734569223846,-0.873730679689567,0.2453602518248793,0.01172723527405119,0.19436909710232697,0.035211236476365065
443,1.014333351334754,0.30538979113249576,1,,-0.4741966779007224,-0.8729450397713457,0.2371268273109738,-0.004815237458119952,0.2704559857606136,0.09345843890487436
444,1.0019876386727435,0.30385697840720505,1,,-0.47515601010770764,-0.8721593998543519,0.22889340280993054,-0.02135771016444829,0.34654287430003655,0.15170564124238933
445,0.9892586645597513,0.30089825007428417,1,,-0.4654339320828831,-0.8663249013360486,0.21995859915347468,-0.04177868371603552,0.35070173691905193,0.18333063182523027
446,0.9772651472857605,0.2945130775560361,1,,-0.45534180522856516,-0.8603154891917585,0.21099949679613342,-0.062334024769218024,0.35236871106790674,0.21403331729583577
447,0.9671768706140947,0.28344028671620963,1,,-0.4449758538038131,-0.8538531274436509,0.20551792698876362,-0.07843926251646387,0.3332612743201094,0.2292804708061452
448,0.9601108699224462,0.26752218262007427,1,,-0.43427425848299034,-0.8468355570634715,0.2042989860363428,-0.08908973070011224,0.28868934447502476,0.22558281341810502
449,0.9570029909084338,0.2478373556900924,1,,-0.42357266317888564,-0.8398179866942548,0.2030800450858262,-0.09974019886712235,0.24411741469957082,0.22188515603584139
450,0.9584683746588186,0.22657500101766267,1,,-0.4073448777679914,-0.8347033652328857,0.20349268649528574,-0.08670082210393336,0.16865207196685514,0.18787037491293374
451,0.9646709630620102,0.20667322195564045,1,,-0.39071422887911705,-0.8297274702177211,0.2040242715118244,-0.07193443746361147,0.09093457581715278,0.15164545223028364
452,0.9752263801657909,0.19128851705270017,1,,-0.3803512948952663,-0.8298113260846034,0.20756458682116985,-0.05280030501425899,0.027180292048232108,0.11073343525776666
453,0.9891630278919731,0.18319655939803928,1,,-0.3788300887697141,-0.8370328614420671,0.215349251889581,-0.027504686689396627,-0.01687639431410111,0.06320943742195953
454,1.0049616206213738,0.18423967421486379,1,,-0.3773088826441619,-0.8442543967995307,0.22313391695799223,-0.0022090683645342663,-0.060933080676434326,0.01568543958615239
455,1.0206831450765372,0.19493106725037648,1,,-0.42328934888309744,-0.866128259324446,0.2312459277607992,0.009277421020625799,-0.047778187953729324,0.033898985959187763
456,1.0341801762015965,0.21430064958318426,1,,-0.47468952245337903,-0.8896738803450528,0.23939528708932792,0.01918835662665842,-0.02809573519657484,0.05961286308509712
457,1.0433690945049814,0.24002621438895796,1,,-0.5229129104158243,-0.9034977574862373,0.2426257029571918,-0.0014433657095342678,0.017778653592737424,0.1132571211857385
458,1.0465251145765027,0.26884217763321,1,,-0.5659609871051084,-0.9014839121117135,0.23784265309129246,-0.07183222470997336,0.10632240467472379,0.212402847479175
459,1.0425526903469067,0.29716250137885614,1,,-0.6090090638616427,-0.8994700667340438,0.233059603217921,-0.14222108382037457,0.194866155895034,0.3115485739274979
460,1.0311839251229828,0.32180389177168334,1,,-0.5964712999751411,-0.8824419013065099,0.21237659355409766,-0.19706031078054712,0.2229850556478625,0.3796892220856881
461,1.0130675798000857,0.34066248186223225,1,,-0.5751187866658986,-0.8630327793683035,0.18917218347609369,-0.24943369196721013,0.24152184028188248,0.44291311461396055
462,0.9897291164691714,0.35319401837554953,1,,-0.5375170137367753,-0.8439597575515677,0.1716999157295055,-0.27820218430149674,0.22250634143319836,0.46866859031581787
463,0.9634040894614088,0.36057924488266146,1,,-0.46918702102316,-0.82552231914605,0.16506743611923108,-0.26233256783992803,0.1324774639911834,0.423569283559546
464,0.9367684815883986,0.3655180709323851,1,,-0.4008570282027991,-0.8070848807117291,0.15843495649859538,-0.24646295135356763,0.042448586408524475,0.37846997673281946
465,0.9126062093062384,0.37167530339404203,1,,-0.33322774008257117,-0.7951392905809476,0.16802337204862192,-0.19050870944125084,-0.03187294911049706,0.2749767219907651
466,0.8934633293046346,0.38287941183081337,1,,-0.2657433316972488,-0.7845359749817756,0.18096566987255516,-0.12626644678505106,-0.10294678633626855,0.1594097544933177
467,0.8813393888710119,0.4022355879101733,1,,-0.2204249422645009,-0.777368464881792,0.19348946618732937,-0.05902255911148992,-0.14981128105085864,0.04002940202293299
468,0.8774592646913958,0.4313404680109899,1,,-0.2241151489386553,-0.7777974476099032,0.20508796461333736,0.014857857840203074,-0.14314943475292272,-0.08778226389510066
469,0.8821553123010644,0.4697706140610059,1,,-0.2278053556185746,-0.7782264303386847,0.2166864630574646,0.08873827490731273,-0.1364875884445796,-0.21559393001280286
470,0.8948719958420368,0.5149621477261443,1,,-0.26390918702147287,-0.8066174230047972,0.22226928921064798,0.16299420312056387,-0.17661041822705043,-0.3291458464324293
471,0.914286009977501,0.5625173365693604,1,,-0.30841232205492697,-0.8422541777051125,0.22629328145487407,0.23734743723119064,-0.22885650489109516,-0.4390026513000179
472,0.9385171211400142,0.6068855737121291,1,,-0.35167870304234894,-0.873641893074937,0.23121762014878286,0.2939126341757829,-0.29517687992042413,-0.5299499126334479
473,0.9653916653449504,0.6422919893237765,1,,-0.39171651171452543,-0.8939374018865961,0.23849233223714475,0.30404178559100364,-0.3982384814988822,-0.5715334125771151
474,0.992714633674044,0.6637416146657097,1,,-0.4317543204492494,-0.9142329107299609,0.24576704433687122,0.3141709370220483,-0.5013000832383441,-0.6131169125857443
475,1.018508817377176,0.6679162629201061,1,,-0.44686839647271204,-0.9193627743041342,0.25920024862318536,0.28405418893802314,-0.5442714464739078,-0.5952687301821918
476,1.0411895855249798,0.6538034245217311,1,,-0.4541004561918107,-0.9196965720212705,0.27458104788923887,0.24120985937048753,-0.5682395470452043,-0.5586255503375583
477,1.059658732773254,0.6229454759768996,1,,-0.4610841342858112,-0.9194345202847399,0.2863435976459984,0.19875948787743491,-0.5611788512123509,-0.510190015384049
478,1.0733168712225691,0.5792646276479654,1,,-0.46729196163591324,-0.917311258932072,0.2868040967126356,0.1575396929813097,-0.4571958642472435,-0.4249195974638975
479,1.0820076776611172,0.5284935264240175,1,,-0.47349978897631745,-0.915187997582721,0.28726459577855346,0.11631989814957848,-0.3532128774445793,-0.33964917967695624
480,1.0859166803007796,0.4773112141584504,1,,-0.478500319075414,-0.9053730894297873,0.2872203039887953,0.08565150117375303,-0.24179994513262554,-0.2662578771423439
481,1.0854513624862763,0.43233677667383086,1,,-0.4830435369094002,-0.8926446614074944,0.28698480240765784,0.05897986946256272,-0.12757262265856784,-0.19736626604415305
482,1.0811283900931177,0.39915761245993286,1,,-0.49087829575262515,-0.8821041637772505,0.28470629672823455,0.03570058347971052,-0.00044808219969805457,-0.11877935749113162
483,1.0734883627297223,0.3815591637217903,1,,-0.5112430392656936,-0.8798925108446323,0.2746506404995023,0.025335017567980057,0.17577259455613972,-0.003285137283893124
484,1.063049581950572,0.3810779950895349,1,,-0.5316077827469482,-0.8776808579154688,0.26459498428647904,0.014969451672442777,0.35199327103668393,0.11220908274291924
485,1.0503015601405217,0.39692907694113966,1,,-0.5371049864915837,-0.8812722325328025,0.24332996769392423,-0.0038255690722297764,0.38424320551142843,0.22422348690089855
486,1.0357288494881964,0.42628037721505785,1,,-0.5359478467299588,-0.8874608989120468,0.21704791836307216,-0.026393405521022543,0.3520553924890088,0.33468041118912023
487,1.0198489249408067,0.46478716116577906,1,,-0.5318180411030199,-0.8883208395562591,0.19260090664470864,-0.05221566032227049,0.3274570160060233,0.4325205449362322
488,1.0032461157382584,0.5072695501225393,1,,-0.5135351542524877,-0.863810324345414,0.17689064417070968,-0.09353244073240524,0.33899250605477954,0.4702912094378429
489,0.986587203701209,0.5484185763947708,1,,-0.49525226743051715,-0.8392998091728595,0.16118038172125346,-0.13484922107799455,0.35052799608551494,0.508061873880448
490,0.9706117895355714,0.5834371795045254,1,,-0.46703894555498143,-0.8240941340421967,0.16669252308509347,-0.1426343429087108,0.2765871896019694,0.5184557793981992
491,0.9560989176673331,0.6085523325074621,1,,-0.43362620731803453,-0.8137603238678428,0.18331637449134064,-0.13286282644485187,0.15789236617916824,0.5145156532655177
492,0.9438175276608634,0.6213640592650969,1,,-0.41090719819871213,-0.8062760768041857,0.1764678352495943,-0.1067257443253717,0.11960444243777302,0.4821459740349219
493,0.934470151321971,0.6210179284174532,1,,-0.4543638538784193,-0.8164256907944923,0.024365845910381483,0.02068584810258759,0.5788959847930462,0.27384659391514843
494,0.9286370977742301,0.6081937320002533,1,,-0.4978205095581265,-0.8265753047847987,-0.12773614342883136,0.14809744053054688,1.0381875271483192,0.06554721379537504
495,0.9267244292867336,0.5849004195157775,1,,-0.4618777740087373,-0.8246673826866273,-0.07305754504580446,0.14470813375032363,0.8681057674792947,-0.037404248042895175
496,0.9289168666818759,0.5540779100049402,1,,-0.37765886820124317,-0.81542827508693,0.10734714156264438,0.06178967197945763,0.31535441504645434,-0.07630239674345426
497,0.935138783254982,0.5190497920697041,1,,-0.30408816932740307,-0.8088325245001209,0.2681776772464656,-0.008601148991163002,-0.17253778682809004,-0.11910131835642239
498,0.9450310932170606,0.48293417771136404,1,,-0.3216175726192061,-0.8248518577091263,0.26154272656086186,0.028187516813618675,-0.10553137662889497,-0.1952730699653371
499,0.9579543461339706,0.4481579608068758,1,,-0.33914697593839377,-0.8408711909431572,0.25490777586489294,0.06497618267587194,-0.03852496632502189,-0.2714448216932481
500,0.9730253622851169,0.41619758755884956,1,,-0.3622917124601891,-0.8588596024958136,0.25513503988675085,0.08545643454988182,-0.08026505054063794,-0.32714203610085935
501,0.9891873219114485,0.3875957788987644,1,,-0.38938041800116363,-0.8782310101531744,0.26018202895442255,0.09448235652742666,-0.19838400442432302,-0.36845881446013956
502,1.0053049693681937,0.3622165522956998,1,,-0.41526759976611505,-0.8968019505342347,0.2655423496940081,0.10343424693076893,-0.308869203301427,-0.4044946788482469
503,1.0202706125863321,0.33963498873499753,1,,-0.4252379552689592,-0.9047689404525173,0.2750534376176559,0.1114054260700087,-0.31822852090326637,-0.3705732192261122
504,1.0331044123226518,0.31953029904822733,1,,-0.43520831078737904,-0.9127359303832459,0.28456452555616196,0.11937660522170111,-0.327587838519727,-0.33665175955098503
505,1.0430342574292937,0.30196263228086406,1,,-0.4406040532748636,-0.9147132948385361,0.290595778039408,0.11175818089082881,-0.30217137703957053,-0.2892456729017749
506,1.0495454208548325,0.28745716346274525,1,,-0.44230141871744505,-0.9118483057916004,0.29381373386655646,0.09153623543034999,-0.24864020003737614,-0.2309378476047224
507,1.0523966035110148,0.27687854462491845,1,,-0.4442100320667752,-0.9087387669442695,0.2963379695225788,0.07149901721706353,-0.19426811395315144,-0.17286239333318743
508,1.0516052593989937,0.27113883494007995,1,,-0.4518203931527773,-0.8990286359283175,0.28013815059189795,0.05644773229157791,-0.11719922606083383,-0.12105881390863736
509,1.047409989664238,0.2708288262850536,1,,-0.4594307542506684,-0.8893185048971962,0.26393833163590963,0.04139644734257903,-0.04013033804811848,-0.06925523440315925
510,1.0402204957611982,0.2758858345547925,1,,-0.4649675080134111,-0.8800618694134356,0.2542503187148328,0.02699890064327199,0.04758695158264415,-0.010873407084732552
511,1.0305657456099697,0.28540409876900796,1,,-0.46857858356946464,-0.8712263775219612,0.25060956594912226,0.013208455105272531,0.1451929965770878,0.05361738248096597
512,1.019048792823024,0.2976566004645099,1,,-0.47218484207793504,-0.8623953467806129,0.24695213729889431,-0.0005981884722798627,0.24275792621361716,0.1180873043156999
513,1.0063128286018381,0.31033821713130805,1,,-0.47198148473116236,-0.8570924596333471,0.230106379277132,-0.027215264494191656,0.3078063985716705,0.16605380851485876
514,0.9930186823335473,0.32097741820793796,1,,-0.471778127384072,-0.8517895724777971,0.21326062122905315,-0.053832340557684884,0.37285487103134324,0.21402031278895137
515,0.9798302737490793,0.32741703705423414,1,,-0.4677618704698024,-0.8466721950180118,0.20201603224055914,-0.08335120926170587,0.39751588443308133,0.2443647990975892
516,0.9674022690015913,0.328246769566521,1,,-0.45968113005488453,-0.841752567595693,0.1967421903475317,-0.11596333768253102,0.379124581020581,0.25592452608987964
517,0.9563637989972965,0.3230830076112153,1,,-0.4516003896525904,-0.8368329401810598,0.19146834846274313,-0.14857546605240918,0.36073327763681173,0.26748425306411133
518,0.9472936188910096,0.3126294583227771,1,,-0.42651664149985796,-0.8309433645255191,0.200773031432812,-0.13585676441942818,0.26096917354030175,0.2303375105865445
519,0.9406852598663713,0.2985046741328091,1,,-0.40084900225970743,-0.8250204804095616,0.21057834765498806,-0.12158138119808842,0.15841069009932512,0.19151816554456713
520,0.9369048618922708,0.28287792400909223,1,,-0.37697514034683427,-0.8224936867881069,0.21646487066885545,-0.10253151328335221,0.06373882659702376,0.144556034089994
521,0.9361483512257772,0.2679995226341468,1,,-0.3552975023564232,-0.8241249205834523,0.21755339150594613,-0.07763597122999025,-0.021276998141636683,0.08762422441606267
522,0.9384071514175835,0.255734145905659,1,,-0.33361986439987723,-0.8257561543762495,0.21864191234133631,-0.05274042921552034,-0.10629282274748464,0.030692414831070703
523,0.9434517140037423,0.24719997388586062,1,,-0.34005127646278505,-0.8372985775354971,0.2252876939340109,-0.021865518366062202,-0.14773499262799508,-0.025532947311279554
524,0.950839521332127,0.24258552554820895,1,,-0.34852267767087025,-0.849560296376119,0.23233678874292046,0.009443339775111654,-0.18601484343278676,-0.08170703956832927
525,0.959949426603168,0.24117021654643725,1,,-0.35782721602266615,-0.8600713364297548,0.24091334451532662,0.03638900995081421,-0.2134118888153798,-0.12715684992863072
526,0.9700387005711959,0.24152773969518976,1,,-0.3683056691735911,-0.8681156183435836,0.2516421378518263,0.057186819357152786,-0.22547473993646047,-0.1574958302873003
527,0.9803147128325906,0.24185517932961242,1,,-0.3787841223245159,-0.8761599002574125,0.2623709311883261,0.07798462876349135,-0.23753759105754113,-0.1878348106459699
528,0.9900109663696125,0.24035179299524645,1,,-0.3867562049704808,-0.8796243592558874,0.2677373362145997,0.08355385068597368,-0.22774812352052723,-0.1946342429110382
529,0.9984573812368769,0.23557039417678896,1,,-0.39444320585018,-0.8825678960862741,0.2724938078424079,0.08739092948672125,-0.2154731107530991,-0.1987562196133786
530,1.0051366939481798,0.22667809516104565,1,,-0.4019360973599215,-0.8844846430936275,0.2747722666330238,0.0862049092037358,-0.1932049703035526,-0.1931757950220473
531,1.009721737342271,0.21358678600352496,1,,-0.4091131452595713,-0.8847306568719047,0.27301864574539214,0.07684559160189637,-0.15467658853300534,-0.1718081822645485
532,1.0120913899357646,0.19694163265248352,1,,-0.4162901931704333,-0.884976670650566,0.27126502485502096,0.06748627398543575,-0.11614820670226868,-0.15044056947366904
533,1.0123256124881375,0.17798287631589227,1,,-0.41901942982145646,-0.8828210399767072,0.2674385328012892,0.054227803065794056,-0.08014249744740999,-0.1252994140693897
534,1.0106820350369248,0.15831782744953754,1,,-0.42104503103303864,-0.8802854736322462,0.2632841163972798,0.040352493367513356,-0.0445358702769564,-0.099561291260224
535,1.0075580397872275,0.1396528804534106,1,,-0.42223866733592497,-0.8763990519994289,0.25879503206892635,0.026754177951793356,-0.0093950976255919,-0.07450516181500628
536,1.0034432603965664,0.12353800298856409,1,,-0.42186098575202746,-0.8699612931251041,0.25367386618100063,0.013679016957296036,0.02486582341153152,-0.05073710167491954
537,0.9988678861097982,0.11116857448809096,1,,-0.42148330416753993,-0.863523534240722,0.24855270028507456,0.0006038559423725803,0.05912674450217766,-0.026969041497702104
538,0.9943520478748774,0.10327334546406251,1,,-0.42192699352354696,-0.8614216132400495,0.245344808194503,-0.008682563303458036,0.08643829035598813,-0.0069796733210952
539,0.9903607828682173,0.10009606881668537,1,,-0.42254017263822874,-0.8602143916662169,0.2425317198314501,-0.01718717632883113,0.11231583382954023,0.012229962423290244
540,0.9872676698223296,0.1014570484705413,1,,-0.4233776309918056,-0.8596857924309339,0.23931631962413416,-0.023919405048210555,0.13312375471160384,0.03019061482854889
541,0.9853285310902488,0.10686490727996674,1,,-0.42471031027350414,-0.8606556287335403,0.2352125926719209,-0.02673811152184664,0.14273766946715477,0.045393443219622964
542,0.9846651429713464,0.11564217759350835,1,,-0.4260429895572847,-0.8616254650376617,0.23110886571329678,-0.02955681799988614,0.15235158423772463,0.06059627163444704
543,0.9852581343452204,0.12703182684584963,1,,-0.4276158136070455,-0.8596728255088256,0.23074969267371695,-0.028922489030835,0.14115577603787638,0.06829103693395917
544,0.9869483295271337,0.1402636427382152,1,,-0.4292507580663337,-0.8569642028682183,0.23135915707351262,-0.0273949323254596,0.12457692961636029,0.0740436240363984
545,0.9894464981546891,0.15457566585840787,1,,-0.43018528439904463,-0.8555201714993738,0.23149408330215202,-0.025832082250018852,0.11048877586412888,0.08028359278594376
546,0.9923523250152143,0.16920181693088818,1,,-0.42929394320440234,-0.857372708353945,0.23039197153056334,-0.024177228526356946,0.10289342214404316,0.0877940802567578
547,0.9951838086444935,0.18334803498933483,1,,-0.4284026020083676,-0.8592252452114102,0.22928985975725294,-0.02252237480010981,0.09529806841209193,0.09530456773930482
548,0.9974177833886133,0.19618269617914963,1,,-0.4337312563171428,-0.8617378152381722,0.22891826417684752,-0.026543398263377673,0.10243143269513177,0.11256816727429123
549,0.9985407176599099,0.20686221559901252,1,,-0.4410238978913359,-0.8644587932554453,0.22877733186399346,-0.03235660156036152,0.11421544576479549,0.13291134909647748
550,0.9981066508967786,0.2146011454472425,1,,-0.4480340977832128,-0.8658480201326344,0.2279573152498903,-0.04070852575586366,0.1268412833436722,0.15318830294378846
551,0.9957967105956638,0.21878097965585366,1,,-0.4541634178546972,-0.863083778042315,0.22501936871647849,-0.05697821945502581,0.14209260550865563,0.1732587049384421
552,0.9914728608796549,0.21907726769395938,1,,-0.4602927379166063,-0.8603195359563138,0.22208142218765636,-0.07324791312877131,0.15734392764981328,0.19332910690174154
553,0.9852179798830627,0.21557439479034415,1,,-0.4543506384203064,-0.8558649352575157,0.21970139011263004,-0.08321947830747552,0.15487516215789954,0.20002477590195564
554,0.9773552654032392,0.20883442082056153,1,,-0.4438425161452412,-0.8507709552411977,0.21753238956063942,-0.09080877205681136,0.14570376129934723,0.2016614429492968
555,0.9684421450545856,0.1998920560864291,1,,-0.43226134199419486,-0.8459059380912594,0.2154410377260669,-0.0958875875216139,0.12927495729313868,0.19807384218893948
556,0.959236848866107,0.190161578418017,1,,-0.4166023847154329,-0.8419110194661581,0.21364476445506791,-0.09142615058910059,0.0852667638176154,0.17463311859928482
557,0.9506390075186274,0.18126067837524096,1,,-0.40094342746113354,-0.8379161008472977,0.21184849118687513,-0.08696471366355697,0.04125857041084213,0.15119239504624948
558,0.9436085842338937,0.17477677405112024,1,,-0.3852434618846922,-0.8371980665989561,0.2109305060204832,-0.07165736120037043,0.002960298281472466,0.11479019212980947
559,0.939069867110939,0.17201834136845068,1,,-0.36952516641494415,-0.8379447364427238,0.21040509869226776,-0.05150209378400834,-0.03278574911567958,0.0725944580947599
560,0.9378090619071817,0.1738024091921912,1,,-0.3562995021654032,-0.8388445579737411,0.21106131174325288,-0.029214768590988257,-0.06756746955801685,0.02848798733446488
561,0.9403752403240719,0.18032599744044334,1,,-0.35491799281266195,-0.8404721054108026,0.21733219202378257,0.003203386418246815,-0.09776702894264237,-0.024697669214957883
562,0.9469950176907239,0.19115290622474118,1,,-0.35353648346207894,-0.8420996528453216,0.22360307229451573,0.03562154137683795,-0.12796658828008986,-0.07788332568129352
563,0.9575112931676657,0.2053205514951718,1,,-0.3606630317283386,-0.8454083310629075,0.229617432568904,0.06117761943805879,-0.1660392262343199,-0.12982712078187533
564,0.971355542128652,0.22154109000397093,1,,-0.37223865852924937,-0.8495961150857488,0.23549765203384607,0.08314534384257366,-0.20822889606772266,-0.18112151503602422
565,0.9875612808910194,0.23844583983744255,1,,-0.384882660040416,-0.8549311193644588,0.24189633424092435,0.10291690743381801,-0.2451043466899694,-0.22678650413895343
566,1.0048231525967815,0.25481023755739496,1,,-0.40412241204498567,-0.867348637479122,0.25149581374438446,0.1091301855503263,-0.2491717713995067,-0.2376976257160855
567,1.0216014310888197,0.26970296536361243,1,,-0.4233621640495553,-0.8797661555937852,0.26109529324784464,0.1153434636668346,-0.25323919610904394,-0.24860874729321755
568,1.0362657979155638,0.28252698154228867,1,,-0.4476041127532119,-0.8908818792079827,0.2654722128898685,0.10835678589774057,-0.20639627464904572,-0.21083843077434622
569,1.0472657648305874,0.29295623033190316,1,,-0.47488381216242614,-0.9012070446696271,0.2666775588751307,0.09335399472233853,-0.12863634775912114,-0.14350468756345613
570,1.053309280491058,0.3008094620261893,1,,-0.501688321381299,-0.9097692780861868,0.2663378509338006,0.07483041417201558,-0.04606054107794444,-0.072407166479409
571,1.0535271753980888,0.3059283981810624,1,,-0.5244396496703161,-0.9032944125724908,0.25281945660710053,0.026275921564730617,0.07759277524298429,0.03079385969562754
572,1.0476002686524437,0.30812833920969396,1,,-0.5471909779948757,-0.8968195470486795,0.23930106225928197,-0.022278571118406622,0.20124609175708535,0.13399488603188567
573,1.035828824842818,0.307259606403795,1,,-0.5456021542017891,-0.885568333033978,0.22636136818161734,-0.0680329323801739,0.275950531266298,0.20773752342494287
574,1.019130549291419,0.3033669093964019,1,,-0.526937862608493,-0.870966343528787,0.21382765256436026,-0.1118229035894279,0.31631562207154607,0.2608140710008131
575,0.9989626545708213,0.2968831505222031,1,,-0.506428059629825,-0.8562256580541365,0.20148952643577714,-0.15239443120179127,0.3496051782261464,0.30888139793957387
576,0.9771743631642446,0.2887678298336496,1,,-0.4615763085991897,-0.8396555991221483,0.19173118919618773,-0.15051529143397085,0.2895697606905691,0.29087804455647326
577,0.9558068072117686,0.2805095374627277,1,,-0.4167245574984866,-0.8230855401642742,0.18197285194135374,-0.14863615166321484,0.22953434306120402,0.2728746911452476
578,0.9368657955856271,0.2739526077801105,1,,-0.379348659405894,-0.8110592557201406,0.17917365036614277,-0.12902316084694132,0.16212435395197788,0.22570505461904505
579,0.9220976715354694,0.2709647481243598,1,,-0.3480097285552087,-0.8027022004716564,0.18199415195519514,-0.09508957276850159,0.0887591850659357,0.15498280147287571
580,0.9127983954643415,0.27301691628716895,1,,-0.31786036510057813,-0.7949674965572618,0.18512349200591965,-0.06093137206513668,0.015907198368725325,0.08366572870600555
581,0.9096809352620635,0.28078263018733945,1,,-0.3195558833104257,-0.8038932231938848,0.19652048031523722,-0.02076025904815825,-0.04320683354538397,-0.0035747501609674093
582,0.9128169294850426,0.29386994357897617,1,,-0.32125140152292203,-0.8128189498444516,0.20791746864235927,0.019410854031575858,-0.10232086555184174,-0.09081522916422825
583,0.9216570954217224,0.3107714473088897,1,,-0.3324733773075103,-0.8259339102040244,0.21948344610199208,0.05985869961043524,-0.16725573073534852,-0.16799582599590449
584,0.9351231764825465,0.3290622066808265,1,,-0.35253214903207125,-0.8429348274773674,0.2312061788712302,0.10056324394192204,-0.23759003388024322,-0.23584481947936053
585,0.951754563776522,0.3458096628495051,1,,-0.37259130697083886,-0.8599251936325131,0.24292273357316507,0.14122718181024332,-0.3078416427333088,-0.3036077808983627
586,0.9698866536878271,0.358104635707637,1,,-0.39289979905533484,-0.870104484630865,0.25065115534670396,0.15567835906133104,-0.32471144924585577,-0.3158342959430891
587,0.9878361402595994,0.36359454228468563,1,,-0.41320829117155683,-0.8802837756451192,0.2583795771323162,0.17012953633499453,-0.341581255784757,-0.32806081100691586
588,1.0040705345107133,0.36090357117947525,1,,-0.4272097140539,-0.8871843822977711,0.26476263866066724,0.17071791383003793,-0.32934564571476244,-0.3162784424553947
589,1.0173442887681425,0.34985474405549083,1,,-0.434495550043569,-0.8905939396349332,0.2697131990850254,0.15654557859925425,-0.286119420416063,-0.27893210124714185
590,1.0267906068075512,0.33145525164215384,1,,-0.4417813860218559,-0.8940034969667687,0.27466375950164973,0.14237324339061075,-0.2428931951848919,-0.24158576009723173
591,1.0319649691632518,0.3076578194124033,1,,-0.4449156547027825,-0.8906916665098336,0.2745343988554746,0.11504612490356124,-0.17156356394959185,-0.19207534209795668
592,1.0328425284640526,0.28095682461969074,1,,-0.4479086170906986,-0.8871510611666813,0.27423213368043897,0.08727125902921987,-0.09927738131615191,-0.1421508972768234
593,1.0297761624850554,0.2539099533108815,1,,-0.4488391727527785,-0.8826119130728018,0.2704585114890386,0.05930005675368199,-0.025968617962093918,-0.09284272827322712
594,1.0234248310374956,0.22868818665773538,1,,-0.4472475004684229,-0.8768515934145935,0.2624395803649953,0.031088744105052822,0.04859071438807914,-0.0442882359873517
595,1.0146630275577149,0.20674578945862734,1,,-0.44565582818655375,-0.871091273765384,0.2544206492534793,0.002877431500495623,0.12315004662177492,0.004266256222671447
596,1.0044818820397903,0.18866939383839526,1,,-0.43682361166969746,-0.8661005688464998,0.24466940303841103,-0.012625269169328475,0.16425882209728274,0.03529552828567818
597,0.9938913349349574,0.17421928152366042,1,,-0.42746828251065944,-0.8611654668289846,0.2347930010603418,-0.027209801849575124,0.2029508717640939,0.06505864347511166
598,0.9838312043125697,0.16252996725619945,1,,-0.41902754820699806,-0.8565140875384265,0.22693090112140832,-0.035670616539591866,0.22149407649339148,0.08243079837426641
599,0.9750972051528651,0.15240467251098486,1,,-0.41187399968657046,-0.8522620149631479,0.22190369676030655,-0.03551301125279757,0.21168012829988764,0.08236411956589275
600,0.9682861974902858,0.14262678830574851,1,,-0.4047204511661428,-0.8480099423878693,0.21687649239920476,-0.03535540596600328,0.20186618010638382,0.08229744075751909
601,0.9637632084851262,0.13222039485384474,1,,-0.39748527926186006,-0.8467524415989476,0.21901601627409964,-0.028969418529505842,0.16546727361536448,0.06674691587627365
602,0.9616511232681635,0.12061500766537808,1,,-0.3902408520245833,-0.8458344978782566,0.22196818161342316,-0.02187718950437,0.1260538759400192,0.04944066442118898
603,0.9618423544746536,0.1076985838107142,1,,-0.3866943193315367,-0.8467595188045082,0.22589726697660137,-0.012840723830091154,0.09028880929796973,0.0319265966673879
604,0.9640302324251891,0.0937696898241567,1,,-0.38915754798393953,-0.8506796975220149,0.23141402771909056,-0.0006445146976497545,0.060452954277934526,0.014074789133446626
605,0.9677563014187709,0.07941887485900509,1,,-0.3916207766401904,-0.8545998762456456,0.23693078847019805,0.011551694453844675,0.030617099211289474,-0.0037770184283829103
606,0.9724682933024232,0.06537778760220589,1,,-0.3979246703996436,-0.8577875513699567,0.2402335871917205,0.018868433452342615,0.012404016615186352,-0.014136849133283214
607,0.9775825560381717,0.052372488194227254,1,,-0.4048346882278879,-0.8608596246268992,0.24318698401776553,0.02541510679588367,-0.00397478938666355,-0.023314314973678318
608,0.9825444248371087,0.04100734889271542,1,,-0.4103051436627633,-0.8638642316684018,0.24537198733643387,0.02841250447875549,-0.014739859743070783,-0.028835397015586926
609,0.9868805369712645,0.031692266125959115,1,,-0.4130601293436375,-0.8667415760875083,0.24610755759593542,0.024714846301968213,-0.01491565008370102,-0.02745938338092452
610,0.99023829271193,0.024613409125620503,1,,-0.41581511502881546,-0.8696189205111098,0.2468431278565861,0.021017188119404416,-0.015091440424605881,-0.0260833697441125
611,0.9924093290223533,0.01973979236292954,1,,-0.41643422485571263,-0.8698196807842526,0.24727628240209587,0.011936066568524991,-0.0072196814350165275,-0.017800839472127367
612,0.9933357660872686,0.01685529189652298,1,,-0.41661347909094665,-0.8694692336906912,0.24764715840205925,0.0017462913949612066,0.0023093647042635975,-0.00809600275358529
613,0.9930998988335038,0.015606647866074606,1,,-0.41582074675959196,-0.8686661492952219,0.24723485167215647,-0.006771613273157866,0.010000109840333839,0.0006102505603863934
614,0.9918997430534844,0.015559904422565227,1,,-0.4128846515117952,-0.8668649379273136,0.24509552023127867,-0.01160281553966603,0.01363715063088574,0.007114491336300867
615,0.9900142347475269,0.016258768646015952,1,,-0.4099485562594117,-0.8650637265565915,0.24295618878705877,-0.01643401781372154,0.01727419142711946,0.013618732122376324
616,0.9877627832635594,0.017278363851396722,1,,-0.4064583170560043,-0.8641202377465461,0.24040812796603073,-0.01400980896852698,0.017678575432657998,0.015420927142010609
617,0.9854642019326391,0.01826800351987317,1,,-0.40282498156723645,-0.8633982381455121,0.23775452118460333,-0.009712039416092874,0.017248192307523905,0.016008915551055266
618,0.9833997586356757,0.018978078569402607,1,,-0.39994166963503036,-0.8627042106971695,0.23551726998965838,-0.004778341717820869,0.016454421613766042,0.014897730821421788
619,0.9817842698399661,0.019268994714818022,1,,-0.39901077099810484,-0.8620829985631537,0.23436384899385698,0.001810763438549319,0.014714703661691357,0.009363367351297397
620,0.9807479488005988,0.019103406789491698,1,,-0.398079872359725,-0.8614617864281675,0.23321042799625366,0.008399868605213067,0.01297498570689887,0.0038290038725271713
621,0.9803302764807077,0.01852568997239974,1,,-0.4015708579149288,-0.8608386955246616,0.2345562662944757,0.011251266751543873,0.008368617220049631,-0.0009218698096261032
622,0.9804856447855264,0.017634013219048374,1,,-0.40645589838446944,-0.8602150123143425,0.23669002769183806,0.012924305501920912,0.002858500894442346,-0.005425738435856289
623,0.9810990831243729,0.016550467848063737,1,,-0.41029490370356686,-0.8600811454321923,0.2382573513215455,0.013859149312641568,-0.0014802283805800543,-0.008358916944330174
624,0.9820092067483701,0.015393836227906478,1,,-0.41087656242944964,-0.861472563391925,0.23806079145709294,0.01249525891473847,-0.00217126606830257,-0.0064009767165588635
625,0.9830347988295678,0.014258342460081428,1,,-0.4114582211544237,-0.8628639813494844,0.23786423159294745,0.011131368518966052,-0.00286230375494554,-0.004443036491846266
626,0.9840012460274465,0.013200581000760268,1,,-0.41355456158385373,-0.8633952905994686,0.24022009994767252,0.007677546374420958,-0.0004338430452334266,-0.001107941076628146
627,0.9847633492552287,0.012235888661858199,1,,-0.4162230151249898,-0.8636017266674673,0.24354005048786548,0.0034343324032930465,0.003172888930831856,0.002747322069147585
628,0.9852217340715574,0.011344460268846022,1,,-0.4173099327849424,-0.8636173257148103,0.2457025733240201,-0.00046366311892845845,0.004508513424764095,0.006472337878726142
629,0.9853311357416346,0.010486168810327427,1,,-0.41239707043771623,-0.8629089575375404,0.24347423050554487,-0.0030520236659689884,-0.00277162946934835,0.009703242027643617
630,0.9851001918912519,0.009621302088127594,1,,-0.4074842080981649,-0.8622005893613771,0.24124588769055075,-0.005640384208965958,-0.01005177235208769,0.012934146171513746
631,0.9845838657417333,0.008732734450959366,1,,-0.40372179457752133,-0.8614926412941062,0.24127869731859575,-0.006267380026921465,-0.01006061656153143,0.013067938401091335
632,0.9838708663793461,0.007844185853384894,1,,-0.4004729260081247,-0.8607848807594172,0.24232085510948764,-0.006018848902261133,-0.006823650440680675,0.011819221356975593
633,0.9830690121229919,0.007029777305607326,1,,-0.3980374189225566,-0.8605427892083389,0.24330563874549568,-0.0056066951762463865,-0.0038474248681110443,0.010049023177555821
634,0.9822912093319452,0.006412064531833411,1,,-0.39945910958059244,-0.8625090360037715,0.24401833738101347,-0.004418595278152875,-0.002107707135785176,0.005805809121859294
635,0.9816437428612694,0.0061484813857172775,1,,-0.40088080023640726,-0.8644752827961323,0.24473103601541787,-0.003230495381915424,-0.00036798940617711065,0.0015625950727915553
636,0.9812173128314504,0.006408754982022273,1,,-0.4014932188639831,-0.8646715622019132,0.24407938922328745,2.8267171899945317e-05,0.0011168775457819809,0.0005607644888387703
637,0.981080228320756,0.007347636124387139,1,,-0.40168298124550145,-0.8639434456778312,0.24271518955283908,0.004368468927710984,0.002468644289512122,0.001251802207262686
638,0.981272781834592,0.009077887192850641,1,,-0.4023467599421505,-0.8633469909203587,0.24163401741298757,0.008102417,0.00367985502503615,0.0016185450029315286
639,0.9818021440735044,0.011648020822328827,1,,-0.4059300298186933,-0.8635614478513972,0.24229602659559585,0.008102417,0.00402537396767309,-1.206153474092526e-05
640,0.9826378922405212,0.015028280282199144,1,,-0.40951329969523614,-0.8637759047824359,0.24295803577820407,0.008102417,0.004370892910310029,-0.001642668072413379
641,0.9837092283317882,0.019107253410895364,1,,-0.40930560069660826,-0.8579236183229909,0.24247771731633283,0.003861411201077466,0.00944792524544781,-0.00019439491909196526
642,0.9849058754461018,0.02370033830896201,1,,-0.4067984881769228,-0.8483915465137596,0.24130451961601063,-0.002951978165185083,0.017394858701431242,0.003121373803864784
643,0.9860852559469838,0.028569696289647912,1,,-0.405035747855862,-0.8417365437569277,0.24058418897911546,-0.010331748442963187,0.025168306158247097,0.006324249038546512
644,0.9870881337826403,0.03345317838112076,1,,-0.40960306474362634,-0.8595478116739986,0.2437149887590891,-0.022527957972666404,0.03146644813877073,0.008567090740208306
645,0.987762664123931,0.03809744270546271,1,,-0.4141703816385257,-0.8773590796188945,0.2468457885439537,-0.03472416752142265,0.037764590129133385,0.010809932445373887
646,0.9879929847034589,0.042289040831858,1,,-0.41245292224355323,-0.883629336203888,0.2503643915338549,-0.02954831929662736,0.040555529562295016,0.01498458670295715
647,0.9877249671992376,0.04587753870946004,1,,-0.40633163520193594,-0.8818126502330977,0.25415473347205064,-0.012199635512273193,0.04088892478932779,0.02051288811664855
648,0.9869808979803203,0.04878693709854336,1,,-0.40058114706955034,-0.8792107180658049,0.25697460374886977,0.00459232361407039,0.04095596718269455,0.025036254372895594
649,0.9858576346782137,0.05101493486882283,1,,-0.3997003221410602,-0.8662962302439291,0.24704937170191613,0.014072875988380574,0.0375250258231524,0.016361912798527965
650,0.9845080308094253,0.05262249694845174,1,,-0.398819497211194,-0.8533817424018779,0.23712413963945717,0.023553428377501365,0.03409408445825039,0.007687571210609198
651,0.9831108033246321,0.05371755926433041,1,,-0.3981696201718477,-0.8502280519884441,0.2332073668618558,0.028457319718011118,0.04104451356948423,-0.000761963799768777
652,0.9818373342996205,0.05443617580368564,1,,-0.3977060261846292,-0.8549474412899126,0.23413702996256905,0.02966966665008902,0.05636857794875391,-0.009030169375990207
653,0.9808239637092898,0.05492261427284441,1,,-0.3975285112560877,-0.8595908692705775,0.2351008824181696,0.030774872162161432,0.07031058413743553,-0.017047571651461157
654,0.9801554498447425,0.055308327203210834,1,,-0.40494724667404824,-0.8622172983223394,0.23697256403050843,0.029035154175537006,0.04755483306131439,-0.018405400256123323
655,0.9798610203609178,0.05569000825202465,1,,-0.41236598210359837,-0.8648437273782043,0.2388442456457712,0.027295436186194774,0.024799081949644003,-0.019763228862906705
656,0.9799207006423339,0.056109416001735704,1,,-0.4168220358250126,-0.8631579779781089,0.23740961748777342,0.021144441778799757,-0.0023679454337107815,-0.019856197665983483
657,0.9802776479886929,0.05654042638869619,1,,-0.4185330124366423,-0.8574767732399937,0.2329115231097481,0.01090617265644573,-0.033622247459658194,-0.018777208745474654
658,0.980852293746196,0.05688903109469809,1,,-0.4202475612356137,-0.8518095847487126,0.22841970643917872,0.000681751953514794,-0.06481915845609126,-0.017690696415790387
659,0.9815555302488056,0.05700862352958788,1,,-0.42390993793023957,-0.8537851082009161,0.22735096635925248,-0.001991472872608744,-0.06472217055866229,-0.012501852047207662
660,0.9822998095663398,0.05672777889380763,1,,-0.42757231463058704,-0.855760631656206,0.22628222627765668,-0.004664697702908419,-0.0646251826610818,-0.007313007670518879
661,0.9830079312366689,0.05588404198102994,1,,-0.42808470882124533,-0.8569789154981114,0.22786563872240329,-0.007023608917709892,-0.05987517868076449,-0.0016776616341760515
662,0.9836193863430313,0.054356715644797035,1,,-0.42524690160297446,-0.857391828135341,0.23226977957550696,-0.009048228151265741,-0.050176404018664876,0.004432566577741905
663,0.9840939293740111,0.05209352759713711,1,,-0.4224090943891369,-0.8578047407719254,0.23667392042173044,-0.011072847381658712,-0.040477629371716776,0.010542794780114408
664,0.9844120689920575,0.049128355788373476,1,,-0.4168440172220991,-0.8606447314096676,0.23920227698577717,-0.01600010898772225,-0.04556767077740529,0.015292592636083874
665,0.9845725031372703,0.045588421927332735,1,,-0.4111869399103368,-0.8635665956941333,0.24166735691920538,-0.021025286651826538,-0.051156589577332066,0.019996498510676284
666,0.9845870289769612,0.04168938779503737,1,,-0.4048949178370401,-0.8646340046474653,0.2425793015651515,-0.02228226294316422,-0.047301811673400786,0.02287769714385681
667,0.9844740083463892,0.03771677178495202,1,,-0.3978272777992901,-0.8634361002429217,0.24159401091283977,-0.01893618583967196,-0.03191106848697747,0.023532364360055097
668,0.9842519604778457,0.033993484970181884,1,,-0.3907596377725812,-0.8622381958402496,0.24060872026206725,-0.015590108741406974,-0.01652032532459772,0.02418703157523066
669,0.9839350518203479,0.0308363845462907,1,,-0.3920920777695846,-0.8658483802635065,0.24389641840266182,-0.01214224103050388,-0.010590425958692508,0.019644737912859176
670,0.9835318329145113,0.028508351477029903,1,,-0.3940286635561074,-0.8698043693185724,0.24749143601437673,-0.008687052398658121,-0.005340964044969677,0.014728671385073843
671,0.9830474793717057,0.027174805088598784,1,,-0.39373220382410656,-0.8709869804418926,0.24912781597698477,-0.0026365759703950676,0.0007324387734110284,0.010404733635578863
672,0.982488526540273,0.02687371372076717,1,,-0.39029666374282485,-0.8682709445795288,0.2480108615715349,0.007062199073814848,0.00796408786634061,0.006913174730896602
673,0.981868391659575,0.02750590550779476,1,,-0.3868611236615431,-0.8655549087171649,0.246893907166085,0.016760974118024765,0.01519573695927019,0.0034216158262143407
674,0.9812121489073982,0.028848352954329616,1,,-0.39113216460619066,-0.8638740289509317,0.24531601676759562,0.01939069730258814,0.02277593710776261,2.26407559803775e-05
675,0.9805596382405077,0.030588189578223148,1,,-0.3962743508381882,-0.8623101623429321,0.24368602256340632,0.021221340936754075,0.03039553715478917,-0.0033658687112802835
676,0.9799663937484058,0.032370973890791147,1,,-0.40048718738793054,-0.8623332984238959,0.24237248535353406,0.02139976965927618,0.035147446547402414,-0.006285287724142885
677,0.9795018227440618,0.03385436402284602,1,,-0.40319147551512224,-0.8649325050854447,0.24157263067698198,0.01889627335570698,0.035244434047569564,-0.008443264965896601
678,0.9792438459636341,0.03475831188576254,1,,-0.40589576364653857,-0.8675317117510536,0.24077277599918034,0.016392777048226795,0.03534142154788823,-0.010601242211021529
679,0.9792693515261587,0.03490468498017959,1,,-0.40639551901427085,-0.8616711095628771,0.24069548784036326,0.016586440986476172,0.03150526903577979,-0.008318070768487569
680,0.9796407112221779,0.03424195916285316,1,,-0.40654819906510903,-0.8544786193250522,0.2407319584823822,0.017204738099998965,0.02704989423709285,-0.0053356976105972875
681,0.9803901902250046,0.0328533324791207,1,,-0.40751041228144425,-0.8507405272324517,0.23850936378576285,0.01427925913265536,0.02652924576439996,-0.0028178407091947882
682,0.9815056889526969,0.030948583899242276,1,,-0.4099977480966089,-0.8535103596200175,0.23203079571001597,0.004677471866695869,0.033421437573863774,-0.0011751107101657314
683,0.9829219599704832,0.028841003605134752,1,,-0.4124850839156593,-0.8562801920119104,0.22555222762414817,-0.004924315414263623,0.040313629394094636,0.0004676192914296137
684,0.9845207142620086,0.02691112285197528,1,,-0.4147878308097669,-0.8587597938396621,0.23063346848279478,-0.00995035177285113,0.032940541383689924,0.0001794830438265388
685,0.9861411014588226,0.025559616450906545,1,,-0.4170526402186506,-0.8611797462700371,0.23809052973833647,-0.014035960632034694,0.02263559325555136,-0.0005054929290986783
686,0.9875996542737079,0.025153321186937912,1,,-0.4175965878175868,-0.8633937373752221,0.2427969124484423,-0.015923823232949125,0.012870143542174913,0.0004545281111860251
687,0.9887166811204118,0.025970590596776703,1,,-0.4143508141687665,-0.8651541557454808,0.24144568794894444,-0.012971758747952294,0.0042927895474268,0.0050371992133076745
688,0.9893447300936037,0.028154074921908676,1,,-0.4111050405148756,-0.8669145741184898,0.24009446344733568,-0.010019694258343719,-0.004284564460720934,0.009619870322588413
689,0.9893942001287057,0.03167926716610632,1,,-0.4106752223489618,-0.8743290103966186,0.2387633909199312,-0.007260405258728494,-0.014760758459888234,0.01197598289616068
690,0.9888512499298437,0.03634526710523894,1,,-0.4109713017342504,-0.8832009405218991,0.2374375131697317,-0.0045508099569045906,-0.025726435820941373,0.01375813278302713
691,0.9877837890906693,0.04179054393785468,1,,-0.40986849097582523,-0.8859204010203576,0.23609583659955402,0.00019819442324536503,-0.03783222878510918,0.015543650854251516
692,0.9863328922256547,0.047532041277852315,1,,-0.40512932902074816,-0.8726467970663632,0.23471309170914628,0.010248549806880882,-0.05290170038014963,0.01733792437728871
693,0.9846898940347247,0.053022066234836296,1,,-0.4003901670730747,-0.8593731931331051,0.2333303468208986,0.02029890517481564,-0.06797117195164841,0.01913219789752287
694,0.9830633428441188,0.05771520953151044,1,,-0.3943007623880024,-0.8531394403262897,0.23931091308971122,0.012714158983434726,-0.021343145428859095,0.011244454572050045
695,0.9816434140946635,0.0611374367072007,1,,-0.38778633940414464,-0.8491216338722828,0.24760924181507257,-0.0004216192589140807,0.04470551152168895,0.00030908570553103904
696,0.9805725352564051,0.06295033588663292,1,,-0.38702657102440446,-0.8482824496799695,0.25138685225662916,-0.009748525092516745,0.09274979676996457,-0.008052122597405993
697,0.97992906602153,0.06300342287738028,1,,-0.40415914395074415,-0.8573262208144846,0.24110866961773023,-0.007232905268044362,0.08481498614321348,-0.008409764700039266
698,0.9797265901244341,0.061366332890887526,1,,-0.4212917168503191,-0.8663699919348714,0.23083048699488792,-0.004717285447501904,0.07688017552885822,-0.008767406802113827
699,0.979926420564264,0.058333201671351344,1,,-0.42393047289663516,-0.8665874354881397,0.22767667908826647,0.006412221093327406,0.06142747156919474,-0.005872283529137642
700,0.9804572921503876,0.05439554311340632,1,,-0.4211025499796969,-0.8634758250210672,0.22720999423140992,0.020790654682835884,0.04313921985866938,-0.0017503043970607604
701,0.9812352636339461,0.050186175173614435,1,,-0.4204351003146342,-0.8604564012948153,0.2262105514473852,0.03217565711195785,0.029612093826646042,0.0013865269288301945
702,0.982178508361404,0.04640211964978661,1,,-0.42794964040280276,-0.8577861005765878,0.22319348594293711,0.032224151259379004,0.0341159622939715,0.0007924769754135585
703,0.9832146294851262,0.043717017582891204,1,,-0.43546418047923197,-0.8551157998625322,0.22017642044320235,0.0322726454067244,0.038619830754260974,0.0001984270229249528
704,0.9842809467659378,0.04269382202027951,1,,-0.43601206811981036,-0.852772983235103,0.22006572581069356,0.028476460170607325,0.03215567283943553,0.004463682358342705
705,0.9853201487941706,0.0437079169671385,1,,-0.43345427019927196,-0.8505761567579155,0.2212506712461879,0.02296634341662,0.020802044501689914,0.01089518243404933
706,0.9862747071910543,0.04689049097236005,1,,-0.4314601533720863,-0.849215041744556,0.2228951438780055,0.015630182948278216,0.009894617897667093,0.01780037542846541
707,0.9870835305179123,0.05210163055286665,1,,-0.4321339103042997,-0.8518093063110193,0.22671453521143914,-0.00034854896451768714,0.0010990412432348065,0.026947532771689597
708,0.9876834287681545,0.05894073919935128,1,,-0.43280766723546044,-0.8544035708734297,0.23053392653890611,-0.016327280852351467,-0.007696535397456949,0.03609469010062401
709,0.9880161628246972,0.06679732549391763,1,,-0.4296583868698643,-0.8592381929116206,0.23523362295182793,-0.024242873481016135,-0.03092927341221994,0.03909489897081466
710,0.988039658580993,0.07493811671679827,1,,-0.4245149732020885,-0.8652414071128716,0.24039249501871307,-0.02795265449943158,-0.061692574680013545,0.03888879993706673
711,0.9877401235901886,0.08261846784344727,1,,-0.41934837210131215,-0.8700345943826971,0.24537634243384973,-0.031112644047645834,-0.08980194418364713,0.03842222863009468
712,0.9871409831239428,0.08919945260744355,1,,-0.4140392951128935,-0.8673927312896443,0.24928474505958215,-0.03089442177500792,-0.10160414229186765,0.03635517687180131
713,0.9863050763251267,0.09424891282762701,1,,-0.40873021812447485,-0.8647508681965914,0.2531931476853146,-0.030676199502370004,-0.11340634040008817,0.034288125113507935
714,0.9853282770423358,0.0976062410319692,1,,-0.40041100225734105,-0.8645448413083971,0.25551333505919305,-0.027728755108958877,-0.11888942526132051,0.029627746744329095
715,0.9843250398741986,0.09939664336392684,1,,-0.39026819000217017,-0.8658144879144823,0.25687135299037495,-0.02312789875124043,-0.12054427736307076,0.023396284365378557
716,0.9834085631532046,0.09998991038563822,1,,-0.3810258614925956,-0.8665216543173061,0.2577359574648679,-0.018206634343232143,-0.11914278214282881,0.017162903297153215
717,0.9826697592197988,0.09990974021666496,1,,-0.3794181191191996,-0.8624599356456911,0.2544172465844014,-0.010568849219376605,-0.09182860768880505,0.010913255066713156
