id,ASVM,GSVM,walking_nonwalking,normal_abnormal,ax,ay,az,gx,gy,gz
1,1.051563342992701,1.8239509551178037,0,0,0.690796,0.518204,-0.591507,-1.277225,1.2882360000000002,-0.31686
2,1.0300198468876498,2.1086045794454313,0,0,0.294952,0.6063530000000001,-0.41534499999999996,-2.034523,1.783236,-0.104867
3,1.0075514856397556,2.3863440534084455,0,0,-0.014724999999999988,0.830856,-0.6275640000000001,-1.752982,2.147981,-0.187757
4,0.9844406021643902,2.644466659599433,0,0,-0.09002699999999991,1.174133,-0.48989900000000003,-1.059044,2.045296,-0.1518
5,0.9615406875743895,2.870840505197246,0,0,0.07809400000000002,1.30803,-0.12217699999999992,-0.907142,2.402687,0.117995
6,0.9403339170954574,3.0544950734258167,0,0,-0.013503999999999905,1.041244,-0.02316299999999999,-1.4609,3.093898,0.103627
7,0.9227930657289783,3.186150663904888,0,0,-0.029403999999999986,0.7666930000000001,-0.3591919999999999,-1.160354,2.831456,-0.326567
8,0.9110692433766414,3.258721615603636,0,0,0.237625,0.5138700000000002,-0.07762199999999997,-0.734168,2.881348,-0.385611
9,0.9070981827380853,3.2678131394138235,0,0,0.302246,0.49842899999999996,0.009917999999999982,-0.883656,3.065415,0.066038
10,0.9122505327940771,3.2122125626826556,0,0,0.4152979999999999,0.6710210000000001,0.017807000000000017,-0.715197,2.948022,-0.026638
11,0.9271232794454305,3.09434781714549,0,0,0.402344,1.1034549999999999,-0.136657,-0.077871,2.957722,-0.3405289999999999
12,0.9514969552283191,2.920639115282751,0,0,0.439331,1.124023,-0.19876099999999997,0.347009,3.125177,-0.2277489999999999
13,0.9844128555578994,2.701614885929836,0,0,0.491928,0.8859259999999999,-0.187867,0.0949059999999999,3.159725,-0.123799
14,1.0242988347290296,2.45162732468396,0,0,0.562592,0.6913450000000001,-0.07183800000000001,-0.202228,2.977783,-0.187598
15,1.069097542879684,2.1880175574726484,0,0,0.5888059999999999,0.6726679999999999,0.15231399999999992,-0.573455,2.700182,-0.24111
16,1.1163939926968458,1.9296677278310406,0,0,0.56726,0.890564,0.18917799999999999,-0.270753,2.213147,-0.186029
17,1.16356071899351,1.6950335114407749,0,0,0.5712279999999998,1.1070710000000001,-0.01928700000000011,-0.024355,1.216398,-0.2204179999999999
18,1.207927358027088,1.499935653454478,0,0,0.6899569999999999,1.1284939999999999,-0.149292,-0.0804059999999999,-0.390684,-0.276434
19,1.2469569500302624,1.3555322261110416,0,0,0.723816,1.1145779999999998,-0.15406799999999998,-0.324841,-0.929774,-0.315907
20,1.2784000528442296,1.2669215822865127,0,0,0.641937,1.061294,0.02517699999999999,-0.6898810000000001,-0.432321,-0.258205
21,1.3004097320450043,1.232714723484409,0,0,0.403473,1.140914,0.02298,-0.6170329999999999,0.127686,-0.239186
22,1.3116247760953148,1.2457101976252327,0,0,0.342972,1.218063,-0.013565000000000105,-0.772217,-0.162923,-0.4236319999999999
23,1.31124596246891,1.2945757363062673,0,0,0.411544,1.158538,-0.018645999999999996,-1.219039,-0.152809,-0.700231
24,1.2991292222638788,1.3662334665384905,0,0,0.467025,1.125702,-0.012604000000000004,-1.536922,0.568325,-0.942657
25,1.2759014534386879,1.4484857916975369,0,0,0.5466610000000001,1.147949,-0.06163,-1.667902,0.976208,-1.065872
26,1.243077996879061,1.532343982624023,0,0,0.573654,1.180939,-0.1299899999999999,-1.650568,1.025189,-1.075428
27,1.2031347876153786,1.6135674571737428,0,0,0.572753,1.222992,-0.262787,-1.554057,1.216273,-0.992745
28,1.1594728372366159,1.6930894200838977,0,0,0.506974,1.156341,-0.28907800000000006,-1.449749,1.089431,-1.064493
29,1.11621775802047,1.7762515969059185,0,0,0.5156099999999999,1.09903,-0.329895,-1.021675,1.007641,-0.962054
30,1.0778266818806863,1.871033482264139,0,0,0.4477239999999999,0.9316559999999999,-0.513107,-0.422139,0.972728,-0.743108
31,1.048523389797457,1.9856759430350708,0,0,0.316833,0.894958,-0.09326200000000001,0.363647,1.391714,-0.442259
32,1.031635896007234,2.126213228717439,0,0,0.07624900000000001,0.953034,0.217286,1.269634,1.614957,0.2196719999999999
33,1.0289528900213627,2.2944199912229006,0,0,-0.15635699999999997,0.8116000000000001,-0.33836299999999997,1.262797,1.038903,0.692516
34,1.0402338704435414,2.4865744074500364,0,0,0.069443,0.5839840000000001,-0.593246,0.928376,0.414919,0.649319
35,1.0629976507976395,2.693277168824625,0,0,0.189788,0.53067,-0.425919,2.0415810000000003,0.684014,0.588384
36,1.092675535067654,2.900364569479543,0,0,0.314087,0.7807620000000001,0.242416,3.036902,1.949115,1.168418
37,1.1231497552099006,3.0907186895617604,0,0,0.331528,1.027176,0.287125,2.905735,2.670889,1.402654
38,1.1476106400326147,3.246573313476798,0,0,0.024993999999999905,1.6144409999999998,-0.071838,2.770222,1.947848,0.917662
39,1.1595800025582461,3.351848754472011,0,0,-0.20558200000000004,1.422532,0.04920999999999999,2.542374,-0.413879,0.585811
40,1.153901093810322,3.3941534212549667,0,0,-0.24221800000000004,1.270721,0.085006,3.1376169999999997,-1.055586,0.439104
41,1.1275145278186507,3.366261754819565,0,0,-0.23196399999999995,1.1311499999999999,-0.047028000000000014,3.390912,-1.716749,0.392582
42,1.079914988057344,3.2669877467818615,0,0,-0.16207900000000003,0.874267,-0.3219599999999999,2.909321,-2.085649,0.092635
43,1.0132730743544456,3.101398981292367,0,0,-0.128525,0.8231350000000001,-0.37439,2.811516,-1.466979,-0.5572520000000001
44,0.9322686632429585,2.8803314332761927,0,0,-0.037140000000000006,0.774292,-0.35514899999999994,2.840137,0.0034969999999999,-0.946701
45,0.8437007443820799,2.6192250547058404,0,0,0.175751,0.8077240000000001,-0.37190300000000004,2.492569,1.032593,-0.921605
46,0.7559240638942587,2.336391883631767,0,0,0.254517,0.7194969999999999,-0.415558,2.034875,1.249568,-0.706095
47,0.678138493301122,2.0509186294772674,0,0,0.402359,0.644623,-0.399475,1.584207,1.025915,-0.595725
48,0.619545951169345,1.7804816502149128,0,0,0.42780999999999997,0.512573,-0.297989,1.1609120000000002,0.685131,-0.521333
49,0.5884043766140323,1.539408640136235,0,0,0.29136699999999993,0.4314879999999999,-0.280472,0.8525200000000001,0.155973,-0.325188
50,0.5910458561513432,1.3373375218740717,0,0,0.1840820000000001,0.39038100000000003,-0.29385400000000006,0.6597109999999999,-0.1113079999999999,-0.184118
51,0.6309708922403326,1.1787690691831856,0,0,0.081406,0.302078,-0.35382099999999994,0.341357,0.009206,-0.208929
52,0.708162767977601,1.0636687779836387,0,0,-0.003418000000000032,0.2116699999999999,-0.42060800000000004,-0.143306,0.311733,-0.318456
53,0.8187694466962327,0.9890547402917229,0,0,0.003020999999999996,0.2362519999999999,-0.475113,-0.458192,0.925623,-0.384467
54,0.9552687169337823,0.9512491863641345,0,0,0.04695099999999991,0.42303499999999994,-0.519195,-0.832937,1.492935,-0.472202
55,1.1071662433806975,0.9482386860307659,0,0,0.136124,0.5801240000000001,-0.641677,-1.3487209999999998,1.822994,-0.5136149999999999
56,1.2621828479416155,0.9814708961911977,0,0,0.246261,0.8090060000000001,-0.9340509999999999,-1.576883,1.7242970000000002,-0.409328
57,1.4077813444801675,1.0564919998685856,0,0,0.448395,1.160415,-1.306,-1.039618,1.447342,-0.346468
58,1.532789650685831,1.1821136304563138,0,0,0.520905,1.313202,-1.419265,-0.020409,0.96368,-0.424187
59,1.628829025229543,1.3682141682837907,0,0,0.389999,1.328155,-1.20163,-0.245806,0.223957,-0.3895619999999999
60,1.6912796631663358,1.6226802689103048,0,0,0.19917300000000002,1.233139,-1.121476,-0.3926469999999999,-0.252218,0.002073
61,1.7196058732792006,1.9482323249276212,0,0,0.217515,2.072952,-1.500778,1.463843,-0.996595,0.194388
62,1.7169880331960086,2.3398831184562603,0,0,0.5941619999999999,2.17485,-0.13598700000000002,2.481148,-1.504448,0.040843
63,1.6893448894001644,2.783602896125082,0,0,0.052993999999999986,0.538575,0.32141099999999995,0.267209,-0.269634,0.587817
64,1.6439706066594788,3.2565259036353855,0,0,-0.36871400000000004,-0.09408499999999997,0.7818750000000002,-1.029822,1.947852,1.549066
65,1.5881207663051948,3.7288018546471764,0,0,-0.972397,0.5345609999999998,-0.33718799999999993,-1.467071,3.071523,1.444159
66,1.5278864984129237,4.166943291896026,0,0,-0.3444670000000001,1.524139,-0.48619,1.073422,1.859402,-0.529844
67,1.4675657880158741,4.5382124666465815,0,0,0.09547400000000011,1.6351619999999998,0.5597070000000001,0.008244,6.332347,-1.432845
68,1.4095476491284686,4.8152738888532145,0,0,-0.18312099999999998,1.337326,0.8725129999999999,-3.115738,6.548586,-1.917484
69,1.3545796048751924,4.980130335493786,0,0,-0.012512000000000079,1.100982,0.7439120000000001,-3.5941129999999997,6.1866129999999995,-0.7602720000000001
70,1.302243432237993,5.026416468973,0,0,0.4448700000000001,1.133774,0.444809,-1.080408,5.207930999999999,-0.08664
71,1.2514917561482777,4.959533598450162,0,0,0.732605,1.233628,-0.0232539999999999,0.911936,3.677307,-0.525824
72,1.201146103660245,4.794746737640082,0,0,0.64473,1.107666,-0.195359,-0.136347,3.266623,-0.810358
73,1.150296671789241,4.553921163653432,0,0,0.554779,0.917938,0.207642,-0.871151,3.810539,-0.3301469999999999
74,1.098576192262868,4.261794609473889,0,0,0.522598,0.7743220000000001,0.4303289999999999,-0.712759,4.129899,0.120272
75,1.0463096706496962,3.9425486050878815,0,0,0.489929,0.755844,0.43896499999999994,-0.196066,3.934444,0.332435
76,0.9945614399549823,3.617140744704751,0,0,0.423325,0.8527980000000002,0.245529,-0.147765,3.481706,0.289555
77,0.9451029553513921,3.3015859062415993,0,0,0.40550200000000003,0.8555600000000001,0.239136,-0.189319,2.962225,0.2322469999999999
78,0.9003133146493729,3.0062087287358827,0,0,0.4067079999999999,0.8098599999999999,0.220261,0.167167,2.719426,0.434805
79,0.8630119821295017,2.735799903161272,0,0,0.445556,0.7921289999999999,0.16250599999999998,0.450722,2.612129,0.381376
80,0.8362190080924128,2.4905357871128997,0,0,0.47773699999999997,0.7687529999999999,0.017303000000000124,0.553122,2.524752,0.298882
81,0.8228446607154941,2.2674424632493797,0,0,0.48449699999999996,0.6883240000000002,0.074402,0.538064,2.353984,0.392999
82,0.8253256847413768,2.062120057606134,0,0,0.4736029999999999,0.619248,0.092117,0.786099,2.117198,0.517881
83,0.8452444921250564,1.8704180539349582,0,0,0.4601739999999999,0.630707,0.15284699999999998,0.929634,1.88719,0.636682
84,0.8829835080900117,1.689778868711606,0,0,0.3948059999999998,0.7406310000000002,0.30572499999999997,0.661679,1.890095,0.675399
85,0.9374734314876334,1.5200406753317122,0,0,0.341477,0.7204590000000001,0.24804700000000002,0.204727,1.7651330000000005,0.620025
86,1.0060895750506542,1.3636017206779971,0,0,0.44692999999999994,0.7037200000000001,0.007828000000000002,0.8240729999999999,1.124968,0.333547
87,1.0847360820838885,1.2249835405485732,0,0,0.43483,0.9262239999999999,-0.30088800000000004,0.635931,0.503544,-0.209628
88,1.1681337313721107,1.1099626066804893,0,0,0.460953,0.987823,-0.06416299999999997,0.153323,0.365786,-0.5055149999999999
89,1.2502936730839558,1.024526834287961,0,0,0.509185,1.1413429999999998,0.30072,0.076156,0.336985,-0.695092
90,1.3251230695829226,0.9739188063426376,0,0,0.620347,1.26416,0.12182599999999999,-0.02948,0.568529,-0.698264
91,1.3870800210903074,0.9619520217447172,0,0,0.663681,1.2561499999999999,0.027588,-0.017697,0.695851,-0.5808399999999999
92,1.4317825335754835,0.9906717329064297,0,0,0.727768,1.2994839999999999,-0.24354600000000004,-0.071186,0.852827,-0.6294850000000001
93,1.4564812264554559,1.0603296022707216,0,0,0.653672,1.408768,0.11256400000000003,-0.131475,1.144219,-0.4540229999999999
94,1.4603243351535382,1.1695806002120763,0,0,0.621643,1.513748,0.17689599999999991,-0.023149,1.276025,-0.20988
95,1.4443722364076352,1.3157942860586382,0,0,0.553573,1.375641,0.09439100000000009,0.163165,1.070473,0.149539
96,1.4113558635724004,1.4953881122124213,0,0,0.442749,1.3639979999999998,-0.023787999999999976,0.889667,0.8908280000000001,0.222142
97,1.3652168219127572,1.7041136343207406,0,0,0.277497,1.301926,0.05030899999999999,1.738525,0.801595,0.222844
98,1.3105086057942315,1.9372331893744255,0,0,0.11788899999999991,1.164642,0.1068109999999999,2.328174,0.567945,0.0670289999999999
99,1.2517661506358841,2.189515857308328,0,0,-0.023742000000000096,1.078811,0.021759,2.491965,0.667607,0.043476
100,1.1929560283389011,2.454992184762567,0,0,0.004058999999999979,1.096772,0.01088,2.478095,1.12473,0.025702
101,1.1370994088849469,2.726472520144116,0,0,0.08106999999999998,1.06578,0.103226,2.368076,1.406054,0.098281
102,1.0861194383549764,2.9949499756349556,0,0,0.180496,0.950638,0.288055,2.208876,1.464863,0.44747
103,1.0409153636038313,3.2491315575823276,0,0,0.204895,0.9532309999999999,0.2956849999999999,1.813865,1.353752,0.870006
104,1.0016197394801025,3.475411329366178,0,0,0.162643,0.999375,0.25541599999999987,1.786643,0.107331,1.171583
105,0.9679597485811942,3.6585649736412553,0,0,0.312118,1.104782,0.070969,2.278263,-1.3960780000000002,1.620256
106,0.9396235319517985,3.7832761788334834,0,0,0.385926,1.082382,0.017745999999999998,2.49753,-2.386559,2.1721220000000003
107,0.9165337291126678,3.8363282198656528,0,0,0.276001,0.995529,-0.041047,2.447396,-3.27283,2.47201
108,0.8989585376804465,3.8090126757748335,0,0,0.310883,0.8318939999999999,-0.211548,2.420799,-3.938756,2.262243
109,0.8874413280075699,3.699161035960246,0,0,0.317367,0.7304389999999998,-0.22067199999999998,2.212023,-3.1562080000000003,2.018363
110,0.8825862500809892,3.5122781546367023,0,0,0.300064,0.550873,-0.413483,2.2387200000000003,-1.838215,1.667552
111,0.8847781259208387,3.2615151742310537,0,0,0.179672,0.6095280000000001,-0.458893,2.499273,-0.977937,1.291197
112,0.8939271205635297,2.96653221061404,0,0,0.06242399999999998,0.7341150000000001,-0.3847650000000001,2.5121849999999997,-0.8794280000000001,0.888442
113,0.9093126715133122,2.651528689438374,0,0,0.283509,0.6249540000000001,-0.412872,2.21446,-0.946463,0.594823
114,0.9295671458203697,2.3428034830410365,0,0,0.42050200000000004,0.614304,-0.465333,1.91595,-1.108626,0.381438
115,0.9527998089548754,2.0661823259848355,0,0,0.5397190000000001,0.7344819999999999,-0.5550240000000001,1.455926,-1.35866,0.17131
116,0.9768254048950168,1.8445831715137526,0,0,0.346344,0.7691499999999999,-0.679016,0.860123,-1.6498549999999998,-0.017281
117,0.9994374275348656,1.695925633243701,0,0,0.29064899999999994,0.74559,-0.712829,0.3363489999999999,-1.61095,-0.234634
118,1.01866204104874,1.6315430660169794,0,0,0.30786200000000014,0.696915,-0.794342,-0.384774,-1.2404110000000002,-0.364059
119,1.0329462688167323,1.655222414618732,0,0,0.29601999999999995,0.635376,-0.7344360000000001,-0.959396,-0.832945,-0.5309649999999999
120,1.0412649186319811,1.7629634439401387,0,0,0.21285999999999997,0.620681,-0.7324369999999999,-1.284469,-0.483732,-0.732372
121,1.0431610336490955,1.9434964660473006,0,0,0.26359600000000005,0.602005,-0.7884519999999999,-1.382577,-0.007178,-0.741146
122,1.0387533159388032,2.17951637125581,0,0,0.389481,0.569245,-0.419022,-1.767852,0.90406,-0.514269
123,1.0287447557786304,2.449488312888485,0,0,0.14529400000000012,0.642334,-0.24609299999999995,-2.561071,2.099434,-0.393155
124,1.0144459079124977,2.729783821833003,0,0,0.007644999999999902,1.063385,-0.660004,-2.007865,2.682297,-0.645342
125,0.9977845775844773,2.9968612880445313,0,0,0.09519999999999995,1.47078,-0.6438749999999999,-1.109238,1.806571,-0.87402
126,0.9812296095861747,3.2292475702101804,0,0,0.35774300000000003,1.339416,0.20524599999999998,-1.107337,2.537061,-0.803372
127,0.9675508951525291,3.4091804728233606,0,0,0.150727,0.7430579999999999,0.15183999999999986,-1.986507,3.486155,-0.557561
128,0.9594003192341625,3.523853368632687,0,0,0.1183479999999999,0.5249329999999999,-0.21383599999999997,-1.222401,3.178232,-0.672538
129,0.958802990603581,3.5662209410989365,0,0,0.250946,0.4734499999999999,-0.08459399999999989,-0.8342129999999999,3.045286,-0.5297189999999999
130,0.9667222927074544,3.535314713303724,0,0,0.374344,0.598908,0.18229700000000001,-0.654708,3.661127,-0.447001
131,0.9828512851256532,3.4360197650599056,0,0,0.363342,0.876007,0.152466,-0.402574,4.225636,-0.909567
132,1.0056944186949444,3.278282771038988,0,0,0.34906000000000004,1.1935879999999999,-0.138001,0.025379,3.440401,-1.248469
133,1.0328922344835052,3.075767096055825,0,0,0.53067,1.279495,-0.32720899999999986,0.234346,2.68455,-1.020645
134,1.0616664476779367,2.844071045057002,0,0,0.6272889999999999,0.891388,-0.121933,-0.387936,2.5105459999999997,-0.657301
135,1.0892542921229837,2.5987637709980023,0,0,0.689041,0.738571,-0.008026000000000005,-0.593555,2.0534939999999997,-0.4669399999999999
136,1.1132496002894101,2.353597372483147,0,0,0.705246,0.750763,0.08856199999999989,-0.623239,1.3706969999999998,-0.718372
137,1.1318332020098187,2.1192610832598735,0,0,0.54419,0.8249360000000001,0.20283500000000002,-0.630891,0.43296,-0.904163
138,1.1439157308550527,1.9029412747320142,0,0,0.5924989999999999,0.928604,0.05191,-0.2196179999999999,-1.106756,-0.8961129999999999
139,1.149218049175177,1.7087578735591686,0,0,0.611283,1.115387,-0.125,-0.229142,-2.14494,-1.002739
140,1.148292561760491,1.5389068551215799,0,0,0.593323,1.12709,-0.138794,-0.8712700000000001,-2.074573,-0.727441
141,1.142467358321967,1.3951323260471984,0,0,0.570648,1.047562,-0.21110600000000002,-0.8958209999999999,-1.204803,-0.566357
142,1.133693120275804,1.2800730164529472,0,0,0.481704,0.9736789999999999,-0.0972139999999999,-1.311531,-0.374706,-0.5340050000000001
143,1.1242929425735648,1.1981032791472819,0,0,0.4338229999999999,0.9668739999999999,-0.106965,-1.475658,-0.101412,-0.5376380000000001
144,1.116644009108814,1.155454416749095,0,0,0.4367059999999999,0.917465,-0.23979199999999998,-1.403201,0.061541,-0.59182
145,1.1128389416210598,1.1595758709209407,0,0,0.45960999999999996,0.9363090000000001,-0.347397,-1.201825,0.209036,-0.621581
146,1.1143749699790395,1.2178456605246604,0,0,0.4929969999999999,0.9953460000000001,-0.43721,-0.7086279999999999,0.391139,-0.501933
147,1.121906420215703,1.3358689574319946,0,0,0.3287049999999999,1.07515,-0.21664399999999998,0.000111,0.990448,-0.207194
148,1.1350831763313252,1.5157014843186958,0,0,0.2339019999999999,1.042221,-0.15673899999999996,0.618348,0.8552860000000001,0.023761
149,1.1524935567290109,1.7543683365575928,0,0,0.166717,1.024506,-0.14451599999999998,1.184531,-0.080225,0.11544
150,1.1717319304215414,2.0429980041330222,0,0,0.139862,1.086319,-0.0718539999999999,1.865746,-0.298336,0.256143
151,1.1896084663442532,2.3667670489855013,0,0,0.149903,1.095307,-0.038711999999999996,2.336623,-0.262388,0.4484609999999999
152,1.2025022118582762,2.70569190415191,0,0,0.17849700000000002,1.0982049999999999,0.006668,2.7229330000000003,0.0154,0.708245
153,1.2068300885306436,3.0361604788090184,0,0,0.3967289999999999,1.187378,-0.004241999999999996,2.8827990000000003,0.364827,1.097746
154,1.1995710499897063,3.333004700845019,0,0,0.41275,1.2742,-0.020857999999999904,2.320223,-0.3004449999999999,1.453592
155,1.1787571876242515,3.571876428505215,0,0,0.48559599999999997,1.419907,-0.10835199999999989,2.180831,-2.103307,1.944174
156,1.1438352069798547,3.7316700813500208,0,0,0.270874,1.220963,0.06295800000000001,2.398646,-3.3202300000000005,2.116034
157,1.0958244082491433,3.796711299906938,0,0,0.1725610000000001,1.085388,0.259064,1.667613,-3.923606,1.792303
158,1.0372503977383374,3.7584296507398514,0,0,-0.017044000000000004,0.7030480000000001,-0.046416999999999986,1.061426,-3.112589,1.6994669999999998
159,0.9718954748521085,3.6163100849285863,0,0,0.03529399999999999,0.6489560000000001,-0.313187,1.113821,-2.3757040000000003,1.459607
160,0.9044430086345293,3.3780703323721304,0,0,0.246308,0.797501,-0.669831,1.723445,-1.951132,1.315907
161,0.8400835884443745,3.059150844557055,0,0,0.173004,0.8125309999999999,-0.592926,2.04014,-2.2940270000000003,1.010911
162,0.7841096037005718,2.681641577184024,0,0,0.10044799999999993,0.741363,-0.48796,1.943635,-2.730206,0.681787
163,0.7414917894974126,2.2727164003353777,0,0,0.08813500000000002,0.5695490000000001,-0.33659300000000003,1.6469029999999998,-2.149365,0.340343
164,0.7164333277834294,1.8625991175237513,0,0,0.16554300000000002,0.425507,-0.490494,1.297091,-1.367573,0.141413
165,0.7119250982738875,1.482126461847261,0,0,0.190994,0.4504699999999999,-0.5491940000000001,0.818227,-0.958552,0.034995
166,0.7293516219904944,1.1600920008714386,0,0,0.144852,0.4447479999999999,-0.5618129999999999,0.282312,-0.661189,-0.07061
167,0.768206153730722,0.9206693397251499,0,0,0.146667,0.3751370000000001,-0.591507,-0.125007,-0.469756,-0.170909
168,0.8259700364199403,0.7812496461274734,0,0,0.16416899999999998,0.35269200000000006,-0.5775610000000002,-0.342002,-0.196915,-0.281733
169,0.8982034536649851,0.750969819299586,0,0,0.14033500000000002,0.385513,-0.598846,-0.4622199999999999,0.01696,-0.382191
170,0.9788798380354918,0.8300846651647373,0,0,0.14485199999999998,0.41430700000000004,-0.6518249999999999,-0.679194,0.203988,-0.345491
171,1.060966216536371,1.010197170954267,0,0,0.207352,0.560501,-0.754654,-1.091276,0.310224,-0.181862
172,1.1372036191227548,1.2752455300475916,0,0,0.45794599999999996,0.7348939999999999,-1.02678,-1.304509,0.457512,-0.067104
173,1.200984745497077,1.6030758959704219,0,0,0.773102,0.753326,-0.90036,-1.105858,1.224958,0.181127
174,1.2471816914817702,1.9674091294752674,0,0,0.312058,1.045349,-0.597672,-1.5378969999999998,1.548941,0.254606
175,1.2727662725330462,2.340026828127051,0,0,-0.02386500000000008,1.459045,-1.038025,-1.299848,1.660481,-0.139116
176,1.2770967497973404,2.6930364339527535,0,0,0.11232,1.528229,-0.457611,-1.496737,0.632642,-0.8046760000000001
177,1.2618115539079697,3.001098483986766,0,0,0.252106,1.027221,0.11166399999999993,-2.254077,2.2962849999999997,-0.601659
178,1.2303621490950472,3.243479492031291,0,0,0.314484,0.9251710000000001,-0.014404000000000028,-2.17168,3.10873,-0.316909
179,1.1873110716491586,3.405729336204481,0,0,0.369705,0.832718,0.013183,-1.999633,3.523015,-0.439084
180,1.1375784118303907,3.4807288489361983,0,0,0.349395,0.787399,0.08372500000000002,-1.708272,3.668401999999999,-0.552603
181,1.0858106728970045,3.468889315074858,0,0,0.35900900000000013,0.927933,0.06924499999999992,-0.874503,3.464497,-0.633043
182,1.035976940668384,3.3774323493813396,0,0,0.32663,1.082505,-0.03454600000000012,-0.6265930000000001,2.891262,-0.818584
183,0.9912048763142594,3.218878788776295,0,0,0.36976600000000004,1.1330259999999999,-0.030014,-0.748232,2.7029229999999997,-0.76685
184,0.9537930446385143,3.0090408748259168,0,0,0.4461369999999999,1.053284,-0.090393,-0.950252,2.622651,-0.763885
185,0.9253031041726005,2.764884687628303,0,0,0.455032,0.861557,-0.1341099999999999,-0.5512859999999999,2.481277,-0.654095
186,0.9066507865702148,2.5026088975066405,0,0,0.5041960000000001,0.735016,-0.18514999999999998,-0.282719,2.135478,-0.458428
187,0.8981616796405197,2.2362116084035786,0,0,0.48780799999999996,0.595597,-0.048385,-0.426227,1.651782,-0.58486
188,0.8996080575085739,1.976724971498725,0,0,0.4211879999999998,0.5446169999999999,0.09976199999999999,-0.521051,1.121835,-0.908515
189,0.9102712109970341,1.7321912206470735,0,0,0.364075,0.637467,0.15535000000000002,-0.446446,0.036536,-1.027312
190,0.9290677685175344,1.5083204637160317,0,0,0.471116,0.8397830000000001,0.136628,-0.524385,-1.582633,-0.972371
191,0.9547422786985227,1.3096136113178458,0,0,0.6381069999999998,0.937774,-0.0611269999999999,-0.823355,-2.342113,-0.728863
192,0.9860816303724026,1.1405994066176652,0,0,0.785095,0.914826,-0.35118099999999997,-0.797916,-1.2540870000000002,-0.313473
193,1.0220782298502857,1.0067993177352277,0,0,0.6275019999999999,0.872467,-0.188263,-0.709497,-0.109065,-0.086791
194,1.0619785698021256,0.9151375493978704,0,0,0.408707,0.8992160000000001,-0.023818999999999993,-0.900583,0.118444,-0.072394
195,1.1051980944628932,0.873698229324897,0,0,0.299439,0.989166,-0.060868000000000005,-1.053643,-0.080935,-0.162938
196,1.1511357387388292,0.8908902204439145,0,0,0.319305,1.022613,-0.221619,-1.07207,-0.091848,-0.347855
197,1.1989540089110473,0.9741627900065547,0,0,0.3576969999999998,1.001725,-0.278366,-1.005477,0.076909,-0.516386
198,1.2473928368457479,1.1284575634473684,0,0,0.46762099999999995,1.046234,-0.281753,-1.040189,0.187816,-0.515702
199,1.2946656082050796,1.3546306091468434,0,0,0.4552,1.159958,-0.26796,-0.723355,0.36918,-0.324646
200,1.3384565396797745,1.6481328590821724,0,0,0.43630999999999986,1.34024,-0.34289600000000003,0.283188,0.409711,-0.144615
201,1.3760107000603163,1.998254155370451,0,0,0.1767120000000001,1.542389,0.0032189999999999996,1.7706810000000002,0.4843449999999999,-0.118297
202,1.404292058361138,2.3881674578571355,0,0,0.07655399999999998,1.415329,0.0032350000000000018,2.448784,-0.038074,-0.064821
203,1.4201895184977766,2.7958495298963024,0,0,0.143219,1.182862,0.029816000000000002,2.940424,-0.573314,0.159352
204,1.4207721904744688,3.195764103230592,0,0,0.30404600000000004,1.1073,-0.107574,3.145711,-0.716539,0.633124
205,1.403611884095079,3.5610576456247602,0,0,0.6306609999999999,1.075272,-0.418686,3.118536,-0.740017,1.199122
206,1.3671782666459866,3.8659709650644483,0,0,0.929275,1.138885,-0.21139599999999997,3.604019,-0.5450470000000001,2.102774
207,1.3112670810766214,4.088183986570322,0,0,0.667816,1.4127800000000001,0.13253800000000002,2.890157,-2.184231,2.386172
208,1.237371041809295,4.2108485426839115,0,0,0.3163140000000001,1.390564,0.469207,1.685423,-3.759529,2.037945
209,1.148882898714251,4.224117286665355,0,0,0.05218500000000004,1.026596,0.23935,1.458576,-3.000094,1.994794
210,1.051046440240946,4.12605092100118,0,0,0.054871,0.874328,-0.5203099999999998,1.6660560000000002,-2.7001009999999996,2.184935
211,0.9506270065928559,3.9228631975858366,0,0,0.09526099999999998,0.848587,-0.734299,2.683928,-3.178068,1.218439
212,0.855327030372577,3.628510626965656,0,0,0.04162500000000002,0.858108,-0.7781980000000001,2.292538,-3.735716000000001,0.620351
213,0.7730097786119668,3.2636515463322033,0,0,0.162857,0.358261,-0.12463300000000005,1.97964,-2.465538,0.5321520000000001
214,0.7108248721574273,2.854033553646584,0,0,0.24156199999999992,0.365982,-0.25918499999999994,1.880272,-1.296534,0.785265
215,0.6743563529476091,2.428450006501329,0,0,0.3113559999999999,0.41995199999999994,-0.336975,1.579376,-0.911545,0.939698
216,0.6669202661608711,2.0164944399763503,0,0,0.01890599999999998,0.5628350000000001,-0.43736299999999995,1.096176,-1.23964,0.8235120000000001
217,0.6891107243017046,1.6463651169032079,0,0,-0.040984999999999994,0.5294340000000001,-0.5046390000000001,0.632029,-1.547886,0.5226310000000001
218,0.7386481204446297,1.3429132658859702,0,0,-0.046675999999999995,0.25102200000000013,-0.533051,0.058339,-1.418527,0.106124
219,0.810548093080974,1.1260376743038822,0,0,0.053208000000000005,0.11175499999999994,-0.6092380000000001,-0.486776,-0.719932,-0.163498
220,0.8976100438939489,1.0094604921086554,0,0,0.186035,0.217163,-0.6813969999999999,-0.874808,0.1756869999999999,-0.290201
221,0.991201666935002,0.9998864261334337,0,0,0.171234,0.422805,-0.7603759999999999,-1.13829,0.645383,-0.305462
222,1.082275320771682,1.0965318329373546,0,0,0.314956,0.506027,-0.7975920000000001,-1.290027,0.771848,-0.3643679999999999
223,1.1624957970154461,1.291006812964835,0,0,0.552643,0.72229,-1.221711,-1.163026,0.4958,-0.172984
224,1.2253055401560478,1.5675610605425052,0,0,0.874756,0.841614,-0.9269709999999999,-0.8485729999999999,0.8168949999999999,-0.024852
225,1.266727647298684,1.9037662777840159,0,0,0.5094,1.305649,-0.6749120000000001,-1.476142,0.440302,0.124002
226,1.2857307029594724,2.2717631910047533,0,0,0.14511100000000002,1.424057,-1.2037810000000002,-1.194059,0.8161390000000001,-0.068925
227,1.284059775610926,2.6401905242182444,0,0,-0.0383150000000001,1.2850489999999999,-0.4947050000000002,-1.821815,-0.386081,-0.70843
228,1.2655618529313357,2.976805755367243,0,0,0.081284,0.74292,-0.038879,-2.393041,1.2699120000000002,-0.618402
229,1.235169340086652,3.251616937214003,0,0,0.04978900000000003,0.7749320000000001,0.02302599999999999,-2.15735,3.104846,-0.422554
230,1.197801965013172,3.4401266250362927,0,0,0.073486,0.9166559999999999,-0.049652000000000085,-1.80334,4.274136,-0.633088
231,1.1574578400052913,3.5261323816337926,0,0,0.2209930000000001,0.9219210000000001,-0.147155,-1.6412810000000002,4.124827,-0.997096
232,1.11668197328512,3.503524858479456,0,0,0.41665599999999997,0.9815060000000001,-0.19299299999999997,-1.55631,3.640594,-0.921107
233,1.076469711176263,3.3767084892240953,0,0,0.597641,1.073548,-0.237076,-1.311338,2.701884,-0.816712
234,1.0365422528120962,3.1595800290641365,0,0,0.659393,1.0281369999999999,-0.024169999999999997,-1.0867790000000002,2.476847,-0.67919
235,0.9958583985978702,2.8733080095943,0,0,0.549134,0.9480890000000001,-0.011855999999999894,-0.859034,2.710982,-0.553986
236,0.9532100124128704,2.5433503222236626,0,0,0.413254,0.917785,-0.0422980000000001,-0.760307,2.4673380000000003,-0.449367
237,0.9077763618014181,2.196203809137519,0,0,0.36727899999999997,0.852082,-0.056809,-0.8962959999999999,1.656138,-0.200381
238,0.8595601214569516,1.8563530443116152,0,0,0.423096,0.640366,-0.0576019999999999,-0.968493,0.604731,-0.142922
239,0.809671042084168,1.5438301937187326,0,0,0.440247,0.583466,-0.10475199999999998,-0.720679,0.258466,-0.078791
240,0.760448065432372,1.272712233237161,0,0,0.477661,0.65834,-0.1118009999999999,-0.372931,-0.364215,0.025917
241,0.7154152706597009,1.0507301008620635,0,0,0.49368199999999995,0.7072910000000001,-0.120697,-0.109775,-1.080134,0.343798
242,0.6790610492204522,0.8799409885294713,0,0,0.508301,0.697266,-0.189728,0.109453,-1.346421,0.677888
243,0.6564309260612555,0.7581772913215121,0,0,0.40715100000000004,0.48782300000000006,-0.36882000000000004,0.331636,-0.8653649999999999,0.863626
244,0.6525472577439274,0.6808263034778006,0,0,0.3802330000000001,0.411652,-0.31416299999999997,0.565098,-0.144125,0.915607
245,0.6717128934549741,0.6424769675926911,0,0,0.335129,0.35643,-0.223159,0.495543,0.5197930000000001,0.913202
246,0.7168028599044004,0.6380847444117168,0,0,0.09945700000000002,0.40579200000000004,-0.067017,0.227853,0.548289,0.679492
247,0.7886740147311705,0.6634912305163234,0,0,0.05818200000000007,0.518876,-0.015411999999999995,-0.289836,0.330128,0.2745039999999999
248,0.8858101733057495,0.7153273542139792,0,0,0.346649,0.85881,0.180648,-0.555365,0.098803,0.012299
249,1.0042688941098203,0.7904828802533436,0,0,0.6280669999999999,0.941772,0.127014,-0.641877,0.075678,0.009588
250,1.1379264810113632,0.8854124662057775,0,0,0.7138059999999999,0.913223,-0.026748,-0.680632,0.206959,-0.019693
251,1.2789623758761275,0.995563504893972,0,0,0.640899,1.161743,-0.261872,-0.267327,0.442392,-0.113247
252,1.418504106829735,1.1151687938953152,0,0,0.584518,1.316376,-0.0889589999999999,-0.318743,0.232309,-0.278912
253,1.5473645443974977,1.2375624233004803,0,0,0.7008669999999999,1.207856,0.032242,-0.585765,-0.085332,-0.53247
254,1.656823612473003,1.3560497660258353,0,0,0.829804,1.181244,-0.06826800000000001,-0.93294,0.095529,-0.970962
255,1.7394168307265838,1.4651957720617823,0,0,0.865204,1.569137,0.019455,-1.381934,0.490542,-1.3292540000000002
256,1.789682093767307,1.5622266071426845,0,0,0.8656759999999999,1.685914,0.113266,-1.824694,0.630961,-1.428666
257,1.804787771506067,1.648135848774276,0,0,0.84526,1.764038,0.143097,-2.141147,0.709991,-1.204515
258,1.7849397027955962,1.7281100381683894,0,0,0.74176,1.7877960000000002,-0.11292999999999992,-1.922603,0.687862,-1.188005
259,1.7334643792798712,1.8110552615576752,0,0,0.7410889999999999,1.826721,-0.213562,-1.281739,0.278128,-1.044134
260,1.6564986218603908,1.9082694875413384,0,0,0.6953590000000001,1.805374,-0.2418670000000001,-0.345464,0.553408,-0.9001469999999999
261,1.562276674206521,2.031566434477561,0,0,0.48673999999999995,1.386368,-0.321548,0.337192,-0.18723,-0.891225
262,1.4600834725827876,2.191304240514109,0,0,0.438736,1.202988,-0.3962400000000001,1.163173,-1.08061,-0.6386189999999999
263,1.3590219422896224,2.3947387589691833,0,0,0.391586,1.07756,-0.4892270000000002,2.037512,-1.724511,-0.212944
264,1.2667988064150522,2.644932717442489,0,0,0.358139,0.7655489999999999,-0.342819,2.781748,-1.332922,0.048128
265,1.1887468541653288,2.9402214533868936,0,0,0.412262,0.7230840000000001,0.086533,3.491977,0.471514,0.266558
266,1.127265461976269,3.2740912600151715,0,0,0.399826,0.71289,0.161026,3.076669,1.558949,0.944857
267,1.0817810215232877,3.6353263522400328,0,0,0.399414,0.977661,0.114777,2.420589,1.318743,1.6424040000000002
268,1.0492192715818198,4.008387904137355,0,0,0.35231,1.2070159999999999,0.1604310000000001,2.312562,-0.037384,2.009788
269,1.0248698123468092,4.374104903772698,0,0,0.0037690000000000223,1.239792,-0.162293,2.794865,-2.010421,2.160963
270,1.003445463713545,4.710784924434545,0,0,0.14865100000000012,1.091339,-0.37580800000000003,2.8275919999999997,-3.837129,2.072734
271,0.9801204045435503,4.995765656821149,0,0,0.29656899999999997,1.0430449999999998,-0.272568,3.131825,-3.980208,1.892376
272,0.9513682012266301,5.207293282142111,0,0,0.393662,1.029404,-0.295334,3.5213300000000003,-3.3421309999999997,1.560994
273,0.9154894079913118,5.326533098717837,0,0,0.40219099999999997,0.7572030000000001,-0.27696300000000007,3.761366,-2.771423,1.42307
274,0.8727927408043676,5.339523789256278,0,0,0.31419400000000003,0.68599,-0.32173199999999996,3.960687,-2.899602,1.337033
275,0.825457439978426,5.238920213811844,0,0,0.18572999999999998,0.5071410000000001,-0.32640100000000005,3.893933,-3.4779410000000004,1.368286
276,0.7771460634698377,5.025361903256583,0,0,0.20256000000000007,0.639084,-0.5074770000000001,3.95039,-3.651158,1.21401
277,0.7324497073156754,4.708256677916397,0,0,0.281509,0.6142420000000001,-0.601959,3.687706,-3.5861650000000003,0.374606
278,0.6962378859276032,4.305742670485931,0,0,0.2092429999999999,0.521194,-0.5220179999999999,3.200905,-3.691903,0.332885
279,0.6729740572200551,3.8436437423120076,0,0,0.007568000000000019,0.394821,-0.4515079999999999,2.746994,-3.5519839999999996,0.102004
280,0.6660631189988645,3.353373146717049,0,0,-0.12106300000000009,0.249604,-0.40415999999999996,2.028279,-3.204553,-0.111765
281,0.6773147960756095,2.868942516185916,0,0,-0.179856,0.13890099999999989,-0.39332599999999995,1.176432,-2.231849,-0.4650649999999999
282,0.7066135035419794,2.4234547995439115,0,0,-0.18707300000000002,-0.006865999999999983,-0.508072,0.279669,-1.160302,-0.456679
283,0.751861805934583,2.0456367357548833,0,0,-0.2294309999999999,0.0030360000000000387,-0.777039,-0.638931,-0.337291,-0.3477139999999999
284,0.8092128098082949,1.7570160949699904,0,0,-0.1285089999999998,0.007172000000000012,-0.9054260000000001,-1.266728,-0.134045,-0.280789
285,0.8735479917885225,1.5702160844090547,0,0,-0.036696999999999994,-0.020019999999999982,-0.864761,-1.617582,-0.137996,-0.3206219999999999
286,0.9391160385322362,1.488558204447469,0,0,0.011551000000000002,-0.10217300000000001,-0.930404,-1.876098,-0.108745,-0.218848
287,1.0002358503499533,1.5068577714590186,0,0,0.258789,-0.05860899999999997,-1.117874,-1.659024,0.18389,0.204241
288,1.051974847233001,1.613089882867114,0,0,0.23414699999999988,0.16354299999999994,-0.8358160000000001,-1.798788,0.3000239999999999,0.320621
289,1.0907272815614169,1.7905439063190296,0,0,-0.022948999999999997,0.32119700000000007,-0.6675260000000001,-1.962423,0.675502,0.071169
290,1.1146247471313404,2.020132428633325,0,0,-0.31654300000000013,1.2720799999999999,-1.477677,-1.235408,0.541936,0.07535
291,1.1237094229491658,2.2826050251111716,0,0,0.354874,1.203537,-1.010864,-1.41982,1.3839860000000002,0.646618
292,1.119808862924961,2.560477910631803,0,0,0.31903000000000004,0.7068789999999999,-0.5294650000000001,-2.639889,1.946714,1.105256
293,1.1061041340208904,2.8395013022599884,0,0,-0.0675510000000001,0.524521,-0.4716800000000001,-2.319223,1.84651,1.110829
294,1.0864809449085602,3.109477357483641,0,0,0.13684100000000002,0.604966,-0.291046,-2.0087,2.715071,1.017882
295,1.0648353496833958,3.3642802312340976,0,0,0.120743,0.817459,-0.3997649999999999,-1.7214919999999998,3.157438,0.699923
296,1.0445076454535505,3.6010496469182485,0,0,0.08018499999999992,0.963608,-0.503479,-1.727745,3.3281959999999997,0.361034
297,1.0279412689976999,3.8186972826320673,0,0,0.1432650000000001,1.039658,-0.585297,-1.975059,3.19332,-0.060332
298,1.0165650698776807,4.016025185540517,0,0,0.171769,0.956329,-0.5017400000000001,-1.968929,3.2364490000000004,-0.194941
299,1.010832973652418,4.189870253416275,0,0,0.25923200000000013,0.969376,-0.4809270000000001,-1.743689,2.91971,-0.3019199999999999
300,1.0103429124575751,4.33373575694954,0,0,0.23208600000000001,0.9278559999999999,-0.34903,-1.6526580000000002,3.0161439999999997,-0.520393
301,1.0139817624596865,4.437327184090709,0,0,0.2636869999999999,0.890198,-0.28369099999999997,-1.617721,3.155617,-0.7969970000000001
302,1.0200785928745009,4.487258783282519,0,0,0.325042,0.802551,-0.264282,-1.405305,3.5398989999999997,-0.910306
303,1.026574499285069,4.468948169833941,0,0,0.35296700000000003,0.9113769999999999,-0.21495,-1.234474,4.0463629999999995,-0.906557
304,1.0312242878013549,4.3694158862050365,0,0,0.355469,0.9424440000000001,-0.12912000000000007,-1.322352,4.744130999999999,-0.8332860000000001
305,1.0318343972719395,4.180430690878572,0,0,0.372101,0.968231,-0.149383,-1.412544,5.091724,-0.833292
306,1.0265220007343998,3.9012743952928224,0,0,0.5754549999999998,0.863388,0.03654500000000001,-1.331704,4.890805,-0.741671
307,1.0139634935282806,3.5404114014933263,0,0,0.614304,0.894943,0.089554,-1.0898370000000002,4.332873,-0.753154
308,0.9935933129989163,3.115560000811923,0,0,0.617294,0.921799,0.152207,-0.856043,3.671514,-0.733582
309,0.9657181447068333,2.6520294913876117,0,0,0.544067,0.807938,0.049927,-0.87395,2.305971,-0.487334
310,0.931526869597322,2.1796081992349814,0,0,0.4898679999999999,0.721177,0.046997000000000004,-0.650415,0.404292,-0.374377
311,0.8929994533399384,1.7286392437731328,0,0,0.403534,0.724884,-0.07194499999999998,-0.373583,-0.7669100000000001,-0.2320739999999999
312,0.8527388503686224,1.3260931586625937,0,0,0.360321,0.765961,-0.059326000000000004,-0.437159,-0.664442,-0.2273079999999999
313,0.8137587064533593,0.9923886692282485,0,0,0.3175809999999999,0.7548370000000001,-0.026276000000000008,-0.310025,-0.118529,-0.1940049999999999
314,0.7792546391255144,0.7394711098975528,0,0,0.30722099999999997,0.713913,-0.020081,-0.078008,0.125144,-0.060237
315,0.7523759489461116,0.5703420725433705,0,0,0.30883700000000003,0.670883,0.128433,-0.01165,0.538778,0.071089
316,0.736006180480248,0.4799362854293745,0,0,0.293365,0.7156980000000001,0.13501000000000002,0.1169359999999999,1.007686,0.179277
317,0.7325579014653683,0.45700798761325534,0,0,0.287826,0.706955,0.036469,0.203628,0.8485870000000001,0.197178
318,0.7437887248379229,0.4865505390537084,0,0,0.32103,0.600784,0.010421999999999904,0.28002,0.7185020000000001,0.1615589999999999
319,0.770650532157174,0.5522549553201319,0,0,0.333984,0.585556,0.014283000000000004,0.405648,0.9002129999999999,0.165408
320,0.8131882352609728,0.6386047014186023,0,0,0.3526149999999999,0.694199,0.072266,0.376743,0.8652110000000001,0.1524319999999999
321,0.8705017203493273,0.7323575457755093,0,0,0.437195,0.784393,0.102111,0.039753,0.816646,0.0689559999999999
322,0.9407720493025502,0.8233316872492968,0,0,0.4544219999999999,0.897126,0.231293,0.054001,0.78086,-0.051608
323,1.0213372244965948,0.9045617304006947,0,0,0.4635769999999999,0.984192,0.053237999999999897,-0.0985,0.608506,-0.2404619999999999
324,1.1087956074936918,0.9719979813165732,0,0,0.551879,0.912765,-0.025710999999999998,-0.255686,0.5619430000000001,-0.447667
325,1.1991223159103064,1.0239725868187395,0,0,0.686798,1.027359,0.116424,-0.256115,0.67498,-0.476657
326,1.2878004948772663,1.0606453778915288,0,0,0.6766209999999999,1.028488,0.1213380000000001,-0.198191,0.448113,-0.535782
327,1.3699848508867396,1.083584740549966,0,0,0.706832,1.131058,-0.02998400000000001,0.091849,0.5381060000000001,-0.648171
328,1.4407222634631671,1.0955539144044726,0,0,0.677627,1.184341,0.082947,-0.104679,0.787709,-0.8261200000000001
329,1.4952519902506698,1.1004774354042255,0,0,0.6935119999999999,1.155899,0.09422300000000002,-0.199484,0.915382,-0.970088
330,1.5293954804663057,1.1034753682968828,0,0,0.7019499999999999,1.156739,-0.0886840000000001,-0.288702,0.901195,-1.074311
331,1.5400214855679204,1.110802582672842,0,0,0.711319,1.463165,0.30145299999999997,-0.631853,1.125543,-0.937058
332,1.5255367201797516,1.129541952252348,0,0,0.687591,1.4347530000000002,0.2719119999999999,-0.779948,0.993941,-0.39954
333,1.4863151259990872,1.1669774938550712,0,0,0.5236509999999999,1.545105,-0.18458499999999997,-0.289553,0.8031550000000001,-0.266615
334,1.4249572261387342,1.2296898211808691,0,0,0.436172,1.523697,-0.144562,-0.055711,1.075084,-0.273876
335,1.3462789533937867,1.3225241872031028,0,0,0.346389,1.509949,-0.10931399999999991,0.427721,0.8740540000000001,-0.5031140000000001
336,1.2569674203237455,1.4476365759001006,0,0,0.222031,1.40039,0.022643999999999997,1.010183,0.438137,-0.6864939999999999
337,1.1649008489691448,1.6038126817430922,0,0,0.189423,1.296829,0.1163629999999999,1.396922,0.134143,-0.391778
338,1.078201292594939,1.7861980341737766,0,0,0.09108000000000009,0.9178310000000002,-0.015274000000000093,1.516373,0.030993,-0.008388
339,1.0041600715544898,1.9865020745931439,0,0,0.0979,0.679138,0.016800000000000093,1.697816,0.358277,0.3054489999999999
340,0.9482284561654214,2.1936583880559533,0,0,0.07974200000000001,0.544708,0.090011,2.046395,0.877648,0.6565270000000001
341,0.9132763102989299,2.3948423889184207,0,0,0.143265,0.523788,0.26684599999999997,2.310591,1.380248,1.012378
342,0.8992733049140098,2.576681334788085,0,0,0.15566999999999998,0.7661589999999999,-0.0308679999999999,2.351038,1.4512200000000002,1.343718
343,0.9034483258485152,2.726470821947048,0,0,0.011444000000000037,1.070556,-0.35725399999999996,2.18457,0.8970809999999999,1.270626
344,0.9208659792943064,2.833259834556261,0,0,-0.10885599999999995,1.145767,-0.354645,1.98271,0.30884,0.965527
345,0.9452692147075767,2.888760170621125,0,0,-0.120728,1.079849,-0.041626,2.32259,0.6135550000000001,0.659863
346,0.9700066364336415,2.888107034967517,0,0,-0.1635890000000001,0.976394,-0.00709499999999999,2.839165,0.289504,0.530358
347,0.9888931891148613,2.830487213788655,0,0,-0.167068,0.984909,-0.05458099999999999,2.755887,-1.176023,0.263531
348,0.9969140776351288,2.719568726654274,0,0,-0.07057199999999997,0.938767,0.113983,2.533296,-1.947095,-0.122664
349,0.9907375912681199,2.5635806582306366,0,0,0.05043,0.8738859999999999,-0.068359,2.72213,-1.137585,-0.261251
350,0.9690330194352293,2.374872192706386,0,0,0.20561200000000002,0.8575130000000001,-0.486435,2.682199,-0.369061,-0.341563
351,0.9325951063298789,2.1688468555825366,0,0,0.273407,0.934936,-0.519378,2.36096,0.2321619999999999,-0.4311029999999999
352,0.8842686375537928,1.9622980137676904,0,0,0.22369399999999998,0.962341,-0.374634,1.869875,0.356553,-0.476354
353,0.8286638693265586,1.7713221245895738,0,0,0.14030499999999999,0.817398,-0.248611,1.514629,0.397068,-0.443636
354,0.771670559030562,1.6091158602358084,0,0,0.126007,0.589172,-0.304657,1.116759,0.159905,-0.463202
355,0.7198142112511001,1.484040774907823,0,0,0.159363,0.558243,-0.31010499999999996,0.774129,0.131244,-0.458081
356,0.6795343031241984,1.3983443586950548,0,0,0.1978609999999999,0.5322419999999999,-0.2873840000000001,0.542358,0.367255,-0.403387
357,0.6564811504327853,1.3478499665907855,0,0,0.2011259999999999,0.37733500000000003,-0.309341,0.354535,0.623455,-0.3740489999999999
358,0.6549207016789879,1.3227747588162402,0,0,0.10000599999999998,0.3946840000000001,-0.41310100000000005,-0.041871,0.950876,-0.392192
359,0.677312389396801,1.309627124591904,0,0,0.08017000000000002,0.42837499999999995,-0.47991999999999996,-0.484272,1.246521,-0.415958
360,0.7240931883668322,1.2939148188445388,0,0,0.16400200000000012,0.5051570000000001,-0.49777200000000005,-0.673133,1.443334,-0.45278
361,0.7936680495335332,1.263214740644878,0,0,0.27680899999999986,0.591904,-0.5409390000000001,-0.7881090000000001,1.485334,-0.466456
362,0.8825801288712304,1.210061130224155,0,0,0.354233,0.679657,-0.5753179999999999,-0.835051,1.480193,-0.472118
363,0.9858203693168014,1.1341229698844224,0,0,0.3527069999999999,0.674683,-0.6005559999999998,-0.744574,1.478632,-0.4266189999999999
364,1.0972367742925149,1.0432549660130028,0,0,0.288468,0.686828,-0.697754,-0.6403260000000001,1.296674,-0.301744
365,1.2100135153755063,0.9531896782131241,0,0,0.343033,0.70314,-0.811645,-0.4967279999999999,1.0561120000000002,-0.207497
366,1.317197762525754,0.8858535165254379,0,0,0.411591,0.787537,-0.924866,-0.213335,1.016678,0.082954
367,1.4122485451644802,0.8664997760076352,0,0,0.6045689999999999,1.0066380000000001,-1.096878,0.047251,1.0193020000000002,0.266369
368,1.4895686172461633,0.9200291509295975,0,0,0.582673,1.055664,-1.095108,-0.193184,0.763983,-0.144113
369,1.5449708781341018,1.0669976924900457,0,0,0.5128630000000001,0.866974,-0.9931189999999999,-0.050483,0.238275,-0.136033
370,1.5760380000965004,1.319884455276814,0,0,0.581009,0.7491150000000001,-0.5988,0.3411949999999999,0.088708,0.1638599999999999
371,1.5823500779077544,1.6801842334212316,0,0,0.30017099999999997,1.520538,-0.056427000000000005,1.057339,1.031264,-0.136788
372,1.5655542355069163,2.136781840538823,0,0,-0.14723199999999997,2.4035339999999996,0.10638399999999987,1.490147,2.05435,-1.414806
373,1.5292237582390509,2.6658759119489304,0,0,-0.398712,2.283157,0.09022599999999997,0.477866,1.437899,-0.890181
374,1.4784439491981614,3.2325292259506337,0,0,-0.372757,0.988739,0.09315499999999999,-0.23139,1.972561,0.548416
375,1.4191240515219992,3.7937798597769157,0,0,-0.297775,0.695511,0.15374699999999997,-0.506633,2.853291,-0.480128
376,1.3571584697703236,4.3031062315212,0,0,-0.22375500000000004,0.831818,0.21826199999999996,-0.419023,3.857216,-0.930524
377,1.2976527946076806,4.715819184200189,0,0,0.06071499999999996,1.067246,0.5383150000000001,-0.819285,5.560433,-1.085047
378,1.2444089761274562,4.99467199742299,0,0,0.14869700000000002,1.146897,0.7433630000000001,-1.55964,6.341621,-0.795322
379,1.1997452877023183,5.114768552920736,0,0,0.356049,1.103714,0.698014,-1.384135,6.528554,-0.01026
380,1.164596792227684,5.066858974138783,0,0,0.547089,1.097473,0.659622,-0.8498969999999999,6.082221,0.320919
381,1.1387710401615723,4.858392578221836,0,0,0.695282,0.8949280000000001,0.361969,-0.273318,5.003194000000001,0.329534
382,1.1212341401210397,4.512169992695435,0,0,0.8242489999999999,0.8027350000000001,0.28440899999999997,0.351833,4.135749,0.664025
383,1.110347365172758,4.06293621976062,0,0,0.905151,0.807144,0.249008,0.656192,3.621648,0.559987
384,1.1040313546731038,3.55262828474679,0,0,0.524155,0.781647,0.12809799999999988,0.604063,2.501026,0.593106
385,1.0998828394424818,3.0251562145790807,0,0,0.494522,0.736954,0.170502,0.459136,1.768854,0.534279
386,1.0952971465213466,2.5215568946382385,0,0,0.5588989999999999,0.706146,0.184433,0.473,1.6945310000000002,0.460764
387,1.087650521826869,2.07615969628698,0,0,0.890488,0.725327,0.017670000000000005,0.67883,1.87719,0.42458
388,1.0745673027506397,1.7141022396787593,0,0,0.8940579999999998,0.765808,-0.015533999999999992,0.74324,2.037532,0.497464
389,1.0542522721714849,1.4502235020606347,0,0,0.7969360000000001,0.7863620000000001,-0.034134,0.547319,1.464882,0.55024
390,1.0258339142577952,1.2891393865997431,0,0,0.679962,0.745468,-0.0052340000000000025,0.3991449999999999,0.998884,0.530574
391,0.9896559457805659,1.226222875898257,0,0,0.5170440000000001,0.80246,0.00111399999999999,0.520231,0.796391,0.448358
392,0.947466629801314,1.2492315295533318,0,0,0.386551,0.896347,-0.011978000000000003,0.783381,0.6317520000000001,0.367086
393,0.9024708714612171,1.3403673400100906,0,0,0.320527,0.9084320000000001,-0.060502,1.004372,0.8591209999999999,0.325609
394,0.8592190995746741,1.4785620486534896,0,0,0.351608,0.8833159999999999,-0.029952999999999994,1.319151,1.508138,0.253269
395,0.823313153552172,1.6417600854277021,0,0,0.339477,0.867645,0.066055,1.222561,1.718995,0.353805
396,0.8009221528246311,1.8089673595949076,0,0,0.3320459999999999,0.819534,0.125473,1.231431,1.3311540000000002,0.366115
397,0.7981258432715052,1.9618872716776758,0,0,0.314835,0.7706140000000001,-0.108994,1.258003,0.930131,0.462954
398,0.8201372013554022,2.086068263713666,0,0,0.4501799999999999,0.654877,-0.09637500000000002,1.455828,1.078387,0.512216
399,0.8704927532877303,2.171584315884514,0,0,0.554199,0.526032,0.086364,1.446977,1.233042,0.7384189999999999
400,0.950327915163385,2.2133064375311506,0,0,0.5228579999999999,0.3871610000000001,-0.21581999999999998,2.230687,0.885199,0.732589
401,1.0578651175954163,2.2107976550050084,0,0,0.459335,0.5819240000000001,-0.8423,2.780943,0.839339,0.269678
402,1.1882275705909369,2.167828353099557,0,0,0.39151,0.636948,0.183975,1.569834,1.766965,0.045317
403,1.3336516808711092,2.0915240303996105,0,0,0.32572899999999994,0.836823,0.7806239999999999,0.038639,1.798293,-0.599942
404,1.484112031220841,1.9912411282629474,0,0,0.241729,1.3746040000000002,-0.035675,-0.49788,-0.0293089999999999,-1.036114
405,1.6283009360357725,1.8773697542713494,0,0,0.987228,1.7570489999999999,-0.4955589999999999,-0.1474349999999999,0.3218519999999999,-1.510543
406,1.7548331007229796,1.760303171708105,0,0,1.104294,1.488831,0.089218,-0.103796,1.392786,-1.365265
407,1.8535010446278244,1.649751884428371,0,0,1.081833,1.329727,0.4615629999999999,-0.441254,1.2548979999999998,-0.956179
408,1.9164095956045049,1.5544544446852946,0,0,1.157867,1.440826,-0.19386299999999998,-0.38418,0.850195,-0.765119
409,1.9388566929564492,1.4822220252976428,0,0,1.162399,1.68457,-0.328949,-0.565585,0.685279,-0.924271
410,1.91986864092042,1.4401818375679074,0,0,1.090225,1.793091,0.0719909999999999,-1.336424,0.929051,-1.27714
411,1.862322684282211,1.4350401669375552,0,0,1.105332,1.854508,-0.086029,-1.7091610000000002,0.139766,-1.507332
412,1.772612615341707,1.4731688628103257,0,0,0.8776550000000001,1.752488,-0.2691039999999999,-1.022401,0.000338,-1.334645
413,1.6598576308213286,1.5603674374909895,0,0,0.448456,1.681351,-0.2603600000000001,0.162003,0.333765,-1.028765
414,1.5347267380424048,1.7012797812430078,0,0,0.2550210000000001,1.378082,-0.23829699999999998,0.986139,0.170293,-0.823042
415,1.4080339325293008,1.8985872505996266,0,0,0.272599,1.078399,-0.149369,1.665161,-0.235552,-0.6190899999999999
416,1.2893242077165314,2.152169178230196,0,0,0.280929,0.919648,-0.18978899999999999,2.194639,-0.600719,-0.335049
417,1.185690330351175,2.458392861988869,0,0,0.322907,0.8333280000000001,-0.145416,2.793844,-0.642404,-0.287012
418,1.1010233001961924,2.8096253533872524,0,0,0.454773,0.759262,0.18028299999999992,2.63905,0.746575,0.414085
419,1.0358143720391215,3.194022456364494,0,0,0.361221,0.7983699999999999,0.1070399999999999,2.333205,1.756748,0.8721260000000001
420,0.9875173712612295,3.595668512754074,0,0,0.6153869999999999,0.7932130000000001,-0.059601,1.936054,1.75174,1.402401
421,0.9513735686689654,3.9951735120429643,0,0,0.34242299999999987,1.125961,-0.155121,2.021118,0.27196,1.888796
422,0.9215197954911147,4.370813798911863,0,0,0.131699,1.147614,-0.14341700000000002,2.545759,-2.7450080000000003,2.259522
423,0.8921608169561419,4.700184274519415,0,0,0.271484,1.07283,-0.07832399999999998,3.079585,-4.475085,2.346653
424,0.8585984694831801,4.962142254423959,0,0,0.4348,0.968215,-0.12466499999999997,3.274108,-4.654757,2.088663
425,0.8179674830138943,5.138680547425027,0,0,0.399109,0.746247,-0.076156,2.7918849999999997,-4.1177019999999995,1.669068
426,0.769610950220897,5.216389482547646,0,0,0.405441,0.38928199999999996,-0.05627399999999999,2.596811,-3.825317,1.447277
427,0.7151094760431586,5.1873555882584395,0,0,0.38990800000000003,0.38447599999999993,-0.10075400000000001,2.865025,-3.3942589999999995,1.3097299999999998
428,0.6580312764855282,5.049565014481369,0,0,0.23458800000000002,0.535828,-0.33984400000000003,2.990207,-3.272361,1.353177
429,0.6034820813846241,4.806989085798913,0,0,-0.017653999999999948,0.666855,-0.26713599999999993,3.0093959999999997,-3.5090440000000003,1.1186049999999998
430,0.5575127496130519,4.469489975385228,0,0,-0.10490399999999997,0.698776,-0.19654799999999994,2.83695,-3.4965349999999997,0.804396
431,0.5264181215155145,4.052561362646271,0,0,-0.1790460000000001,0.682831,-0.13559,2.788989,-3.312989,0.50045
432,0.5159604328523633,3.5768040296189754,0,0,-0.157638,0.293685,-0.01925700000000008,2.8657209999999997,-2.979332,0.377713
433,0.5305797872240554,3.0669913029965152,0,0,-0.15763899999999997,0.293686,-0.01925699999999997,2.835258,-2.1388130000000003,0.399924
434,0.5726922021300629,2.550624044452284,0,0,-0.165481,0.01818900000000001,-0.30337499999999995,2.352479,-1.383685,0.3240139999999999
435,0.6421915657983213,2.055997085892222,0,0,-0.04924,-0.05390999999999996,-0.6471250000000001,1.5974389999999998,-0.745566,0.17478
436,0.7362483098693313,1.6099580323882339,0,0,0.043868999999999894,0.023863999999999996,-0.710052,0.99956,-0.588116,-0.0528559999999999
437,0.8494453437989624,1.2356727554237437,0,0,0.051895,0.10150099999999998,-0.728424,0.5588810000000001,-0.495497,-0.1885119999999999
438,0.9742368755498373,0.9507609601630025,0,0,0.1294399999999999,0.04925499999999999,-0.982422,0.052813,-0.146271,-0.236292
439,1.101675064574751,0.7661064372632388,0,0,0.1473239999999999,0.120788,-1.083481,-0.4498399999999999,0.070617,-0.226194
440,1.222322870578628,0.6854997365893541,0,0,0.12362699999999999,0.166626,-1.14235,-0.90853,-0.130269,-0.207776
441,1.3272529427645499,0.7060856507079878,0,0,0.1359869999999999,0.27885400000000005,-1.2361,-1.142911,-0.214988,-0.1302559999999999
442,1.4090182215440814,0.8194285746131209,0,0,0.2181239999999999,0.315918,-1.366501,-0.96445,-0.100651,0.159264
443,1.462468242554731,1.0129318474415998,0,0,0.525451,0.64566,-1.886947,-0.0534,0.283495,0.805
444,1.4852815228066953,1.2713643725071069,0,0,0.499161,0.7770999999999999,-1.877289,-0.053437,-0.345277,1.135886
445,1.4781103665390083,1.5783138390224363,0,0,0.046813999999999995,0.684647,-0.969986,-1.150733,-0.5787640000000001,0.537794
446,1.4443107616767037,1.9174389606084774,0,0,-0.638382,0.1008460000000001,-0.027099999999999902,-2.709362,1.205056,0.153948
447,1.3893363615563588,2.2734130058887576,0,0,-0.580871,1.032654,-1.521332,-1.726233,1.078925,-0.323996
448,1.3199480817803648,2.6324719072172713,0,0,0.404358,0.7080690000000001,-0.6631319999999999,-2.362771,2.05655,0.567612
449,1.2433889751538747,2.982544473619549,0,0,0.174088,1.20697,-0.6362150000000001,-1.939761,1.19295,-0.415364
450,1.1666271324746196,3.313043867274239,0,0,0.171905,0.8284149999999999,-0.448899,-2.11603,2.2199720000000003,-0.28652
451,1.0957295156866227,3.6144844418968836,0,0,0.12576299999999999,0.861038,-0.49749800000000005,-2.1469720000000003,2.920012,-0.298315
452,1.0354087788875548,3.878107025115609,0,0,0.16375699999999999,0.946701,-0.37222299999999997,-2.071153,3.194393,-0.514987
453,0.9887645857511792,4.0956497409338075,0,0,0.196625,0.9431,-0.328644,-2.1707650000000003,3.515656,-0.582324
454,0.9572122774288179,4.25933447728091,0,0,0.2957,0.8739619999999999,-0.37132300000000007,-2.261597,3.380033,-0.6864020000000001
455,0.9405650219598218,4.362091077130412,0,0,0.378479,0.872223,-0.3614200000000001,-2.14243,3.180923,-0.813501
456,0.9372227595314887,4.398013764610716,0,0,0.418746,0.8664240000000001,-0.1983180000000001,-2.068596,3.659156,-0.8584629999999999
457,0.9444250423671808,4.363010798116915,0,0,0.394043,0.801651,-0.12699899999999997,-1.846442,4.147613,-0.658848
458,0.9585395249812275,4.255552228005764,0,0,0.401367,0.850525,-0.125961,-1.265618,4.165083,-0.7359979999999999
459,0.9753743978036659,4.077359544864661,0,0,0.417846,0.8762660000000001,-0.20573399999999997,-0.875821,4.115266,-0.869944
460,0.9905139980549192,3.8338523087692717,0,0,0.491425,0.8432,-0.177414,-0.776674,3.955705000000001,-1.013257
461,0.9996801676472753,3.5341920611927042,0,0,0.5070799999999999,0.738022,-0.08294699999999997,-0.757205,3.7406,-1.050233
462,0.9991201227244909,3.190837761427318,0,0,0.523681,0.734283,0.022277999999999992,-0.61622,3.446569,-0.902525
463,0.9860150785127708,2.81863620326462,0,0,0.486862,0.719101,0.03137199999999998,-0.455063,2.313454,-0.8604229999999999
464,0.9588885154427251,2.4335981424375848,0,0,0.609253,0.7741549999999999,-0.04347200000000001,-0.3579489999999999,-0.160982,-0.728388
465,0.9179669377195312,2.0516122130516496,0,0,0.8398129999999999,0.75998,-0.208236,-0.473786,-2.02656,-0.558027
466,0.8654181941783113,1.6873551828469018,0,0,0.8837280000000001,0.736831,-0.295715,-0.644203,-2.282149,-0.163648
467,0.8053824509921189,1.353543717818036,0,0,0.6703950000000001,0.5262910000000001,-0.183304,-0.61057,-1.196578,0.3255099999999999
468,0.7437360829468721,1.0605166530324441,0,0,0.366226,0.48286500000000004,-0.130218,-0.2403539999999999,0.165093,0.740821
469,0.6875859961035655,0.8160490684464143,0,0,0.1723789999999999,0.6010749999999999,-0.2553709999999999,-0.086838,0.532515,0.898452
470,0.6445542330718421,0.6253050316905454,0,0,0.10031099999999993,0.6010439999999999,-0.2228089999999998,-0.146808,0.238626,0.652718
471,0.6219513621532583,0.4908755065603495,0,0,0.13708499999999996,0.5187989999999999,-0.1238259999999999,0.023144,0.026118,0.368962
472,0.6259454705273777,0.41287603349496127,0,0,0.20761100000000002,0.4738609999999999,-0.085785,0.255569,0.141772,0.282844
473,0.6608234444844071,0.3890950555393783,0,0,0.25073199999999995,0.4918210000000002,-0.10205099999999999,0.322558,0.261123,0.214792
474,0.7284225531207781,0.4151945860025837,0,0,0.328186,0.586319,-0.221634,0.407735,0.048471,0.040471
475,0.8277847993163026,0.4849694284567117,0,0,0.47552500000000003,0.754639,-0.156204,0.450387,0.165965,-0.074749
476,0.9550573339875565,0.5906729726320906,0,0,0.498993,0.916046,-0.124634,0.123126,0.488721,-0.051811
477,1.1036395088816948,0.7234208372435806,0,0,0.42915400000000004,0.8909149999999999,0.09742699999999999,0.047535,0.683179,-0.130569
478,1.2645692705222413,0.873684593338906,0,0,0.4127960000000001,0.9785609999999999,0.082459,0.041121,0.719156,-0.330417
479,1.4271435914918693,1.0318803152229226,0,0,0.46994,1.194138,-0.04521100000000011,-0.461242,0.389994,-0.6956319999999999
480,1.5797618804895168,1.1890393363098541,0,0,0.8166659999999999,1.3991090000000002,0.10815400000000003,-0.6375069999999999,0.30223,-0.972352
481,1.7109545277956046,1.337524122045301,0,0,0.872711,1.4431150000000001,0.1215210000000001,-0.906869,0.1117339999999999,-1.0519690000000002
482,1.8105170437295677,1.47172575259654,0,0,1.027267,1.483597,-0.122513,-0.911,0.015428,-0.94078
483,1.8706325142065945,1.5886571780031045,0,0,1.061722,1.5503839999999998,-0.16216999999999998,-1.095723,0.816665,-0.8181149999999999
484,1.886843502660934,1.6883409258603412,0,0,1.006256,1.64856,-0.0212709999999999,-1.655714,0.902432,-1.0015969999999998
485,1.8587282728207473,1.7738830840784803,0,0,0.9589080000000001,2.0479130000000003,-0.1486199999999999,-2.062816,0.026064,-1.269305
486,1.7901439797045395,1.8511418782507598,0,0,0.9024350000000001,2.006943,-0.2789159999999999,-1.697846,0.219996,-1.332166
487,1.688931391676799,1.927966046932451,0,0,0.639801,1.7729650000000001,-0.4313050000000001,-0.8245819999999999,0.3628099999999999,-1.307021
488,1.566046892841202,2.0130992629574322,0,0,0.424606,1.4862980000000001,-0.340851,0.2310699999999999,-0.03902,-1.101511
489,1.4341965250701152,2.1149692645427303,0,0,0.278091,1.181427,-0.202087,0.963243,-0.548139,-0.957944
490,1.3061633283144594,2.240618731797559,0,0,0.22001600000000002,0.987579,-0.3008729999999999,1.416002,-1.633048,-0.703427
491,1.1930996069114903,2.3949451140533133,0,0,0.328506,0.747559,-0.4248809999999999,2.006443,-2.2698,-0.486979
492,1.1030719150197392,2.580247842934909,0,0,0.4156949999999999,0.572769,-0.285889,2.884851,-1.00708,-0.009239
493,1.0400987182924628,2.795947455171429,0,0,0.572113,0.534073,0.025375999999999982,3.233428,0.943147,0.826046
494,1.0038275963997845,3.038332432724242,0,0,0.524246,0.664002,0.01924099999999998,2.500942,1.218894,1.233978
495,0.9898832500036335,3.300308195357957,0,0,0.43405099999999996,0.8843540000000001,-0.11465499999999998,1.569959,0.332857,1.440119
496,0.9908012953721568,3.5712864269978497,0,0,0.293808,1.105713,-0.11755399999999999,1.666791,-0.96466,1.625124
497,0.9973678900860586,3.837444098841349,0,0,0.161544,1.201309,-0.07276899999999997,2.044428,-2.804916,1.695281
498,1.00013109689237,4.082518608851653,0,0,0.2148130000000001,1.176056,-0.024201000000000028,2.198079,-3.757669,1.927243
499,0.9908460600144409,4.289114625807246,0,0,0.334015,1.0691979999999999,-0.10853499999999999,2.3673,-3.52107,2.019989
500,0.9636567801677358,4.440309042896085,0,0,0.403244,0.9354859999999999,-0.15359500000000004,2.625639,-3.187834,1.84511
501,0.915883878525384,4.521273269230286,0,0,0.39813299999999996,0.848603,-0.355881,2.915748,-3.087279,1.4891530000000002
502,0.848358450131971,4.520694063430129,0,0,0.3504939999999999,0.7745669999999999,-0.35359199999999996,3.1531130000000003,-2.91916,1.066512
503,0.7653025706600389,4.43188120858876,0,0,0.17938199999999999,0.712128,-0.283112,2.7591900000000003,-3.181028,1.094006
504,0.6738037198602935,4.2535249584374135,0,0,0.029968999999999996,0.635178,-0.240661,2.458812,-3.454243,0.948048
505,0.5829655154196574,3.990089739571013,0,0,-0.042678000000000105,0.5324859999999999,-0.1501309999999999,2.534918,-3.139288,0.7078260000000001
506,0.5028420364626663,3.651826094672132,0,0,-0.0796660000000001,0.44995099999999993,-0.09848100000000004,2.569289,-2.563403,0.519321
507,0.44327686792591536,3.2543789819691713,0,0,-0.06488,0.37763899999999995,-0.10220300000000004,2.47154,-2.10775,0.409096
508,0.41277050660121944,2.8179807372240258,0,0,-0.047379000000000004,0.3281400000000001,-0.10504199999999997,2.372645,-1.713593,0.493358
509,0.41749221152282606,2.3662385862859945,0,0,-0.09082,0.133621,-0.21130400000000005,2.202381,-1.193889,0.678441
510,0.46053597652504996,1.9245549603243304,0,0,-0.148987,-0.011641999999999986,-0.355255,1.833196,-0.98904,0.653167
511,0.541494861997323,1.518258771879352,0,0,-0.159974,-0.09491,-0.4453890000000001,1.320962,-0.738256,0.453783
512,0.6563939232865702,1.1705842152505006,0,0,-0.046157000000000004,-0.09460400000000002,-0.6912990000000001,0.8100930000000001,-0.505249,0.170042
513,0.7979844858453599,0.9007028085805705,0,0,0.097336,-0.09304800000000002,-0.7822880000000001,0.4227729999999999,-0.3099929999999999,-0.104242
514,0.9563705185744983,0.7220666366498864,0,0,0.100128,-0.09251399999999999,-0.7950440000000001,0.2049099999999999,-0.184341,-0.16895
515,1.1199164922812384,0.6413229164753352,0,0,0.041336,-0.00018300000000004424,-0.982742,-0.139576,-0.021766,-0.0337639999999999
516,1.2763697303486672,0.6579948372774486,0,0,0.112625,0.103485,-1.115692,-0.478236,0.097835,0.186976
517,1.414106055863027,0.7650006386561463,0,0,0.23899900000000002,0.22431899999999994,-1.264756,-0.6636569999999999,0.128491,0.406763
518,1.5233681878834107,0.9499340440507353,0,0,0.4019469999999999,0.429626,-1.746094,-0.307768,0.045263,0.664661
519,1.5973213695907817,1.1968941041951484,0,0,0.638473,0.639588,-2.419098,1.108901,-0.149394,1.228145
520,1.6327311023002062,1.4885614186728562,0,0,0.6751400000000001,0.594436,-1.774063,0.415264,-1.152304,1.683921
521,1.6301150254897117,1.808186168506016,0,0,-0.16597,0.689804,-0.9471579999999999,-0.914223,-0.658176,1.012771
522,1.5933473992664944,2.1411865147476337,0,0,-0.9938209999999998,0.340958,-0.6720280000000001,-2.657794,0.319701,0.139421
523,1.5288472847987722,2.4761419346386297,0,0,-0.181274,0.700027,-1.221298,-2.445229,0.990261,-0.435725
524,1.4445727201365155,2.8050762531323774,0,0,0.324569,0.5467229999999998,-0.7768250000000001,-2.83712,2.500797,0.441953
525,1.3490311105081556,3.123042750649927,0,0,0.256973,1.412873,-0.9492799999999999,-2.053016,1.288804,-0.043467
526,1.2504347319044162,3.4271539612692727,0,0,0.365296,1.205154,-0.687714,-2.234098,1.485868,-0.14967
527,1.1560449740160406,3.715324020163006,0,0,0.08727999999999998,0.8478999999999999,-0.5693819999999999,-2.548413,2.287001,-0.155029
528,1.0717048812467107,3.985048177908775,0,0,-0.02163699999999999,0.756119,-0.4147800000000001,-2.470668,2.9790080000000003,-0.382904
529,1.0015594204821496,4.232485809729903,0,0,0.0023040000000000005,0.7569729999999999,-0.3503110000000001,-2.37468,3.710303,-0.5946779999999999
530,0.9479728236464541,4.451977210339347,0,0,0.2079010000000001,0.8305669999999999,-0.36502100000000004,-2.30188,3.993345,-0.8434280000000001
531,0.9116375182135013,4.636000866014241,0,0,0.338714,0.9090579999999999,-0.353455,-2.3681259999999997,3.829031,-0.986822
532,0.8918289429991699,4.775524547111602,0,0,0.51857,0.942322,-0.290268,-2.120843,3.607491,-0.678231
533,0.8867239509106535,4.860708453335265,0,0,0.4802099999999999,0.9210209999999999,-0.23779300000000003,-2.0052369999999997,4.304402,-0.301235
534,0.8936956125141908,4.881927534348856,0,0,0.417282,0.8609159999999999,-0.228454,-1.870117,4.342746,-0.416776
535,0.9095306611198462,4.831048424609601,0,0,0.375992,0.6889500000000001,-0.13641399999999998,-1.505881,4.357778,-0.495436
536,0.93057151331121,4.7028231594180925,0,0,0.4320219999999999,0.626892,-0.1062620000000001,-1.060837,4.733867,-0.626337
537,0.9528347715373535,4.496179879203502,0,0,0.531479,0.6355899999999999,-0.042602999999999974,-0.795371,5.007358,-0.7850659999999999
538,0.972178317901448,4.215138260060356,0,0,0.554611,0.6464230000000001,0.009429999999999883,-0.857836,4.804292,-1.097163
539,0.9845723244068336,3.8690894220777405,0,0,0.548477,0.647659,0.060912999999999995,-1.142822,4.06905,-1.332152
540,0.986486028911996,3.4722843642611783,0,0,0.6402579999999999,0.736237,0.277344,-0.8607950000000001,3.401464,-1.129569
541,0.9753492661049422,3.042565812640583,0,0,0.6908719999999999,0.7582400000000001,0.19432100000000002,-0.434585,1.814169,-0.691928
542,0.9500015141585063,2.599592236060636,0,0,1.0996700000000001,0.871292,-0.191834,-0.385264,-1.1031879999999998,-0.57675
543,0.9110173512957819,2.16293487269241,0,0,0.8059689999999999,0.6404719999999999,-0.189026,-0.622786,-2.784843,-0.208786
544,0.8608110872227946,1.7504015438155802,0,0,0.6270759999999999,0.5566249999999999,-0.10839800000000001,-0.4764529999999999,-2.15072,0.391764
545,0.8034779267203749,1.376785630741355,0,0,0.33609100000000003,0.522186,-0.06575,-0.117833,-0.5385939999999999,0.788514
546,0.7444021278383037,1.0530821844010896,0,0,0.06626900000000008,0.6351469999999999,-0.05354299999999999,0.055151,0.419649,0.764993
547,0.6897167416402505,0.7861486228745552,0,0,0.05776899999999996,0.6471560000000001,-0.004424999999999998,0.1605329999999999,0.38713,0.547854
548,0.6457116482940206,0.5787866320374486,0,0,0.09364300000000003,0.6505129999999999,-0.011856000000000005,0.276264,0.018061,0.302376
549,0.6182645083217535,0.43020836936477663,0,0,0.289749,0.5623470000000002,-0.083039,0.303586,-0.228559,0.14799
550,0.6123378329332696,0.3368010953213807,0,0,0.32618699999999995,0.5085450000000001,-0.022246999999999892,0.476911,-0.081245,0.187468
551,0.6315634577464619,0.29304823474435737,0,0,0.34607,0.472671,0.02781700000000001,0.611695,0.10322,0.293927
552,0.6779264602996794,0.2924335942385899,0,0,0.337708,0.5526119999999999,0.056488,0.384998,0.037764,0.342634
553,0.7515570930746955,0.32816859328241016,0,0,0.39068600000000003,0.681152,-0.032501,0.2877,0.107831,0.221156
554,0.8506348353282008,0.39364282236789033,0,0,0.4382630000000001,0.746429,-0.03523200000000001,0.14649,0.310415,0.0319029999999999
555,0.9714027681920532,0.4825845525729328,0,0,0.551147,0.9020689999999999,0.113434,-0.322215,0.305264,-0.138007
556,1.1082879802081087,0.5889947122679591,0,0,0.579346,0.9413600000000001,0.08035300000000001,-0.538662,0.164008,-0.317723
557,1.2541288217597808,0.7069629262891569,0,0,0.6267240000000001,1.000381,0.029388000000000004,-0.457977,0.221619,-0.4091
558,1.4005208327614098,0.8304899456243825,0,0,0.640213,1.071808,0.089737,-0.204306,0.443218,-0.368088
559,1.5383012321864786,0.9534394073265161,0,0,0.659561,1.21579,0.070388,0.013459,0.405433,-0.43168
560,1.6581853395146025,1.0697241053475512,0,0,0.891312,1.343887,0.08326700000000001,-0.191393,0.180143,-0.657149
561,1.7515411504178653,1.1737847944818522,0,0,0.964753,1.330063,0.108108,-0.309947,0.146378,-0.901488
562,1.8112455278335036,1.2613338588843266,0,0,0.865631,1.609741,0.21563699999999988,-0.514596,0.877966,-0.926288
563,1.832520016576594,1.3302250498407457,0,0,0.856186,1.8801580000000002,0.20458999999999988,-0.717171,1.264777,-1.045703
564,1.8136107269190245,1.3812119093341957,0,0,0.9539030000000001,1.940399,0.068054,-1.051399,1.176444,-1.309639
565,1.7561699671270146,1.418319616507529,0,0,1.01799,1.698914,0.045211999999999995,-1.416061,0.5692119999999999,-1.253724
566,1.6652302396606993,1.4486115689684267,0,0,0.7437129999999998,1.467804,-0.004272999999999999,-1.202988,0.507832,-1.007534
567,1.548733098121685,1.4812794189105731,0,0,0.4548339999999999,1.510925,-0.10980299999999998,-0.4958,0.804329,-0.90897
568,1.4166636066177922,1.5261762225515494,0,0,0.28511,1.35321,-0.143433,0.063766,0.623646,-0.964651
569,1.2799144311053683,1.5920757088990718,0,0,0.2475590000000001,1.155761,-0.198089,0.68584,0.4901,-0.874677
570,1.1490444780558666,1.6850181567183493,0,0,0.29301499999999997,0.946152,-0.277298,1.033965,0.208331,-0.510826
571,1.033106927575551,1.807076505472877,0,0,0.3640139999999999,0.75235,-0.260834,1.453964,-0.021341,-0.182858
572,0.9387076918745197,1.9557651538054408,0,0,0.396133,0.518478,-0.05502300000000001,1.855308,0.14943,0.1861259999999999
573,0.8694205680906725,2.1241582051718946,0,0,0.4031219999999999,0.476975,0.214508,2.190699,0.5253760000000001,0.7178260000000001
574,0.8256293326018471,2.3016299162011067,0,0,0.388092,0.696838,0.14247100000000001,2.193648,1.209379,1.223307
575,0.8047934154776443,2.475024606632062,0,0,0.22943200000000002,0.893875,-0.164551,1.945387,1.607237,1.310794
576,0.8020573399410922,2.630040429635401,0,0,-0.005722000000000005,0.957199,-0.37651,1.906002,1.102526,1.021677
577,0.8110694290233138,2.7526696893581146,0,0,-0.10787999999999992,0.9207000000000001,-0.22764600000000002,1.888351,0.089138,0.8487319999999999
578,0.824862685040188,2.8306275447797486,0,0,-0.036667000000000005,0.8358000000000001,0.08135899999999999,2.027825,-0.861936,0.6736
579,0.8366804786092621,2.8547437109965395,0,0,-0.031799999999999995,0.824478,0.0062560000000000116,2.732736,-1.506451,0.335383
580,0.8406809845136779,2.8202426213026355,0,0,-0.01976,0.8182530000000001,0.026382000000000017,2.847306,-1.9838240000000005,0.002441
581,0.8325005243087329,2.727731425597163,0,0,0.092026,0.687745,0.1053619999999999,2.538222,-1.753512,-0.315138
582,0.8096806986781656,2.5836453863682887,0,0,0.196762,0.631073,-0.198502,2.693724,-0.979129,-0.431481
583,0.7719645530904481,2.3999349566545125,0,0,0.21902400000000008,0.674057,-0.3256070000000001,2.692256,-0.400501,-0.47603
584,0.7214482115374607,2.192908414296186,0,0,0.23164400000000007,0.763077,-0.519485,2.418544,-0.07987,-0.500785
585,0.6625483442019033,1.98131163172958,0,0,0.260818,0.717209,-0.353638,1.915287,-0.10755,-0.6014729999999999
586,0.6017319172761286,1.783886212036598,0,0,0.255157,0.604783,-0.26443500000000003,1.459662,0.1315319999999999,-0.58787
587,0.5469701578923534,1.616775816175897,0,0,0.230698,0.5174099999999999,-0.22538699999999995,1.069224,0.234783,-0.495658
588,0.506923610573188,1.4912278506913144,0,0,0.13185099999999997,0.44433600000000006,-0.22293100000000005,0.599359,0.2402719999999999,-0.39533
589,0.48992180941234337,1.4120390434211758,0,0,0.131851,0.444336,-0.22293099999999993,0.121404,0.283321,-0.357063
590,0.502849638625619,1.3770995158870063,0,0,0.105789,0.38784799999999997,-0.23733500000000007,-0.428567,0.578444,-0.423239
591,0.550083730449822,1.3781990131427726,0,0,-0.055786999999999975,0.33223,-0.223663,-0.7567149999999999,0.99144,-0.58843
592,0.6326356588635594,1.4030002233466465,0,0,-0.09155299999999988,0.34079000000000004,-0.25058,-0.908946,1.11216,-0.542647
593,0.747653250994415,1.4378226978225643,0,0,-0.07852199999999998,0.368805,-0.22389200000000004,-1.08413,1.312998,-0.532377
594,0.8884019380731097,1.4706925124209556,0,0,0.10421700000000003,0.522766,-0.4382629999999999,-1.435881,1.54782,-0.608842
595,1.044790107206666,1.494044279943879,0,0,0.184311,0.588043,-0.563186,-1.84095,1.4233870000000002,-0.5751930000000001
596,1.2044187611264516,1.5065211595414318,0,0,0.29298399999999997,0.676941,-0.6676949999999999,-1.86439,1.330237,-0.437436
597,1.3540386935950937,1.513492471634035,0,0,0.7674259999999999,1.284088,-1.023453,-1.113903,1.334738,0.183096
598,1.4812079375130551,1.526169322609011,0,0,0.8950800000000001,1.330093,-0.9093019999999998,-0.402334,1.124488,0.462869
599,1.5758858403517055,1.5594882727171377,0,0,0.828827,1.151169,-0.7617949999999999,-0.0005009999999999,1.2445469999999998,0.194193
600,1.6317023424811041,1.6291703028542457,0,0,0.366425,1.110183,-0.8771669999999999,0.718901,0.981762,0.816987
601,1.646699208883661,1.7484868055306426,0,0,0.490463,2.064041,-1.053544,1.57868,0.641586,1.22508
602,1.6234225783504,1.9252780002775784,0,0,0.5545959999999999,2.470063,-0.215882,0.61725,-1.112024,-0.0292079999999999
603,1.568336284566417,2.159722079373494,0,0,0.04688999999999999,1.254608,0.346634,0.222958,0.3319539999999999,-0.352142
604,1.4906423968514004,2.44327519042982,0,0,-0.252564,0.46939100000000006,0.3172610000000001,-0.747448,1.510377,0.963096
605,1.4007392698155696,2.7590602261238653,0,0,-0.7790680000000001,0.7158199999999999,-0.4352259999999999,-0.461513,2.332404,1.072999
606,1.3086506891622594,3.0837363564958187,0,0,-0.3801580000000001,0.940094,-0.008834999999999982,-0.353817,2.446021,0.00752
607,1.222747600492196,3.390568163076701,0,0,-0.18446399999999996,0.914399,0.2182,-0.666355,4.202983000000001,-0.866447
608,1.1489626245412523,3.6531350755446033,0,0,-0.02044700000000005,1.104035,0.578385,-0.970766,4.599054,-1.347644
609,1.0905412761889135,3.8489710467751066,0,0,0.1865699999999999,1.089386,0.42361399999999994,-1.181709,4.462452,-0.8372649999999999
610,1.0482478535987878,3.9624520929753024,0,0,0.37641899999999995,1.053818,0.236603,-0.812753,4.000012,-0.064975
611,1.0208732605694242,3.9864532328685294,0,0,0.8914489999999998,0.9572149999999998,0.053833000000000006,-0.477516,3.931261,0.0538909999999999
612,1.0058764527746729,3.922597883183147,0,0,0.6848909999999999,0.839554,0.180726,-0.1784599999999999,4.502178,0.078749
613,1.0000194073884927,3.7802048425777643,0,0,0.43238900000000013,0.8388520000000002,0.229217,0.129409,4.131685,0.288609
614,0.9999093141544417,3.5742387321733067,0,0,0.27976999999999985,0.830414,0.38513200000000003,-0.114024,3.016738,0.400501
615,1.002418781467731,3.322705252979227,0,0,0.16896,0.780579,0.366761,0.141455,2.592107,0.341941
616,1.0049940165291371,3.044019952000348,0,0,0.23274299999999998,0.946106,0.232528,0.206354,2.1674279999999997,0.194456
617,1.0058718791839323,2.754882834654945,0,0,0.378037,0.916947,0.283905,-0.009629,1.811369,0.179517
618,1.004215663073629,2.4690651339215615,0,0,0.6013639999999999,0.9348609999999998,0.172623,0.368125,1.857978,0.450219
619,1.0001631360723156,2.1972653162414137,0,0,0.614319,0.78508,0.179123,0.275561,2.486424,0.547044
620,0.9947741509247059,1.9478861700818748,0,0,0.587494,0.763656,0.302964,0.378951,2.632396,0.7163579999999999
621,0.9898738835432119,1.7283236269427464,0,0,0.582413,0.6908270000000001,0.30954,0.398209,2.331155,0.641034
622,0.9878046249411047,1.5462353207364385,0,0,0.6732479999999998,0.707672,0.10733000000000001,0.542514,1.819714,0.543353
623,0.9911132253791394,1.410312438080416,0,0,0.656128,0.778702,0.013733000000000023,0.4407279999999999,1.7368150000000002,0.317353
624,1.0022074436955433,1.330270836704671,0,0,0.6280209999999999,0.812698,0.007445999999999953,0.315409,1.43029,0.357463
625,1.0230151231711047,1.3160185944362897,0,0,0.595993,0.758743,-0.007506999999999986,0.139585,1.161705,0.2775309999999999
626,1.0546801495763047,1.3761712710949208,0,0,0.649033,0.727692,0.018385999999999958,0.131079,1.065209,0.173978
627,1.09732893618329,1.5162333107478851,0,0,0.714478,0.791886,0.00730900000000001,0.29055,1.22956,0.2272239999999999
628,1.1499361037418552,1.7368295254388466,0,0,0.6889799999999999,0.881622,0.04093900000000003,0.5173810000000001,1.359857,0.213686
629,1.210304766973483,2.032357314503022,0,0,0.671997,0.979171,0.08631900000000003,0.82178,1.394222,0.413389
630,1.275158456678542,2.390357149708543,0,0,0.5487669999999999,1.259018,0.377441,1.170035,1.460366,0.619768
631,1.3403260449447132,2.791788885714087,0,0,0.4730829999999999,1.312531,0.4334109999999999,1.412839,1.392499,1.130024
632,1.4009965149732628,3.2122664457268275,0,0,0.4646150000000001,1.181214,-0.166153,1.775832,1.426693,1.5875780000000002
633,1.452030801145428,3.624145132960238,0,0,0.48848,1.127213,-0.07016,3.14541,1.303892,1.539618
634,1.4883346795089079,3.9991836644836773,0,0,0.48790000000000006,1.1714790000000002,-0.08959899999999998,4.617502,0.837053,1.125347
635,1.5052995739287072,4.31135356817616,0,0,0.29478400000000005,1.7288670000000002,-0.661438,5.222642,-0.113068,0.841303
636,1.4992950653699486,4.5393057672217285,0,0,0.04162599999999994,1.556396,-0.06729099999999999,5.282386,-0.503944,-0.028379
637,1.4681633465386106,4.668083692682955,0,0,-0.12014800000000003,1.303849,0.36111399999999994,4.573543,-0.510571,-0.420018
638,1.411650698488472,4.689887314641052,0,0,-0.01915,1.098175,0.236923,3.347228,-1.875933,-0.502679
639,1.3317191205558239,4.603954152890783,0,0,0.7460930000000001,1.080292,0.03913900000000001,3.542758,-3.0998799999999997,0.112347
640,1.2326866069064735,4.41581134683916,0,0,1.1843720000000002,1.147003,-0.708603,3.835492,-0.959756,1.458677
641,1.121130972705816,4.136203029765742,0,0,1.031372,0.923828,-0.6179199999999998,2.847473,-1.385885,1.5206879999999998
642,1.0054851169667764,3.77993667600013,0,0,0.719406,0.707687,-0.3198699999999999,2.103348,-3.160494,0.7999189999999999
643,0.8952922198794052,3.364786299990364,0,0,0.433289,0.590515,-0.13423200000000002,1.926103,-3.16648,0.586113
644,0.8001799730290261,2.9104861289224315,0,0,0.256714,0.5497590000000001,-0.18850699999999998,1.750348,-2.7064220000000003,0.507383
645,0.7287066701999824,2.43777938411618,0,0,0.079177,0.461075,-0.27949599999999997,1.141516,-2.106966,0.310083
646,0.6872783625011025,1.9674826796680693,0,0,-0.174912,0.37371799999999994,-0.3045650000000001,0.947627,-1.464459,0.175445
647,0.6793224059842108,1.5195807767199083,0,0,-0.16537499999999994,0.3817750000000001,-0.38652000000000003,0.77057,-0.967689,-0.291104
648,0.7048484825512752,1.1124270346218805,0,0,-0.00766,0.326324,-0.501083,0.403223,-0.455746,-0.657522
649,0.7604590722682738,0.7621397514150766,0,0,0.170898,0.201386,-0.522644,0.08811,-0.0774919999999999,-0.67089
650,0.839803117898589,0.48224281191045937,0,0,0.34158299999999997,0.205978,-0.718734,-0.150002,0.164008,-0.385511
651,0.9344048557214185,0.28352675275823147,0,0,0.333526,0.18614200000000003,-0.828827,-0.252994,0.442792,-0.21674
652,1.0347463126668899,0.17403934905312446,0,0,0.377366,0.328659,-1.135742,-0.108267,0.256393,-0.081963
653,1.131442212289351,0.15907978877077072,0,0,0.54187,0.467682,-1.129013,-0.113191,-0.227775,0.0553559999999999
654,1.2163306151993087,0.2410780365435857,0,0,0.548767,0.49436900000000006,-1.094146,-0.356962,-0.5741229999999999,0.299788
655,1.28331992891638,0.41928681890723,0,0,0.534134,0.673935,-1.1100309999999998,-0.192493,-0.361282,0.476921
656,1.3288799168459469,0.6892887779827065,0,0,0.330612,1.038895,-1.08429,0.311167,0.362555,0.7102470000000001
657,1.3521276199032803,1.0424184268683683,0,0,0.056504,1.365677,-0.7812960000000001,-0.068003,-0.2019119999999999,0.474381
658,1.3545266310014155,1.4652993432388715,0,0,-0.09336799999999995,0.910263,-0.653458,-0.786626,-0.03806,-0.183532
659,1.3392842790175417,1.9397589879557593,0,0,-0.25279199999999996,1.105682,-0.6821900000000001,-1.023185,0.373302,-0.552111
660,1.3105868535621883,2.44335594594158,0,0,0.16535899999999992,0.929184,-0.308075,-1.266521,0.842598,-1.016953
661,1.2728402094687405,2.950616179068308,0,0,0.320785,0.902466,0.25523399999999996,-1.487687,2.774405,-0.6748689999999999
662,1.2300674120762358,3.434860212986722,0,0,0.181321,1.042801,0.13465900000000008,-1.65377,4.312037,-0.640612
663,1.1855573978924956,3.8702987765377848,0,0,0.222229,1.221878,-0.11380000000000001,-1.231611,4.1945190000000006,-0.921659
664,1.1417758446286579,4.233984635062875,0,0,0.44580099999999995,1.2789609999999998,-0.12670900000000007,-1.111459,4.181007,-0.843891
665,1.1004705336699578,4.507288244030562,0,0,0.616867,1.160873,-0.19012500000000002,-1.412261,4.3497449999999995,-0.689179
666,1.0628597371981874,4.676768841709332,0,0,0.63176,0.96846,-0.131134,-1.284249,4.0788400000000005,-0.718916
667,1.0297994325351136,4.734526672284395,0,0,0.5774079999999999,0.838379,-0.007903999999999994,-0.942788,3.87304,-0.698108
668,1.0018725282853558,4.678249222484862,0,0,0.47631900000000005,0.789901,0.09152199999999999,-0.530069,4.032622,-0.7370899999999999
669,0.9794011545439412,4.511167671008452,0,0,0.41914300000000004,0.838623,0.0602570000000001,-0.449522,4.229101999999999,-0.6577310000000001
670,0.9624235232224513,4.242031807084475,0,0,0.348068,0.767944,0.058105000000000004,-0.2487579999999999,4.415201000000001,-0.75057
671,0.9506885172128761,3.8850436316658414,0,0,0.42033400000000004,0.7216040000000001,0.07284500000000001,-0.141213,4.31077,-0.569156
672,0.943708097755189,3.4595404656347006,0,0,0.533294,0.7462310000000001,0.251877,-0.113452,4.386018,-0.497488
673,0.9408797107542176,2.98916288271253,0,0,0.5432279999999998,0.7415160000000001,0.304047,-0.335182,3.867278,-0.5838300000000001
674,0.9416586510510814,2.500321706404281,0,0,0.559174,0.7284849999999999,0.3180229999999999,-0.189831,2.819273,-0.500287
675,0.9457346841071442,2.0199839899425673,0,0,0.759644,0.7208249999999999,0.1292880000000001,0.009571,1.168328,-0.464732
676,0.9531566110628056,1.5730664444940463,0,0,0.7976829999999999,0.760528,-0.009384000000000003,-0.096488,0.179887,-0.406522
677,0.9643559229986122,1.17994123880433,0,0,0.7029569999999999,0.8047479999999999,-0.001784999999999981,-0.154731,-0.2690599999999999,-0.239711
678,0.9800451425310766,0.8546087780686051,0,0,0.369614,0.8815,-0.022675,-0.075934,-0.456097,-0.154531
679,1.0010033604634665,0.6039408755967793,0,0,0.328354,0.8560480000000001,0.00827,-0.080491,-0.305787,-0.177188
680,1.0277999574514411,0.4281197232900016,0,0,0.293319,0.79953,0.022187000000000012,0.074709,-0.143653,-0.364319
681,1.0605316837475287,0.32211314119652495,0,0,0.40962299999999996,0.8871309999999999,0.107925,0.259858,0.037542,-0.549129
682,1.0986463903499428,0.27781880898466116,0,0,0.467865,0.9261630000000001,0.10536200000000001,0.009114,0.145443,-0.674932
683,1.1408994889292696,0.28640659201955787,0,0,0.5269469999999998,0.9487610000000001,0.11508199999999999,-0.135329,-0.017819,-0.7473029999999999
684,1.1854490354151852,0.3403854529273571,0,0,0.809021,0.9731749999999999,-0.117615,-0.291489,-0.036726,-0.6789350000000001
685,1.2300577151526622,0.4350052316918653,0,0,0.842651,0.9975729999999999,-0.119171,-0.477696,0.240226,-0.512879
686,1.2723462665943852,0.5687482155461732,0,0,0.825592,1.0223689999999999,-0.11247199999999999,-0.403604,0.970147,-0.362678
687,1.3100380168888244,0.7428396368454658,0,0,0.48744199999999993,1.249191,-0.1124119999999999,-0.325255,0.957668,-0.240337
688,1.3411465377571288,0.9598864444421565,0,0,0.40837099999999993,1.318588,-0.03872700000000001,-0.084496,0.7295659999999999,-0.149701
689,1.3640803840826012,1.2219240518450707,0,0,0.3392630000000001,1.3559569999999999,-0.023773999999999906,0.309725,0.65664,-0.103057
690,1.377661955590227,1.5282850717334784,0,0,0.35926800000000003,1.36531,-0.008911000000000002,0.670495,0.39145,-0.165358
691,1.381077611451756,1.873759503599248,0,0,0.412003,1.319259,-0.003478000000000009,1.426433,0.127494,-0.079623
692,1.3737929947592258,2.247460338444434,0,0,0.44030800000000003,1.211716,-0.09529099999999999,2.09952,-0.02126,0.039569
693,1.3554800364697537,2.632654754804962,0,0,0.413483,1.0658720000000002,-0.12034600000000001,2.535815,-0.350463,0.202203
694,1.326004983975608,3.0076263833279553,0,0,0.39804100000000003,1.0122229999999999,-0.098785,2.851998,-0.716938,0.465527
695,1.285511271318469,3.3474630164811017,0,0,0.739395,1.090652,-0.009963999999999999,2.663514,-0.8831680000000001,1.172655
696,1.234592573363615,3.626547272153428,0,0,0.6454769999999999,1.286972,-0.25451599999999996,3.029227,-0.36369,1.748179
697,1.1745010423294688,3.8214530547530745,0,0,0.5135959999999999,1.330872,-0.281113,2.8949580000000004,-1.35765,2.144825
698,1.107301423019544,3.913892011583625,0,0,0.16536,1.249421,0.09666400000000003,2.230429,-3.618524,1.745702
699,1.0358895431814974,3.8933092669607388,0,0,0.10382000000000002,0.8553470000000001,0.32464600000000005,1.470744,-4.339435,1.269165
700,0.963843249357698,3.758729660523988,0,0,0.129181,0.6484070000000001,0.08859299999999998,1.5544950000000002,-2.858524,1.684459
701,0.8951342402388306,3.519540926822669,0,0,0.457428,0.617844,-0.677979,2.165673,-2.340045,1.764976
702,0.8337633143211791,3.1950595478263732,0,0,0.22888200000000003,0.732452,-0.585373,2.4044529999999997,-2.674428,0.997953
703,0.7833788929465938,2.8129020842795796,0,0,0.16729699999999997,0.685074,-0.392807,1.7078369999999998,-2.675245,0.740987
704,0.7469221532942165,2.406336082478355,0,0,0.15266400000000002,0.437454,-0.29745499999999997,1.382663,-1.679127,0.7353029999999999
705,0.7263369838579767,2.0109148544825315,0,0,0.18263200000000002,0.403198,-0.358749,1.12774,-0.8966629999999999,0.55199
706,0.7223864770796851,1.6608179395183367,0,0,0.20767200000000002,0.5119480000000002,-0.48945600000000006,0.656884,-0.622887,0.427641
707,0.7346088834858014,1.3853886721671216,0,0,0.19128399999999995,0.5670620000000001,-0.5312809999999999,0.126272,-0.674532,0.216766
708,0.7614183089844537,1.2063302560445868,0,0,0.185425,0.5351569999999999,-0.546219,-0.4674,-0.7281810000000001,0.028954
709,0.8003251904124805,1.1358810510021182,0,0,0.21572900000000003,0.38247699999999996,-0.590592,-1.088182,-0.553059,-0.06961
710,0.848235750366585,1.1760843315303875,0,0,0.28555299999999995,0.3320010000000001,-0.656051,-1.472898,-0.131399,-0.221321
711,0.9017874299409578,1.319073302801671,0,0,0.46958899999999987,0.3222190000000001,-0.7676240000000001,-1.471806,0.48898,-0.319316
712,0.9576767414692243,1.5481738263644769,0,0,0.763717,0.39590400000000003,-0.567505,-0.88836,1.317266,-0.167819
713,1.0129316525910927,1.8396067716117908,0,0,0.4307559999999999,0.9047700000000001,-0.3192290000000001,-0.971226,1.565082,0.0022
714,1.065079163626071,2.1646207422832933,0,0,0.354095,1.197479,-0.577881,-1.1270790000000002,1.79026,-0.229913
715,1.1121707802687362,2.4919510595040757,0,0,0.190567,1.265991,-0.5793,-0.814987,1.357957,-0.549782
716,1.1526618870627947,2.790534951393424,0,0,0.13752799999999998,0.9382929999999999,0.081573,-1.245082,1.210569,-1.146529
717,1.1851958612278952,3.0323822456351763,0,0,0.07551599999999997,0.670944,0.08288600000000002,-1.761384,2.224078,-1.339441
718,1.2084009079020033,3.1953911885342468,0,0,0.178238,0.677017,0.04586800000000002,-1.415768,3.481695,-1.254249
719,1.2208254085499948,3.265745043452792,0,0,0.42128000000000004,1.092087,0.07107599999999997,-1.222866,4.194571,-1.206813
720,1.221083295919341,3.2394240294013366,0,0,0.6979069999999999,1.528031,-0.006377999999999995,-1.163004,4.098024,-1.090903
721,1.2081730973326308,3.122424312205683,0,0,0.848572,1.369462,-0.024139999999999995,-1.029882,3.333971,-0.611499
722,1.18184091020181,2.929520177894917,0,0,0.7904359999999999,1.002121,-0.027801000000000006,-0.905784,2.2490900000000003,-0.345391
723,1.142840852560514,2.6817564952168085,0,0,0.6511069999999999,0.8535150000000001,-0.032807,-0.917185,1.694736,-0.499654
724,1.093008849229028,2.4031699900980197,0,0,0.524673,0.8136129999999999,-0.032089000000000104,-0.774149,1.5203,-0.690711
725,1.0351538434347263,2.1173865257159012,0,0,0.449067,0.84999,-0.089051,-0.553793,1.452255,-0.648492
726,0.9728287828045135,1.8446976228411154,0,0,0.39425699999999997,0.839523,-0.06784,-0.423604,1.269444,-0.599279
727,0.9100543860813395,1.6000439619140367,0,0,0.324432,0.783539,-0.018296,-0.341832,0.906069,-0.6409699999999999
728,0.8510479278702856,1.3921127300182772,0,0,0.321122,0.7620690000000001,-0.017471,-0.346556,0.006274,-0.727445
729,0.7999796878337807,1.223540724018489,0,0,0.4638979999999999,0.719818,-0.014084000000000003,-0.4791859999999999,-1.070048,-0.780403
730,0.7607544070251672,1.0920203093751606,0,0,0.511856,0.6797030000000001,-0.005354999999999999,-0.721773,-1.754646,-0.663716
731,0.7367998773399812,0.9919495446493706,0,0,0.533265,0.6442109999999999,0.029938,-0.767433,-1.44342,-0.399514
732,0.7308438416775891,0.9162004056645987,0,0,0.3862609999999999,0.6062319999999999,-0.007568000000000002,-0.6029899999999999,-0.952729,-0.175736
733,0.7446747475956096,0.8576436795603437,0,0,0.341323,0.622849,-0.045486,-0.5635760000000001,-0.5700069999999999,-0.015718
734,0.778905046833746,0.8102417671996316,0,0,0.315765,0.63794,-0.018401999999999905,-0.415518,-0.1083549999999999,0.025317
735,0.8327754554659318,0.7697089464330275,0,0,0.2296750000000001,0.796615,0.055481,-0.1866789999999999,-0.297431,-0.0422769999999999
736,0.9040455021377807,0.733850998448012,0,0,0.24055500000000002,0.830444,-0.023177999999999997,-0.6043069999999999,-0.588179,-0.230692
737,0.9890093770453977,0.7027030124025501,0,0,0.300644,0.838745,-0.1096350000000001,-0.679265,-0.385732,-0.442983
738,1.0826622618375168,0.6785229112918656,0,0,0.61113,0.89183,-0.182449,-0.263926,0.174164,-0.426912
739,1.179025608462245,0.6656329226339965,0,0,0.5619959999999999,0.9198310000000001,-0.06629899999999998,-0.378876,0.459047,-0.440899
740,1.2716211020405406,0.6700720087028944,0,0,0.520401,0.968155,0.052871999999999995,-0.6862189999999999,0.4123,-0.4718279999999999
741,1.354061101007418,0.6990275895787477,0,0,0.5307619999999998,1.312317,-0.050675,-0.8176439999999999,0.383932,-0.456686
742,1.4206968782423777,0.7600410013864431,0,0,0.529572,1.3967889999999998,-0.033645999999999995,-0.60875,0.4466739999999999,-0.3442119999999999
743,1.4672375531370545,0.8600283924275658,0,0,0.551102,1.435669,-0.005035000000000012,-0.331853,0.667974,-0.248558
744,1.4912324893666524,1.0042258462347966,0,0,0.632782,1.698425,-0.12171900000000002,-0.0879559999999999,0.370841,-0.213359
745,1.492311765451714,1.1952275592481896,0,0,0.6653439999999999,1.681686,-0.1483459999999999,0.5591,0.109332,-0.112364
746,1.4721122957506578,1.432295020856199,0,0,0.6016090000000001,1.4427949999999998,-0.10583499999999998,1.413561,-0.288215,-0.004405
747,1.4338823748271905,1.7110470512090632,0,0,0.437332,1.197449,-0.106964,2.011592,-0.647011,0.225627
748,1.3818420638118238,2.023518867836371,0,0,0.30319199999999996,1.01802,-0.20439100000000002,2.400285,-0.834571,0.439022
749,1.3204500252376554,2.3584748207760535,0,0,0.232162,0.992355,-0.3658749999999999,2.5011189999999996,-0.797189,0.5935020000000001
750,1.2537541396229703,2.701843853932189,0,0,0.35885599999999995,0.9363859999999999,-0.261551,2.311237,-0.577941,0.807675
751,1.1849696685477833,3.0372276274398766,0,0,0.4599459999999999,0.936127,-0.214447,2.281089,-0.248219,0.961935
752,1.1163509351637062,3.3465461072796683,0,0,0.442414,1.112198,-0.23237599999999997,2.578168,-0.43841,1.379792
753,1.0493327561111316,3.6109490377465336,0,0,0.390457,1.19809,-0.215393,2.365361,-1.6586759999999998,1.694994
754,0.9848478487421233,3.812087810944454,0,0,0.3336479999999999,1.092559,-0.007552999999999976,1.819026,-2.751267,1.806878
755,0.9236977013702279,3.933729612272481,0,0,0.300323,0.8276210000000002,0.12828099999999987,1.301339,-3.241776,1.843415
756,0.8668703548798858,3.9635626764034857,0,0,0.394974,0.708969,-0.019301999999999986,0.980833,-3.387365,2.0325740000000003
757,0.8157405053992189,3.8949400048896416,0,0,0.42117299999999996,0.7283930000000002,-0.16119300000000003,1.163494,-3.506524,2.102369
758,0.7721268782284905,3.728262517886625,0,0,0.371414,0.6676639999999999,-0.435272,1.5936860000000002,-3.539746,1.779609
759,0.7382039356835932,3.471716826841861,0,0,0.23617600000000008,0.6867370000000002,-0.47432,1.711887,-3.2795669999999997,1.614527
760,0.7162772781292749,3.141160581711837,0,0,0.04380799999999996,0.651429,-0.482727,1.239297,-2.921718,1.246504
761,0.7084504885497859,2.7590866662546096,0,0,-0.059250000000000025,0.3647459999999999,-0.32315099999999997,1.04283,-2.2001310000000003,1.051927
762,0.7162394026557386,2.352770837478893,0,0,-0.017166000000000015,0.380768,-0.328339,0.9832,-1.518031,0.756875
763,0.7402130918794503,1.9518640757704868,0,0,0.11731000000000003,0.5679320000000001,-0.47784399999999994,0.75942,-1.330389,0.646113
764,0.7797394360924349,1.5857769702359237,0,0,0.18766699999999997,0.567459,-0.576431,0.458605,-1.189358,0.5370090000000001
765,0.8328841279033056,1.2811968142879198,0,0,0.19537300000000002,0.4914550000000001,-0.661392,0.003124,-0.998954,0.4694899999999999
766,0.8964748163081737,1.0600002352963962,0,0,0.16574100000000003,0.42329400000000017,-0.71405,-0.4022409999999999,-0.562706,0.4169609999999999
767,0.9663182436586861,0.9377173771553294,0,0,0.165268,0.4049830000000001,-0.770508,-0.747953,-0.137357,0.374477
768,1.0375499401837054,0.9225992775397641,0,0,0.28041,0.494324,-0.838256,-1.029008,0.114445,0.25255
769,1.1050907100153873,1.015251755721908,0,0,0.444016,0.562714,-0.8470460000000001,-1.233026,0.202892,0.15594
770,1.164172397236868,1.2087382484305136,0,0,0.614258,0.4919279999999999,-0.689178,-1.459704,0.517074,0.104816
771,1.2108777991316455,1.4890375152927764,0,0,0.525101,0.5852809999999999,-0.590043,-1.534172,0.8972549999999999,0.199949
772,1.2426186458927109,1.8357804917974305,0,0,0.35266200000000014,1.3018800000000001,-0.9370879999999999,-1.222917,1.239474,0.130114
773,1.2584533930459258,2.223272034283843,0,0,0.21516400000000008,1.593521,-1.3708649999999998,-1.031153,0.851187,-0.436343
774,1.2591393240489182,2.6218872168505527,0,0,0.530731,1.0925289999999999,-0.303131,-1.747612,0.8275819999999999,-0.57271
775,1.2468543727028656,2.999958345615653,0,0,0.500031,0.8803559999999999,-0.20893899999999999,-2.3288029999999997,1.405742,-0.530509
776,1.2246250541461772,3.326193966032965,0,0,0.29669199999999996,0.8751220000000001,-0.13270599999999994,-2.031864,1.97445,-0.7502850000000001
777,1.195612384215718,3.5725061901570494,0,0,0.17701699999999998,0.855148,0.006118000000000012,-1.968779,3.118633,-0.82395
778,1.1624666233052112,3.716931102766079,0,0,0.1843720000000001,0.820495,0.091553,-1.945328,4.033743,-0.8538
779,1.126932809458287,3.7461834815426043,0,0,0.328522,0.8787079999999999,0.10372900000000002,-1.793266,4.209736,-1.040971
780,1.0897952934774708,3.6573506107312763,0,0,0.5349729999999999,1.159133,-0.033965999999999996,-1.256301,3.785987,-1.297323
781,1.0511352317367169,3.458332693954856,0,0,0.559906,1.1496119999999999,-0.02700799999999999,-1.163042,3.409617,-1.29619
782,1.010782027797285,3.1668623707170953,0,0,0.571839,1.1122589999999999,-0.011658000000000002,-1.072732,3.139691,-1.005725
783,0.9687988840718559,2.8082138177640585,0,0,0.48551999999999995,0.880386,-0.048111,-0.8776440000000001,2.419954,-0.739589
784,0.9258618128612112,2.411962452747863,0,0,0.482712,0.834503,-0.048201999999999995,-0.655062,1.484518,-0.635354
785,0.8834498589612216,2.0083258174577407,0,0,0.484619,0.7876890000000001,-0.04422,-0.486037,1.269173,-0.475801
786,0.8438283509876987,1.6246761098748594,0,0,0.405227,0.694885,-0.05201700000000001,-0.40659,0.996881,-0.38303
787,0.8098540293863354,1.2827541301986956,0,0,0.373734,0.660706,-0.100906,-0.4639979999999999,0.129797,-0.346
788,0.7846563599464036,0.9969508838145977,0,0,0.37884500000000004,0.618347,-0.13889999999999988,-0.500448,-0.4694819999999999,-0.432013
789,0.7712574839185742,0.7738025509161092,0,0,0.459885,0.595215,-0.006865999999999997,-0.482242,-0.677331,-0.4177329999999999
790,0.7721888276994553,0.6126211090951357,0,0,0.4747169999999999,0.62503,-0.0168309999999999,-0.4494229999999999,-0.615073,-0.297942
791,0.7891506988067007,0.5070061836984722,0,0,0.482162,0.63913,-0.016052999999999998,-0.557569,-0.531227,-0.126821
792,0.8227488397117747,0.4468900089387654,0,0,0.3958129999999999,0.670013,-0.007965,-0.556196,-0.348465,-0.011678
793,0.8723335127672016,0.4207633222029619,0,0,0.360184,0.729431,0.014449999999999998,-0.4398189999999999,-0.115481,-0.034664
794,0.9359614281076348,0.41778848644482836,0,0,0.3179629999999999,0.792663,-0.016403,-0.315603,-0.110199,-0.131012
795,1.0104934173592552,0.4295851675996363,0,0,0.396179,0.9050600000000001,0.062271999999999994,-0.245298,-0.06821,-0.302558
796,1.0918267393574705,0.45153872780510235,0,0,0.4642489999999999,1.04396,0.011047999999999988,-0.378038,-0.045974,-0.41995
797,1.1752417447067205,0.48351785922465873,0,0,0.5794529999999999,1.037414,-0.01954699999999991,-0.724351,-0.03272,-0.503571
798,1.2558254069464403,0.5299073510803964,0,0,0.659958,1.0136260000000001,-0.037186,-0.772904,0.058101,-0.529664
799,1.3289250393807748,0.5988943980383543,0,0,0.666107,1.0510709999999999,-0.08636500000000008,-0.781633,0.266867,-0.515037
800,1.3905828876356645,0.701020494168059,0,0,0.6481779999999999,1.3368989999999998,-0.038269,-0.737309,0.281134,-0.3919
801,1.4378997020705473,0.8471299083444885,0,0,0.5418239999999999,1.46547,0.0745240000000001,-0.483571,0.6577,-0.210081
802,1.4692717948945935,1.0459851324644471,0,0,0.503403,1.4994200000000002,0.024306999999999995,-0.183502,0.660193,-0.0285269999999999
803,1.4844504391603794,1.3019373226554327,0,0,0.42161499999999996,1.632202,-0.077148,0.123891,0.0028079999999999,-0.000968
804,1.4843951539084688,1.6130889510862354,0,0,0.433014,1.5038909999999999,-0.10197499999999998,1.008977,-0.390991,-0.0573059999999999
805,1.4709348623871752,1.970327173423762,0,0,0.4291069999999999,1.3805390000000002,-0.132324,1.866102,-0.504895,-0.021263
806,1.4463038296049566,2.357434695347724,0,0,0.426651,1.026123,-0.161499,2.380076,-0.785744,0.2358559999999999
807,1.412664826496955,2.7522570184852793,0,0,0.407929,0.940536,-0.301224,2.960968,-0.7573850000000001,0.6319140000000001
808,1.371746918514083,3.1287163581305317,0,0,0.50325,1.063522,-0.4900669999999999,2.9191130000000003,-0.494221,1.189964
809,1.3246929262898606,3.4593768871452757,0,0,0.664841,1.10083,-0.330002,2.460425,-0.042697,1.6252209999999998
810,1.2721389482996086,3.718270726664249,0,0,0.617096,1.273346,-0.1876829999999999,2.835734,-0.838357,2.073242
811,1.2144682416354369,3.8837237297010336,0,0,0.479172,1.4331669999999999,0.09848000000000001,2.546561,-2.239278,2.344346
812,1.1521324048391766,3.9409194777489835,0,0,0.21754400000000002,1.229537,0.32969600000000004,1.820635,-3.799573000000001,1.825324
813,1.0859339290406744,3.883914978444887,0,0,0.034927999999999904,0.899993,0.42439300000000013,1.174433,-3.974219,1.5721379999999998
814,1.017207764164801,3.7168294518115395,0,0,0.09109499999999998,0.655503,-0.0068210000000000215,0.996141,-2.6277310000000003,1.997524
815,0.9478940374042966,3.4540095528962134,0,0,0.257324,0.6895600000000001,-0.593582,1.566512,-1.929086,2.079661
816,0.8805223013260044,3.1191039824192957,0,0,0.2491449999999999,0.8784020000000001,-0.7673949999999998,2.190626,-2.491476,1.52072
817,0.8181170847781085,2.743093137550737,0,0,0.10803199999999996,0.893845,-0.661591,1.818907,-2.978641,1.127779
818,0.7640122372210971,2.361394373826059,0,0,0.044296,0.482056,-0.21775799999999995,1.367935,-2.482796,0.59736
819,0.7215660933929752,2.0102516290102055,0,0,0.190658,0.31002799999999997,-0.33406099999999994,0.852404,-1.354012,0.34769
820,0.6938039198019837,1.7227678807836735,0,0,0.325042,0.42482,-0.5112460000000001,0.28143,-0.491098,0.299867
821,0.6830430853794615,1.5251085214208515,0,0,0.3271940000000001,0.528107,-0.5751499999999999,-0.356379,-0.323306,0.184102
822,0.6905541024378542,1.433478177299623,0,0,0.19023099999999998,0.45314,-0.5351870000000001,-0.886762,-0.477556,0.057749
823,0.7162919355239602,1.4523707803037853,0,0,0.1787409999999999,0.38678000000000007,-0.539917,-1.305802,-0.30729,-0.067173
824,0.7587258944733544,1.5743417429000477,0,0,0.1877599999999999,0.3398129999999999,-0.566605,-1.448804,0.323082,-0.141619
825,0.8148078742515524,1.7812634479368226,0,0,0.3912959999999999,0.27534500000000006,-0.36460900000000007,-1.324176,1.167651,-0.201652
826,0.8801278867886357,2.0468019938886095,0,0,0.27471900000000005,0.31997600000000004,-0.28723199999999993,-1.539783,1.59462,-0.229342
827,0.949290929404394,2.339726752062981,0,0,0.11593600000000004,0.503616,-0.413025,-1.402384,1.7984939999999998,-0.449766
828,1.0164997600909838,2.627614069219644,0,0,0.636017,1.480423,-0.420914,-0.913459,1.816996,-0.970871
829,1.0762536638907192,2.880498485303575,0,0,0.6607969999999999,1.307724,0.16944900000000002,-1.954728,3.400866,-0.818873
830,1.1240124089145636,3.0740380833503997,0,0,0.4602349999999999,1.0760960000000002,0.24240100000000003,-2.075212,3.4289379999999996,-0.808
831,1.1566755171055043,3.1918074403516346,0,0,0.429108,0.9403839999999999,-0.15863000000000002,-1.079047,2.658424,-0.7925770000000001
832,1.1727979634440462,3.226450346240468,0,0,0.48672499999999996,0.929886,-0.0704799999999999,-1.250572,2.882048,-0.623146
833,1.172556053558139,3.179617080768741,0,0,0.507004,0.944031,0.013077000000000089,-1.2802639999999998,3.186711,-0.59597
834,1.1575341136512947,3.0608101422718454,0,0,0.47984400000000005,1.08583,0.11674500000000002,-0.8153090000000001,2.970589,-0.764429
835,1.130407959785678,2.8853993509492772,0,0,0.47984299999999996,1.0858310000000002,0.116745,-0.292704,2.46168,-0.7579899999999999
836,1.094578456400038,2.6721390126551503,0,0,0.49249299999999996,1.05339,-0.171432,-0.489934,2.160326,-0.616908
837,1.0537879885322106,2.4405516888474366,0,0,0.464569,0.848724,-0.010176999999999999,-0.643579,1.974221,-0.563263
838,1.0117485199988845,2.208533012559766,0,0,0.443741,0.842041,0.019669,-0.413956,1.792316,-0.560358
839,0.9718169772451284,1.9904664700851917,0,0,0.422501,0.818588,-0.0035089999999999002,-0.372272,1.747677,-0.621966
840,0.9367575713974693,1.796028796094648,0,0,0.39698799999999995,0.73233,0.031265,-0.43282,1.752368,-0.676875
841,0.908621460587418,1.6297511609836712,0,0,0.400497,0.712555,0.068893,-0.399161,1.301003,-0.7839520000000001
842,0.888751975831814,1.4913107178038942,0,0,0.501404,0.720795,0.05867,-0.347229,0.187958,-0.870825
843,0.877894250516912,1.3764692637715803,0,0,0.6009059999999999,0.84021,0.04080199999999991,-0.5491189999999999,-0.741626,-0.796268
844,0.8763598517467779,1.2785295128232834,0,0,0.616684,0.852234,-0.001908000000000007,-0.578773,-1.179194,-0.5694520000000001
845,0.8841819602886307,1.1901182384525972,0,0,0.540604,0.795807,-0.031525,-0.616406,-1.32882,-0.415699
846,0.9012059969445886,1.1050359960623706,0,0,0.433747,0.756149,-0.0489960000000001,-0.568488,-1.314214,-0.380131
847,0.9270935635630917,1.0198770822133683,0,0,0.366714,0.7693940000000001,-0.048935,-0.4575079999999999,-1.104609,-0.4127399999999999
848,0.9612577552353584,0.9351545257682602,0,0,0.359635,0.821182,-0.051223999999999895,-0.4697,-0.763548,-0.445308
849,1.0027748044814004,0.8557553519273274,0,0,0.41531399999999996,0.858109,0.026976999999999994,-0.6732739999999999,-0.271635,-0.474066
850,1.0503209587357991,0.7906622733887562,0,0,0.49313300000000004,0.86232,0.04155,-0.7628590000000001,-0.070883,-0.517675
851,1.1021688681264605,0.7519726246882087,0,0,0.607514,0.895492,-0.07287600000000001,-0.882551,-0.31669,-0.481876
852,1.1562549704845613,0.7533135300961137,0,0,0.6496580000000001,0.930999,-0.134628,-1.001653,-0.392212,-0.4067679999999999
853,1.2103067666961886,0.8078116164032131,0,0,0.625396,1.061585,-0.172836,-0.786485,-0.044305,-0.217704
854,1.2620012139646708,0.9258488993308426,0,0,0.4187469999999999,1.250992,-0.15956099999999993,-0.2307989999999999,0.319667,0.187363
855,1.3091157858612363,1.1129199620460397,0,0,0.340408,1.307281,-0.18469200000000002,0.135349,0.241234,0.303253
856,1.3496345285171205,1.3679568552415644,0,0,0.2133790000000001,1.499374,-0.092941,0.798913,0.07656,0.150002
857,1.3817844094682512,1.6824543590123033,0,0,0.234222,1.500839,-0.09936499999999998,1.459569,-0.136648,-0.117507
858,1.4040030885062977,2.0405940139186893,0,0,0.3056640000000001,1.223313,-0.064392,1.90115,-0.679175,-0.158593
859,1.4148746868725195,2.4203730747662235,0,0,0.4437409999999999,0.969162,0.017518,2.3021979999999997,-1.084574,0.174809
860,1.41310116344428,2.795565352519657,0,0,0.616867,0.889725,-0.07402,2.668039,-1.165184,0.8344239999999999
861,1.3975787549605845,3.138227888102985,0,0,0.753997,1.154312,-0.445861,2.839113,-0.522368,1.63703
862,1.3676053456049322,3.4214335400354776,0,0,0.7035369999999999,1.43187,-0.4158169999999999,2.493474,-0.463627,2.1643779999999997
863,1.3231720235966529,3.621935054672102,0,0,0.4890899999999999,1.519471,-0.07309000000000002,2.177543,-1.4955200000000002,2.348297
864,1.2652358757312472,3.722516125465261,0,0,0.23121599999999998,1.366684,0.297653,1.787732,-3.3803300000000003,1.971975
865,1.1958694143363091,3.7138313455299965,0,0,0.06247000000000008,1.014832,0.46342500000000003,1.408981,-3.1871959999999997,1.6881389999999998
866,1.1182331169336026,3.5955788021139172,0,0,0.13458200000000003,0.759705,-0.1268459999999999,1.177894,-2.497638,1.807419
867,1.0363827137796584,3.3769021091107367,0,0,0.334702,0.8067930000000001,-0.673401,1.405278,-2.053962,1.746482
868,0.9549597429167865,3.0759771703498857,0,0,0.3762360000000001,0.973403,-0.7027589999999999,1.887278,-2.752816,1.337342
869,0.8788113933478898,2.7187735715653436,0,0,0.19136099999999995,0.8602909999999999,-0.388992,1.7949259999999998,-3.05022,0.93329
870,0.812570705422178,2.3369936231419084,0,0,0.119064,0.550858,-0.15945400000000004,1.531882,-2.380774,0.782112
871,0.7602324288781854,1.9652430019509821,0,0,0.1831970000000001,0.363891,-0.329758,1.061574,-1.443712,0.486002
872,0.724780014638326,1.6376257547184212,0,0,0.27787700000000004,0.43321200000000004,-0.447922,0.609514,-0.748304,0.3997
873,0.7079235305613286,1.3841465319066153,0,0,0.24760400000000002,0.6048430000000001,-0.5181580000000001,0.200368,-0.499297,0.288633
874,0.7099806892539476,1.2274377208508,0,0,0.237076,0.593292,-0.533874,-0.305788,-0.615821,0.03101
875,0.7298939877472033,1.1803233354434464,0,0,0.1762539999999999,0.27758799999999995,-0.526261,-0.723392,-0.436742,-0.167621
876,0.7653560443598761,1.2445843214769317,0,0,0.238815,0.296417,-0.686706,-0.914119,-0.1294529999999999,-0.391538
877,0.8130189392916225,1.4110688540665637,0,0,0.3570709999999999,0.315765,-0.720688,-0.843141,0.386233,-0.476093
878,0.8687756919745401,1.6610711490843395,0,0,0.47003199999999995,0.309815,-0.447098,-1.347012,0.94028,-0.33184
879,0.928107692910642,1.968723188216875,0,0,0.13984600000000003,0.44615200000000005,-0.47168000000000004,-2.086964,1.475674,-0.379355
880,0.9864853809483746,2.3040180865974627,0,0,0.029189999999999994,0.847321,-0.6240539999999999,-1.416292,2.0826279999999997,-0.630753
881,1.0397882310621704,2.636025945406076,0,0,0.012206999999999912,1.202088,-0.8329169999999999,-0.8368479999999999,2.239659,-0.975147
882,1.084679849936024,2.9358874053244515,0,0,0.410385,1.126953,-0.025116000000000027,-2.1108599999999997,3.4307800000000004,-0.7056979999999999
883,1.1188584094722878,3.1792668974865914,0,0,0.34523000000000004,1.035324,-0.41616799999999987,-1.326485,2.555475,-0.674529
884,1.1411262723852256,3.348085908565621,0,0,0.43635500000000005,1.056656,-0.48858599999999996,-1.128722,2.24554,-0.59477
885,1.151280757707317,3.4315000225153303,0,0,0.39563,0.7899330000000001,0.11508200000000002,-1.393072,3.054829,-0.55172
886,1.1498886940401276,3.426183775563272,0,0,0.35928400000000005,0.82988,0.201202,-0.989792,3.669541,-0.646899
887,1.1380397805157825,3.3360062767479275,0,0,0.341171,0.887131,0.234726,-0.676391,3.725402,-0.768695
888,1.1171641668069703,3.1711470948199945,0,0,0.3778999999999999,1.1151280000000001,-0.056717,-0.428984,3.212198,-0.7812640000000001
889,1.0889538061645936,2.9466983440562697,0,0,0.460129,1.1017460000000001,-0.089309,-0.519352,2.581824,-0.770406
890,1.0553691595035064,2.6808662511054946,0,0,0.528381,1.0297999999999998,-0.058671,-0.561611,2.092486,-0.6397510000000001
891,1.0186730479006783,2.39297948207577,0,0,0.649918,0.871384,-0.021849999999999998,-0.162012,2.075812,-0.546139
892,0.981427753683242,2.101558589766226,0,0,0.6164859999999999,0.842987,-0.0338130000000001,-0.126099,2.049902,-0.491376
893,0.9464138785613604,1.8226711074429987,0,0,0.553466,0.7867270000000001,0.0330349999999999,-0.2642989999999999,1.928917,-0.485777
894,0.9164632029993056,1.5687207200761644,0,0,0.4770359999999999,0.7142790000000001,0.061203,-0.20332,1.467536,-0.509329
895,0.8942283914573805,1.3477500261423805,0,0,0.41017099999999995,0.698165,0.0850069999999999,-0.200139,0.2118239999999999,-0.5739270000000001
896,0.8819313373269166,1.163298447287466,0,0,0.4442589999999999,0.741913,0.0455479999999999,-0.419018,-0.6773100000000001,-0.477108
897,0.8811355421486369,1.0148245182695463,0,0,0.454422,0.737777,0.025284,-0.4392569999999999,-0.935987,-0.50576
898,0.892578086537123,0.898637693896909,0,0,0.44952399999999987,0.747497,0.0003809999999999994,-0.347837,-0.996018,-0.491158
899,0.916080750365276,0.8091946813492471,0,0,0.439621,0.8136140000000001,-0.028366000000000002,-0.4104939999999999,-0.857611,-0.416997
900,0.9505453875089538,0.7405494953341603,0,0,0.426346,0.8617859999999999,-0.044403,-0.41972,-0.51571,-0.396136
901,0.9940292899166071,0.6877432764015713,0,0,0.414169,0.9065400000000001,-0.057862,-0.182908,-0.292803,-0.401177
902,1.0438918979732148,0.6479660575288718,0,0,0.4654839999999999,0.9174500000000001,0.06594900000000001,-0.206779,-0.165865,-0.4228699999999999
903,1.097003356131385,0.6213727383070373,0,0,0.49022,0.8997799999999999,0.064469,-0.493221,-0.393461,-0.535663
904,1.1500052032245127,0.6114574013128159,0,0,0.5594939999999999,0.901764,0.0922699999999999,-0.886848,-0.127964,-0.5216609999999999
905,1.1996094658353604,0.6248915224994648,0,0,0.693206,0.978012,-0.276962,-1.034897,-0.03386,-0.483292
906,1.2429113823507356,0.6707520981313657,0,0,0.651947,1.079178,-0.28457600000000005,-0.923531,0.206967,-0.332203
907,1.2776754603790923,0.7591414014063111,0,0,0.575653,1.196136,-0.16903700000000008,-0.4339159999999999,0.646458,-0.107156
908,1.3025432652431006,0.899330376532971,0,0,0.30838,1.414856,-0.07876599999999997,-0.0497019999999999,0.764076,-0.017029
909,1.3171133894144402,1.097701408382134,0,0,0.325592,1.4601899999999999,-0.071243,0.076495,0.232565,-0.141517
910,1.3218637438879344,1.3558649530591749,0,0,0.390457,1.277832,-0.08027699999999999,0.6921229999999999,-0.261631,-0.165425
911,1.3179221745831333,1.6693302110388797,0,0,0.37837200000000004,1.109176,-0.16555799999999998,1.323219,-0.4562029999999999,-0.006943
912,1.3067346333960477,2.027007531963731,0,0,0.3062900000000001,1.084,-0.3352969999999999,1.980882,-0.5459229999999999,0.280844
913,1.2897135768937362,2.4116429537914907,0,0,0.29064900000000005,1.089111,-0.42611699999999986,2.419173,-0.561307,0.550981
914,1.2679561015627994,2.8011042594408977,0,0,0.42709400000000003,1.007827,-0.024246,2.813766,0.012138,0.925812
915,1.2420979905642449,3.1703177236491857,0,0,0.5891109999999999,1.0685269999999998,0.017075000000000007,2.708762,0.913738,1.454829
916,1.2123272093073687,3.4936137953501034,0,0,0.563553,1.193619,-0.071273,2.278996,1.12771,1.863887
917,1.178534652062317,3.7472494004924943,0,0,0.1859439999999999,1.1967919999999999,-0.336792,2.428431,-0.301264,1.844329
918,1.1405466130524073,3.9118834604757287,0,0,-0.10315000000000007,1.186905,-0.39047199999999993,2.479466,-3.759161,1.271208
919,1.0983736144201657,3.9747549199319376,0,0,0.02407899999999996,1.0187529999999998,0.06642199999999993,2.115482,-4.508074,0.7942670000000001
920,1.0524235805866267,3.93127015553902,0,0,0.14855999999999997,0.9133609999999999,0.0007320000000000104,2.365627,-3.293137,0.7132729999999999
921,1.0036498512608416,3.785724140320941,0,0,0.502991,0.93718,-0.35144,2.882877,-2.46053,0.641043
922,0.9536190141474359,3.5510054486802725,0,0,0.502991,0.937179,-0.351441,2.633422,-2.078805,0.5020789999999999
923,0.904486063449938,3.24732226026557,0,0,0.237747,0.7919470000000001,-0.2806400000000001,2.567226,-1.968383,0.3850389999999999
924,0.8588671663917213,2.9001401556971893,0,0,0.167923,0.582413,-0.538849,2.710065,-1.503427,0.403601
925,0.819614217290621,2.5375981187929018,0,0,0.167923,0.582412,-0.5388489999999999,2.297112,-1.227471,0.216628
926,0.7895147142801984,2.187693763196774,0,0,0.11593599999999998,0.55925,-0.649475,1.755904,-1.022252,0.247837
927,0.7709528240091292,1.8755452751414508,0,0,0.14927600000000002,0.5886539999999999,-0.540741,1.137096,-1.152743,0.1165609999999999
928,0.7655714944318873,1.6210556288444744,0,0,0.142242,0.50467,-0.47790600000000005,0.656453,-0.8325229999999999,-0.1585349999999999
929,0.7739792721072463,1.4372989604611555,0,0,0.114365,0.458572,-0.5079959999999999,0.101605,-0.358835,-0.386276
930,0.795551536074352,1.329884773662658,0,0,0.09964,0.37127699999999997,-0.6179350000000001,-0.57389,0.220232,-0.4889439999999999
931,0.8283766206149382,1.2974120750933187,0,0,0.13786299999999999,0.3820190000000001,-0.535003,-1.160791,0.4491159999999999,-0.475177
932,0.8693844395921875,1.3329139807807995,0,0,0.14669800000000008,0.40098600000000006,-0.613113,-1.599185,0.536666,-0.411054
933,0.9146668787529647,1.4259697377104616,0,0,0.216446,0.3681950000000001,-0.7777249999999998,-1.859081,0.808395,-0.473038
934,0.9599595338393712,1.565008384508082,0,0,0.41877800000000004,0.39648399999999995,-0.976409,-1.610799,1.125345,-0.562508
935,1.0012130175563043,1.739306099683297,0,0,0.575989,0.447861,-0.758072,-1.573098,1.477681,-0.5274449999999999
936,1.0351534979134678,1.94028744708933,0,0,0.32685800000000004,0.5414580000000001,-0.6780090000000001,-1.701828,1.724604,-0.36095
937,1.0597265719059492,2.161930955121213,0,0,0.35266200000000003,0.882233,-0.9635769999999999,-1.162058,1.675136,0.086196
938,1.0743335728019492,2.400292462958701,0,0,0.501053,1.285125,-0.690918,-1.022083,2.015421,0.381567
939,1.0797997931505698,2.6523471054905876,0,0,0.18247999999999998,1.006012,-0.34079,-1.58367,2.578064,0.557453
940,1.078065374019975,2.9144813882895697,0,0,0.09831299999999998,0.8256380000000001,-0.469757,-1.342298,1.589987,0.223915
941,1.0716635422486773,3.1810304043329647,0,0,0.168869,0.700653,-0.23260499999999998,-0.990457,1.963827,-0.062526
942,1.0631217272547997,3.4432497463088136,0,0,0.08122199999999996,0.7590939999999999,0.03175399999999995,-0.8061020000000001,3.076393,-0.326515
943,1.0544478189971613,3.6890230850816716,0,0,0.050934000000000035,0.892548,0.040847999999999995,-0.598391,3.75292,-0.5256890000000001
944,1.0468277223000233,3.903434926902662,0,0,0.157379,1.072113,-0.036239000000000104,-0.618258,3.906038,-0.702284
945,1.0405802233162005,4.070140425420084,0,0,0.17677400000000015,1.139984,-0.157501,-0.5348609999999999,3.743575,-0.905524
946,1.0353305058476558,4.173319488344094,0,0,0.298844,1.1145019999999999,-0.194336,-0.620017,3.457792,-0.759406
947,1.0303093052934078,4.199931293320184,0,0,0.5912019999999999,0.91977,0.1110839999999999,-0.592591,4.009983,-0.6114390000000001
948,1.0246741295793926,4.141940085821981,0,0,0.615235,0.8732449999999999,0.141205,-0.381059,4.880262999999999,-0.516004
949,1.0177726518873988,3.998125125914744,0,0,0.617493,0.816559,0.202057,-0.2924469999999999,5.11343,-0.294561
950,1.0093058236662045,3.775052078413149,0,0,0.5811769999999999,0.789398,0.168701,-0.2574099999999999,4.814062,-0.318501
951,0.9993823984894933,3.486854713719155,0,0,0.575989,0.74147,0.1223289999999999,-0.273925,3.954686,-0.1134849999999999
952,0.9884793616182664,3.153700280957241,0,0,0.6169589999999999,0.8165439999999999,0.16066000000000003,-0.33835,2.917426,0.1288119999999999
953,0.9773333202939279,2.7991373115255045,0,0,0.5443729999999999,0.860183,0.1231239999999999,-0.26704,2.177834,0.139872
954,0.9667902649792599,2.446828099939454,0,0,0.40152,0.870422,0.003143000000000007,-0.216261,1.660781,0.1943
955,0.9576421495601911,2.117334314370448,0,0,0.298721,0.845002,0.03730799999999998,-0.2178139999999999,1.233938,0.1125839999999999
956,0.9504824063911296,1.8256045095464044,0,0,0.24275200000000002,0.793075,0.11062599999999997,-0.13832,1.131231,-0.112124
957,0.9456148260464864,1.5796307802166165,0,0,0.32219,0.7978970000000001,0.147598,0.0183289999999999,1.144207,-0.295849
958,0.9430429387624887,1.3804642656658337,0,0,0.396881,0.83107,0.15394599999999992,0.1093069999999999,1.403989,-0.338276
959,0.9425468911285887,1.2234825177237085,0,0,0.46109,0.8179169999999999,0.20469600000000004,0.065886,1.476576,-0.337604
960,0.9438280844524723,1.1005568641440748,0,0,0.5127409999999999,0.832519,0.330246,0.157502,1.514332,-0.268646
961,0.9466801022678173,1.0026263012732852,0,0,0.5120849999999999,0.862412,0.128067,0.157596,1.356435,-0.209691
962,0.9511368690223259,0.9221634306648114,0,0,0.5042419999999999,0.855576,0.11148100000000002,0.067424,1.231056,-0.212296
963,0.9575576091251016,0.8550975694727216,0,0,0.479293,0.842225,0.149857,-0.06172,1.202813,-0.230254
964,0.9666281078808372,0.8018991168845362,0,0,0.41702300000000003,0.8343960000000001,0.11068700000000001,-0.05931,1.007935,-0.249215
965,0.979280413924063,0.7676882365516582,0,0,0.4210959999999999,0.841141,0.08122299999999999,-0.074639,0.8442440000000001,-0.326024
966,0.9965503570288269,0.7613850103621845,0,0,0.640747,0.7538000000000002,0.02058500000000002,-0.111123,0.915271,-0.207798
967,1.0193996943794832,0.7940543118504846,0,0,0.640747,0.7538000000000001,0.020584000000000102,-0.181721,0.7892020000000001,-0.055373
968,1.0485278976752677,0.8767092717093838,0,0,0.707794,0.829468,-0.005234000000000016,-0.242826,0.632234,0.090747
969,1.0841920186345906,1.0179168529037073,0,0,0.699768,0.8737639999999999,-0.0039819999999999856,-0.091874,0.605759,0.186907
970,1.1260474469006923,1.2215891049019245,0,0,0.6887659999999998,0.8890999999999999,0.011779999999999902,0.223239,0.74824,0.24661
971,1.1730216648322147,1.4853309833296013,0,0,0.619812,0.9160010000000001,0.04316700000000001,0.524257,0.927704,0.393761
972,1.2232368251975936,1.7996425368062179,0,0,0.5358430000000001,1.0410460000000001,0.15893600000000002,0.8416100000000001,0.8370690000000001,0.672763
973,1.2740000800742342,2.1481482840885806,0,0,0.4344639999999999,1.304855,0.33876,1.204696,0.705939,1.181805
974,1.3218788976235216,2.508870674108014,0,0,0.35650699999999996,1.224244,0.120362,1.446351,0.926378,1.522905
975,1.3628745858288038,2.856399545876774,0,0,0.33250400000000013,1.104508,-0.11833199999999988,2.157454,1.2256200000000002,1.4644629999999998
976,1.3927048637765125,3.1646559824932545,0,0,0.392365,1.102951,-0.09390300000000001,3.256981,1.3952,1.260418
977,1.407199466720642,3.409834080141439,0,0,0.4146269999999999,1.34462,-0.274689,4.05795,1.547932,0.99983
978,1.4027888682831933,3.573066816970243,0,0,0.22480700000000003,1.5999910000000002,-0.380127,3.824004,1.110171,0.386664
979,1.3770271858376113,3.6424370901384995,0,0,-0.04739299999999996,1.490464,0.177032,3.200607,0.065045,-0.1152099999999999
980,1.3290605530543296,3.6141306635422694,0,0,-0.13030999999999993,1.349183,0.3068389999999999,2.337509,-1.038025,-0.038641
981,1.2599558595225835,3.492718554521887,0,0,0.04129000000000005,1.174301,0.263718,3.372954,-1.666784,-0.075468
982,1.1728395045377444,3.2906519090341244,0,0,0.229019,1.032119,0.07462999999999999,4.209994999999999,-1.682839,0.016926
983,1.0728357670358537,3.0270285269704287,0,0,0.3173979999999999,0.940476,-0.1968849999999999,3.5384010000000004,-1.137956,0.2006119999999999
984,0.9668150033847682,2.725651177429755,0,0,0.433701,0.937454,-0.28034899999999996,2.521958,-0.013111,0.304234
985,0.8629585108729957,2.4124667085199745,0,0,0.5779259999999999,0.8537299999999999,-0.287827,1.905867,0.799926,0.513601
986,0.7701351963318488,2.1126512339165755,0,0,0.636002,0.7458030000000001,-0.307388,1.405881,0.419311,0.758424
987,0.6970892274923157,1.8477725308934057,0,0,0.587891,0.6176150000000001,-0.22277799999999992,1.101851,-0.472533,0.807649
988,0.6514738638119394,1.6335124050129028,0,0,0.3348849999999999,0.500915,-0.15269499999999991,0.7585270000000001,-0.656825,0.572615
989,0.6388309503253552,1.4783576305535784,0,0,0.01890599999999998,0.30627499999999996,-0.137649,0.157993,-0.536014,0.185842
990,0.6616831655847653,1.38350958496272,0,0,-0.11138900000000007,0.16670299999999993,-0.14857499999999998,-0.330031,-0.333462,-0.226955
991,0.71894122359001,1.3440496624514626,0,0,-0.09175100000000014,0.18885799999999986,-0.235001,-0.783696,0.291227,-0.741535
992,0.8058022726118762,1.351140621577727,0,0,0.12030099999999999,0.2997890000000001,-0.4175869999999999,-1.302981,1.075874,-0.974767
993,0.9142244651997029,1.3947761742253917,0,0,0.4372249999999999,0.460175,-0.6389929999999999,-1.77587,1.696476,-1.250194
