id,ASVM,GSVM,walking_nonwalking,normal_abnormal,ax,ay,az,gx,gy,gz
1,1.187769324464479,1.3308868365862363,0,0,1.036789,0.485275,0.34587,0.316738,0.77818,1.0827639999999998
2,1.1853353217880631,1.1042094731941332,0,0,0.9725039999999999,0.692962,0.08261099999999999,0.842032,0.424446,0.643574
3,1.183099400677406,0.9061450757200827,0,0,0.7703249999999999,0.784256,-0.2005149999999999,-0.138143,-0.040741,0.343563
4,1.1795430873946777,0.7543466496534971,0,0,0.75232,0.784576,0.0538180000000001,-0.025005,-1.048717,0.03586
5,1.1732929075459122,0.6628467808405952,0,0,0.959503,1.001206,-0.102829,0.114253,-0.91289,0.047341
6,1.1632580526765204,0.6409585424596773,0,0,0.929153,0.790741,-0.0596610000000001,0.187742,-0.763656,0.226057
7,1.1487242613033584,0.6924047499716891,0,0,0.8426819999999999,0.613586,-0.284256,0.343096,-0.80382,0.278468
8,1.1293906490141288,0.8147536178675139,0,0,0.83374,0.7097619999999999,-0.202149,0.176202,-0.172756,0.056415
9,1.1053530519007788,0.9992937440803864,0,0,0.836685,0.7179260000000001,-0.173126,0.274786,0.446585,-0.132766
10,1.077053263567638,1.2315227328564622,0,0,0.861389,0.621857,-0.29530299999999987,0.633672,0.316372,-0.1151369999999999
11,1.0452193004177923,1.4923987540071446,0,0,0.744232,0.5199739999999999,-0.258957,0.865711,0.179274,-0.130432
12,1.0108196306638617,1.7603907142130362,0,0,0.669632,0.5330349999999999,-0.317521,1.010791,-0.662185,-0.017245
13,0.9750480073243292,2.0141780214825618,0,0,0.7349089999999999,0.543365,-0.22566199999999992,1.233366,-1.834122,0.089429
14,0.9393428486374243,2.2356370258017284,0,0,0.745774,0.528244,-0.08436600000000011,1.183222,-2.790427,0.32104
15,0.9054239699007233,2.412566371054093,0,0,0.801422,0.572342,-0.1038360000000001,1.145214,-3.434572,0.536324
16,0.8753061218363282,2.5405235055663287,0,0,0.811325,0.711227,-0.213501,1.251651,-3.644069,0.620658
17,0.8512360526622168,2.623238970444027,0,0,0.68663,0.828781,-0.026855000000000018,0.600647,-3.449093,0.379781
18,0.8355102255463732,2.6713599796320415,0,0,0.41490099999999996,0.743042,0.013565000000000105,-0.031705,-2.780694,0.017706
19,0.830168542470905,2.6996871844105317,0,0,0.22322099999999995,0.6400300000000001,-0.214005,-0.2861889999999999,-2.203564,-0.2315699999999999
20,0.836614504466662,2.7234849076511933,0,0,0.25575200000000015,0.563645,-0.183639,-0.63246,-1.355699,-0.4401739999999999
21,0.8552584852406694,2.7547302782686063,0,0,0.352051,0.599624,-0.114319,-0.688157,-0.150945,-0.37374
22,0.8852937398484223,2.7992216571092032,0,0,0.4234620000000001,0.65683,-0.320984,-1.080752,1.072168,-0.343867
23,0.9246890497536031,2.8552573706842748,0,0,0.390594,0.5696110000000001,-0.362686,-1.7610439999999998,1.7122080000000002,-0.5053989999999999
24,0.9704318852420791,2.914169825477809,0,0,0.3951719999999999,0.553451,-0.32614099999999996,-1.942253,2.245388,-0.483847
25,1.0189991666485774,2.962489843054634,0,0,0.457596,0.6269080000000001,-0.45114200000000004,-1.890273,3.203544,-0.6470819999999999
26,1.0669756758080604,2.9850927380396755,0,0,0.678772,0.8397979999999999,-0.556992,-2.378386,3.5353510000000004,-1.148708
27,1.1116842273762257,2.9684723225467087,0,0,1.09343,1.257767,-0.617431,-3.073846,3.1962580000000003,-1.527009
28,1.1516522536796618,2.9033501649187867,0,0,1.126511,1.154479,-0.628723,-2.689446,0.6503260000000001,-0.814967
29,1.1867510988998788,2.78612230984228,0,0,1.031815,0.621216,-0.6773990000000001,-1.071424,-2.076484,0.370601
30,1.2179340278698718,2.6190587839443173,0,0,0.662719,0.18467699999999998,-0.7195429999999999,0.238801,-1.324572,0.8755120000000001
31,1.2466478923931683,2.409525649796723,0,0,0.40809599999999996,0.03312700000000002,-0.1415249999999999,0.6028859999999999,1.096871,1.340697
32,1.274130641041396,2.168649751927069,0,0,0.296387,0.341415,0.3157649999999999,-0.074176,2.732446,0.502796
33,1.3008503888592526,1.9097804932098503,0,0,0.317688,1.1665039999999998,0.5501860000000001,-0.975081,2.0292779999999997,-0.823987
34,1.32625827415908,1.646943875570577,0,0,0.28936799999999996,2.103287,0.667023,-0.720561,1.708834,-0.563289
35,1.3488679560815282,1.3933822339557957,0,0,0.16595499999999985,1.5648650000000002,0.28450000000000003,-0.102528,-0.2365519999999999,0.279939
36,1.366548442405098,1.160283782933946,0,0,0.6051329999999999,0.702529,-0.015396,0.5499609999999999,-0.978518,0.114532
37,1.376900575285951,0.9558604167888232,0,0,0.862549,0.694473,-0.0221099999999999,0.544057,-0.028891,0.003247
38,1.3776522414673833,0.7849291817676195,0,0,0.973434,0.733735,0.06614600000000001,0.251413,0.732255,0.122005
39,1.3670579414629787,0.6490650209077552,0,0,1.252396,0.8834839999999999,-0.2323459999999999,0.164566,0.351492,0.31203
40,1.3442715393696623,0.5472690591524867,0,0,1.445664,1.099365,-0.109406,0.260375,0.605503,0.376467
41,1.3096110235542893,0.47699418818424577,0,0,1.513382,1.103608,0.0451659999999999,0.230325,0.569375,0.379508
42,1.2646205451692836,0.4353130690472865,0,0,0.739014,0.525314,0.127274,-0.042117,0.1224519999999999,0.492477
43,1.2118919736584584,0.42000645026311695,0,0,0.644593,0.5725250000000001,-0.026718,-0.011653,0.289342,0.289514
44,1.1547051352106086,0.43038273609122785,0,0,0.6033020000000002,0.6355740000000002,-0.11238100000000001,-0.461052,0.260764,-0.165446
45,1.0966128217328113,0.46769135914240906,0,0,0.759064,0.747222,0.041107,-0.534409,-0.178958,-0.42711
46,1.0410870127497047,0.5350430163883121,0,0,0.9427490000000001,0.707718,-0.020934999999999995,-0.697517,-0.3946139999999999,-0.434382
47,0.9912742550437708,0.6368003341594625,0,0,0.9370879999999999,0.566254,0.0006099999999999994,-0.725928,-0.564767,-0.2164449999999999
48,0.9498374957500096,0.7774705587025643,0,0,0.925873,0.399445,-0.15602100000000002,-0.525354,-0.589796,0.004023
49,0.9188300429127012,0.9602266958480369,0,0,0.898498,0.32241899999999996,-0.4160160000000001,-0.333441,-0.891791,-0.031637
50,0.8995578545517647,1.1852897607181896,0,0,0.8194429999999999,0.364151,-0.30477899999999997,-0.304708,-0.941823,-0.065555
51,0.8924202209501914,1.448490301278594,0,0,0.733215,0.42199700000000007,-0.036864999999999995,-0.119064,-0.926548,-0.050391
52,0.8967571732634722,1.7403626308829203,0,0,0.662964,0.46369900000000003,0.068115,-0.140231,-1.085363,-0.009743
53,0.910761922235432,2.0460915435242355,0,0,0.620758,0.505173,0.0279690000000001,-0.27648,-1.122698,0.120744
54,0.9315291089174939,2.346517010672719,0,0,0.5758819999999999,0.448654,-0.0409089999999999,-0.062344,-1.807737,0.218189
55,0.9552989446220832,2.6202062022297574,0,0,0.5564880000000001,0.444473,-0.0995029999999999,0.122015,-2.354657,0.4327539999999999
56,0.9779223669974478,2.84634796440418,0,0,0.5569,0.580963,-0.13746699999999978,0.491906,-3.1091029999999997,0.702292
57,0.9955158368448874,3.0079699689918566,0,0,0.5945590000000001,0.930115,-0.19278,1.063068,-3.954876,0.725522
58,1.0052054886338797,3.0948036095755507,0,0,0.6097260000000001,1.179199,-0.0285949999999999,1.0728209999999998,-4.301614,0.581824
59,1.0058004209738958,3.1051044190060693,0,0,0.663865,1.1651,0.11134299999999997,0.222428,-4.153467,0.504099
60,0.9982136564891818,3.045917990317673,0,0,0.580444,1.076828,-0.03785700000000003,0.243079,-3.634696,0.224773
61,0.9854861012274841,2.9316368408598037,0,0,0.572128,0.9806670000000001,-0.388504,0.5676869999999999,-2.8338959999999997,0.015574
62,0.972356648978702,2.7811250425334024,0,0,0.594223,0.82135,-0.009460999999999997,0.010425,-2.3529139999999997,0.096523
63,0.9644314967012059,2.614065487786802,0,0,0.550949,0.6481929999999999,-0.017639000000000016,-0.0792,-0.72133,0.544596
64,0.9671052657653182,2.4473981873366313,0,0,0.36731,0.5910950000000001,-0.31993099999999997,-0.537862,0.664309,0.480865
65,0.9844517362788696,2.2926991085321657,0,0,0.25711000000000006,0.6482089999999999,-0.3246769999999999,-1.191726,0.777999,0.322328
66,1.0183199047131413,2.1550878382127476,0,0,0.22637899999999994,0.5609590000000002,-0.2825930000000001,-1.662435,0.262846,0.087896
67,1.0678395816068058,2.033818197372204,0,0,0.29982,0.48362799999999995,-0.372025,-2.154689,0.6299020000000001,-0.168113
68,1.1294659536584528,1.9242379992375802,0,0,0.38340799999999997,0.5045010000000001,-0.46972599999999987,-2.6587400000000003,1.446591,-0.435463
69,1.1975833181391484,1.8204510336118283,0,0,0.6869969999999999,0.652542,-0.56427,-2.641357,1.79237,-0.873756
70,1.265557306719396,1.7178783989732247,0,0,1.072631,1.128678,-0.783111,-2.374246,1.767496,-0.745808
71,1.326998917665705,1.615034121137411,0,0,1.252701,1.184875,-0.8678589999999999,-0.7459020000000001,0.202547,0.25354
72,1.3769268624593998,1.5141538105388654,0,0,1.104965,1.201752,-1.161026,0.633841,-1.359759,0.541849
73,1.4125314262632607,1.4207045555603377,0,0,0.8170780000000001,1.18724,-1.2276909999999999,-0.016013,-0.919413,1.007832
74,1.4333653087030525,1.3420960115045908,0,0,0.470123,0.652069,-0.34733599999999987,-0.150397,-0.2645949999999999,0.939824
75,1.4409740664240696,1.2860334482898388,0,0,0.561676,0.701523,0.014357999999999899,0.416105,0.185818,-0.033151
76,1.4381486160719146,1.258938257043232,0,0,0.7026220000000001,1.219864,0.228515,0.761158,0.368247,-0.66443
77,1.4280576909056135,1.2647656670449843,0,0,0.672653,1.3922729999999999,0.44680800000000004,0.359515,0.787237,-0.13473
78,1.413485047728503,1.304399666527564,0,0,0.35644500000000007,0.732453,0.676849,-0.376665,1.009725,0.8073560000000001
79,1.396310519573096,1.3756296350561035,0,0,0.526474,0.756988,0.5121,-0.332541,1.653505,0.414802
80,1.3772953582615377,1.4735615406345342,0,0,0.764359,1.002365,0.51268,1.083259,1.985695,0.03116
81,1.3561685211311532,1.5912377487220402,0,0,1.447387,0.7808080000000001,-0.14053400000000002,1.062103,0.866275,0.535579
82,1.3319460396612537,1.7202580446292002,0,0,1.4473880000000001,0.780808,-0.140534,0.922387,-0.143354,1.65753
83,1.3033641196423296,1.8512935470083496,0,0,1.175385,0.26687599999999995,-0.6832429999999999,-1.0508620000000002,-1.099451,0.5756819999999999
84,1.2693014557726825,1.9745074868263024,0,0,0.794327,0.577118,0.292405,-1.614215,-0.813613,-0.086644
85,1.2291111053019617,2.0799810053438925,0,0,0.845093,0.745591,0.291427,-1.587959,-0.412282,-0.305961
86,1.1828394580753059,2.158260190689465,0,0,0.9495089999999999,0.9376369999999999,0.07196100000000011,-1.7762950000000002,-0.5066689999999999,-0.51439
87,1.1313399005733384,2.2010970453254615,0,0,0.8919220000000001,0.8297109999999999,-0.027786999999999992,-2.092136,-0.760141,-0.5226810000000001
88,1.0762888643577415,2.2023724044496373,0,0,0.799209,0.690735,0.006408999999999901,-2.025938,-0.721069,-0.4944949999999999
89,1.0201078775708956,2.159094151660972,0,0,0.661529,0.668839,0.037781000000000106,-2.052114,-0.493589,-0.615678
90,0.9658037378125337,2.0722929044353,0,0,0.5687099999999999,0.6791990000000001,0.129196,-2.278262,-0.262646,-0.630373
91,0.9167514176899512,1.9476085432224415,0,0,0.583313,0.678161,0.2281489999999999,-2.2211990000000004,0.155545,-0.56428
92,0.876445684075598,1.7953762955438857,0,0,0.6794429999999999,0.676437,0.1214139999999999,-2.008306,0.053578,-0.557321
93,0.8482368700516998,1.6300782584228013,0,0,0.6664430000000001,0.613449,0.0017249999999999974,-1.844004,0.010568,-0.599916
94,0.8350561356063531,1.4691219006065772,0,0,0.5332340000000001,0.576523,0.033371000000000005,-1.600836,0.1072619999999999,-0.4829729999999999
95,0.8391362758432416,1.3310288202215552,0,0,0.49058500000000005,0.581863,0.1278989999999999,-1.334739,-0.003503,-0.4531989999999999
96,0.8617435280200303,1.2332436656774415,0,0,0.6067509999999999,0.6141050000000001,0.14827,-0.8793280000000001,-0.074183,-0.488383
97,0.9029431853786375,1.1898810593695694,0,0,0.7548220000000001,0.6676790000000001,0.1154479999999999,-0.473213,-0.1151799999999999,-0.444901
98,0.9614215402231793,1.209791813962455,0,0,0.796692,0.5835119999999999,-0.10604799999999999,-0.372399,-0.314253,-0.280073
99,1.0343848767587245,1.2953212133024983,0,0,0.7781669999999999,0.552399,-0.1374969999999999,-0.308166,-0.581435,-0.120117
100,1.1175611601066753,1.4420338119853646,0,0,0.7977290000000001,0.5386960000000001,-0.047226,-0.178372,-0.981994,0.037264
101,1.205338534925399,1.6394985025222664,0,0,0.9149930000000001,0.573654,-0.042404,0.065177,-1.467124,0.19982
102,1.2910729089911521,1.8730012921753711,0,0,0.9842219999999999,0.694397,-0.08244299999999999,0.691736,-1.883562,0.4343979999999999
103,1.3675746033718388,2.1258368039777475,0,0,1.0372919999999999,0.9310609999999999,-0.082367,1.972599,-2.365554,0.777247
104,1.4277456962816955,2.3816838871350265,0,0,1.0920260000000002,1.088852,0.150787,2.346852,-2.305516,0.889812
105,1.46530137732915,2.6265512924653875,0,0,0.9306189999999999,1.083649,0.311172,1.404458,-2.419249,0.8449190000000001
106,1.475486327905029,2.8499120780488747,0,0,0.8750309999999999,1.057129,0.44091800000000014,0.95319,-2.6287990000000003,0.626254
107,1.4556953334934812,3.044892817342148,0,0,1.013382,0.965652,0.34510799999999997,1.0484,-2.930007,0.743741
108,1.4059171301291047,3.2076505087429044,0,0,1.382126,0.8315879999999999,0.08296200000000004,0.489993,-2.853006,1.152076
109,1.3289315199517775,3.336267261113939,0,0,1.513382,0.679001,0.03910800000000003,0.001743,-1.686203,1.759261
110,1.2302050964824283,3.4295855228859473,0,0,1.100342,0.621262,-0.03454600000000002,-0.226383,-1.529266,1.871699
111,1.1174644910284683,3.4863897300774616,0,0,0.77333,0.637955,-0.110062,-0.625223,-2.267977,1.80363
112,0.999981251169688,3.505206139880788,0,0,0.575882,0.6907809999999999,-0.10769600000000001,-1.131428,-2.904111,1.750703
113,0.8876589713759057,3.484759470436254,0,0,0.515336,0.680938,-0.012649000000000077,-1.702327,-3.3169720000000003,1.596625
114,0.7900440540991208,3.424872559937376,0,0,0.4596100000000001,0.5986180000000001,0.08906500000000006,-1.876199,-3.279315,1.388127
115,0.7153791560455554,3.3274318347793352,0,0,0.397064,0.534699,0.06089799999999995,-1.962898,-3.124576,1.128814
116,0.6697972161393949,3.1970303525731687,0,0,0.3688200000000001,0.467438,0.025267999999999957,-1.903198,-2.903291,0.884325
117,0.6567299222177456,3.0410265092935633,0,0,0.37236,0.475098,-0.04281600000000013,-1.802309,-2.535155,0.643139
118,0.6765823781625863,2.8689533470778716,0,0,0.36489900000000003,0.5116430000000001,-0.03851300000000002,-1.773564,-2.048636,0.430141
119,0.7267033562944926,2.691407721762562,0,0,0.351777,0.5708160000000002,-0.0309600000000001,-1.807453,-1.430055,0.27956
120,0.8016565231772662,2.518686854786967,0,0,0.36915599999999993,0.638809,-0.12379400000000002,-1.887557,-0.891192,0.1244859999999999
121,0.8937735054664767,2.3594927191213904,0,0,0.44023100000000004,0.6875449999999999,-0.22308300000000003,-1.965022,-0.527904,-0.081619
122,0.9939456220080716,2.21998772867842,0,0,0.525711,0.7017209999999999,-0.266373,-1.923566,-0.087134,-0.320108
123,1.092587284030703,2.1033787890986657,0,0,0.6152960000000001,0.7266079999999999,-0.439041,-1.980115,0.189763,-0.518479
124,1.180679878912359,2.010069040356531,0,0,0.788116,0.712417,-0.6102899999999999,-2.038452,0.206186,-0.578728
125,1.2507815035258638,1.9382884847416766,0,0,1.005158,0.634934,-0.739868,-1.964891,-0.222545,-0.51998
126,1.297870674598237,1.885026205338544,0,0,1.364319,0.46650700000000006,-0.622619,-1.494712,-1.047257,-0.081941
127,1.3198920375492296,1.847048711545878,0,0,1.482376,0.403962,-0.577896,-0.629478,-1.822981,0.8159930000000001
128,1.3179016231513472,1.8217921202002159,0,0,1.4224700000000001,0.35381999999999997,-0.451874,-0.504003,-1.257104,1.7177240000000005
129,1.2957735573045626,1.8079462825325245,0,0,0.8465579999999999,0.31765800000000005,-0.241928,-0.673728,-0.741056,2.017116
130,1.2595164087734567,1.8056056329908525,0,0,0.831269,0.5472569999999999,-0.14282199999999998,-0.934668,-0.615831,1.564343
131,1.216321845323258,1.8159519828699267,0,0,1.098099,0.90393,0.036896000000000095,-1.495028,0.618537,-0.007166
132,1.1734974257343882,1.8405482019624297,0,0,0.3436890000000001,1.2184300000000001,0.610886,-1.168834,0.367091,0.518863
133,1.1374206409050822,1.8804186243620813,0,0,0.2557980000000001,1.0497429999999999,0.13880900000000002,-0.223742,-1.15132,1.660794
134,1.1126311073596873,1.9351292113987975,0,0,0.18602000000000007,0.9051509999999998,-0.2207639999999999,-0.595621,-1.216457,1.489501
135,1.1011812106621885,2.002053623761106,0,0,0.15133700000000005,0.442093,0.12642000000000003,-1.454071,-1.3452309999999998,0.073617
136,1.1023750403840071,2.075959682718548,0,0,0.08683799999999997,0.4852900000000001,0.4835199999999999,-1.072525,0.17538,-1.170145
137,1.1129958352522347,2.1490118171295545,0,0,0.18598899999999996,0.571899,0.632339,-0.8461190000000001,1.3349879999999998,-1.246962
138,1.1280278353691244,2.2112551286482467,0,0,1.0784,0.9806060000000001,0.440704,-0.76494,2.259878,-0.5767369999999999
139,1.1417420777550567,2.251601129810636,0,0,1.2969050000000002,0.905288,0.20121799999999998,-0.836332,1.7556040000000002,-0.1493
140,1.1488992668115448,2.2592717595193603,0,0,1.4811400000000001,0.641128,-0.298584,-0.778759,-0.156966,-0.63142
141,1.1457884458657155,2.22558699995446,0,0,1.1152339999999998,0.612961,-0.3596039999999999,-1.769491,-1.609156,-0.516839
142,1.1308867550994262,2.145888504198776,0,0,0.7968289999999999,0.5949249999999999,0.11677500000000002,-2.635986,-1.720789,-0.353969
143,1.105056184286517,2.021269426109745,0,0,0.47586,0.713638,0.4476319999999999,-2.429838,-1.237692,-0.398013
144,1.071322257903769,1.8596907602615542,0,0,0.447006,0.771332,0.35594099999999995,-2.176819,-1.08882,-0.2842739999999999
145,1.0343558059973847,1.6761030844960567,0,0,0.47799600000000003,0.82254,0.1908269999999999,-1.893478,-0.497433,-0.303348
146,0.999791734564173,1.4913803052299832,0,0,0.547607,0.824494,-0.011840000000000003,-1.462121,-0.01185,-0.365051
147,0.9734912936970463,1.33012834749636,0,0,0.589188,0.803681,-0.074738,-1.083584,0.063994,-0.47894
148,0.9608178054740254,1.2176559887526672,0,0,0.674149,0.730789,-0.16375699999999999,-0.925317,-0.198186,-0.585389
149,0.9659696916498438,1.1765342861947745,0,0,0.768463,0.548233,-0.1844029999999999,-0.876384,-0.6141800000000001,-0.4937149999999999
150,0.9914042744357737,1.223224476425362,0,0,0.881302,0.42581200000000013,-0.13189700000000001,-0.666445,-0.737028,-0.324381
151,1.037387390162721,1.3652490739204342,0,0,0.9386439999999999,0.407349,-0.080506,-0.455963,-0.706609,-0.122124
152,1.101709834046058,1.599342694240991,0,0,1.0059360000000002,0.4822850000000001,0.005325000000000003,-0.358617,-0.616421,0.149769
153,1.17961582952943,1.9109461319938645,0,0,0.927063,0.5059659999999999,-0.062988,-0.165697,-0.8578870000000001,0.427027
154,1.2639880629114397,2.275270775529929,0,0,0.859207,0.6328889999999999,-0.172638,0.3503179999999999,-1.464445,0.616211
155,1.3458250515290568,2.6599371433879933,0,0,0.8176429999999999,0.7756810000000001,-0.102127,1.171072,-1.994956,0.970865
156,1.4150231776519362,3.028900194524782,0,0,0.8206939999999998,1.173706,0.009170000000000011,2.395596,-2.5963540000000003,1.386113
157,1.4614332749583523,3.3470875314281243,0,0,0.5237580000000001,1.331451,-0.141555,1.762933,-4.102247,1.300302
158,1.4761069156953268,3.5849962585910706,0,0,0.443146,1.161988,0.3086540000000001,-0.571489,-3.783655,0.908642
159,1.4525953020423115,3.7224975336982316,0,0,0.5875400000000001,1.203201,0.5814360000000001,-1.401115,-3.704013,0.8920629999999999
160,1.3881225970769695,3.751280485206968,0,0,1.25415,0.8383329999999999,0.40544199999999997,1.471449,-2.873009,2.107471
161,1.2844264178943505,3.6756370752326673,0,0,1.872772,0.8332059999999999,-0.9820409999999999,0.787755,-2.746003,2.905782
162,1.1480534457027702,3.5115399700521546,0,0,1.445617,0.6832729999999999,-0.27755700000000005,-1.547635,-3.719295,1.90902
163,0.9899508239025944,3.2841589041453214,0,0,0.674271,0.7087249999999999,0.06806999999999991,-1.175522,-3.0721130000000003,1.181195
164,0.8243260324306313,3.0241320450971694,0,0,0.007568000000000019,0.5738979999999999,-0.12118499999999999,-1.0559120000000002,-2.604847,0.909035
165,0.6669262400658417,2.763093001387332,0,0,-0.07399,0.358841,-0.10192799999999996,-1.185814,-1.725138,0.541668
166,0.533034590610634,2.529126571107189,0,0,-0.12037700000000007,0.14628600000000003,-0.07804899999999998,-1.142715,-0.582862,0.163423
167,0.43553493388100883,2.342911032915721,0,0,-0.03163199999999999,0.17457599999999995,-0.12307800000000008,-1.093518,0.451007,-0.017019
168,0.383356234632565,2.215231691476487,0,0,0.08926400000000007,0.14045700000000005,-0.105682,-1.001155,0.913611,-0.16545
169,0.38051137748133923,2.146302756810497,0,0,0.12394700000000014,0.14744599999999997,-0.0681,-1.024883,1.109642,-0.149843
170,0.4258321793036559,2.1269609384678594,0,0,0.14953600000000006,0.17297399999999996,-0.05230699999999999,-1.459751,1.74473,-0.085329
171,0.5133960639244637,2.14138974320248,0,0,0.21076999999999996,0.3537599999999999,-0.14242499999999997,-1.728036,2.529818,-0.379833
172,0.6335471256304448,2.1707071740421533,0,0,0.3475339999999999,0.511063,-0.19285600000000003,-1.399561,2.949238,-1.121559
173,0.7743360671574532,2.1965950295306236,0,0,0.4478,0.5819399999999999,-0.1642919999999999,-0.8277260000000001,2.795186,-1.985831
174,0.9231435966670742,2.2042191148061354,0,0,0.9204249999999999,1.088211,-0.287414,-0.663554,1.264235,-1.824626
175,1.0682205536112617,2.1839673815006098,0,0,1.113647,1.0866699999999998,-0.3302149999999999,-1.099224,-0.777836,-0.930951
176,1.1998919801898555,2.1319092938086426,0,0,1.3823850000000002,0.738572,-0.568939,-2.053379,-1.3673959999999998,-0.255334
177,1.3112483250397726,2.0492049234372667,0,0,1.065735,0.339935,-0.375473,-1.579198,-0.8349280000000001,0.174584
178,1.398280808406742,1.9408712125644862,0,0,0.770508,0.4856109999999999,-0.16948000000000002,-0.492399,0.310777,0.696659
179,1.4595655988645237,1.8143478896530782,0,0,0.8068240000000001,0.8888699999999999,-0.083832,0.117093,0.803246,0.88936
180,1.4956959387778603,1.678236734779777,0,0,0.738464,1.047699,0.288987,0.752386,1.349692,0.61536
181,1.5086628079697406,1.5414370773243413,0,0,0.553283,1.2905579999999999,0.6502380000000001,0.228038,1.922507,0.347112
182,1.5013119244834612,1.4127033328476348,0,0,0.290298,1.499282,0.7429810000000001,-0.718344,0.8091649999999999,0.666668
183,1.4769149683249256,1.3004832571669818,0,0,0.615524,1.3370360000000001,0.225296,0.005137,-1.3662459999999998,0.60187
184,1.438835468394848,1.2128196125372221,0,0,1.3381349999999999,0.795487,-0.8202820000000001,1.790978,-1.278135,0.728531
185,1.3902613503257677,1.1571145124693671,0,0,1.047348,0.358521,-0.41940299999999997,0.7378899999999999,0.247238,0.601716
186,1.3340041947530918,1.139639621281412,0,0,0.483368,0.36322000000000004,0.763748,-0.603598,0.8537459999999999,0.341605
187,1.2724008133735873,1.1648036131335553,0,0,0.616302,0.544449,0.5550379999999999,-0.479418,0.6681239999999999,0.299981
188,1.207361525208929,1.2343186739677785,0,0,1.083207,0.7155,-0.208451,-0.775479,0.892222,-0.073047
189,1.1405717557145658,1.3464842080189907,0,0,1.0531769999999998,0.6648409999999999,-0.307114,-1.069786,0.5157729999999999,-0.248741
190,1.0737856521846512,1.4958067043951313,0,0,1.132126,0.753891,0.070129,-0.598271,-0.179587,-0.457132
191,1.0090968840573658,1.673120966936205,0,0,0.911362,0.6717830000000001,-0.231766,-0.138617,-1.607626,-0.180763
192,0.949067874944261,1.8662921848012115,0,0,0.838028,0.599029,-0.35284399999999994,-0.075182,-2.127927,0.1418819999999999
193,0.8966449174610789,2.0614718765423965,0,0,0.66948,0.504196,-0.12292499999999999,0.509882,-1.616176,0.329047
194,0.8548572039352669,2.2447752646718637,0,0,0.5166930000000001,0.5361630000000001,-0.383972,1.127166,-1.255962,0.555087
195,0.8263632319202587,2.4041662277057947,0,0,0.506912,0.579681,-0.4134979999999999,1.588574,-1.766172,0.407276
196,0.8129505312132377,2.531271556657318,0,0,0.43170200000000003,0.4262699999999999,0.03282199999999991,1.535196,-2.524307,0.368351
197,0.815111067289006,2.6227809138145464,0,0,0.395355,0.340164,0.06970199999999999,1.328192,-3.315746,0.532425
198,0.8318073134747598,2.681048262630199,0,0,0.506225,0.3588410000000001,-0.003936999999999913,0.8300129999999999,-3.777295,0.768818
199,0.8605104892209823,2.713564594151085,0,0,0.579894,0.493378,0.17231799999999997,0.500125,-3.808285,0.5465
200,0.8975307671604953,2.731175867426409,0,0,0.517578,0.7115779999999999,0.12347400000000003,0.6576960000000001,-2.978904,0.261323
201,0.9385813777367032,2.745262713874279,0,0,0.5585019999999999,1.093292,-0.20384199999999997,0.628599,-1.796807,-0.155934
202,0.9794513928834783,2.7644864385371237,0,0,0.649597,1.120147,-0.2529449999999999,-0.101883,-0.317705,-0.180023
203,1.016633475748566,2.791982503344658,0,0,0.733078,0.7878109999999999,-0.199204,-0.6245890000000001,0.727763,-0.1016919999999999
204,1.0477767976036858,2.8238878538022796,0,0,0.6490790000000001,0.589996,-0.368866,-1.397451,1.129731,-0.320182
205,1.071900348052006,2.8497570049546805,0,0,0.5246430000000001,0.6379250000000001,-0.596862,-2.326363,1.424826,-0.583422
206,1.0893738120345589,2.8548541920049284,0,0,0.5664210000000001,0.615661,-0.6516869999999999,-2.971305,2.3905990000000004,-0.449227
207,1.1017183780722017,2.823731680984428,0,0,0.531662,0.57811,-0.743073,-3.08838,3.181378,-0.433967
208,1.1112896422611471,2.744141613069131,0,0,0.660553,0.444459,-0.6975709999999999,-2.253125,3.261021,-0.561763
209,1.1208932085273868,2.610293870182655,0,0,0.806458,0.4402769999999999,-0.459259,-1.291841,2.6893279999999997,-0.4197189999999999
210,1.1333661032807418,2.4247366743982717,0,0,0.951813,0.808029,-0.12382499999999999,-0.130828,2.630445,-0.28762
211,1.151140563432492,2.198560786416678,0,0,0.874802,1.268616,0.048691,0.58853,2.577482,0.0785309999999999
212,1.1757986643179938,1.950044393136247,0,0,0.688232,1.283341,0.021057000000000006,0.573501,0.885185,0.7834399999999999
213,1.2076424311591816,1.7021564868419818,0,0,0.365433,0.683288,-0.296799,0.2953699999999999,-0.042452,0.969625
214,1.2453526288852277,1.479492294422687,0,0,0.30358900000000005,0.49990899999999994,-0.286621,-0.439509,0.545632,0.794959
215,1.2858634737001213,1.3052281240434587,0,0,0.32972700000000005,0.47116099999999994,0.3208010000000001,-0.310861,0.4331649999999999,0.30462
216,1.324582583151667,1.1985688493187048,0,0,0.5932310000000001,1.01474,0.28390499999999996,-0.580388,-0.306969,-0.052032
217,1.355997597483658,1.1729577145203682,0,0,1.45578,1.243866,0.0063479999999999995,0.821103,-1.064118,-0.0006799999999999
218,1.3745629196330857,1.2350860255680358,0,0,2.370941,0.8034060000000001,-0.19819599999999987,2.158833,1.615006,1.778479
219,1.3756427711851102,1.3845549757931692,0,0,1.075821,0.782989,-0.254029,0.271995,0.3553739999999999,0.870675
220,1.3562862661577184,1.6139853179697015,0,0,0.23198000000000002,0.473648,0.46716299999999994,-1.564616,0.168943,0.068669
221,1.3157277043232372,1.9094722505289154,0,0,0.21945199999999998,0.397155,0.2430420000000001,-1.363518,-0.555736,-0.298602
222,1.255639172252245,2.2514580421636476,0,0,1.0966489999999998,0.9058539999999999,-0.130142,-0.11734,-0.100087,-1.039305
223,1.1801967178681898,2.6161964603875547,0,0,1.5338289999999999,1.125213,-0.36885,0.4438899999999999,-0.152595,-0.383702
224,1.0959440639258973,2.9779110830211133,0,0,1.475739,0.583236,-0.082748,0.5489729999999999,-2.80505,1.366974
225,1.011352919040368,3.311493780924256,0,0,1.118088,0.5838320000000001,0.10975699999999991,1.525303,-4.80935,1.7149880000000002
226,0.9359929080206819,3.5952447003845895,0,0,0.34440599999999993,0.5697329999999999,-0.1431429999999999,1.717024,-6.689527,1.806331
227,0.8793424851475481,3.812938203872494,0,0,0.007569000000000048,0.630874,-0.005935999999999997,1.019588,-4.328355999999999,1.48224
228,0.8494121089569457,3.9546415291748374,0,0,-0.3202059999999999,0.547043,0.47911099999999995,0.746458,-1.798446,0.68447
229,0.8514308907721949,4.01622520729778,0,0,-0.7824400000000001,0.15643400000000007,-0.369629,0.646762,-2.68457,-0.339516
230,0.8868491717009541,3.998088142279463,0,0,-0.221252,0.07089199999999996,0.2833250000000001,0.443059,-0.198549,-1.6761970000000002
231,0.9528625165472573,3.9038944644919273,0,0,0.139679,0.39582799999999996,-0.17715499999999998,1.094773,2.309246,-1.742157
232,1.0425929709247432,3.739933281281875,0,0,0.315521,0.4904640000000001,-0.33168,0.0889139999999999,3.966493,-1.322949
233,1.1459649529706946,3.5152190879637417,0,0,0.5780639999999999,0.582825,-0.327255,-1.199849,4.673278,-0.866044
234,1.251175348340955,3.2419438555512055,0,0,1.4115760000000002,0.857452,0.1563110000000001,-2.759911,4.465084,-1.261234
235,1.346503149051955,2.935629651618563,0,0,1.619522,1.389373,-0.210022,-1.58664,3.750082,-1.428379
236,1.4220909606582406,2.614434447106054,0,0,1.254548,1.4750359999999998,-0.874908,0.317195,1.8098490000000005,-0.8571190000000001
237,1.4713197471542652,2.297472511368814,0,0,0.982788,0.9168699999999999,-0.977661,0.5283260000000001,-0.293865,-0.559188
238,1.4915114880872193,2.0025022227623084,0,0,0.8426819999999999,0.6753689999999999,-0.693725,-0.569369,-0.766949,-0.1154589999999999
239,1.4838883510286776,1.743642389776391,0,0,0.9426570000000001,0.7239990000000001,-0.07220499999999999,-1.062596,0.310957,0.083745
240,1.4529019185139675,1.5297632998305914,0,0,1.1296840000000001,1.0725250000000002,0.355011,0.343865,1.645845,0.171975
241,1.4051504113855755,1.363929270015799,0,0,0.71312,1.321396,0.5541689999999999,0.448471,1.098267,0.08795
242,1.3481220020517495,1.2439344894479094,0,0,0.09741299999999997,0.961624,0.40583800000000014,-0.7458140000000001,0.156373,0.903345
243,1.2889850409337196,1.1637226542666135,0,0,0.3520360000000001,0.5529930000000001,0.10472100000000001,-0.935453,-0.386698,1.012743
244,1.233623702278493,1.115348370760323,0,0,0.577118,0.25628700000000004,-0.5468899999999999,-0.2641219999999999,0.328955,0.484541
245,1.1860729618073151,1.0910862852182361,0,0,0.99353,0.43203699999999995,-0.32342499999999996,1.288264,1.395751,0.3572849999999999
246,1.1484105699220692,1.0852828598412683,0,0,1.0637819999999998,0.8743750000000001,0.285569,0.917671,1.783636,0.114918
247,1.1210315417744392,1.0955739017635124,0,0,1.343949,1.082428,0.37703000000000003,0.23358,1.6044969999999998,0.218259
248,1.103125353325925,1.123189429150713,0,0,1.209259,0.5439609999999999,-0.001999000000000098,0.411488,-0.791963,0.493901
249,1.0931556524000432,1.172253388944924,0,0,0.979797,0.27951000000000004,-0.31193499999999996,0.264706,-1.778302,0.594553
250,1.089213011579982,1.2482202551886903,0,0,0.672791,0.307144,-0.195511,0.282084,-1.003882,0.588341
251,1.0892219588952885,1.3558056363159565,0,0,0.668274,0.5333100000000001,0.0998990000000001,0.338127,-0.147887,0.129368
252,1.0910636814381576,1.4969178771147236,0,0,0.8872829999999999,0.7083590000000002,0.09028600000000009,0.465826,0.182083,-0.181015
253,1.092687264982872,1.6691490787450178,0,0,0.9876860000000001,0.637955,0.04893499999999999,0.4931029999999999,0.076645,0.055388
254,1.0922416308645915,1.865293058462539,0,0,1.090119,0.481049,-0.3366399999999999,0.816064,-0.766641,0.471058
255,1.088214349208893,2.074108177659272,0,0,0.897018,0.586227,-0.41806,0.802977,-1.867625,0.6208600000000001
256,1.0795471870906064,2.2821926708517153,0,0,0.709137,0.684754,-0.1250920000000001,1.038326,-2.769295,0.5285880000000001
257,1.0657132795860473,2.4765052644547145,0,0,0.518418,0.6852110000000001,0.04565400000000003,1.460956,-2.757903,0.510161
258,1.0467644124239703,2.646860241390701,0,0,0.569946,0.774871,-0.012604000000000004,1.610003,-3.205277,0.37077
259,1.0233636898058374,2.7877161139936812,0,0,0.679001,0.859696,-0.11268600000000001,1.6919099999999998,-3.5600449999999997,0.307703
260,0.9968001616609974,2.8987529028206436,0,0,0.9381109999999999,0.8655389999999998,-0.283172,0.674195,-3.588254,0.252561
261,0.9689536959473997,2.984042396069197,0,0,0.8542179999999999,0.68428,0.15596,-0.6411979999999999,-3.3854269999999995,-0.0453089999999999
262,0.9421694348879219,3.049993216163543,0,0,0.694595,0.5117799999999999,0.159775,-0.462885,-2.434634,-0.075192
263,0.9190270870815131,3.1026197893510177,0,0,0.39349399999999995,0.5263520000000002,-0.06178299999999992,-0.449219,-1.117638,0.100503
264,0.9020354981282486,3.144937345670017,0,0,0.3038490000000001,0.768555,-0.36128199999999994,-0.863734,0.646877,0.088937
265,0.8933137356003936,3.175309172563916,0,0,0.275329,0.874603,-0.559753,-1.973054,1.379312,-0.428224
266,0.8943186333181321,3.187305780322788,0,0,0.500824,0.5077510000000001,-0.478012,-2.50687,2.029733,-0.648567
267,0.9056598611934116,3.1711465883139995,0,0,0.413834,0.3758389999999999,-0.46350099999999994,-2.197838,2.974422,-0.331425
268,0.9270305475006687,3.1162781084298046,0,0,0.430176,0.37322999999999995,-0.42335599999999995,-1.599916,3.760867,-0.1188849999999999
269,0.9572745282249587,3.0143032105393375,0,0,0.45931999999999995,0.395416,-0.4039459999999999,-1.241588,4.287545,-0.270881
270,0.9945898883655705,2.861412305091386,0,0,0.834641,0.834564,-0.4450829999999999,-1.326026,4.170882,-0.592856
271,1.0368231990230599,2.659665630889066,0,0,0.95668,0.9854590000000001,-0.40553300000000003,-1.228166,2.802022,-0.948273
272,1.0817623111250876,2.41686388775587,0,0,0.9946129999999999,1.082123,-0.480103,-0.5352779999999999,0.5616800000000001,-0.201353
273,1.1273288776132993,2.1452002534765224,0,0,0.8327180000000001,0.375306,-0.0641479999999998,0.198187,0.7275560000000001,0.570542
274,1.1716266896556824,1.85923357811743,0,0,0.638291,0.37606900000000004,0.053833000000000006,0.562231,1.543256,0.8625950000000001
275,1.2128902986408798,1.5738112923117453,0,0,0.49432300000000007,0.45687800000000006,0.132416,0.40835,1.958937,0.142075
276,1.2494349582072368,1.3024115285486122,0,0,0.37776199999999993,1.4335939999999998,0.317367,0.209301,0.747638,-0.463445
277,1.2796874929001147,1.0561327302075192,0,0,0.374359,1.458343,0.273438,-0.0485569999999999,-0.061126,0.080583
278,1.3022981702378869,0.8433810633531639,0,0,0.560074,1.277465,0.2658539999999999,0.278423,-0.529379,0.2127219999999999
279,1.3162640719917347,0.6701898159103686,0,0,1.317032,0.609375,0.110367,0.094819,0.516992,0.5700890000000001
280,1.32098490611837,0.5409790502882043,0,0,1.398087,0.520798,-0.207916,0.517968,1.100725,1.011336
281,1.316217455632605,0.45942854446441783,0,0,0.9006959999999999,0.590042,0.064377,0.698682,0.7016359999999999,0.7578050000000001
282,1.3019577731810317,0.42907840355159405,0,0,0.4911960000000001,0.743287,0.474579,0.074311,0.773288,0.164762
283,1.2783259858791345,0.45335896406138626,0,0,0.66098,0.7872319999999999,0.11590599999999991,-0.2421559999999999,0.343023,-0.119976
284,1.2455337944837805,0.5349604875972752,0,0,1.0857999999999999,0.7431030000000001,-0.22323599999999988,-0.08888,-0.262489,-0.409754
285,1.2039735826410667,0.6746869101023825,0,0,1.1759490000000001,0.7201989999999999,0.11665400000000001,-0.2321619999999999,0.01549,-0.537162
286,1.1544032764481442,0.8701068473046764,0,0,1.093888,0.662094,0.217286,-0.40184,-0.2352,-0.303017
287,1.0981530857819592,1.1143886723506828,0,0,0.960785,0.39330999999999994,-0.022307999999999998,-0.148111,-0.583932,0.106195
288,1.0372737847845186,1.3956984444861797,0,0,0.8829799999999999,0.554336,-0.311417,0.203448,-0.755263,0.2894
289,0.9745725184049732,1.6974653475853487,0,0,0.850738,0.634537,-0.288315,0.581067,-0.629417,0.1925319999999999
290,0.9135161001358932,1.999680500867104,0,0,0.732087,0.5354460000000002,0.033721999999999995,0.99588,-0.606638,0.263766
291,0.8580089266864293,2.2811901324115187,0,0,0.622895,0.38978599999999997,-0.015793,1.423726,-0.956737,0.8632709999999999
292,0.8120728099534161,2.5226851969108846,0,0,0.559586,0.38473500000000005,-0.2489769999999999,1.282747,-2.534173,1.4582389999999998
293,0.779468328641385,2.709820411756823,0,0,0.804092,0.49467400000000006,-0.392914,1.020835,-4.18506,1.346362
294,0.7632977903573724,2.835706752489981,0,0,0.611511,0.440857,0.22361800000000004,1.377706,-4.0789919999999995,0.6201909999999999
295,0.7656243512254177,2.9020279579057457,0,0,0.349319,0.4602050000000001,0.34851,0.592596,-4.675625,-0.010506
296,0.7871439644716138,2.918304597419793,0,0,0.397614,0.525971,0.18490600000000001,0.645007,-3.607801999999999,-0.159991
297,0.8269583783887229,2.8993316784622474,0,0,0.440323,0.663605,0.1436460000000001,0.596766,-1.374457,-0.249716
298,0.8825036931232206,2.861396110778555,0,0,0.37861600000000006,0.722122,0.05215399999999992,0.220737,0.1375839999999999,-0.293804
299,0.9496785264874494,2.8183168955324946,0,0,0.41041500000000003,0.7230219999999999,-0.082733,-0.518626,0.966339,-0.178254
300,1.0231919197420505,2.7784393298408268,0,0,0.4776309999999999,0.68129,-0.269196,-1.528952,0.992035,-0.4000559999999999
301,1.0971207594861965,2.743392111827144,0,0,0.653778,0.604813,-0.26228399999999996,-1.813749,1.215781,-0.429038
302,1.165629478661321,2.708823144717122,0,0,0.890824,0.587342,-0.30422899999999997,-1.721799,2.295305,-0.342185
303,1.2237586841864592,2.6667140265262006,0,0,1.015793,1.0487980000000001,-0.286545,-2.100767,3.556022,-0.936106
304,1.2681415159530607,2.60843885025888,0,0,1.1123809999999998,1.286759,-0.476944,-1.885921,4.7891449999999995,-0.739632
305,1.29748009833369,2.527591442547149,0,0,1.000092,1.2022089999999999,-0.9813989999999999,-1.6593779999999998,2.86076,-0.6105970000000001
306,1.3126402070407268,2.4217950543774283,0,0,0.70279,0.6629789999999999,-0.9851219999999998,-1.335764,-0.979987,-0.2519699999999999
307,1.3163148842034558,2.29316020247232,0,0,0.913864,0.14697300000000002,-0.36261,-0.289917,-0.850511,0.294622
308,1.3123413005958837,2.147555115636285,0,0,0.8141179999999999,0.12994400000000006,0.148498,1.037552,1.932229,0.415696
309,1.3048667378036798,1.9931511845070893,0,0,0.513626,0.639664,0.341903,0.71678,2.174296,0.099088
310,1.297588879835598,1.8387220728521416,0,0,0.41357400000000016,1.113037,0.3352050000000001,0.125885,1.955912,0.079217
311,1.2932296312412765,1.6920403528526655,0,0,0.60292,1.464661,-0.10682699999999991,-0.935553,0.669006,-0.052598
312,1.293284253052079,1.558600190378465,0,0,0.8016049999999999,1.3145449999999999,-0.254318,-0.865072,-0.583789,-0.372035
313,1.2979879944585924,1.4408430321590553,0,0,0.872009,1.000442,0.052413999999999995,1.043495,-0.4280609999999999,0.054499
314,1.3064085509739545,1.3380123951306773,0,0,0.9524849999999998,0.89122,0.413955,1.464171,0.439513,0.378895
315,1.3166034517148115,1.2466660033390415,0,0,0.635101,0.7679900000000002,0.83702,-0.311936,0.456634,0.567293
316,1.325838138829254,1.1617499067847925,0,0,0.5681160000000001,0.350036,0.304809,0.3397409999999999,-0.14377,0.964652
317,1.3308999022274697,1.0780325579562644,0,0,0.855377,0.17018099999999992,-0.657563,1.02274,0.7162970000000001,1.074075
318,1.3285370157491156,0.9916240908538354,0,0,1.1735989999999998,0.986389,0.142197,0.994015,1.238047,0.62562
319,1.3159962334888455,0.9012767639644639,0,0,1.293335,1.100968,0.356796,0.509367,1.06844,0.038135
320,1.2915551777232543,0.8092029105975016,0,0,1.334823,1.0765679999999997,0.320847,0.248842,0.389278,-0.123048
321,1.2549063290542501,0.7212637087911975,0,0,0.9121400000000001,0.623353,0.17115799999999998,-0.281099,0.354145,-0.467467
322,1.2072839492509002,0.6465240834370176,0,0,0.858368,0.641114,0.2158810000000001,-0.265846,0.28647,-0.606143
323,1.1513135236033685,0.5962647920075012,0,0,0.876984,0.6608890000000001,0.11953799999999999,-0.371866,0.432792,-0.6092069999999999
324,1.0906462585498724,0.5825733590678908,0,0,0.874512,0.516495,0.105118,-0.571739,0.371623,-0.590229
325,1.0294774583620367,0.616642951828246,0,0,0.8715520000000001,0.50615,0.06625400000000001,-0.452084,0.234593,-0.5251239999999999
326,0.9720402302671761,0.70693994057926,0,0,0.748459,0.5106660000000001,-0.047286999999999996,-0.284779,0.35373,-0.36067
327,0.9221405749245799,0.8574641076891226,0,0,0.6640779999999998,0.552292,0.026520000000000002,-0.089871,0.256314,-0.144471
328,0.8827742231277295,1.0663863692420488,0,0,0.692596,0.6108859999999999,-0.039063,0.389551,-0.107539,0.121058
329,0.8558438373253586,1.3253581876916924,0,0,0.707962,0.586044,-0.366882,0.893893,-0.6927810000000001,0.317611
330,0.8419795160313283,1.6197142801949533,0,0,0.741852,0.49916000000000005,-0.376328,1.204106,-1.331527,0.2105699999999999
331,0.8404623350464681,1.9296519625176545,0,0,0.593399,0.43923900000000005,0.12681599999999998,1.094899,-0.990174,-0.076914
332,0.8492642424774913,2.23231997267635,0,0,0.448532,0.37138400000000005,0.23054499999999997,0.580137,-1.296434,-0.032047
333,0.8652386816376413,2.5046227904585763,0,0,0.400208,0.21185299999999996,0.24128799999999997,0.4102409999999999,-1.627844,0.408366
334,0.8845010602773408,2.7264208648449744,0,0,0.560242,0.35026500000000005,-0.130249,0.898041,-2.973921,0.676281
335,0.9030045861745448,2.883644433946466,0,0,0.723785,0.576858,-0.314835,0.862066,-4.479279,1.004835
336,0.9172456340040932,2.970675434184316,0,0,0.871491,0.9382169999999999,0.04669200000000001,0.46879,-4.9716510000000005,1.133042
337,0.9249540621974863,2.9913219196963774,0,0,0.862884,1.01828,0.30363499999999993,0.3880619999999999,-4.268044000000001,0.805769
338,0.9255833558130454,2.9579429291701307,0,0,0.692916,1.0028380000000001,0.00985699999999995,0.584897,-2.729503,0.564823
339,0.9204452639491161,2.888770267043138,0,0,0.45393300000000003,0.8585809999999999,-0.46138,0.185854,-1.83426,0.275673
340,0.912429934454185,2.8040351384892612,0,0,0.43319699999999994,0.666946,-0.213394,-0.382749,-1.303128,0.079809
341,0.9053774170962219,2.7218949270646364,0,0,0.36076299999999994,0.4141849999999999,-0.07789599999999991,-0.818253,-0.296519,-0.055914
342,0.9032699702728436,2.6552079234038066,0,0,0.407516,0.42102100000000003,-0.201127,-0.964808,0.707757,-0.3915099999999999
343,0.9094591014757814,2.60991483668741,0,0,0.37696900000000005,0.4669040000000001,-0.31292700000000007,-0.990162,1.852347,-0.4903619999999999
344,0.9261148332999489,2.585270034448169,0,0,0.411651,0.455154,-0.38292,-1.374013,2.676788,-0.669288
345,0.954003087874012,2.5755975221560563,0,0,0.549195,0.538681,-0.361221,-1.802502,3.516281,-1.11026
346,0.9925920424992495,2.5728131852212806,0,0,0.750869,0.667267,-0.418701,-1.990525,3.80805,-1.716561
347,1.0403909965547757,2.5688044129488286,0,0,1.132843,0.9492039999999999,-0.6167449999999998,-2.269714,2.911195,-1.501581
348,1.0953615264145862,2.556947689556959,0,0,1.199753,0.682663,-0.468659,-1.927587,0.499564,-0.5058590000000001
349,1.1552342572602092,2.5324979255989537,0,0,1.159683,0.4217069999999999,-0.3750459999999999,-0.7786770000000001,-0.737507,0.433105
350,1.2176269644077689,2.492093788210727,0,0,0.9774320000000001,0.348892,-0.38485800000000003,-0.131003,0.1281,1.051815
351,1.2799693568028654,2.432943187661868,0,0,0.5575709999999999,0.528473,0.040694999999999995,-0.253898,2.00556,1.31347
352,1.339342690625453,2.3522490101078612,0,0,0.45489500000000005,1.0237269999999998,0.388855,-0.345651,2.724367,0.126182
353,1.3923851937866059,2.247182232026997,0,0,0.318573,1.375244,0.402695,-0.452892,1.976457,-0.025296
354,1.4353827485862147,2.115412676074977,0,0,0.2452390000000001,1.198822,-0.14668299999999998,0.372087,-2.0975029999999997,-0.121136
355,1.464588776219814,1.9560215108976742,0,0,0.2452390000000001,1.1988219999999998,-0.146682,1.627568,-0.998341,-0.6254529999999999
356,1.476739177189967,1.7705566166334512,0,0,0.9865570000000001,0.743057,0.23474099999999992,0.8262510000000001,1.731961,-0.729621
357,1.469662696677602,1.5639883301437763,0,0,1.7424620000000002,1.157913,0.227447,0.785513,0.935658,-0.29305
358,1.4428317397002193,1.3453369942968332,0,0,2.318115,0.684952,-0.146744,1.561304,1.566747,0.786191
359,1.3976739202339536,1.127773756850006,0,0,1.167633,0.3028410000000001,0.183639,-0.0280319999999999,1.073044,0.685992
360,1.3375130654815777,0.9280555102334465,0,0,0.628937,0.581467,0.570374,-0.8808790000000001,-0.15479,0.253251
361,1.2671332458854185,0.7652527145658683,0,0,0.6923369999999999,0.639206,0.339783,-0.329778,-0.505033,0.2500719999999999
362,1.1920911275740795,0.6588494994931227,0,0,0.8903810000000001,0.709397,-0.2141869999999999,0.022018,-0.8693649999999999,-0.052516
363,1.1179601493739348,0.6263991679631735,0,0,0.799057,0.696014,-0.343216,-0.6963550000000001,-0.772977,-0.356759
364,1.0496632400174268,0.6809845136250626,0,0,0.67337,0.557465,0.10607899999999999,-0.687094,-0.389448,-0.372141
365,0.9909879618420963,0.8287855237066389,0,0,0.7122350000000001,0.503754,0.006623,-0.302831,-0.0512049999999999,-0.310098
366,0.94432164416843,1.0671248684602932,0,0,0.851929,0.509155,-0.29640099999999997,0.054525,0.053608,-0.1913
367,0.9106016933323067,1.383420916823584,0,0,0.884063,0.49498,-0.275574,0.288146,-0.035182,-0.034662
368,0.8894440537546674,1.7554589714750797,0,0,0.810516,0.43556200000000006,-0.052139,0.6244529999999999,-0.241755,0.183732
369,0.879396576389272,2.1532336880281373,0,0,0.698853,0.31085200000000013,-0.011047000000000098,0.8290569999999999,-0.867174,0.564114
370,0.8782687688670534,2.54231740561548,0,0,0.673447,0.23133800000000004,-0.395905,0.874207,-2.509648,0.745995
371,0.8835040522590587,2.8883349290609046,0,0,0.8056180000000001,0.38034,-0.31832899999999986,1.145313,-3.66431,0.753642
372,0.8925672900006049,3.1617860343887805,0,0,0.712707,0.484375,-0.07942200000000009,0.814049,-4.049837,0.48263
373,0.9033138616608988,3.3422734359799597,0,0,0.5135810000000001,0.686081,0.3293300000000001,-0.445009,-4.967265,0.298754
374,0.914296400012004,3.4212456385407157,0,0,0.650818,0.73912,0.23695299999999997,-0.285715,-4.753204,0.441666
375,0.9249614135467259,3.402652773625244,0,0,0.6712030000000001,0.753769,0.02993800000000002,-0.254339,-3.804713,0.581675
376,0.9356938455040917,3.3013690836883605,0,0,0.6519010000000001,0.7901,-0.2505190000000001,-0.303665,-3.143133,0.34761
377,0.9476844640508842,3.139741770108149,0,0,0.619324,0.8247530000000001,-0.262375,-0.546769,-2.522859,0.221203
378,0.9626238510084391,2.943048012234691,0,0,0.638367,0.7631679999999998,-0.19305399999999998,-0.8714379999999999,-1.546234,0.5605829999999999
379,0.9822653182531424,2.7348709806998017,0,0,0.6492,0.652069,-0.1494140000000001,-0.84029,-0.136737,0.4991739999999999
380,1.007939892785797,2.5333930477582247,0,0,0.42848200000000014,0.670975,-0.16656500000000002,-0.959588,0.733438,0.375449
381,1.0401374136656814,2.3493579780922813,0,0,0.28952,0.714111,-0.13160699999999997,-1.2528290000000002,0.955172,0.323978
382,1.0782740189870155,2.1860252291299624,0,0,0.20591700000000007,0.7086340000000001,-0.18362399999999998,-1.601442,1.1846219999999998,0.256087
383,1.1207360628492695,2.040928676653339,0,0,0.24641399999999997,0.768829,-0.414002,-1.716559,2.173537,0.271108
384,1.16522216112599,1.9087958541776613,0,0,0.43196099999999993,0.8230740000000001,-0.7857210000000001,-2.240205,3.006813,-0.130996
385,1.2093119787208537,1.7847144645078545,0,0,0.7817080000000001,0.6615599999999999,-0.873031,-2.331845,2.66537,-0.977231
386,1.2511003748109968,1.666639950352999,0,0,1.400452,0.821991,-0.8885200000000001,-1.116826,0.878108,-1.298671
387,1.2896840320005456,1.5566300869742842,0,0,1.587418,0.9300689999999999,-0.731522,0.058017,-0.665063,-0.02478
388,1.3253067072447628,1.460655353033475,0,0,1.310928,0.511627,-0.9335019999999998,0.21315,-0.671145,0.827684
389,1.3590727724047549,1.3872561738016025,0,0,0.681595,0.49356,-0.300125,0.55456,0.412863,1.4407709999999998
390,1.3923026947408519,1.3455330794134488,0,0,0.417496,0.6007080000000001,0.139557,0.887375,0.075212,0.876302
391,1.4257576430064398,1.3429632061028716,0,0,0.3753510000000001,0.776993,0.317932,0.592445,0.131397,-0.395946
392,1.4590195230669496,1.383454013172352,0,0,0.18087800000000004,1.311951,0.446411,0.140318,1.7238099999999998,-0.758999
393,1.4902443801879557,1.465963068269159,0,0,0.06434600000000001,1.403076,0.12127699999999991,-0.33942,0.178776,-0.247623
394,1.5163567770555313,1.5839392064433475,0,0,0.94963,1.213044,0.4379730000000001,0.212956,-0.3239599999999999,-0.212142
395,1.5336023361669138,1.7257416984071805,0,0,1.489502,1.063888,0.4949030000000001,0.3110219999999999,1.15942,0.10604
396,1.5382825882430609,1.8760322293178944,0,0,1.8180999999999998,0.18472299999999997,0.1325070000000001,2.105915,0.233888,1.962447
397,1.5274758811073432,2.017906716218484,0,0,1.44368,0.278473,-0.3706659999999999,1.680652,1.7022400000000002,1.432029
398,1.4995890664434195,2.1353216230244714,0,0,1.214706,0.610275,-0.1903539999999999,-2.6179490000000003,1.542415,-0.158464
399,1.4546586310819647,2.215299347612862,0,0,1.4296570000000002,0.6463470000000001,0.2715459999999999,-1.969667,-0.221744,-0.171971
400,1.3943895201427612,2.2495173884118316,0,0,1.4296570000000002,0.646347,0.2715450000000001,-1.2881790000000002,-1.141996,-0.798419
401,1.3219632472746787,2.2351104367858468,0,0,1.016449,0.7760009999999999,-0.0777589999999999,-2.544195,-0.717843,-0.552431
402,1.241672119575198,2.1747091102603857,0,0,0.674392,0.7278600000000001,0.146011,-2.089863,-0.5488529999999999,-0.582589
403,1.15845878879431,2.0758402775901295,0,0,0.6102759999999999,0.734329,0.140091,-1.642481,-0.365584,-0.714295
404,1.0774536084157047,1.9498508811570534,0,0,0.5849300000000002,0.736435,0.120606,-1.650263,-0.296981,-0.813782
405,1.0035870527648334,1.8105353949547254,0,0,0.728211,0.8047179999999999,0.028443,-1.492857,0.051946,-0.829153
406,0.9413086379045761,1.6726514526738787,0,0,0.7812039999999999,0.749054,-0.099671,-1.313586,0.082123,-0.805506
407,0.894391222069652,1.550486177547642,0,0,0.819077,0.589172,-0.180984,-1.2547549999999998,0.044919,-0.876619
408,0.8657699409318556,1.4565934008391648,0,0,0.7806540000000001,0.517655,-0.150452,-1.316897,0.017315,-0.846039
409,0.857371349141097,1.4007785152532481,0,0,0.723999,0.43775900000000006,0.0034490000000000076,-1.313703,-0.060046,-0.6835479999999999
410,0.8699214525158242,1.3893785660405877,0,0,0.7291110000000001,0.37651000000000007,0.0812530000000001,-1.134074,-0.078249,-0.54981
411,0.9027603455173471,1.4248759160889664,0,0,0.7573699999999999,0.3299859999999999,-0.042449999999999904,-1.005657,-0.392185,-0.474803
412,0.9537176572731072,1.505885315589537,0,0,0.7709050000000001,0.3171539999999998,-0.10928299999999999,-0.932029,-0.812368,-0.422476
413,1.0191083512793866,1.627544247638277,0,0,0.7821199999999999,0.32890299999999995,-0.167054,-0.678628,-1.208187,-0.225782
414,1.0938927683596502,1.7822963658579067,0,0,0.9017789999999999,0.6069040000000001,0.018508999999999998,-0.281043,-1.58633,-0.045196
415,1.172013155599208,1.960987873167476,0,0,0.952347,0.6885380000000001,0.026794000000000012,0.273973,-1.970744,0.234775
416,1.2468801576639514,2.1541142523537027,0,0,1.077865,0.822724,0.10022,0.960242,-2.350285,0.514563
417,1.3119495509414922,2.352986569534609,0,0,1.072678,0.866974,0.049912,1.355379,-2.526158,0.730125
418,1.3613137045595016,2.550565350950608,0,0,1.068832,0.8795469999999999,0.017379,1.372178,-2.690805,0.863981
419,1.3902375059113457,2.741765439958588,0,0,1.018036,0.953353,0.226776,0.773532,-2.731384,0.608819
420,1.3955880617423013,2.923171417475942,0,0,0.9616390000000001,0.908768,0.315842,0.2357199999999999,-2.623613,0.498102
421,1.376129551810349,3.0922821149476647,0,0,1.050811,0.766113,0.314728,-0.392263,-2.97522,0.526213
422,1.3326697746610285,3.246558334751707,0,0,1.2419730000000002,0.598206,0.16960200000000003,-0.496061,-2.1785400000000004,0.918641
423,1.2680505616929896,3.382621721298132,0,0,1.2299959999999999,0.6146699999999999,-0.097885,-0.363936,-1.487484,1.413265
424,1.1869750529829792,3.495913398585117,0,0,0.987595,0.6781769999999999,-0.24418600000000001,-1.087281,-2.763884,1.5572629999999998
425,1.0956696995946897,3.5809630337606344,0,0,0.872757,0.665924,-0.0960090000000001,-1.712668,-3.786375,1.523226
426,1.0013933314942745,3.632182591574303,0,0,0.758408,0.650314,0.08078000000000002,-1.855053,-3.668654,1.511398
427,0.9118262070962927,3.6448913352515517,0,0,0.6523589999999999,0.5978540000000001,0.21057099999999998,-1.81483,-3.209882,1.566637
428,0.8343899837503783,3.6162164360457316,0,0,0.5665739999999999,0.549301,0.267609,-1.742025,-2.670073,1.574999
429,0.7755599330229366,3.545617929342039,0,0,0.5046999999999999,0.5311730000000001,0.24652100000000007,-1.849397,-2.515621,1.405272
430,0.7402344715082406,3.4349657550865578,0,0,0.402374,0.5549930000000001,0.1257330000000001,-2.016094,-2.56313,1.176638
431,0.731226948287489,3.2882403654510086,0,0,0.3311610000000001,0.5748590000000001,0.083511,-2.1382209999999997,-2.456209,0.918206
432,0.7489410531116232,3.1109954432116766,0,0,0.30291699999999994,0.576843,0.038588999999999984,-2.1505509999999997,-1.874642,0.681298
433,0.7912817985892688,2.9097348851291174,0,0,0.29597500000000004,0.581497,-0.07029699999999992,-2.241327,-1.232936,0.391421
434,0.8538354966168913,2.691347262080855,0,0,0.36984300000000003,0.6420440000000001,-0.2488249999999999,-2.312824,-0.783163,0.130768
435,0.9303228323813216,2.4627126175232936,0,0,0.43237299999999995,0.6463920000000001,-0.329742,-2.286309,-0.333857,-0.098222
436,1.0132908514642351,2.2305380466424176,0,0,0.503998,0.673523,-0.37591600000000003,-2.237475,0.26585,-0.395615
437,1.0949676241147797,2.0013963792736145,0,0,0.840088,0.687271,-0.5854189999999999,-2.252641,0.4437279999999999,-0.642709
438,1.1681649666729172,1.7818667656341902,0,0,1.133194,0.595215,-0.558365,-1.7959759999999998,0.040273,-0.577045
439,1.2270905036885191,1.5786407427551756,0,0,1.32637,0.673171,-0.5509339999999999,-1.101449,-0.770095,-0.190868
440,1.2679351687203975,1.3984731010928029,0,0,1.0726010000000001,0.760345,-0.571319,-0.5912689999999999,-1.612294,0.589304
441,1.2891466560431446,1.2479042618499612,0,0,0.765625,0.503571,-0.477142,-0.394796,-1.276381,1.129698
442,1.2913741794101778,1.1327376959021223,0,0,0.655228,0.545914,-0.2298119999999999,-0.049606,-0.749957,1.052386
443,1.2771403082775368,1.0573251115194569,0,0,1.076522,1.209824,-0.075332,-0.112271,-0.230142,0.318482
444,1.2503244882511366,1.023799408979492,0,0,0.9635779999999999,1.226196,0.3481140000000001,-0.424371,-0.29026,-0.093818
445,1.215530491019174,1.031465307526808,0,0,0.671189,0.87767,0.546127,-0.0040939999999999,0.282215,0.501247
446,1.1773989524201365,1.076549502490344,0,0,0.444031,0.7583619999999999,0.1109160000000001,0.010033,0.953793,0.641491
447,1.1399489300835577,1.1524080166683295,0,0,0.34533699999999995,0.68222,-0.13411,-0.415543,1.166185,0.1116119999999999
448,1.106067217519558,1.2501394522767144,0,0,0.29148900000000005,0.7213130000000001,0.156906,-1.166935,0.781039,-0.688968
449,1.0772601630557401,1.3594358975733267,0,0,0.5498959999999999,0.828048,0.3439329999999999,-1.745352,0.2313989999999999,-0.7307600000000001
450,1.0537186691121847,1.4694667454912198,0,0,0.962402,0.729859,0.143494,-1.821837,0.249045,-0.548651
451,1.0346509059631797,1.5696418119406677,0,0,1.148316,0.6027980000000001,0.0678409999999999,-1.23004,0.073974,-0.171483
452,1.0187593410002682,1.6502136457253644,0,0,1.123108,0.543213,-0.007904000000000008,-0.754162,0.346101,0.094275
453,1.0047151323869372,1.702797818957346,0,0,0.8424229999999999,0.563507,-0.065491,-1.265302,0.679772,0.210986
454,0.9915166981627567,1.720940133167504,0,0,0.73259,0.609985,-0.0043340000000000045,-1.668247,0.361159,0.051551
455,0.9786837708823527,1.7008028123108307,0,0,0.6227410000000001,0.6893160000000002,0.07405100000000012,-1.709811,-0.3503719999999999,-0.196723
456,0.966297832198103,1.6419160260028622,0,0,0.617584,0.703201,0.03805599999999999,-1.827693,-0.568997,-0.2998159999999999
457,0.954932337086232,1.547827678621474,0,0,0.619095,0.697433,0.08929500000000001,-1.7823189999999998,-0.496502,-0.353003
458,0.9455214484630098,1.4264395425798937,0,0,0.6175229999999999,0.7099,0.126587,-1.648439,-0.390403,-0.361818
459,0.9392069161695815,1.2898491309147362,0,0,0.585388,0.659973,0.206757,-1.41191,-0.22398,-0.360379
460,0.9371910525319173,1.1536034073862607,0,0,0.590896,0.6358950000000001,0.2089700000000001,-1.092719,0.068871,-0.345706
461,0.9406138383859535,1.0353817555972442,0,0,0.6035159999999999,0.613266,0.188507,-0.930894,0.220679,-0.354384
462,0.950462470336795,0.9532291511890767,0,0,0.777008,0.570389,0.05280999999999997,-0.909271,0.253751,-0.385254
463,0.967509564017429,0.9235336024507506,0,0,0.8187719999999999,0.572876,0.03906299999999999,-0.8928530000000001,0.169293,-0.324142
464,0.9922628570028982,0.9589818112833454,0,0,0.8869480000000001,0.585129,0.015182999999999891,-0.8231069999999999,0.0559879999999999,-0.288258
465,1.0249002474811808,1.0667453940030953,0,0,1.0357059999999998,0.5215609999999999,-0.08763100000000001,-0.7203039999999999,-0.232403,-0.18569
466,1.0651660727430665,1.2471545809790912,0,0,1.0379939999999999,0.502426,-0.076096,-0.504687,-0.611618,-0.112127
467,1.112221408175781,1.4930976670195055,0,0,1.053161,0.474502,-0.03453099999999998,-0.265503,-0.87518,0.056503
468,1.1644710601883659,1.790322054269246,0,0,0.8567960000000001,0.4098050000000001,-0.10191300000000003,-0.1729109999999999,-1.279728,0.178377
469,1.2194230974316407,2.1186929047139,0,0,0.841262,0.43025199999999997,-0.09512300000000001,0.041621,-1.991893,0.398705
470,1.2736554440580814,2.4542977916993993,0,0,0.940903,0.713028,0.207367,0.3512929999999999,-2.6362080000000003,0.8845299999999999
471,1.3229513596257976,2.7721096184251657,0,0,1.02829,0.857269,0.34617599999999993,1.154458,-2.824634,1.221531
472,1.3626214455321655,3.0487945608137226,0,0,1.090637,0.8708039999999999,0.105285,2.0611669999999997,-2.811999,1.271645
473,1.3879758921367953,3.265227254073172,0,0,0.9404300000000001,1.0201730000000002,0.0011599999999998972,1.822642,-2.634744,1.107382
474,1.3948732458585655,3.4083615118539257,0,0,0.851532,1.161072,0.08374000000000001,0.752764,-3.085901,0.839841
475,1.380260340321122,3.472260439135785,0,0,0.842025,1.230164,0.198654,-0.582412,-3.857085,0.6467
476,1.3426247491186292,3.4582498204331236,0,0,1.073181,0.786423,0.464066,-0.7464069999999999,-3.287544,1.150094
477,1.2822977541524765,3.3742807631718046,0,0,1.118195,0.613373,0.0646969999999999,0.355855,-1.758401,1.939909
478,1.2015694600423663,3.23366708905358,0,0,0.9936820000000001,0.6547849999999998,-0.194046,-0.321791,-2.152689,2.294603
479,1.1046044666954948,3.0534006589284264,0,0,0.8797150000000001,0.669922,-0.1538079999999999,-0.774107,-3.053774,1.853559
480,0.9971690502356938,2.852237901093969,0,0,0.6785579999999999,0.7194969999999999,-0.12403900000000001,-0.730031,-2.346375,1.535699
481,0.8861945303561419,2.6487160653658113,0,0,0.585862,0.751892,-0.12274200000000007,-0.981315,-1.7066580000000002,1.34939
482,0.7792088515388097,2.4592462345831727,0,0,0.43995700000000004,0.6987609999999999,-0.074631,-1.29996,-1.562108,1.174995
483,0.6836755576598537,2.296453341736867,0,0,0.45503199999999994,0.5630649999999999,-0.015335000000000043,-1.418015,-1.463865,0.951854
484,0.6062910415134402,2.1679523782195482,0,0,0.39466799999999996,0.445358,0.004791000000000045,-1.348938,-1.294803,0.705361
485,0.5523072963468957,2.0757330647381504,0,0,0.257949,0.383667,-0.013809000000000016,-1.30285,-0.8494799999999999,0.389987
486,0.5249629914857424,2.016275630317761,0,0,0.15077200000000002,0.367645,-0.12000999999999998,-1.344898,-0.150008,-0.002173
487,0.525111948888754,1.9814427586195742,0,0,0.17832900000000007,0.298249,-0.1631320000000001,-1.523307,0.571336,-0.417745
488,0.5511276811210774,1.9600753659976404,0,0,0.22558599999999995,0.228256,-0.183471,-1.560461,1.205676,-0.776672
489,0.5991327846782178,1.9400641519919986,0,0,0.30789199999999994,0.251114,-0.1690219999999999,-1.441774,1.686867,-1.067016
490,0.6635544083247459,1.9105190089615172,0,0,0.400757,0.27858000000000005,-0.1809689999999999,-1.280758,2.091209,-1.356965
491,0.7379462830099804,1.8635860550462757,0,0,0.551239,0.394196,-0.16207899999999997,-1.020461,2.077444,-1.602957
492,0.8159515170089816,1.7955215734641305,0,0,0.871094,0.674225,-0.2879949999999999,-0.808962,1.151116,-1.635544
493,0.8922228206713047,1.7068252695441735,0,0,1.116822,0.876617,-0.334976,-0.733114,-0.127648,-0.794821
494,0.9630924930526039,1.6015007415617069,0,0,1.2354120000000002,0.822479,-0.370819,-0.893508,-1.1239940000000002,-0.045841
495,1.026821881657268,1.485744581870706,0,0,0.797592,0.5611419999999999,-0.388245,-0.6815439999999999,-0.34648,0.337066
496,1.0833692498969791,1.3664761513425299,0,0,0.6334380000000001,0.48286500000000016,-0.277893,-0.004174,0.7668149999999999,0.528378
497,1.1337646218513784,1.2500852792361279,0,0,0.5023200000000001,0.5504610000000001,-0.1187129999999999,0.2596719999999999,0.830909,0.5215930000000001
498,1.179304875005078,1.1416380040452363,0,0,0.5085440000000001,0.6197360000000001,-0.114746,-0.1216849999999999,0.8306379999999999,0.3875389999999999
499,1.220825106346157,1.0446040802947192,0,0,0.535263,0.6684419999999998,-0.147202,-0.574145,1.1884,0.289916
500,1.2582509184971102,0.9610081589917843,0,0,0.8442390000000001,0.7428899999999998,-0.1559909999999999,-0.697784,1.369198,0.2055
501,1.2905213325594689,0.8918019051750371,0,0,1.0512839999999999,1.0661930000000002,0.050461,-0.114615,1.022082,0.191858
502,1.315841986123918,0.8372352086239216,0,0,0.9992829999999999,1.3435359999999998,0.285202,0.435963,0.745645,0.379792
503,1.3321308630045758,0.7970694035737939,0,0,0.8108069999999999,1.389817,0.21505799999999992,0.440226,0.536826,0.648213
504,1.3374884449919318,0.7705855520218783,0,0,0.7899009999999999,1.0095830000000001,0.049865999999999994,0.499664,0.2392639999999999,0.418274
505,1.3305653054074476,0.7564458319565903,0,0,0.837128,0.821304,0.0932619999999999,0.4624149999999999,0.151413,0.309168
506,1.310779475389565,0.752535507961549,0,0,0.8892210000000002,0.802323,-0.149017,0.4774779999999999,-0.224013,0.142043
507,1.2784027194699739,0.7559382889729084,0,0,1.0492709999999998,0.729995,0.1693109999999999,0.101211,0.133881,-0.0543919999999999
508,1.2345583161821976,0.7631756536296792,0,0,1.0732730000000001,0.7003939999999999,0.347763,-0.252506,0.514216,-0.022099
509,1.1811603776779815,0.7707691516697134,0,0,1.021973,0.59079,0.23950200000000002,-0.259001,0.805822,0.053326
510,1.1208048848649999,0.7760753127924218,0,0,0.948761,0.5532840000000001,-0.028717,-0.568755,0.6739539999999999,-0.001011
511,1.0566159309092225,0.7782288056107015,0,0,0.9013059999999999,0.5348660000000001,0.004746,-0.97895,0.2325949999999999,-0.09411
512,0.9920569202167452,0.7789531628243707,0,0,0.84552,0.49839800000000006,0.068954,-1.106894,-0.119031,-0.228081
513,0.930724401237492,0.7829852040659564,0,0,0.669922,0.45727499999999993,0.036178999999999996,-1.19021,-0.223869,-0.31185
514,0.8761433919064046,0.7979098388583826,0,0,0.6961210000000002,0.482498,-0.06979400000000001,-1.174222,-0.328977,-0.414153
515,0.8315754138459324,0.8333064461739834,0,0,0.7400820000000001,0.494797,-0.060409999999999894,-1.05558,-0.250681,-0.3835139999999999
516,0.7998362498123986,0.8992549869363938,0,0,0.832978,0.534591,-0.08158800000000009,-0.796366,-0.121113,-0.243001
517,0.7831076314314988,1.0044173326215222,0,0,0.7309119999999999,0.466248,-0.082733,-0.38384,0.061748,0.023497
518,0.7827281974972331,1.1540546674340393,0,0,0.591202,0.417618,0.0600590000000001,0.170095,0.141827,0.296436
519,0.7989702566378943,1.348409538022314,0,0,0.5091859999999999,0.444962,0.01510700000000001,0.612867,-0.031363,0.598853
520,0.8308395772258435,1.5818304798384348,0,0,0.5016940000000001,0.5090180000000001,-0.19419800000000004,1.085231,-0.624955,0.780238
521,0.8759548995373884,1.8428570139443072,0,0,0.581466,0.565796,-0.501251,1.1252719999999998,-1.553592,0.674886
522,0.9305604527327945,2.11527847576828,0,0,0.7423550000000002,0.48896800000000007,-0.218186,0.947687,-2.2227900000000003,0.347627
523,0.9897059334546429,2.3800147807128504,0,0,0.8111120000000002,0.434646,0.11668300000000001,0.902916,-1.459113,0.151919
524,1.0476097261752788,2.6175826173637344,0,0,0.728272,0.33667,0.22547899999999998,1.051396,-1.282277,0.289462
525,1.098207145421479,2.8108734799850983,0,0,0.738068,0.3388070000000002,0.17079099999999997,0.5199090000000001,-2.393989,0.640756
526,1.135864110791838,2.9479024223282884,0,0,0.7610469999999999,0.37835699999999994,0.04197699999999999,0.436885,-3.680824,0.974042
527,1.1561922165490794,3.024055331964503,0,0,1.161499,0.794006,-0.40949999999999986,1.444086,-4.662921,1.410693
528,1.1568342232229736,3.0432496990616533,0,0,1.395279,1.213562,-0.357223,0.940805,-4.348979,1.658875
529,1.138030189300255,3.0174839885785225,0,0,1.191681,1.1354829999999998,0.07850699999999988,-0.571901,-3.697884,1.319531
530,1.102774764579886,2.9645763288620945,0,0,0.692428,0.746536,0.08221400000000001,-0.502538,-2.685506,0.902111
531,1.0564647597312171,2.904415210800657,0,0,0.509735,0.657532,-0.257675,-0.086662,-1.493212,0.479404
532,1.0060808058156192,2.854560311929516,0,0,0.46698000000000006,0.7061919999999999,-0.3067939999999999,-0.214076,-0.378713,0.268783
533,0.959073006029261,2.8263185442200003,0,0,0.5849759999999999,0.6453249999999999,-0.422607,-0.8991629999999999,0.550309,0.03848
534,0.9221765554431385,2.822344938506105,0,0,0.434967,0.493881,-0.4089359999999999,-1.441531,1.452093,-0.1640849999999999
535,0.900375888406136,2.836392101978938,0,0,0.21604899999999994,0.3814239999999999,-0.474533,-1.6571060000000002,2.354203,-0.198793
536,0.8961986243108799,2.8552149506425706,0,0,0.160752,0.220153,-0.45844999999999997,-1.426103,2.8130919999999997,-0.337705
537,0.9094692039101946,2.8620571944636004,0,0,0.30819700000000005,0.161804,-0.358017,-0.787075,3.328282,-0.524045
538,0.9375780549918976,2.8407753479812627,0,0,0.5748440000000001,0.3433990000000001,-0.26477,-0.367797,4.2576160000000005,-1.256175
539,0.9762163153162323,2.779551910501945,0,0,0.7521049999999999,0.5936889999999999,-0.316697,-0.548854,4.831874,-2.182188
540,1.0204008658289516,2.6733024477868925,0,0,1.2995,1.6640620000000002,-0.511597,-0.706867,3.741421,-1.344408
541,1.065511814185848,2.524274190635535,0,0,1.111618,1.420227,-0.621399,-0.764832,-0.341158,-0.119672
542,1.108047432148324,2.3408959741653637,0,0,0.9767760000000001,0.005798999999999999,-0.3310249999999999,0.409383,-0.108063,-0.022038
543,1.1459109100786544,2.1354685660964794,0,0,0.5479129999999999,0.029022000000000103,-0.020142,0.857292,1.301976,0.4845529999999999
544,1.1782404437382838,1.9215253371115666,0,0,0.524505,0.2085720000000001,0.26722699999999994,0.3411949999999999,2.314608,0.244641
545,1.2049640723889987,1.7115633021363295,0,0,0.40652499999999997,1.13385,0.5,-0.594951,1.627992,0.135364
546,1.2263064608393264,1.5155212828266764,0,0,0.4489289999999999,1.267914,0.2813269999999999,-0.8298989999999999,0.52241,0.029386
547,1.2424042009873977,1.340108838334325,0,0,0.5785520000000001,1.097947,-0.246658,-0.379243,-0.937107,-0.338405
548,1.253087021752554,1.188948884547281,0,0,0.9336859999999999,0.806259,-0.21589699999999992,0.2680659999999999,-0.1028109999999999,-0.146946
549,1.257826457709393,1.063410965348259,0,0,0.8601689999999999,0.5518949999999999,0.22009299999999998,0.887674,1.381793,0.2122659999999999
550,1.2558443031491244,0.9638999703482658,0,0,0.727905,0.254791,0.428406,0.695889,1.352135,0.601934
551,1.2463703890032234,0.8912395907996384,0,0,0.9139710000000001,0.3313299999999999,0.22054999999999997,0.898483,0.760568,0.511171
552,1.2290077625516813,0.8477293164401689,0,0,1.7454990000000001,1.022339,-0.14248699999999992,0.942958,1.03905,0.6275609999999999
553,1.2041039365739605,0.8375159865517748,0,0,1.6862949999999999,0.692856,0.0485990000000001,0.023328,0.800578,0.854316
554,1.172983960292192,0.8660924935695327,0,0,1.041717,0.29220599999999997,-0.05329900000000001,0.122545,-1.568227,0.144472
555,1.1379304305131246,0.9389609244942996,0,0,0.7483670000000001,0.3711390000000001,-0.0005649999999999961,-0.418113,-0.884224,0.056498
556,1.1018994876976747,1.059727269854601,0,0,0.677582,0.421524,0.178925,-0.163217,-0.2001079999999999,0.049924
557,1.0680705863415565,1.2280921368042261,0,0,0.7996070000000002,0.47966,0.011566,0.0287389999999999,0.071719,0.104328
558,1.0393673652127895,1.4383104054859661,0,0,0.996154,0.5294039999999999,-0.24821500000000002,0.194242,-0.2096829999999999,0.269282
559,1.0180495373732392,1.6786466417670902,0,0,0.985352,0.5320440000000001,-0.374832,0.2585179999999999,-0.901009,0.470375
560,1.005411690160415,1.9321324756807645,0,0,0.9385529999999999,0.464233,-0.415848,0.496399,-1.931557,0.636795
561,1.001586462257262,2.1786009526265517,0,0,0.9113469999999999,0.47917199999999993,-0.20133900000000002,0.761393,-2.297942,0.656207
562,1.005454281238247,2.397649893344715,0,0,0.6646429999999999,0.349395,-0.103653,1.1694639999999998,-1.8003330000000002,0.8036979999999999
563,1.014692121311159,2.5719720602655367,0,0,0.4530640000000001,0.440017,-0.04202299999999999,1.228224,-2.273455,0.787623
564,1.0260145811603376,2.6904097777769307,0,0,0.5098419999999999,0.555512,0.013321,0.49208,-3.1139509999999997,0.8914479999999999
565,1.0356408604707417,2.750107662959059,0,0,0.7544099999999999,0.705749,-0.1364129999999999,0.731903,-4.297461,0.946982
566,1.0399537928009468,2.7572226466075453,0,0,1.106583,0.795792,-0.174575,0.8760899999999999,-4.493998,0.953582
567,1.0362294340112874,2.7258428474935683,0,0,1.2609249999999999,0.8662409999999999,-0.08421299999999998,-0.08674,-3.304705,0.34606
568,1.0232577297604408,2.6751209194051926,0,0,0.9484859999999999,0.5828859999999999,-0.007598999999999967,-0.3503469999999999,-2.1119529999999997,0.131183
569,1.0016852033712247,2.6251085221369554,0,0,0.818695,0.594101,-0.14116,0.1551529999999999,-1.26128,0.080195
570,0.9739865405738362,2.5922224051492373,0,0,0.732498,0.649918,-0.167176,-0.065923,-0.344446,0.097772
571,0.9440716431716457,2.5854744269705043,0,0,0.5998229999999999,0.6835169999999999,-0.420319,-0.681952,0.698666,0.047267
572,0.9166142333183881,2.6044450557625263,0,0,0.48373400000000005,0.581116,-0.564285,-1.507388,1.318901,-0.363081
573,0.896233272350798,2.6395153262948563,0,0,0.4135890000000001,0.39514099999999996,-0.499572,-1.860736,1.709113,-0.403437
574,0.8866793870797446,2.6742654172235825,0,0,0.385086,0.30654900000000007,-0.41940299999999997,-1.82304,2.397563,-0.506606
575,0.8901824866835718,2.6894059565286987,0,0,0.3249970000000001,0.2049710000000001,-0.342545,-1.478528,3.10683,-0.4869479999999999
576,0.9070960571799904,2.6672751214685415,0,0,0.4167019999999999,0.251984,-0.3213199999999999,-1.021219,3.74849,-0.707835
577,0.9359160466368738,2.595853036415731,0,0,0.6941379999999999,0.5014649999999999,-0.34729,-0.6816989999999999,3.937018,-1.527167
578,0.9736591503805523,2.471395812963669,0,0,0.91066,0.850815,-0.322052,-0.458686,3.672083,-1.7998029999999998
579,1.0164823200986386,2.2991421333049575,0,0,1.0513299999999999,1.0551599999999999,-0.261764,-0.083388,2.207465,-0.828564
580,1.0603567725375935,2.0920400377952477,0,0,1.175232,0.6274569999999999,-0.2420509999999999,0.158709,0.401917,0.002245
581,1.1016137750028485,1.8679566640424212,0,0,1.032074,0.40801999999999994,-0.1083830000000001,0.1155089999999999,0.68584,0.1660849999999999
582,1.1372579988980331,1.646183166288602,0,0,0.6835180000000001,0.46878,0.101975,0.291148,1.388102,0.484742
583,1.1650550576767265,1.4440959164007958,0,0,0.550338,0.771133,0.283142,0.102224,1.327036,0.202559
584,1.1834831611612135,1.2746208923486475,0,0,0.39263900000000007,1.042221,0.1730799999999999,-0.336708,0.524253,0.207999
585,1.191658718231331,1.144844283634215,0,0,0.6021880000000001,0.8592979999999999,-0.25244099999999997,-0.8763790000000001,-0.263837,0.089871
586,1.1893102072453556,1.0558588506913114,0,0,0.8435969999999999,0.8108219999999999,-0.160385,-0.11702,-0.258333,-0.08002
587,1.1768180420181955,1.0037472680734136,0,0,1.079269,0.749207,-0.0024110000000000034,1.141145,0.370771,0.01342
588,1.1552903786935595,0.9814361212244929,0,0,1.070343,0.394516,0.41857899999999987,0.939443,1.07051,0.490746
589,1.1266192346368227,0.9810004959607662,0,0,0.916962,0.37586999999999987,0.37101700000000004,0.64823,1.421586,0.5929479999999999
590,1.0934590683579042,0.9959071862012958,0,0,1.050629,0.5327,0.19186399999999998,0.733961,1.191498,0.515861
591,1.0590838426025264,1.0227070221326562,0,0,1.309036,0.454117,0.03219599999999989,-0.328308,1.086437,0.803405
592,1.027100309733447,1.0618265151318518,0,0,1.120911,0.28422500000000006,0.04525699999999991,-0.257348,-0.95053,0.781942
593,1.0010264687962613,1.117314417582523,0,0,0.7005159999999999,0.342209,-0.118576,-0.308476,-1.633347,0.55386
594,0.983789514310274,1.195609385583867,0,0,0.48675500000000016,0.469483,-0.03263800000000011,-0.382423,-1.180664,0.3668929999999999
595,0.9772431231321093,1.3035814521570956,0,0,0.6033790000000001,0.59404,-0.20892299999999997,0.0026969999999999,-0.934078,-0.093273
596,0.9818186659996823,1.446255763952276,0,0,0.853287,0.4764249999999999,-0.118591,0.507219,-0.373929,-0.217585
597,0.9963936946624565,1.6247299970297313,0,0,0.9202579999999999,0.3329009999999999,0.008483999999999998,0.932908,0.0839,0.005924
598,1.0184032566323606,1.8348023071349424,0,0,0.9620209999999999,0.3122100000000001,-0.118897,1.303417,-0.0134539999999999,0.320557
599,1.04416810981023,2.066707530736742,0,0,1.026505,0.4452819999999999,-0.265731,1.194976,-0.387053,0.336302
600,1.0693857650994438,2.306137960817512,0,0,0.943512,0.38235400000000014,-0.1279749999999999,1.112483,-0.86961,0.40471
601,1.0897226836937728,2.536449881307818,0,0,0.785644,0.302613,0.008254999999999998,1.02416,-1.579536,0.594078
602,1.10144674399008,2.7416633834468223,0,0,0.712601,0.490799,-0.192078,0.8560129999999999,-3.637003,0.578449
603,1.1020320740992546,2.9095846709406645,0,0,1.003082,0.7560879999999999,-0.508225,0.714122,-5.522098000000001,0.590555
604,1.090642863001479,3.0342035958350952,0,0,1.344544,0.932618,-0.365006,-0.173949,-4.777965,0.950867
605,1.0683737715035906,3.116583112134823,0,0,1.3361969999999999,0.9378659999999999,0.06468199999999996,-0.785354,-3.518215,0.799704
606,1.0381344779699513,3.1638396505967945,0,0,0.6651309999999999,0.5577540000000001,0.21755999999999992,-1.098542,-3.046052,0.211525
607,1.004145967775884,3.186413610510736,0,0,0.504822,0.447967,0.13659699999999997,-0.5329,-2.3002740000000004,-0.0333069999999999
608,0.9711424858596441,3.194405620140939,0,0,0.40750200000000003,0.591721,-0.19862300000000005,-0.406123,-0.6434,-0.2353699999999999
609,0.9434760076942306,3.194081837941037,0,0,0.44886800000000004,0.632004,-0.22171000000000002,-1.043711,0.718734,-0.393257
610,0.9243456309559437,3.1856213713040873,0,0,0.466874,0.5384359999999999,-0.17124899999999998,-1.60128,1.47933,-0.439787
611,0.9153259221368947,3.162803142199264,0,0,0.40559399999999995,0.51416,-0.19613699999999992,-1.569947,2.283487,-0.4352569999999999
612,0.9162849554417853,3.1147341542661273,0,0,0.38958799999999993,0.5023649999999998,-0.24765100000000012,-1.220812,2.98987,-0.497817
613,0.9256935731556628,3.029110323122479,0,0,0.5037850000000001,0.525131,-0.3082729999999999,-1.087835,3.979389,-0.848533
614,0.9412390814668933,2.8960635776550463,0,0,0.8927,0.783737,-0.409485,-1.356494,4.867904,-1.432661
615,0.9605746888345882,2.711494157017688,0,0,1.0655519999999998,0.9285729999999999,-0.571045,-1.294753,4.762637000000001,-1.268656
616,0.9819838177775487,2.4789581014070956,0,0,1.071228,0.8787839999999999,-0.597992,-0.939069,2.102405,-0.453051
617,1.0047509575370945,2.20964974132615,0,0,1.05597,0.341797,-0.53772,-0.671115,-0.1347269999999999,0.126391
618,1.0291251120870633,1.920630196596175,0,0,0.751236,0.06721499999999997,-0.28421,0.047,0.996753,0.529472
619,1.055910923414175,1.6319384571036106,0,0,0.6524499999999999,0.15780699999999998,-0.128143,0.4788479999999999,1.588982,0.703713
620,1.0858610791065704,1.3633864727329172,0,0,0.2397609999999999,0.44982900000000003,0.16033999999999998,0.534183,0.8026760000000001,0.423081
621,1.1191068985769623,1.1317184984243502,0,0,0.3118130000000001,0.7871549999999999,0.131287,0.394551,0.373681,0.200465
622,1.1548262578986224,0.9485928523657489,0,0,0.5898589999999999,1.124863,0.05839599999999999,-0.0621549999999999,-0.205062,-0.127791
623,1.191234782195659,0.8196469344995267,0,0,0.7533880000000002,1.062729,0.045349,-0.139479,0.00154,-0.045275
624,1.225857129873933,0.7447266573391677,0,0,1.086777,0.988159,0.201828,0.724104,-0.085811,0.004666
625,1.255949043053124,0.7191561120565577,0,0,1.239166,0.9297019999999999,0.50528,0.289418,0.773311,0.253698
626,1.2789255775150457,0.7357057527481531,0,0,1.213394,0.274826,0.306946,1.078909,0.4623569999999999,1.139826
627,1.2926978990266378,0.7867551349120333,0,0,0.9469000000000001,-0.016677999999999915,-0.16914400000000002,1.355657,-0.518048,1.25411
628,1.2958959838366906,0.8661100773725319,0,0,0.7876739999999999,0.18337999999999988,-0.134827,0.384452,-0.012496,0.878142
629,1.2880097978915488,0.9700519854267015,0,0,1.090454,0.7797249999999999,0.30163499999999976,-0.5403279999999999,0.926899,-0.138991
630,1.2694791865961377,1.0974280247100006,0,0,1.343155,1.12468,0.378235,-1.088715,0.731452,-0.336987
631,1.241710018604064,1.2488416343527762,0,0,1.508987,0.6282039999999999,0.1228019999999999,-0.916219,-0.416693,0.256415
632,1.2069489059006329,1.425193255641939,0,0,1.1845400000000001,0.341339,-0.426575,-0.553662,-1.959101,0.180808
633,1.167968956427608,1.6259354022570793,0,0,0.7882080000000001,0.5469209999999998,-0.115204,-0.6520779999999999,-1.119115,0.128838
634,1.1276038927384928,1.8474734861668285,0,0,0.4622340000000001,0.54956,-0.0572510000000001,0.157042,-0.45769,-0.011636
635,1.0882583253329186,2.0821755351960425,0,0,0.5506749999999999,0.455093,-0.24546800000000013,0.827858,-0.138983,-0.107772
636,1.0515543509309262,2.3184056177959294,0,0,0.8111879999999999,0.3993529999999999,-0.287094,1.159293,-0.522204,0.068086
637,1.0182287633726756,2.5418002698009,0,0,0.9300080000000001,0.38685600000000003,-0.338593,1.324486,-1.608748,0.447715
638,0.9882997447026055,2.7376585582259216,0,0,0.9625849999999999,0.44363400000000003,-0.316803,1.038053,-3.111945,0.718969
639,0.9614270450159009,2.8939121238480747,0,0,0.829727,0.5017699999999998,-0.301026,0.670179,-4.475344000000001,0.733101
640,0.9373328962001682,3.0038394219756515,0,0,0.8546600000000001,0.674072,-0.205674,0.592407,-5.227961,0.667293
641,0.9161411829269561,3.0676338283651727,0,0,0.9978629999999999,0.874832,0.07870500000000002,-0.119422,-4.5364629999999995,0.452063
642,0.8985207755629994,3.0922005420021557,0,0,0.803283,0.8287969999999999,0.3231650000000001,-0.7158359999999999,-3.3479120000000004,-0.021507
643,0.8855781219060433,3.0890914027542857,0,0,0.3788600000000001,0.539505,0.085723,-0.395471,-2.464318,-0.152861
644,0.8785284012114147,3.071109233942997,0,0,0.31730600000000014,0.525147,-0.108261,-0.258078,-1.161685,-0.221937
645,0.878260998962218,3.048586670714145,0,0,0.37103300000000006,0.518112,-0.03952099999999992,-0.4806609999999999,0.318888,-0.255299
646,0.8849637341685294,3.026483872970724,0,0,0.469314,0.3890229999999999,0.05606100000000008,-0.524108,1.479495,-0.347889
647,0.897954386073972,3.003196185727023,0,0,0.558883,0.416595,-0.10960399999999998,-0.77575,2.352207,-0.458655
648,0.9157962431518863,2.9714045118437977,0,0,0.6607820000000001,0.520508,-0.395142,-1.36824,2.900027,-0.5446810000000001
649,0.9366780360739321,2.920643323631836,0,0,0.732911,0.560089,-0.37522900000000003,-2.048238,3.674967,-0.8751629999999999
650,0.9589492759730244,2.8407397977962945,0,0,0.7967830000000002,0.6242519999999998,-0.345856,-2.046712,4.213926,-1.390726
651,0.9816427849217277,2.725060233152593,0,0,1.1127319999999998,0.843979,-0.816849,-1.749124,4.218349,-0.890862
652,1.0048027154405275,2.5726425858599056,0,0,1.005355,0.79657,-0.6604460000000001,-0.903512,2.319044,-0.313159
653,1.0294795032284605,2.3887350137868157,0,0,0.777405,0.549453,-0.380005,-0.1244509999999999,1.060129,0.282486
654,1.0573535549850168,2.1838181303480733,0,0,0.580902,0.47868299999999997,-0.27781700000000004,0.0821799999999999,1.374221,0.676633
655,1.0900797721359927,1.9716182762627428,0,0,0.4579169999999999,0.5183869999999999,-0.22612000000000002,0.000633,1.778115,0.708661
656,1.128549033111552,1.7667618710164577,0,0,0.534027,0.6657410000000001,0.152863,1.189496,1.255468,0.110885
657,1.1722914727793774,1.582615330663003,0,0,0.4061430000000001,0.982971,0.26239,1.440663,0.032204,-0.024662
658,1.219195429019096,1.429665340071614,0,0,0.5596469999999999,0.8522190000000001,-0.013686999999999998,-0.070004,-0.164941,0.236367
659,1.2656208866301142,1.314636070058035,0,0,0.8789819999999999,0.6432800000000001,-0.018813999999999997,0.5615859999999999,-0.786659,-0.145121
660,1.306887216630177,1.2404060958628738,0,0,1.1787569999999998,0.75325,0.4392089999999999,1.333344,0.324633,-0.067447
661,1.3380325917590472,1.206628464160111,0,0,0.95404,0.6174159999999999,0.7912600000000001,-0.463242,1.970688,0.372957
662,1.3546832533313722,1.2107862996880634,0,0,1.2185970000000002,0.564621,0.280594,-0.3129639999999999,1.042196,0.6678890000000001
663,1.3538415593642754,1.2493134623190292,0,0,2.188721,0.899369,-0.52568,1.667582,0.006205,1.217162
664,1.3344131698556712,1.3184331861118737,0,0,1.299286,0.4286799999999999,0.01625,-0.739701,-0.095277,0.7112310000000001
665,1.2973575234577759,1.4144969133634646,0,0,0.8093869999999999,0.371856,-0.002914,-0.4413939999999999,-2.389708,0.409675
666,1.245458014058059,1.533778205607799,0,0,0.7013240000000001,0.5865319999999999,-0.286255,-0.150369,-1.7260060000000002,0.415131
667,1.1828246254924946,1.6718515645680923,0,0,0.739304,0.6711729999999999,-0.27929699999999996,0.130013,-0.8270290000000001,-0.064763
668,1.114296720722555,1.8228479367948687,0,0,0.910431,0.609589,-0.206498,0.523519,-0.47026,-0.380801
669,1.0448847914403305,1.9789889702464933,0,0,1.069214,0.44345,-0.1361849999999999,0.876669,-0.192433,-0.102021
670,0.9793188063305523,2.130784422650548,0,0,0.912811,0.23934899999999998,-0.101349,0.962981,-0.599817,0.467398
671,0.921712558472179,2.2680824417689163,0,0,0.782135,0.2074739999999999,-0.3842769999999999,1.019511,-1.934007,0.800637
672,0.8753294770229398,2.3818339782908957,0,0,0.76857,0.37054400000000004,-0.343277,0.739136,-3.081362,0.7905340000000001
673,0.8424346095998684,2.4660938570881443,0,0,0.644806,0.4429319999999999,-0.074326,0.506831,-3.895892,0.6243810000000001
674,0.824221981592174,2.519576794053469,0,0,0.6088410000000002,0.569489,0.165711,-0.019513,-4.343087000000001,0.493091
675,0.8208081616581331,2.546125619098678,0,0,0.654618,0.606552,0.18461600000000006,-0.178057,-3.623126,0.405603
676,0.8312830058401679,2.553756230661199,0,0,0.5804450000000001,0.6371150000000001,0.07516500000000004,-0.153024,-2.112666,0.143196
677,0.8538118819229035,2.5524322897357727,0,0,0.5361020000000001,0.634445,-0.026244999999999963,-0.515889,-1.120131,-0.265466
678,0.885793026618595,2.551206761952967,0,0,0.548065,0.504746,0.05641200000000002,-0.4568069999999999,0.045521,-0.3765739999999999
679,0.9240851732138944,2.5556362369592036,0,0,0.6022489999999999,0.519012,0.105346,-0.796028,1.055323,-0.328963
680,0.9653231593183295,2.5663021664194288,0,0,0.628937,0.502488,0.11233499999999991,-1.182071,1.279517,-0.382153
681,1.0063226018523692,2.57889313082527,0,0,0.704742,0.59903,-0.16926500000000003,-1.780004,1.526044,-0.508423
682,1.0445379647996973,2.5857758709542296,0,0,0.7341300000000001,0.618881,-0.257004,-2.517722,2.00953,-0.630632
683,1.078490954436361,2.5785041311988555,0,0,1.061172,0.877319,-0.384231,-2.967367,3.198111,-1.238841
684,1.108045509374519,2.550433641399293,0,0,1.0836489999999999,1.0659939999999999,-0.8923639999999998,-2.694977,3.563509,-0.944714
685,1.1343970316397856,2.4986175192282416,0,0,0.925034,0.817459,-1.164154,-2.134001,1.702527,-0.37973
686,1.1596953216013104,2.4244575022920385,0,0,0.7207790000000001,0.15565500000000004,-0.419525,-0.100346,0.729801,0.2862679999999999
687,1.1863397837336842,2.3330611859214625,0,0,0.6060180000000001,0.22727999999999998,-0.030365,1.209345,2.021072,0.975288
688,1.2161280523737261,2.2316746995023755,0,0,0.3838040000000002,0.556626,0.0201110000000001,0.851967,2.66392,0.897192
689,1.249523983938058,2.127753572244964,0,0,0.342148,0.988587,0.094787,-0.0887,1.008616,0.3479489999999999
690,1.285282596805834,2.0272253712713795,0,0,0.4281310000000001,1.0839699999999999,0.138443,0.207254,-0.479966,0.189554
691,1.3205457565126246,1.933402569237749,0,0,0.537521,1.075943,0.0766909999999999,-0.0510199999999999,-0.602332,-0.153924
692,1.3513708420023238,1.846845262251991,0,0,0.7557980000000001,1.1570900000000002,-0.822632,0.526307,-2.125255,-0.758963
693,1.3735349780858388,1.7662007463908254,0,0,1.556015,0.7205509999999999,-0.216889,2.6692720000000003,-0.703487,-0.658222
694,1.3833965290025145,1.6897083011695522,0,0,1.464172,0.738388,0.689911,0.6694680000000001,2.3819470000000003,-0.0896899999999999
695,1.3786005001393118,1.6168219874673195,0,0,0.9835510000000001,0.60466,0.9067069999999999,-1.336877,2.014176,0.379603
696,1.358480459229461,1.549401571045345,0,0,0.908386,0.30313100000000004,0.406601,0.207334,-0.289866,0.601645
697,1.3241101690021073,1.4921198925142782,0,0,1.60434,0.4107519999999999,-0.09494,2.0693490000000003,-0.102967,0.732984
698,1.2780500955072052,1.45198927734938,0,0,1.019776,0.614502,-0.2711789999999999,-1.8004380000000002,0.45406,0.120923
699,1.2238884675956514,1.4371034136015093,0,0,0.813644,0.366608,0.20689299999999988,-1.2830629999999998,-1.471692,-0.1272319999999999
700,1.1656965732290194,1.454819151515446,0,0,0.792969,0.5010220000000001,-0.272308,-0.709216,-1.0857,-0.182471
701,1.1075149350780247,1.5097217229391342,0,0,0.815963,0.632065,-0.20565800000000012,-0.503085,-0.438272,-0.29616
702,1.0529590001960862,1.6018381944613949,0,0,0.932526,0.5187989999999999,-0.214309,0.028852,-0.0131449999999999,-0.2449199999999999
703,1.0049811113924072,1.7256184376411352,0,0,1.020523,0.297379,-0.2221680000000001,0.5381729999999999,-0.046156,0.1090569999999999
704,0.9657711494677618,1.8701039626034732,0,0,1.003144,0.11839300000000003,-0.432038,0.755538,-0.895418,0.512247
705,0.9367471138808602,2.020428803111301,0,0,0.9488979999999999,0.1549069999999999,-0.42367499999999997,0.60141,-2.016261,0.688863
706,0.9185880610617109,2.1604145313141694,0,0,0.74115,0.34242300000000003,-0.10614,0.249462,-2.9566630000000003,0.6683819999999999
707,0.9112862528689673,2.275670591583643,0,0,0.49449099999999996,0.453431,0.14758300000000002,-0.1127,-3.3228370000000003,0.646025
708,0.9142235017422417,2.356425165840243,0,0,0.489029,0.6306,0.278854,-0.458052,-3.310742,0.584845
709,0.9262867608735726,2.399356604956715,0,0,0.513031,0.7150730000000001,0.280045,-0.402622,-3.2389360000000003,0.4291779999999999
710,0.9460200925653356,2.4079480477453252,0,0,0.6618499999999999,0.9088890000000001,0.11968999999999996,-0.323253,-2.825262,0.274307
711,0.9717770662492132,2.3912619653518656,0,0,0.796585,0.9810029999999998,-0.11950700000000003,-0.298466,-2.447627,0.12124
712,1.001817679439384,2.3614226074918476,0,0,0.8678129999999998,0.831391,-0.269165,-0.70662,-1.725591,0.263811
713,1.0343105611747352,2.3304124485416615,0,0,0.831116,0.565185,-0.07369999999999999,-1.047813,-0.75797,0.471695
714,1.0672564924180663,2.3069678608603117,0,0,0.6767430000000001,0.314605,0.092972,-0.843988,-0.385488,0.120129
715,1.098418421838,2.294357638027424,0,0,0.525894,0.3113859999999999,-0.005875000000000019,-0.838096,0.2300449999999999,-0.101741
716,1.1253838243297711,2.2896310705485097,0,0,0.41333,0.555115,-0.118286,-1.352451,0.629278,-0.3931969999999999
717,1.1458605554242882,2.2845548606285804,0,0,0.47810300000000006,0.772995,-0.18248000000000003,-1.745925,0.982756,-0.802323
718,1.1582107062556914,2.2679989502625313,0,0,0.8124849999999998,1.11911,-0.5201119999999999,-2.754697,1.695977,-1.396737
719,1.1620922605893302,2.229111321702159,0,0,1.21997,1.314285,-0.8401339999999999,-3.899313,2.205019,-1.163966
720,1.1589697803383492,2.1603935734229505,0,0,1.1578519999999999,0.915314,-0.8975979999999999,-2.897148,0.524439,-0.5416529999999999
721,1.1522385969604254,2.0598617399458883,0,0,1.022034,0.4658049999999999,-0.951737,-1.010638,-1.318565,-0.293242
722,1.1468092658138596,1.9318295373642291,0,0,0.8078759999999999,0.16795300000000019,-0.797104,0.520414,-1.070135,0.1882069999999999
723,1.1481840759865407,1.786303211346983,0,0,0.625336,0.08332800000000018,-0.349549,1.124587,1.124732,0.89571
724,1.1612435176231108,1.6373031335182764,0,0,0.37661700000000004,0.14724700000000002,-0.00972000000000009,1.292966,1.786779,0.88856
725,1.189067523292058,1.5005389812589587,0,0,0.41896100000000003,0.4990690000000001,0.14598099999999997,1.06105,0.583205,0.244344
726,1.232101719582414,1.3908517114969794,0,0,0.621704,1.295319,0.22029200000000002,0.715986,-0.275309,-0.279326
727,1.2878557552144425,1.3198169924011154,0,0,0.6390229999999999,1.6214600000000001,0.3784329999999999,-0.3992489999999999,-0.023244,0.521205
728,1.3511576300225168,1.2938957079258615,0,0,0.443695,0.898224,0.40325900000000003,-0.291008,-0.635059,0.514199
729,1.4148704039492244,1.313452668916658,0,0,0.38673399999999997,0.615097,0.255158,0.374028,-0.80373,0.0276779999999999
730,1.470936730783032,1.372811240818437,0,0,1.1140439999999998,0.808319,0.344635,0.273367,1.068086,0.083329
731,1.5116043264027297,1.4613052738035421,0,0,1.8846589999999999,0.9669639999999999,0.03160099999999999,1.097515,0.956941,1.054901
732,1.530647062495848,1.5650928840417664,0,0,2.209442,0.4294739999999999,-0.415069,1.141961,1.539906,1.483889
733,1.52435290416542,1.6693632677535912,0,0,1.738297,0.3329009999999999,-0.23876999999999998,-1.100459,0.8685930000000001,0.280155
734,1.492074162294241,1.7605340359817974,0,0,0.9124759999999998,0.6752159999999999,0.31582599999999994,-1.945416,-0.136081,-0.022493
735,1.4362529568040385,1.828099384721248,0,0,1.021042,0.7955929999999999,0.09465000000000011,-1.970152,-0.750384,-0.357301
736,1.3619835113541712,1.8658988699975345,0,0,0.9527889999999999,0.820038,-0.080704,-2.0349169999999996,-0.684204,-0.600324
737,1.276268211973969,1.8726828132571638,0,0,0.903321,0.795547,-0.050293,-1.873932,-0.371027,-0.736333
738,1.1871373749470446,1.8519473333905812,0,0,0.878845,0.629333,0.09242299999999999,-1.6544990000000002,-0.098576,-0.8612
739,1.1027644178030136,1.81111382688635,0,0,0.9223180000000001,0.6048129999999999,0.044617000000000004,-1.397275,0.430907,-0.8280350000000001
740,1.0306596921735054,1.7602259967962355,0,0,0.953613,0.575012,-0.07296699999999989,-1.140016,0.838515,-0.686823
741,0.9769879506947536,1.7104040758997239,0,0,0.911041,0.39708000000000004,-0.21106,-1.141794,0.5005970000000001,-0.6287189999999999
742,0.946032163058502,1.6723108529170283,0,0,0.8678739999999999,0.335221,-0.143829,-1.402947,-0.160026,-0.6307649999999999
743,0.9398214024048653,1.6548485725874005,0,0,0.823746,0.27329999999999993,-0.0774990000000001,-1.626472,-0.648641,-0.523809
744,0.9579472993917909,1.6642389814912275,0,0,0.796081,0.20393399999999995,0.045151,-1.383587,-0.534161,-0.325707
745,0.9975992813041903,1.7035692205436443,0,0,0.828903,0.20904499999999998,-0.15353400000000011,-1.017559,-0.6508970000000001,-0.221519
746,1.053840756712687,1.7728313979489838,0,0,0.880112,0.27316300000000004,-0.22554,-0.678728,-1.16259,-0.158676
747,1.1201215998880334,1.8694306293431195,0,0,0.989883,0.48156699999999997,-0.2012639999999999,-0.338856,-1.76757,0.054913
748,1.188981772106618,1.9890570948845445,0,0,1.07811,0.666336,-0.112671,0.209256,-2.392195,0.205888
749,1.2528596355686048,2.1267139803953095,0,0,1.162399,0.8725729999999999,0.17807,0.634131,-2.770943,0.247797
750,1.3048925234114797,2.2776153578852893,0,0,1.069625,0.856414,0.40736399999999995,0.429608,-2.74968,0.435417
751,1.3395987245055465,2.437678776123616,0,0,1.038788,0.763763,0.49787900000000007,-0.101471,-2.7252389999999997,0.644252
752,1.353360460889386,2.603457941353478,0,0,1.0781859999999999,0.721511,0.40797400000000006,-0.2441239999999999,-2.582292,0.7178479999999999
753,1.3446741233071269,2.7715528960064524,0,0,1.081833,0.610428,0.279037,-0.285945,-2.324621,0.785592
754,1.314177386826489,2.9377264124972027,0,0,1.121597,0.540863,0.1783749999999999,-0.710885,-1.978712,0.963778
755,1.2644883259104909,3.0960784657219085,0,0,1.25499,0.43402100000000005,0.21794200000000002,-0.964968,-1.713677,1.50432
756,1.1998972397463121,3.238644324376325,0,0,1.105255,0.483948,0.12109400000000009,-0.841419,-1.5264950000000002,1.739952
757,1.1259465658416263,3.3556764727932524,0,0,0.968949,0.519119,-0.028992000000000018,-0.876433,-1.923859,1.7744
758,1.0489297002891271,3.4366682270009172,0,0,0.7556300000000001,0.703369,-0.199936,-1.677609,-3.076975,1.7916459999999998
759,0.9753407295772687,3.4719298614694725,0,0,0.7406160000000002,0.714402,-0.05873099999999998,-2.411526,-3.3288660000000005,1.750523
760,0.9113112287192373,3.454318682022786,0,0,0.6085510000000001,0.7095189999999999,0.097808,-2.5185009999999997,-3.117831,1.548671
761,0.8620745369131243,3.380646189291716,0,0,0.4684290000000001,0.5686039999999999,0.10517900000000008,-2.399917,-2.841396,1.314136
762,0.8315023513738565,3.252387527216366,0,0,0.506561,0.544037,0.05027699999999996,-2.181542,-2.229631,1.051027
763,0.8217603311234244,3.0755586769027494,0,0,0.5384519999999999,0.5995329999999999,-0.030303999999999998,-2.067918,-1.480917,0.730395
764,0.8331220749642393,2.859893034121774,0,0,0.534775,0.6230020000000001,-0.10585,-2.0483990000000003,-0.789365,0.400632
765,0.8639625709231893,2.617628877693327,0,0,0.543213,0.66092,-0.15869099999999992,-2.088191,-0.257321,0.051432
766,0.9109305352041646,2.3622550003556193,0,0,0.571198,0.669327,-0.2513889999999999,-2.06708,0.251249,-0.341109
767,0.9692830902070407,2.1074640397327085,0,0,0.626755,0.563446,-0.27397099999999996,-2.0184029999999997,0.717129,-0.737677
768,1.0333576757245124,1.8663952911345565,0,0,0.768463,0.423722,-0.28367600000000004,-1.794998,1.001925,-1.022764
769,1.0971489055616497,1.6510944511333883,0,0,0.9107049999999999,0.4001770000000001,-0.43762199999999996,-1.520345,0.991835,-1.135133
770,1.154944867791578,1.4720433377034439,0,0,0.9551540000000001,0.33950800000000003,-0.6140140000000001,-1.279609,0.449874,-0.877452
771,1.2019570750891881,1.3376404643997974,0,0,1.143692,0.26225300000000007,-0.701737,-0.825009,-0.792112,-0.238161
772,1.234859230687639,1.2536132954871693,0,0,1.026001,0.09967000000000004,-0.24111899999999997,-0.358838,-0.871973,0.413597
773,1.2521428381282982,1.2224507703099279,0,0,1.3444829999999999,0.663681,0.16680899999999999,0.570005,-0.193563,0.7161810000000001
774,1.254206495743006,1.2430012651183229,0,0,1.5604710000000002,1.409607,0.4319910000000001,0.84349,0.496087,0.375377
775,1.243124499280857,1.3103657657839527,0,0,0.7347720000000001,0.8868099999999999,0.36091600000000007,-0.015862,0.000493,1.179721
776,1.2221038418255326,1.4161475695352475,0,0,0.509247,0.46351599999999993,0.36645500000000014,-1.140779,0.262804,1.292237
777,1.194740068652468,1.5490370590511144,0,0,0.301254,0.53569,0.12475599999999998,-1.689426,0.939677,0.5974659999999999
778,1.1642768907895773,1.6956535430116142,0,0,0.35606400000000005,0.611511,-0.083038,-0.896114,0.083362,-0.39682
779,1.1330903588409025,1.8415585187213102,0,0,0.674133,0.8401190000000001,0.035919000000000006,-1.03917,-0.602693,-1.066715
780,1.1025293738543032,1.97237693990609,0,0,0.893356,0.884536,0.39474400000000015,-1.973116,-0.235055,-1.08546
781,1.073098926181079,2.0749669818614445,0,0,1.094436,0.736572,0.4559479999999999,-2.23149,-0.2299719999999999,-0.800988
782,1.0448507572535133,2.138548083408662,0,0,1.194168,0.49408,0.283814,-2.31142,-0.915541,-0.316763
783,1.0178017528981074,2.155674467695856,0,0,0.89862,0.510208,-0.051421999999999995,-1.893356,-0.474803,-0.075126
784,0.9922360764036231,2.122970704966366,0,0,0.824341,0.587677,-0.16226200000000002,-1.542661,-0.017102,-0.0209199999999999
785,0.9688263937527534,2.041609288120958,0,0,0.755921,0.6144099999999999,-0.190079,-1.81624,-0.47162,-0.138685
786,0.9485876971637537,1.917545104316536,0,0,0.520431,0.5336000000000001,0.23146,-1.965349,-0.842116,-0.330463
787,0.932727163081172,1.7614910191445365,0,0,0.49287400000000015,0.500397,0.3258969999999999,-1.957723,-0.7985,-0.32192
788,0.922469436249163,1.588552678901309,0,0,0.519928,0.4948420000000001,0.406784,-1.790264,-0.269897,-0.257334
789,0.9189225578988023,1.417406303545806,0,0,0.667527,0.657028,0.0233,-1.640264,0.009085,-0.357057
790,0.9230137892511233,1.2689399684400957,0,0,0.7359309999999999,0.627929,-0.088699,-1.447596,0.085368,-0.419902
791,0.935482364967453,1.164372981957056,0,0,0.7815399999999999,0.5842590000000001,-0.1357879999999999,-1.197226,0.275059,-0.388486
792,0.9568858307051716,1.1229825016289074,0,0,0.954483,0.42890900000000004,0.021697999999999898,-1.044169,0.184891,-0.349914
793,0.9875678514696586,1.1596733529008574,0,0,1.028457,0.433304,0.07098399999999999,-0.99744,-0.115617,-0.365226
794,1.027547230729203,1.282709873867187,0,0,1.117492,0.44944799999999996,0.102478,-0.905507,-0.423249,-0.237071
795,1.0763157404052885,1.4919742269369665,0,0,0.9690859999999999,0.45114100000000007,0.0127250000000001,-0.472641,-0.491745,-1.9e-05
796,1.1325721107876259,1.7781085789489672,0,0,0.88977,0.436905,-0.071655,-0.2000849999999999,-0.882368,0.212825
797,1.1939626203594322,2.1228189794893138,0,0,0.838959,0.420014,-0.189072,-0.1576509999999999,-1.556142,0.305852
798,1.2569277690252243,2.5004516372228838,0,0,0.905639,0.484649,-0.157028,0.2226389999999999,-2.397866,0.547801
799,1.3167507038203956,2.880714427860989,0,0,1.03981,0.630234,-0.03408799999999999,0.826235,-3.0544,0.904303
800,1.3678609361985234,3.2321720136363745,0,0,1.17627,0.782165,-0.111709,1.569424,-3.108186,1.189438
801,1.4043810112760342,3.5259754748510193,0,0,1.100036,0.9035949999999999,-0.030440999999999996,2.0661650000000003,-3.302336,1.092743
802,1.4208400653631268,3.739247800205771,0,0,1.031601,1.0080719999999999,0.060531,1.42311,-3.411259,0.917475
803,1.412937287011424,3.8576267405784965,0,0,1.07132,1.084122,0.3779760000000001,-0.6266109999999999,-4.724749,0.831134
804,1.3782257218997214,3.876621112722128,0,0,1.276596,0.7026519999999998,0.47096299999999996,-1.581319,-4.397686,1.119944
805,1.3165981477473152,3.8016300443243924,0,0,1.3721770000000002,0.533203,0.364441,-0.6161909999999999,-2.319196,2.112127
806,1.2304879136369975,3.6466942024378093,0,0,1.1593010000000001,0.43820100000000006,-0.2245789999999999,-0.179528,-1.026233,2.868753
807,1.1247458788045104,3.432260450170911,0,0,0.86734,0.55545,-0.367035,-0.418965,-2.227705,2.238369
808,1.0062109758218383,3.1823716577062333,0,0,0.722274,0.676712,-0.26136800000000004,-1.0145,-2.973832,1.532276
809,0.8830410101531354,2.921694283877613,0,0,0.437179,0.6668240000000001,-0.0943,-1.327746,-2.337265,1.122279
810,0.7638998468313611,2.672714218927784,0,0,0.377243,0.5853419999999999,-0.15649400000000002,-1.391437,-1.695067,1.21822
811,0.6571054131618391,2.453355433416366,0,0,0.43589799999999995,0.4310149999999999,-0.1442259999999999,-1.6503290000000002,-1.105314,1.012693
812,0.5698357745870488,2.275241491674972,0,0,0.43690500000000015,0.333954,-0.08261100000000005,-1.632157,-0.655808,0.740916
813,0.5074750777845729,2.1427951227152,0,0,0.34265100000000004,0.27543700000000004,-0.09347499999999997,-1.571929,-0.3788829999999999,0.434402
814,0.4731632738218414,2.05331350928421,0,0,0.273742,0.257187,-0.09414699999999998,-1.549734,-0.094064,0.051769
815,0.4675959050717195,1.9980503473539728,0,0,0.23609899999999995,0.22564700000000004,-0.13798499999999997,-1.541907,0.624092,-0.261018
816,0.4891005826753212,1.9641860200999843,0,0,0.24977100000000008,0.213424,-0.14900199999999997,-1.474852,1.037183,-0.525998
817,0.5339901315212013,1.9373955486385745,0,0,0.268951,0.21437100000000003,-0.23940999999999998,-1.516528,1.717996,-0.7813979999999999
818,0.5971558747874078,1.9045685868407827,0,0,0.4072720000000001,0.23159799999999992,-0.27188100000000004,-1.470368,2.227044,-1.048783
819,0.6728202703997775,1.8561506408100579,0,0,0.6459039999999999,0.27717600000000003,-0.314102,-1.190686,2.518723,-1.505471
820,0.7553241724226766,1.7876159906912588,0,0,0.9684599999999999,0.45802300000000007,-0.2917629999999999,-0.680085,1.826064,-1.623862
821,0.8397955087718986,1.6997793095003144,0,0,1.09613,0.647568,-0.211029,-0.153341,0.967331,-0.985627
822,0.9225537206949209,1.5979679680113528,0,0,0.967133,0.5414129999999999,-0.3222959999999999,-0.052946,0.289859,-0.019453
823,1.0011633210884907,1.4903932103922226,0,0,0.8142999999999999,0.42324800000000007,-0.3240509999999998,-0.566735,0.351679,0.416976
824,1.0741532291358555,1.3862289177874618,0,0,0.677353,0.320221,-0.27526799999999996,-0.674271,1.282422,0.587016
825,1.1405292885783203,1.2938612131903544,0,0,0.583084,0.42005899999999996,-0.099488,-0.069828,1.391189,0.568666
826,1.1992759854699606,1.2195807645763346,0,0,0.6236569999999999,0.5159910000000001,-0.098465,0.023532,0.888649,0.420411
827,1.2490369535129995,1.1667972563493467,0,0,0.767868,0.85286,-0.060364,-0.568321,0.955558,0.185455
828,1.2880848180001585,1.1357501271647823,0,0,0.799881,1.122147,0.3961800000000001,-0.941934,1.024362,-0.17937
829,1.3145753286876611,1.1236581244129713,0,0,0.773041,1.1696019999999998,0.526413,-0.873899,0.679298,0.00635
830,1.3269796098402873,1.1252464708111931,0,0,0.7858419999999999,1.2047569999999999,0.535171,-0.514528,-0.115297,0.202158
831,1.3245406712567245,1.1335917157375086,0,0,1.170486,0.9163509999999999,-0.33458,-0.290371,-1.199886,0.042744
832,1.3076141352375896,1.1412166836450144,0,0,1.097519,0.5887140000000001,-0.176895,0.694807,-0.412685,0.26333
833,1.2778080971352672,1.1413338467900538,0,0,1.0504,0.37724300000000005,-0.073807,1.230642,0.729118,0.640555
834,1.2379008500821107,1.1290797985967507,0,0,1.332001,0.5421910000000001,0.2074430000000001,1.051448,0.983359,0.8857370000000001
835,1.1915616829756859,1.102544009129143,0,0,1.332001,0.542191,0.207443,0.358067,0.6888810000000001,0.803291
836,1.1429246896640672,1.0634110194480975,0,0,0.8864289999999999,0.33036800000000005,0.059676999999999994,-0.385325,0.098785,0.632212
837,1.0960848616974095,1.0171073650860019,0,0,0.7064360000000001,0.42488100000000006,0.05203300000000001,-0.8681030000000001,-0.448563,0.201184
838,1.054609143786733,0.9724276861999489,0,0,0.68776,0.46795600000000004,0.088227,-1.053905,-0.851244,-0.168134
839,1.0211644196363194,0.9406626002003803,0,0,0.685409,0.509674,0.0926209999999999,-1.017126,-0.781004,-0.44891
840,0.9973349022265283,0.9342703055284077,0,0,0.8694,0.5294190000000001,0.010192999999999994,-0.99057,-0.474788,-0.592259
841,0.9836361395536606,0.9651730026802793,0,0,1.169082,0.5572050000000001,-0.012909000000000004,-0.6449020000000001,-0.30517,-0.419146
842,0.9796639673338412,1.0428452291589145,0,0,1.1663509999999997,0.39347800000000005,-0.196823,-0.5232760000000001,-0.586431,0.014694
843,0.9842811340657989,1.1724659885183384,0,0,0.933533,0.44303899999999996,-0.317032,-0.196372,-1.049448,0.169258
844,0.995761026833433,1.3534763618108911,0,0,0.7524409999999999,0.523971,-0.09674100000000001,0.061638,-0.893582,0.128132
845,1.0118662745709819,1.5788865331365698,0,0,0.670456,0.44561700000000004,-0.139679,0.344155,-0.525738,0.068745
846,1.029904565739292,1.8356069347947521,0,0,0.754227,0.355377,-0.25518799999999997,0.5332,-0.567589,-0.018543
847,1.0468381695504276,2.105933804885327,0,0,0.859742,0.29626499999999995,-0.2366339999999999,0.997154,-1.173772,0.122207
848,1.0595128904148852,2.3700886426094514,0,0,0.805618,0.3349150000000001,-0.127853,0.88584,-2.119575,0.444176
849,1.065026613926317,2.6094126932734416,0,0,0.845596,0.426483,-0.165955,0.3861449999999999,-3.653758999999999,0.6573640000000001
850,1.0611969618560717,2.8095342491485136,0,0,1.0640100000000001,0.652695,-0.276931,0.503113,-4.9238800000000005,0.900159
851,1.0470297287460668,2.962687203463929,0,0,1.1556389999999999,0.9070579999999999,0.03222599999999992,-0.062734,-4.432193,1.24168
852,1.0230539483174788,3.068478292329662,0,0,1.09822,0.8683469999999999,0.258942,-1.267388,-3.515153,0.994945
853,0.9913990626427149,3.1328008899755084,0,0,0.6381229999999999,0.6474,0.2091530000000001,-0.715284,-2.822083,0.6229680000000001
854,0.9555558463733823,3.1651612184557627,0,0,0.48126199999999997,0.695404,-0.166122,-0.241421,-2.079192,0.380703
855,0.9198630682541339,3.1752081034749002,0,0,0.43031300000000006,0.639557,-0.023376000000000008,-0.585658,-0.5378539999999999,0.175498
856,0.8888484282448474,3.1695383105319976,0,0,0.24179000000000006,0.5013740000000001,-0.04792799999999997,-0.546984,0.954427,0.184538
857,0.8665866219927111,3.1497743315491156,0,0,0.338196,0.537979,-0.256652,-0.830298,2.127702,0.062483
858,0.8562127222016694,3.112490302211653,0,0,0.53186,0.56807,-0.304794,-1.331092,2.904112,-0.258204
859,0.8596635692759088,3.0509354052698408,0,0,0.675629,0.5157320000000001,-0.301208,-1.759253,3.611381,-0.666957
860,0.8776419191491578,2.957905318812061,0,0,0.7464289999999999,0.398331,-0.412781,-1.659988,4.215412000000001,-1.023824
861,0.9097359846000812,2.8287599650673987,0,0,0.8888099999999999,0.49374399999999996,-0.401337,-1.257719,4.427105,-1.297955
862,0.9545983892322001,2.663589518345804,0,0,0.8725890000000001,0.641419,-0.341797,-0.724912,3.969842,-0.8962690000000001
863,1.010096060650436,2.4678711949833296,0,0,0.880753,0.714935,-0.402618,-0.404566,2.076288,-0.2357159999999999
864,1.0733802627345606,2.251511604176271,0,0,0.9096679999999999,0.519394,-0.5975649999999999,-0.49217,-0.023212,0.066533
865,1.1408846735063405,2.026725280259221,0,0,0.5935819999999999,0.391678,-0.27511599999999997,0.015371,0.447858,0.370713
866,1.208322804597459,1.8055299244753695,0,0,0.5743720000000001,0.540924,0.008301,1.154398,1.317477,0.62645
867,1.2707957797687137,1.597621133224613,0,0,0.618423,0.862548,0.1326589999999999,1.669517,1.033185,0.146508
868,1.3231078360435105,1.40910864597771,0,0,0.6958920000000001,1.1237179999999998,0.27864099999999997,0.975446,0.397511,-0.124581
869,1.3603152602349178,1.2422710821081155,0,0,0.821304,1.037338,0.452072,-0.166898,0.33819,-0.017116
870,1.3784375825331374,1.0962691050369744,0,0,0.990661,0.918075,0.395005,-0.387544,0.5384939999999999,-0.100099
871,1.3751828032131548,0.968629267301651,0,0,1.348862,0.6442420000000001,0.112106,-0.268838,1.026286,0.08918
872,1.3505049781943583,0.8571806489153607,0,0,2.0911869999999997,0.839279,-0.547272,1.329999,0.672668,0.553728
873,1.3068262071492167,0.7619785513899154,0,0,1.404251,0.41250600000000004,0.103256,1.667013,1.232659,1.146091
874,1.248821420746451,0.6866692227535436,0,0,0.7756799999999999,0.364258,0.17598,0.12358,-0.6006819999999999,0.886617
875,1.1827815899590206,0.6388301145169761,0,0,0.6805270000000001,0.6085210000000001,0.259095,-0.698499,-0.826674,0.306461
876,1.1156976263204277,0.6290702869862834,0,0,0.769837,0.3303370000000001,-0.123337,-0.926734,0.111571,0.0376769999999999
877,1.0542764853147715,0.6690076494372942,0,0,0.911103,0.275268,-0.291931,-0.104524,0.055344,0.065925
878,1.0040831236226497,0.7685363095065311,0,0,0.900315,0.354248,-0.129975,0.153216,-0.04144,0.069986
879,0.9689285347665071,0.9329791151641165,0,0,0.8164819999999999,0.5221709999999999,0.073257,0.325729,0.097616,0.044307
880,0.9505465688167336,1.1607580759817582,0,0,0.78888,0.4888,-0.0016939999999999976,0.6899270000000001,0.264337,0.126754
881,0.948549170224662,1.4421178851758583,0,0,0.7735599999999999,0.43194600000000005,-0.089157,0.89556,0.016272,0.178715
882,0.9606219102251943,1.7592480986446877,0,0,1.019348,0.3084410000000001,-0.1325839999999999,0.8767290000000001,-0.63552,0.155918
883,0.9829089308500315,2.0879206711275873,0,0,1.019349,0.3084410000000001,-0.132583,0.734703,-1.141024,0.153437
884,1.010532350611479,2.400519108826624,0,0,0.958618,0.24197399999999997,-0.11616499999999999,0.6860569999999999,-1.562422,0.349122
885,1.0381962816456518,2.6700817209755003,0,0,0.600647,0.430542,-0.165177,0.5562729999999999,-2.400345,0.615276
886,1.060836520048705,2.8747161069975045,0,0,0.650543,0.5474859999999999,-0.2986149999999999,0.173571,-4.434883999999999,0.646189
887,1.0742784004880757,3.0015115111155115,0,0,0.745361,0.66803,-0.32675199999999993,0.671619,-5.640584,0.433296
888,1.0758420689254529,3.048990476397592,0,0,1.159256,0.9972379999999998,0.00920099999999996,-0.097023,-4.902336,0.563713
889,1.0647946543377493,3.027332991168989,0,0,1.109817,0.900467,0.10539200000000004,-0.673128,-3.617052,0.656319
890,1.0425280766913532,2.956114190361206,0,0,0.9750359999999999,0.8034819999999999,0.07057200000000002,-0.5875739999999999,-2.530294,0.272032
891,1.0123745498470835,2.8599818780036665,0,0,0.5388800000000001,0.679657,-0.005843999999999905,-0.015663,-1.639407,-0.035967
892,0.9790585685318949,2.7633037301831918,0,0,0.565414,0.742355,0.0023960000000000092,0.236141,0.013077,-0.0480769999999999
893,0.9478840851568043,2.685109480216065,0,0,0.499954,0.6826169999999999,-0.184768,-0.184024,1.208849,-0.083522
894,0.9238228981530633,2.635548269270149,0,0,0.512772,0.557785,-0.206421,-0.80106,1.418398,-0.269698
895,0.9106879186006513,2.6146299055676883,0,0,0.4694060000000001,0.41404700000000005,-0.30062900000000004,-1.29186,1.64585,-0.513768
896,0.9105535842917751,2.6133878100036223,0,0,0.416534,0.24192799999999992,-0.343323,-1.54985,2.131583,-0.548239
897,0.923538501694744,2.616994211723345,0,0,0.41723600000000005,0.14064100000000002,-0.386398,-1.547264,2.858438,-0.63461
898,0.9479942985417198,2.608923581196098,0,0,0.531723,0.17991600000000008,-0.331482,-1.093964,3.867233,-1.021569
899,0.9810485857769161,2.575065621770198,0,0,1.1568450000000001,0.9442900000000001,-0.514466,-0.7367819999999999,4.699085,-1.564934
900,1.0193433942320316,2.506761797392657,0,0,1.0906829999999998,1.223923,-0.4712829999999999,-0.505088,4.357125,-1.2317280000000002
901,1.0597358374388794,2.402090319594017,0,0,1.13591,1.067062,-0.34495599999999993,-0.420885,1.03789,-0.0155229999999999
902,1.0997391354374777,2.265295238901303,0,0,0.8449399999999999,0.3826600000000001,-0.400939,-0.156994,-0.289358,0.00084
903,1.1375969466650548,2.104849070399501,0,0,0.644592,0.3669900000000001,-0.255402,0.044055,1.097941,0.813383
904,1.1720496829846299,1.9309830907533547,0,0,0.5948030000000001,0.397293,0.0479579999999999,0.734649,1.857191,0.554451
905,1.2019766419121747,1.753480903877366,0,0,0.310013,0.924637,0.4218290000000001,0.943076,1.250134,0.336632
906,1.2261217282427725,1.58023568569156,0,0,0.31912300000000005,0.899139,0.31572,0.185528,0.482861,0.528876
907,1.2430406779259193,1.4167546428500297,0,0,0.7057340000000001,0.9248959999999999,-0.116974,0.312531,-0.810578,-0.064647
908,1.251296359766552,1.2665657857004538,0,0,1.298889,0.702927,0.279754,1.151062,0.283004,-0.144581
909,1.2498277734055603,1.1323030998140853,0,0,1.319855,0.45607,0.27783199999999997,1.20441,1.554747,0.656397
910,1.2383577465040987,1.0170791595981754,0,0,1.198807,0.513122,-0.042175000000000004,1.575369,0.933877,0.8210850000000001
911,1.2176945816236047,0.9256517226886042,0,0,1.351578,0.8507390000000001,0.01936299999999999,0.946788,0.836052,0.521991
912,1.1898185849056868,0.8649323599416643,0,0,1.11258,0.348861,0.059157999999999995,0.17377,-0.225432,0.776461
913,1.1577083145447782,0.8435749262927675,0,0,1.070679,0.330201,-0.1760099999999999,0.45315,-1.691123,0.76854
914,1.1249331584660125,0.8706392005962091,0,0,0.868393,0.45874000000000004,0.14704899999999999,-0.000666,-0.574371,0.543886
915,1.0950984530032806,0.9535672840159038,0,0,0.8197180000000001,0.46127299999999993,-0.197266,0.3261699999999999,-0.057735,0.266701
916,1.0712592907122274,1.0959031712907004,0,0,0.908218,0.431488,-0.25917099999999993,0.453958,0.1122119999999999,0.014207
917,1.0554140294839494,1.295306685845983,0,0,0.965348,0.4964599999999999,-0.146378,0.568059,0.029008,-0.05646
918,1.0481600520693968,1.5424198485068976,0,0,0.8903499999999998,0.4153739999999999,-0.16036899999999998,0.671586,-0.2163,-0.072515
919,1.048561971792212,1.8210134350604474,0,0,0.8675539999999999,0.34503200000000006,-0.2576749999999999,0.713949,-0.685471,0.0031579999999999
920,1.0542582935476583,2.1095985862051254,0,0,0.8054960000000001,0.242126,-0.130356,0.672714,-1.180156,0.1381
921,1.0618133777937766,2.384378974412188,0,0,0.7690119999999999,0.305358,0.01306199999999999,0.689025,-1.891436,0.308973
922,1.0672938724454968,2.6230858803316477,0,0,0.760727,0.475922,-0.045624,0.438225,-3.489867,0.389386
923,1.0670017102058948,2.808935906144648,0,0,1.0478669999999999,0.7369690000000001,-0.391952,0.39855,-4.908768,0.678279
924,1.058234324864945,2.9337707264588984,0,0,1.242569,0.8864589999999999,-0.365784,0.1375,-4.898854,1.088776
925,1.0398943496750492,2.9994956491901603,0,0,1.273422,0.895111,-0.177734,-0.287,-3.727529,1.043718
926,1.0127755086200363,3.017290736028701,0,0,0.8021849999999999,0.690842,0.09816000000000003,-1.305987,-3.463518,0.373955
927,0.9794301848942542,3.0046517137803566,0,0,0.45457500000000006,0.5572210000000001,-0.19389299999999998,-0.6148779999999999,-2.386679,0.080437
928,0.9436523577743955,2.98093547796275,0,0,0.453445,0.590698,-0.17237799999999998,-0.307048,-1.084984,-0.167977
929,0.9097256878805386,2.9625290638360364,0,0,0.44056700000000004,0.5825809999999999,-0.08090199999999997,-0.313096,0.395859,-0.190213
930,0.8816384539681177,2.9588887293822936,0,0,0.40542600000000006,0.515595,-0.22093200000000002,-0.59601,1.555805,-0.176584
931,0.8624475995611851,2.97045617253353,0,0,0.4210200000000001,0.5088659999999999,-0.267823,-0.99017,2.066764,-0.273996
932,0.853911074832859,2.988920276861491,0,0,0.43626399999999993,0.494965,-0.31764199999999987,-1.278398,2.629619,-0.387825
933,0.8564310588342352,2.99964165067761,0,0,0.6316680000000001,0.34657299999999996,-0.488724,-1.754632,3.171591,-0.710176
934,0.869277749380728,2.985510223634592,0,0,0.650253,0.31893900000000003,-0.500015,-1.850483,3.826278,-1.0449700000000002
935,0.8910039986539735,2.9312057039629718,0,0,0.742493,0.33305399999999996,-0.5808409999999999,-1.503748,4.173923,-1.170112
936,0.9199233277505557,2.8268219903211196,0,0,1.0010379999999999,0.5430760000000001,-0.41784699999999997,-0.756925,3.660363,-0.728403
937,0.9545143054524772,2.670074728953945,0,0,0.99675,0.629883,-0.295441,0.048714,2.566679,-0.184058
938,0.9936377405732959,2.4667459000029277,0,0,0.9839479999999999,0.679504,-0.277984,0.520184,2.235312,0.222379
939,1.0365109063034377,2.2294810851122002,0,0,0.6883849999999999,0.551284,-0.09903,0.396779,2.14715,0.531415
940,1.0824647645861125,1.9753983927795364,0,0,0.588135,0.565445,0.027068999999999902,0.210553,1.536243,0.286274
941,1.1305878406447551,1.7231330777285285,0,0,0.48382500000000006,0.6248469999999999,0.058608999999999994,0.1925869999999999,1.112166,0.060229
942,1.1793985405081997,1.489958766064051,0,0,0.586579,1.2101899999999999,-0.0672609999999999,0.3637289999999999,0.013092,-0.426413
943,1.2266692067294411,1.289541970956093,0,0,0.575165,1.141357,0.0105889999999999,0.360442,-0.339008,-0.283911
944,1.2694686167447644,1.1307167985797983,0,0,0.685821,0.5225069999999999,0.19662500000000008,0.446009,0.154145,-0.074574
945,1.3044317368502423,1.0174181651472025,0,0,0.948898,0.39457799999999993,0.590271,1.100993,0.739481,0.297788
946,1.3282226300745066,0.949623270013764,0,0,1.068557,0.48130800000000007,0.686905,0.624371,1.475271,0.257196
947,1.3381153552736678,0.9249000726524533,0,0,1.271851,0.500564,0.130036,0.750999,1.288969,0.383301
948,1.332569705767567,0.9400327491239228,0,0,1.719268,0.61026,-0.49890199999999996,1.523428,0.257769,0.7820560000000001
949,1.3116442870305567,0.9922308276221654,0,0,1.8588110000000002,0.726243,-0.5304719999999999,1.1157549999999998,0.180671,0.968382
950,1.2771045441350932,1.0796069690271108,0,0,0.8282919999999998,0.525421,0.353607,-0.036336,-0.5629850000000001,0.658981
951,1.2321672716030143,1.200855995237425,0,0,0.6707609999999999,0.39901799999999993,0.25811799999999996,-0.775129,-1.262085,0.3043389999999999
952,1.1809503895417772,1.3543043180903191,0,0,0.72107,0.408829,0.12528999999999998,-0.552165,-0.968132,0.127127
953,1.1277981147608418,1.5366680015724765,0,0,0.962707,0.48333800000000005,-0.4166869999999998,0.153415,-0.952219,0.064737
954,1.0766680302627005,1.74193909343027,0,0,0.947662,0.38446,-0.102707,0.431468,-1.019327,0.089198
955,1.030704960499498,1.9608126062880995,0,0,0.893463,0.34478699999999995,0.021927000000000002,0.629717,-0.870585,0.282672
956,0.9920434114883501,2.1809664536541926,0,0,0.865982,0.246933,-0.227524,1.009631,-0.967086,0.6422359999999999
957,0.9618188350119324,2.3883138903993895,0,0,0.92804,0.23815899999999995,-0.44334399999999996,1.262881,-1.379906,1.094255
958,0.9403328865823971,2.5690891952742683,0,0,0.895248,0.347229,-0.367691,0.992422,-2.244897,1.059291
959,0.9272995275685344,2.712359179776817,0,0,0.8227699999999999,0.3634799999999999,-0.1244349999999999,0.6282939999999999,-3.340667,0.743027
960,0.9220946250203533,2.812348308135745,0,0,0.812759,0.499588,-0.09410099999999999,0.8218139999999999,-4.246632,0.695332
961,0.9239415154977839,2.8698963663673136,0,0,0.969376,0.721787,-0.12684700000000004,0.3008949999999999,-4.557957,0.680342
962,0.9319852477539134,2.8924924617912438,0,0,0.968277,0.695724,-0.0865789999999999,-0.365504,-3.625107,0.80802
963,0.9452394765204463,2.89266291951331,0,0,0.6169889999999999,0.5597380000000001,-0.06870999999999988,-0.680301,-2.210516,0.572203
964,0.96243751902035,2.8849641891113103,0,0,0.440384,0.439712,-0.10009800000000002,-0.8651110000000001,-2.176462,-0.057246
965,0.9818742207779623,2.8822866260948974,0,0,0.464508,0.5011289999999999,-0.12863200000000002,-0.692072,-1.283001,-0.396877
966,1.0013565178403414,2.892438031923231,0,0,0.5521090000000001,0.5970759999999999,-0.12025400000000003,-0.556666,0.38995,-0.36496
967,1.0183584852715704,2.915952783692396,0,0,0.595626,0.695419,-0.23577900000000002,-0.8025260000000001,1.709615,-0.365164
968,1.0304042159889568,2.945770655169114,0,0,0.593262,0.737518,-0.305832,-1.311515,2.009232,-0.5250630000000001
969,1.0356116013979844,2.9689336489661953,0,0,0.8231809999999999,0.8219449999999999,-0.434052,-1.750993,2.228226,-0.563665
970,1.0332572751005682,2.969900970340036,0,0,1.0294949999999998,0.858078,-0.5568389999999999,-2.132116,3.261144,-0.665927
971,1.0241907052697397,2.9346412695421393,0,0,1.008758,0.823288,-0.604599,-2.124295,4.111922,-0.8442870000000001
972,1.010946878579749,2.854447428318344,0,0,0.8285980000000001,0.11173999999999995,-0.429138,-1.379876,4.166499,-0.4866439999999999
973,0.997482352106488,2.728487555832052,0,0,0.8285980000000001,0.11173999999999995,-0.429138,-0.552618,3.692181,-0.3371159999999999
974,0.9885639218353169,2.56444248535581,0,0,0.826569,0.447373,-0.113937,-0.005173,2.956619,-0.148616
975,0.9889297708100078,2.3770899639777445,0,0,0.732605,0.629181,-0.17820799999999998,0.3159369999999999,2.158153,0.248824
976,1.0023898770189954,2.185223334845621,0,0,0.645737,0.5215150000000001,-0.128296,0.008942,1.444777,0.42491
977,1.031037490755861,2.007689913041088,0,0,0.533249,0.43136599999999997,-0.045425,-0.127635,0.766414,0.222932
978,1.0747218757650514,1.8595157427566933,0,0,0.463363,0.7254639999999999,0.1546019999999999,-0.078302,0.440852,0.077347
979,1.1308887126085139,1.7490275377829003,0,0,0.47856199999999993,0.964661,-0.0080880000000001,-0.235699,-0.285783,-0.289221
980,1.1948267132497592,1.6766131602313379,0,0,0.487915,1.125901,-0.224289,-0.7587119999999999,-1.471958,-0.237943
981,1.2602785569749373,1.635345822137866,0,0,0.991348,0.945908,0.401153,-0.114897,-1.687978,-0.320764
982,1.3203074447118728,1.6132472471321837,0,0,0.908982,0.7133330000000001,0.661636,1.585502,0.446152,-0.026406
983,1.3682781461683489,1.5966070601500597,0,0,0.8009329999999999,0.16837999999999997,0.693817,1.142266,2.024433,0.4716079999999999
984,1.3988102615870022,1.5735846801712936,0,0,1.253021,0.22093199999999996,0.044998,1.477878,1.315606,0.81776
985,1.4085678994474071,1.5372984780402958,0,0,2.3903049999999997,0.490799,-0.715134,2.950264,1.098799,1.544031
986,1.3967503966428256,1.48773044346095,0,0,1.511749,0.5847929999999999,-0.059952,0.2498949999999999,0.538461,1.222512
987,1.3651687250519782,1.4320270741023928,0,0,1.063629,0.621765,0.20327800000000007,-0.7706689999999999,-2.066791,0.406873
988,1.3178710037631494,1.3831246930753267,0,0,0.8257899999999998,0.4536899999999999,0.26707400000000003,-0.982175,-1.296546,0.045486
989,1.2604045546247764,1.3569927584764288,0,0,0.824066,0.460846,-0.3125,-0.329556,-0.435983,-0.208499
990,1.1988987305233343,1.3690843898272407,0,0,0.945724,0.5685119999999999,-0.1295779999999999,-0.070794,0.105477,-0.507556
991,1.139166647844372,1.430749399367902,0,0,1.132034,0.530564,0.0827180000000001,0.156553,0.7358560000000001,-0.37218
992,1.0859687434972358,1.5463697980702285,0,0,0.966553,0.25473,-0.0771639999999999,0.327098,0.560276,-0.035342
993,1.0425102088915779,1.7118219638157863,0,0,0.885071,0.22427400000000003,-0.135238,0.492408,-0.127335,0.480509
994,1.0101950690737111,1.9145965392705913,0,0,0.822677,0.292816,-0.5825199999999999,0.651638,-1.350227,0.863475
995,0.9886335994547991,2.135578612063768,0,0,0.9001610000000001,0.5071869999999999,-0.164765,0.7051810000000001,-2.239029,0.64173
996,0.975882971507925,2.3521663180446537,0,0,0.7503810000000001,0.523254,0.016311999999999993,0.94346,-2.086967,0.237275
