id,ASVM,GSVM,walking_nonwalking,normal_abnormal,ax,ay,az,gx,gy,gz
1,9.932610262116839,0.34407998661027167,0,1,9.8559250151808,-0.25062320862323006,-1.582906089700363,-0.22246427998723298,-0.010689843894075846,-0.0178123048600512
2,9.90036309778099,0.364253393845298,0,1,10.786204852974205,-0.1505937060445984,-2.0970533424271443,-0.03793526552860087,0.014530983180628919,-0.0028796637463560735
3,9.824546086473045,0.381876178164102,0,1,11.11319505086741,-0.08292823460956333,-2.109817583970358,0.0996825804283801,0.24450290643571077,0.025908940551145065
4,9.709869907635376,0.39596514255660875,0,1,10.370726148512045,-0.290836813081802,-1.9027019673639367,0.1202919785624747,0.5052179705597507,0.022125397744937055
5,9.569375584538596,0.4057538379256003,0,1,9.762881699433331,-0.4652414453681593,-1.4069728342561474,0.1223552972942298,0.5837774395079058,0.01975210642089357
6,9.423470575488238,0.41088803239601496,0,1,9.092908355952288,-0.496344045436976,-1.0600377816190547,0.12473988848264629,0.5413721219940631,0.02112055223957023
7,9.297531399359128,0.41157167396613054,0,1,8.883144237438234,-0.4755494068560203,-1.5357221607252474,0.07961763353080728,0.38149706518755183,0.01999327636315234
8,9.218491262533773,0.40860065352867997,0,1,8.723056967035165,-0.47513043474598343,-2.04565236064288,0.07929821812276172,0.4650004961272507,0.01574684423448608
9,9.210996644334582,0.4032609359643016,0,1,8.462009184683783,-0.524983292463935,-2.03497373101083,0.06170494618594794,0.4202856185952072,0.0013437006386940312
10,9.293733156311164,0.39710929915730414,0,1,8.5778953218896,-0.7138901898649269,-2.3149644945262637,0.045687813432636594,0.34309630561161747,-0.010094322006903784
11,9.476437966075432,0.3916839099519479,0,1,8.782798275729258,-0.8431278973639945,-2.6282442836326143,0.1301660009259741,0.29802724097949695,-0.015700815737179838
12,9.757981209608221,0.38820628797126167,0,1,9.020262527061583,-0.8027891191309401,-2.644648178999716,0.20788447180962588,0.27744580524881174,-0.01571211400912387
13,10.125742159472422,0.38733749665182576,0,1,9.401280066380226,-0.7088719957347254,-2.5232703157866454,0.21991162940183476,0.25651536647397993,-0.021925394166644737
14,10.556346863203428,0.38904086610689076,0,1,10.152000626390953,-0.8104371831251643,-2.341792686357547,0.17235967188668058,0.1472153831260391,-0.031342748043924826
15,11.017684320180651,0.39258358316198505,0,1,10.817877530809593,-0.9310415429562454,-2.426658975821923,0.19125396600540898,0.2789858438647802,-0.041944728931118794
16,11.471985577303451,0.3966825108986325,0,1,10.729137348690434,-1.11486195976538,-2.301233284839208,0.22968736690841485,0.34405395579305265,-0.024863937575713983
17,11.87964209730595,0.39976769108941057,0,1,11.209695014679527,-1.524584712570829,-2.499034079646268,0.3402967453453155,0.2698994946607528,0.010968811890609557
18,12.203355068406896,0.40030609591165534,0,1,11.636620226073399,-1.8298972991086966,-2.918119643456048,0.2899887796382798,0.5065586964947423,0.0514328690441067
19,12.412130758772738,0.3971092838322011,0,1,13.634576709230622,-1.7369744347534353,-1.089426312636599,0.29878777484813707,0.39032117946516126,0.15681725708783942
20,12.484573225165107,0.38955155543945574,0,1,14.508163751077392,0.2931642049707236,1.5835009672168345,0.38295036280781725,0.2921253102224177,0.25955633548409907
21,12.410940554330134,0.3776523972446758,0,1,12.749255115568522,1.1042448927003372,-0.30715016748644475,0.10041265729527481,0.22054118872377781,0.08485756206037795
22,12.193617179987745,0.36202075629866326,0,1,11.889637322964283,0.8097641995258611,1.3166742918134031,-0.08632825199541393,0.34128089232849684,-0.022576342718867787
23,11.846018997151896,0.3437026281450778,0,1,10.940337263568816,1.283483934660355,1.3075100571842806,-0.17707113070123515,-0.1877215190585413,0.021360125930316262
24,11.390350555012256,0.3240001625098456,0,1,10.518158725081305,1.2066051924293748,-1.0299860139514538,-0.030767344492076635,0.0857676665045425,0.001709309047988633
25,10.854884865184877,0.304331133443492,0,1,9.218655436512675,0.7751786875031745,1.6929253629459595,0.13724995943843485,0.13907426832618022,0.09302753689379027
26,10.271439288616088,0.28617337197601045,0,1,8.951224093536588,-0.5234935355912423,1.9357767179825054,-0.033336955157828724,-0.16677542608625773,0.2446098683050865
27,9.673498888741747,0.27109715450190497,0,1,9.17224535441075,-2.1071828061344435,1.6640101895700583,-0.28058222411694683,0.027499005178612937,0.29824958528542267
28,9.095076318300787,0.2608435205779315,0,1,10.467881788410164,-2.1551493665711527,1.1206239376802758,-0.1261865342223236,0.04860393807385905,0.12319767189147258
29,8.570018853258054,0.25737579982918946,0,1,10.232639232838078,-1.317537726445152,-0.1426534635806312,0.2369123047027481,0.5155015509102857,-0.12346459150538155
30,8.131242811121172,0.2628267507449959,0,1,8.460609714556917,0.1435475305375364,-0.09100450186497358,0.3539601172920355,0.44329348174305905,-0.14021921891973038
31,7.809422214113023,0.2792870034921754,0,1,7.342703936070109,0.6624570920552821,-0.38895093351722265,0.21732607889464678,0.20750888187846075,-0.017292729496544115
32,7.630955473563057,0.3084311326875873,0,1,7.196404826276957,1.008001181024026,-0.05196977495515562,0.15506021439767068,0.06126902276598479,0.007030067897853965
33,7.615393557562425,0.35104679637678066,0,1,7.59291108014325,1.4477455198106792,-0.313585739560617,0.08547725124780421,0.03759666466394291,-0.0652005101932701
34,7.772744287630627,0.4065931507955811,0,1,7.206769591189274,1.8714432841042674,-0.6235879667755329,-0.10513863247812687,0.06934426214627482,-0.09694966925149534
35,8.101121655751529,0.47293461862975594,0,1,7.3616711319325185,2.060398839321474,-1.2314586973159103,-0.2461770199536763,-0.004854092561425491,-0.08997304263657811
36,8.585158196701913,0.546362439238271,0,1,8.32212606867461,1.894897969373838,-0.949905858515903,-0.4377497597088123,0.026772247627886124,-0.05008059720552702
37,9.195517072877985,0.621943535352619,0,1,9.051684349552533,0.9301740868970946,-0.7673477465470188,-0.6574159269577714,-0.1976615505742373,0.0072963279968168895
38,9.889755217375054,0.6941515446773806,0,1,9.150122723163397,0.5448821163232201,-1.591042055050093,-0.6101987482208527,-0.36099144741691563,0.012905793481974804
39,10.614701414173332,0.7576642408729007,0,1,8.749936189778952,0.9444749820865905,-1.532804021640416,-0.677584109049662,-0.4315598067635666,-0.05248969233302794
40,11.310403631969526,0.8081706030477555,0,1,9.87271500670982,-0.08304125684274265,-1.3061563820179247,-0.9687047066886545,-0.6220599984934236,-0.09030278697513736
41,11.915511073405115,0.8430234173935712,0,1,11.359319727503637,-1.5414282377623358,-1.5847958811015301,-0.7197427902352188,-0.9179168640112926,-0.15173297765065433
42,12.373636831787264,0.8615993471829874,0,1,12.38343190875459,-0.8297398789788831,-2.056695563490687,-0.15485266455565266,-0.8580659639665558,-0.2367741478571332
43,12.639841877387612,0.8652880586807143,0,1,16.767557681660342,-1.384546346120406,5.999252856218658,-0.046075486777701805,-0.8124912702290511,-0.3729909937743314
44,12.686075691059662,0.8571161269543082,0,1,15.342827969292143,-2.4243785658490933,3.0891255594128704,0.07332212730177075,-0.8674656637986072,-0.5280260923552942
45,12.504460436306145,0.8410962965012012,0,1,10.224453628413798,-1.067608250333667,-1.7052586149918747,0.14530568925164883,0.007421841071922995,-0.4884038706247824
46,12.107841630400785,0.8214539179891809,0,1,9.879475092728605,0.18536357971062897,3.2904229347277463,0.20791799989060497,-0.10928171447980303,-0.4665846711567092
47,11.527831875539006,0.8019066293081704,0,1,10.154622960944353,0.7511986758510146,-0.30721790702470186,0.009022689541936064,-0.498795900122772,-0.48036174805962
48,10.811169702045243,0.7851542358837363,0,1,10.464771570527592,0.9263715177196814,0.3605742749300963,0.1744789643714829,0.12172866829975021,-0.5198439622917924
49,10.015292681628956,0.7726756548969094,0,1,10.223213071370825,0.442422374096212,2.7979257729453617,0.6224033521433512,0.16318778036436613,-0.44092791076970905
50,9.203704471242169,0.7648474713402712,0,1,10.660739832107785,-0.42971210928641734,1.029862232191399,0.8117100506265026,0.05920431235078225,-0.24531673252083855
51,8.441356347888988,0.7613217737116359,0,1,8.23453106629464,-0.7683574895639583,0.22740765155067752,0.7679817589870688,0.4759653859351822,-0.11142148159939243
52,7.790116529104726,0.7615505489986838,0,1,6.383012948232143,-1.041123342020409,0.26557440292488815,0.6596255122257202,0.06383741454935142,-0.08367973293213658
53,7.304471443125407,0.7653271515424953,0,1,6.382488353618385,-1.3017123283481715,-0.29348556672913245,0.7853535474206388,-0.06982591458188754,-0.10340270722332755
54,7.027719207207087,0.773224243146889,0,1,7.220024811156257,-1.1562822448233583,0.0024386053580365383,0.9154582931779188,-0.1343931519552901,-0.09917839140621375
55,6.988903830806537,0.7868261482313897,0,1,7.665736288078999,-0.78520754259012,-0.965771352266312,0.9947655327603867,0.010249071873015646,-0.0693492775158652
56,7.200591574814277,0.8086746654045536,0,1,7.575797307764561,0.13627270832698163,-1.7886094647094513,1.0609071143945377,0.04865786327143187,-0.031837396325641226
57,7.657454138185941,0.8418801132761375,0,1,7.703534007871985,0.8315594788616673,-1.7242619313393062,1.0640240255779871,0.03454129976878075,0.03578741419515477
58,8.335625633004582,0.8894058675874492,0,1,8.015229692166868,1.329766139109415,-1.227715279998924,1.0737619834233219,-0.05959660345413418,0.07874459394031792
59,9.192934746524394,0.9531146430165899,0,1,8.03457338699286,1.1574648022720466,-2.682022721566283,0.8063959507718864,-0.06798816457914397,0.1309791368930987
60,10.170273433114138,1.0327532294227915,0,1,8.617266079596957,1.4431419004337853,-3.2803246297575472,0.5630350121791813,-0.23291512448427867,0.22580504812283342
61,11.194440169053403,1.125123149993388,0,1,10.35293087236587,1.2504214866635581,-2.2991716343458375,0.08914299091093708,-0.5972722892667793,0.2927838491595623
62,12.182734705723794,1.2237060010990646,0,1,10.490112137380034,1.1735984582061754,-1.7444410903879768,-0.02107469900832166,-0.5061531066431975,0.07752126137722208
63,13.049379308835098,1.318958716053452,0,1,9.231078631088229,-0.01368288644629924,-2.243748303848124,0.15311037577348793,-0.893694294087637,0.010617577155402838
64,13.713499206410466,1.399361136066055,0,1,12.050618471015369,3.281392880494902,1.0011565354449503,1.0829843777361696,-0.4857569494619741,0.23588410940916726
65,14.107898079718781,1.4531095314992755,0,1,21.368116032083606,8.94643503216367,7.670915676772453,1.0242324158254608,-0.8287920049183716,1.4006605727467076
66,14.187321702697723,1.4701555596147509,0,1,15.163208488380318,4.050762102153302,1.029745586429323,-1.209060356763026,0.31247406643975645,1.7805516197097941
67,13.9346837910212,1.4441574282739584,0,1,7.35120923176622,-3.0872469079949534,1.4350098460624237,-1.9662706647862906,0.25168654089139614,0.830720001685697
68,13.364155987326578,1.3738967258424442,0,1,11.941316110868451,-3.330853073391313,2.0180523818880944,-1.2925202974836414,-1.9271769704616437,0.40745871403123474
69,12.520837287049732,1.2638383743620583,0,1,16.012186313999653,-3.083305236145566,-5.771422278965594,-0.10428903443024015,-0.24547974106927012,0.1506470539038693
70,11.4772640445777,1.1237323770670156,0,1,12.358257208591674,-0.09473110652024141,0.551251726591132,0.4980467218713846,1.5419776472638986,-0.007169557528197014
71,10.327107570635816,0.9673866822660651,0,1,9.770158362064656,1.9399957528391236,2.248801255994845,0.12674715358689884,-0.19524044669002633,0.1767914426873441
72,9.176464083120951,0.8108919099484198,0,1,8.766856090990917,0.36388068834958337,-2.5001293476193625,-0.31249610211939516,0.5140579501854496,0.4396166248990801
73,8.133479767731558,0.6706180508941129,0,1,5.793654587680031,-0.5497525431941617,-0.6304113823820198,-0.3290959120717001,0.747110459429761,0.4029469676996727
74,7.297466334222109,0.561262940644745,0,1,6.266164277047564,0.0964911134544928,-1.2118046599075678,-0.20583717867954585,0.18964352861304207,0.13502389595485492
75,6.748818396644842,0.4941677114944196,0,1,6.259280231356488,0.823766998023724,-0.641177079429336,-0.18209589646645044,0.2553431238082363,-0.05131162921251657
76,6.540861688629303,0.4760610090309594,0,1,6.675496353443967,1.1780153066608203,-0.5005313307824363,-0.16304295144485945,0.037261377836898424,-0.09218636782381244
77,6.694385080484835,0.5083514936120673,0,1,6.409857806347838,1.072883751371124,-0.6913378150133599,-0.42455685276957367,0.1058834951635876,-0.011611904817024562
78,7.195240621073573,0.5870368466510941,0,1,6.556007049470511,0.010452275786190372,-1.6491892979294225,-0.5840726604117968,-0.14732863300053683,0.09139461721683627
79,7.995153275612287,0.7032290983369656,0,1,6.700844771831339,1.3157836143147779,-1.7183889416939129,-0.23686532897069976,-0.2063962928883947,0.06476791318205705
80,9.015744528563156,0.8442236675460635,0,1,7.63146404735889,0.9112908656631453,-1.474196893622979,-0.6565485622764483,-0.6554395203147885,0.03630835637659976
81,10.155635340267333,0.9949764197285406,0,1,8.731324471569287,-1.7709926742276183,-2.610257259154483,-1.248402934851115,-0.6656271622514256,0.13183030843485907
82,11.300262042086933,1.139804391162399,0,1,9.012865726690416,-0.034051902293237464,-0.6358733606065009,-0.6391176871851926,-0.8791875699251444,0.0017539507046267567
83,12.33367927210252,1.2641010646182713,0,1,10.190770218096322,0.1818557546316466,2.0356423102324035,-0.8247811485912021,-0.2524938734373052,-0.1994070855498445
84,13.151148783828388,1.3558647912144255,0,1,16.998128796158756,-4.738994638240308,8.895386146832628,-1.31275929857849,-1.6686335232272465,-0.4103176947962489
85,13.670823569086028,1.4068684053089724,0,1,20.111360891691035,-5.217974461587117,-1.849218615982802,-0.30609321304660597,-1.0069012102432706,-0.9060382886976355
86,13.842632231890304,1.413335844592808,0,1,11.035777859578017,-2.657078103165952,-3.927114346167117,0.6130500783702529,1.94340414802339,-0.961434350547018
87,13.652917548888253,1.3760503358515364,0,1,9.371867384254214,-0.49037892317219733,4.533093663048087,0.3444167493088608,0.27778329622531145,-0.6196766817612227
88,13.124447031833666,1.2999147009961713,0,1,11.794975622647385,1.508219581477505,-0.5058696215973159,0.27815438092860945,-1.098550909716394,-0.4102306486087178
89,12.312466102535483,1.193093069646193,0,1,14.978548755633968,2.296911412922923,-2.9471571432359123,-0.04046413211795449,-0.7086933327257363,-0.4573656519221507
90,11.297906058117967,1.0659294274368079,0,1,11.556090923487028,-0.17101582501383109,-1.0469663440789743,-0.10331511766427393,1.2815702414946086,-0.481155539087954
91,10.178760291380428,0.9298326390180811,0,1,8.37518216497562,-1.8976680211955257,2.270123419570614,0.3254391148675575,0.4809258781375143,-0.3237786521211164
92,9.060497914263806,0.7962648548201163,0,1,6.738770812822985,-2.3926554657977754,-0.8566671824637851,0.4033526091333352,0.4710766879018389,-0.1893488612426047
93,8.046413583563197,0.6759145123037505,0,1,6.026467308123395,-1.5786634528458028,-2.10900327969912,0.5037836007180609,-0.15719744133359279,-0.14614087707414813
94,7.228810630637669,0.578091654367942,0,1,8.001397111034773,-0.3072242238223482,-1.0530749751511215,0.5293262347656658,-0.10423790007251567,-0.1285230798187626
95,6.681675525275533,0.5103404353165162,0,1,7.461579373325787,0.3188007170409274,-2.4000403268093953,0.61193336262985,0.036381320469316865,-0.14386116689481426
96,6.4551188996974975,0.4782179532093073,0,1,7.236867146432878,0.8121529159476292,-2.5304070226778648,0.7056223495480985,0.2331790618748313,-0.18349144684154522
97,6.57159798652945,0.4851568327803299,0,1,5.449350090476441,0.7811317428061103,-1.3687398211647404,0.5485978915489483,0.26185644317278334,-0.2279760050200204
98,7.023947243472596,0.5323315105257834,0,1,5.37168812766882,0.7095265608909087,-2.158018092737821,0.3674657571903,-0.545097214989917,-0.2905996368757886
99,7.775430080842173,0.6184904067760671,0,1,6.308015144118582,0.4987750242471592,-2.6037812685850747,0.21414403559840323,-0.4371919551708522,-0.2237829973281832
100,8.762149158231932,0.739783762756574,0,1,7.746068067404633,1.1705104258842582,-1.2129720586126125,0.061834478304653495,-0.5734878788931863,-0.08873528040681994
101,9.898056173238993,0.889682270838285,0,1,8.63203641093549,2.252024174953834,-2.2075775484332567,0.06805881758961559,-0.6612600915472581,-0.17536412415233563
102,11.082499880242338,1.0591172702602278,0,1,7.514993857947362,0.9377435696027505,-3.901824587410219,-0.14114851532998363,-0.7468095605940872,-0.2379779190781215
103,12.209837099371693,1.2369634992430867,0,1,9.128731700155967,-1.1323981898290558,-0.5041760312198917,0.09670740416272733,-0.452899973249124,-0.20305830072633851
104,13.180142225590894,1.410926826766636,0,1,18.63421424903325,0.6066428555445044,5.865953921943074,0.9589358153086243,-0.5567199780940754,0.6455502085717267
105,13.909528121806757,1.5687953852309582,0,1,24.67123472668221,5.16583294508414,1.7541549495667768,0.3123682683001548,-1.1077030764049862,1.668761283599476
106,14.338318720190388,1.6998816081931958,0,1,8.723855109565985,0.3291098338602388,0.8358407421914701,-1.321594683569498,1.9358435631148632,0.7617745618533289
107,14.43573859159245,1.7963764104173925,0,1,7.100757247238263,-1.369479074170127,2.505324936145662,-1.8088973009547482,-1.4131263507554948,0.0857165552761281
108,14.200886888394528,1.85432315434835,0,1,16.093826329373172,-0.8137634723599438,-6.71892177052227,-1.1717398457975052,-1.6290607537263246,0.4128375267157006
109,13.660766580645177,1.874024103436974,0,1,14.930991943234392,1.0203170173934764,-3.13026907323088,-0.12535378243476364,1.1412875895728345,0.47649334618951167
110,12.86635425198086,1.859863071987185,0,1,11.370507257518643,2.765598936285081,5.036600082843777,-1.2629244764460745,0.5861705910652268,0.38859897383302655
111,11.887355902087757,1.8196665451208005,0,1,11.592447405999293,1.4852237671386899,-0.4971693421173019,-1.9038894282089742,-0.3719046715639565,0.4163116850209505
112,10.80607417850222,1.7637631460859609,0,1,9.560731091040136,0.4625667522929175,-0.7586745776957774,-1.99914466010412,0.9269233606184116,0.3422472785036146
113,9.71089864180458,1.7038533701087226,0,1,7.478728286804709,-0.2824733521166247,-0.5246426784289127,-1.8658028625143064,0.3400714516922407,0.20102383461589057
114,8.690020716776786,1.6517484716519342,0,1,8.0136323342581,0.12325590537358312,-2.0776960188981035,-1.5924732249216822,0.38301663124266533,0.12906506264167225
115,7.825821968520551,1.618044770128421,0,1,8.437320110159014,0.12209360710271867,-1.5435111605474465,-1.373300384138678,0.22713821731699238,0.14944294039587008
116,7.190018289204954,1.6108601613876985,0,1,9.639694752510751,-1.1946830539009834,-0.7265064354095488,-1.3160633922244847,0.14576083200749188,0.2299795131715227
117,6.83928057516541,1.6348157038382245,0,1,8.210930881931535,-2.09503370689803,-1.5971615912368995,-1.2868002133216294,0.29681691213864164,0.29629095429265745
118,6.8109494723405515,1.6904495390935594,0,1,7.757679536284505,-1.026445083704719,-1.7483324190750362,-1.3453065391466463,0.24549406838601776,0.33002741365569893
119,7.1187423447929055,1.7741952396793326,0,1,6.592680566906806,0.40084217146152623,-0.9433558119559154,-1.5300178387337056,0.18625419101836124,0.347668481439014
120,7.748909469675846,1.8789613701306989,0,1,5.719362428197304,1.7410512618252156,-0.7205949308594989,-1.7851762121011756,-0.1956480434125517,0.360341661682289
121,8.657860876145353,1.995240105800082,0,1,5.034280799875093,2.515941452845242,-2.0266606557374773,-2.1366695998716487,-0.1785133682594246,0.4241150480914465
122,9.772571714077525,2.1125754921861275,0,1,4.705942176463634,3.793812294660761,-2.401296497472317,-2.1225145822258837,-0.16468144496898723,0.3730848884137765
123,10.994909213478412,2.2211575093992617,0,1,6.105791712177292,2.766903659704229,-3.0411837574180023,-2.0870039779828593,-0.3190511793772529,0.19306732009678423
124,12.210377033592618,2.3132851574861313,0,1,8.496559595091183,-2.3522391179902913,-0.4385443997521835,-2.635525979079749,0.22768047221826254,0.16528450442942058
125,13.300726797773315,2.384453300911069,0,1,9.207154921538121,-10.146239160968987,0.9213292809128877,-3.6472842528306577,-0.1154918000845308,0.3392720665910079
126,14.158640757724866,2.4338615952215474,0,1,24.876417498948108,-11.822853026405149,3.8447699921382688,-1.7207163639585068,-1.5894932570263094,-0.197490429108533
127,14.701658346790555,2.464239292939162,0,1,21.167437914939114,-3.080167154935364,0.5113948541232656,0.33353297906328394,2.22906038333996,-0.9043816850367176
128,14.882345195075105,2.4810358728285986,0,1,9.690872958466269,3.7951523313240996,-1.8773402971048037,-0.47296502903430276,1.4716389646419323,-0.5885359732047009
129,14.692793851130588,2.4911923760397796,0,1,8.975793651031971,-0.3348019791373934,-1.2382142321280114,-2.493787907353758,0.5483071955679831,0.1690178178786487
130,14.163404492379327,2.5017956526445198,0,1,12.259164259059146,-1.6051993998979495,-0.4777816351000025,-2.2570234562497085,-0.5093398001723326,0.3580299184610208
131,13.357309119917561,2.5188917085070424,0,1,18.93003954182487,-1.3409493090295501,-0.49324922642560376,-2.0788554024877577,0.13913650759840832,0.03692123217378568
132,12.362040933969084,2.546636862637475,0,1,11.907983770125957,-3.1127848968947256,-2.8543266670556386,-2.290194719696766,1.5392191405798024,-0.2268764460988561
133,11.279560270803357,2.5868576650596373,0,1,10.039563582432734,-0.9567980589375086,0.09554671734096859,-2.251166516724947,1.0011515532979092,-0.26012939497184273
134,10.215427047725768,2.639003292124092,0,1,7.246339048223416,-0.10894147123324828,-1.8767786975090055,-2.694218273552501,0.9989356811973371,-0.12126117378284641
135,9.268028491364294,2.7004162663347655,0,1,8.650011644212958,-0.5193883148336464,-0.9201882642489119,-2.624807271253331,0.03961320930405103,-0.06015432142235134
136,8.518925376857975,2.766823233213171,0,1,9.38165308150994,-0.8423288809614661,-1.762368155260939,-2.666150152526396,0.4241156330445896,-0.06487065655629329
137,8.025222360033345,2.832951185734226,0,1,8.195972766015736,-1.0546044477319225,-2.611386487819918,-2.828472817438463,0.5626128438378991,-0.17387331799911412
138,7.814511207345363,2.8931878790282726,0,1,7.123235839391289,-1.0980357064251742,-2.0372595296353415,-3.015615181427095,0.356527001556705,-0.34656191771658357
139,7.882683325969441,2.9422150016969946,0,1,5.839975484607367,-1.0752184233530273,-1.8760723607212013,-3.0161441734845713,0.17483353283046296,-0.46794695378062057
140,8.194853063312788,2.975552917377097,0,1,5.401101992198276,-0.8898658843230076,-0.7872484313027446,-2.980249715627599,-0.07013751097552665,-0.5306442629942667
141,8.689595205691178,2.9899779551194885,0,1,6.905487171262332,-0.2630912031018285,-0.34754123693633876,-2.8509272667627346,-0.4708318778421619,-0.5567608114954066
142,9.28644423572056,2.9838075467150724,0,1,8.921050537207316,1.2960426608580513,-0.5214367639096902,-2.5981417286454977,-0.45505987111909485,-0.4716207455832737
143,9.896063397891755,2.957078263621138,0,1,11.037538750075818,1.9127991087297938,0.14340882481249206,-2.5786267127974973,-0.2801053170578049,-0.11547799309905629
144,10.431834527117276,2.911643945383295,0,1,13.681695542995763,-0.25150097120657605,0.010245659601184159,-3.0972169424621048,-0.2241871041957389,0.3633439909310546
145,10.82114396823717,2.8511848999167966,0,1,12.503061902746527,-2.604464719878122,-0.5882159392246071,-3.3746883096703826,0.38818970171629613,0.3571784434076529
146,11.014594860884452,2.7810651340105834,0,1,9.929037312275204,-3.7112767527249124,-0.9851489167083177,-3.0241082748360077,0.27570825391463233,-0.10537476382300939
147,10.991796070872638,2.7079514212937337,0,1,11.553733202734115,-2.3637400585990487,-0.03208317403290784,-2.663010852556672,-0.1675568860271712,-0.3226379400595694
148,10.763052603584828,2.6391510568151624,0,1,12.569413991877962,-0.20564439810575116,0.3710503996813951,-2.5154332380184794,0.08076501152444682,-0.2993388099238174
149,10.366930196672847,2.581716083785379,0,1,11.1731389269559,0.3157937865403959,-0.6030884783095228,-2.4440026130400647,0.25581002099355715,-0.21348425900004603
150,9.864170121064832,2.5414449069032856,0,1,9.23514229255965,0.014490974227352096,-0.08456023909376044,-2.4594987095515166,0.2835938693765279,-0.11581275017509376
151,9.328844816379661,2.5219481974875735,0,1,8.34286425615672,0.16474315861884087,-0.1970590567413795,-2.4729938017992783,0.05439064731401827,-0.0379498230318236
152,8.837996326309728,2.523936796127496,0,1,7.865883173872983,0.11530744236731909,-0.7541686962907259,-2.389362310566237,0.13665772537896115,-0.008761833282240044
153,8.461191996482686,2.5448577118360274,0,1,7.528035291586372,-0.18966525866093745,-0.14306961539227817,-2.297932381195169,0.02559410258687188,0.024683869492627176
154,8.25137893614929,2.5789653271510122,0,1,7.525144819104676,-0.22728030216534104,0.3876554863928304,-2.3446929570967807,-0.19041013836520598,0.0930219984324665
155,8.238155670108723,2.6178672432129093,0,1,7.76301064743843,-0.10870819065729198,0.6071356270492552,-2.410218123516272,-0.1584869831522282,0.14051400400429664
156,8.424217644840269,2.6515204085697195,0,1,7.344342510811009,0.3474511259075299,0.20938593863335017,-2.5674182469176743,-0.26897670606790786,0.1980194525797189
157,8.78536210152165,2.6695738531397573,0,1,7.204946316706569,1.36655239252114,-0.20028648226731316,-2.5962694743903776,-0.2337276451070453,0.2323405442558049
158,9.274078401844578,2.662872474042099,0,1,7.54722194648654,1.3436857137359892,-0.03911425443809207,-2.869653389470283,-0.27028264055389306,0.2764749741397339
159,9.826363856490055,2.624871750721347,0,1,8.887324858852047,-0.6738980115010608,-0.20177699441777194,-3.3368869164150343,-0.36980216653320075,0.3539577641899257
160,10.37094801293675,2.5526891995935035,0,1,11.302402042386035,-2.1256020984021955,0.982485330277027,-3.1039094056105907,-0.2139166702198282,0.20751967468615126
161,10.839611323902224,2.4475605437332772,0,1,13.664896922958278,-3.5619595479438724,0.16537975362350604,-2.6621014074673024,-0.2960648470220726,-0.011710982453889946
162,11.17690514998804,2.3145901639510456,0,1,14.48403511815474,-3.52068838900411,-1.5195097387592522,-2.1233215912124086,0.06567597515162567,-0.07617107601151922
163,11.347554691351757,2.1618600756414317,0,1,12.21802867886439,-1.2043101325018581,-1.1508247807492344,-1.5954428633860591,0.6340076648192532,-0.04184357543528206
164,11.340300407726465,1.9991219075932491,0,1,9.93575130476045,-0.90552931546486,-1.3875085303483714,-1.5841500699300723,0.28095181514836015,0.08928221912467077
165,11.1677856717115,1.836374199684035,0,1,10.738679432308581,-2.1270968464346924,-1.4677253127869188,-1.6715613529662172,0.03279106631615426,0.17233600417843667
166,10.862963371006618,1.682600581006982,0,1,10.916846417240384,-2.9826266982838634,-1.0543947077626272,-1.5911717830346044,0.33213691017597186,0.16764172023744286
167,10.473040881582216,1.5448454529305276,0,1,9.774286929764077,-2.7769248913900846,-1.4508471548026975,-1.4045072037816186,0.611075216955857,0.12517095156765987
168,10.052165576702407,1.427689800164313,0,1,8.113464850220542,-1.926716231044349,-0.40692511393870534,-1.278386565592517,0.7136252142284497,0.08123591551457304
169,9.654032985227232,1.3331039210133082,0,1,7.668480908873862,-1.428803332925512,0.14672198946393056,-1.3071482802394552,0.3463966154235589,0.07097238715994814
170,9.325476013688222,1.260608565080081,0,1,8.279597059409975,-1.5731447293936454,-0.5521476924972087,-1.3232495643571343,0.20664060747772384,0.03978391562052558
171,9.101825116466696,1.2076623220047227,0,1,8.978925643782347,-1.9181309030625908,-1.3148561991285603,-1.1960649014803937,0.26087739773375634,-0.023132917766017155
172,9.004398638724245,1.1701978852290589,0,1,9.172725650941128,-1.6502140353067782,-1.56550992709652,-1.0291948278584124,0.38313279175165654,-0.10137413544634849
173,9.040013508686123,1.1432424068511284,0,1,9.12077438431663,-1.3871261247655795,-1.5889877055255948,-1.0364097570399147,0.2820258886241698,-0.17840268685700125
174,9.202075235063381,1.12156827337244,0,1,9.48130325370104,-1.2680371326032465,-1.5712726667156998,-1.1079493826171654,0.12639003078783098,-0.2713194235143451
175,9.47269321759019,1.100323292660628,0,1,9.769395673900979,-1.4261213506186687,-1.3223849520697262,-1.14285054299786,0.0959611297359654,-0.3625788577544359
176,9.825329813030937,1.0755844056049386,0,1,9.778933231738261,-1.3735287222770323,-1.3174058404663473,-1.074638454438847,0.1222668111890936,-0.3640259087327042
177,10.227641818771389,1.0447762663931683,0,1,9.909358777271423,-1.2917263580781178,-1.6543858069634,-1.0196783506133646,0.032636439000152014,-0.30871489941787533
178,10.644340066541256,1.0069046002717956,0,1,9.798857771136376,-1.6655789061125774,-1.6024087165679861,-1.0052409097204424,0.07247159806461072,-0.25267360478760326
179,11.040022686091316,0.9625739954845852,0,1,9.900292034616243,-2.354856044495605,-1.7080509115182412,-1.0926088689520699,-0.0015719343360297892,-0.20763265712592532
180,11.381983332613341,0.9137842651105936,0,1,10.640498530460741,-2.704835668838469,-1.9662031393972312,-1.0138111355433805,-0.08112525658359011,-0.19244294043283758
181,11.642933105584177,0.8635260143737,0,1,11.090176851983784,-2.6282390149175705,-1.891242675407514,-0.8246014411634117,0.045678833211626586,-0.16244314954939704
182,11.803426954961067,0.8152268182632012,0,1,12.357780746754187,-2.183342525716217,-0.7968989731308934,-0.6371539937075339,0.09592337980518928,-0.07677632628728312
183,11.853625752412977,0.7721313664434002,0,1,13.83362246590854,-1.3456273465526096,0.3041395702752038,-0.6245229952166862,0.17117690224972532,0.08712780397545532
184,11.79395724843534,0.7367184988416271,0,1,13.209059781911973,-0.9181118463426511,0.6199977794107314,-0.6473661387414924,0.22092452959804856,0.23139154090077513
185,11.634357136792085,0.7102526975637348,0,1,10.627465858588765,-1.004465517014055,0.058449472759083944,-0.6515202680783723,0.09399440746096456,0.16795638209708852
186,11.392093567104883,0.6925404032694701,0,1,10.764427099607996,-1.7177768910934375,0.6541183522937888,-0.7277701322323782,-0.02718813221271349,0.012727076708802515
187,11.088586798522185,0.6819286945537203,0,1,11.111992996916594,-1.3373369102123323,1.0751759580087805,-0.3940558095955413,-0.25600939690848457,-0.06245659146296213
188,10.745935296184953,0.6755573367871525,0,1,9.589129187681333,0.31406822341511753,0.9167823816320012,-0.26583946897015026,0.13793343509334632,-0.10472778967142438
189,10.383939087239462,0.6698499586959327,0,1,8.065479643354735,1.1691319573231167,2.580531972160739,-0.5454782357304807,0.2653060223893177,-0.053285799117990515
190,10.018292536109415,0.6611904475178236,0,1,7.58855972482794,0.6801965750938683,2.5733701130004425,-0.9136939783144081,-0.24521428377763965,0.017730091898952364
191,9.660341777095454,0.6466732871920603,0,1,9.489389060082186,-0.4747648160100602,1.7972328481432935,-1.0243048115945688,-0.2946198304556026,0.017232366156884876
192,9.318374219873936,0.6247677263685617,0,1,11.558613048945649,-1.3284238184306467,0.9944950879984855,-0.7696686600139351,-0.28194667565948617,-0.1312193967389464
193,8.999914832671378,0.5957348147006082,0,1,10.343260848393513,-1.6341789172364918,0.06774303816473948,-0.5094986939568645,0.2832938735157264,-0.3153465779509788
194,8.714165255902046,0.5616970277227298,0,1,8.540934980361596,-0.9702925214940531,0.6907714484083463,-0.3953107110804519,0.11862106434824002,-0.3203134917942628
195,8.473726527596284,0.5263541372514542,0,1,8.69813227150437,-0.5167774727392067,0.16871759077306767,-0.4298988057998122,-0.1533520283139042,-0.2132171924301745
196,8.295055912806824,0.4944219543850887,0,1,8.581829849420199,-0.2408036645110013,-0.3946381481562229,-0.32471622996465865,0.00970581473122527,-0.12114401000493358
197,8.197498257528018,0.47091615997349495,0,1,8.74705378320844,0.3360505822638912,-0.10572226770063907,-0.293135205274575,0.005720093455935092,-0.14830867836911546
198,8.201024815883569,0.46041017931808326,0,1,8.434560117357037,0.499381037556824,-0.2039630862642365,-0.3688684569258023,0.1256202241337124,-0.22098960626400055
199,8.322998556170317,0.46637471520495044,0,1,8.116291437660704,0.5052410162630144,-0.7439070243683321,-0.41483314390377635,-0.06598815680033066,-0.2541345148733097
200,8.574430526973316,0.49067136536048617,0,1,8.571983977221993,0.2928860406724637,-0.6016667701723403,-0.4477331715895893,-0.006361664913658472,-0.23931354021322268
201,8.956319008482541,0.5332394868501572,0,1,8.38288880018991,-0.08813329206974259,-0.5814990767275773,-0.5234442294951058,-0.023526444178800246,-0.16927170740743186
202,9.456743424772206,0.5919956279350129,0,1,8.80137939759787,-0.13640019546646448,-0.744363004385853,-0.44482575894493176,-0.1553277296028286,-0.1002561587172309
203,10.049385509640251,0.6629578960165422,0,1,8.164142331325975,0.282173453652752,-0.8352466017549597,-0.2792315392198885,-0.09682239207338318,-0.07766833019787822
204,10.694043946125724,0.7406003468656239,0,1,8.378958081326859,1.0265545159833098,-1.3887074520359546,-0.3583884064974683,-0.5074873364564447,-0.07100213964019672
205,11.339457251979217,0.818417460007248,0,1,10.527215778719464,0.6604915403505115,-1.0559346765291127,-0.8242639328992392,-0.6270394159314339,0.01719055087922032
206,11.928321813722976,0.8896311792832875,0,1,11.4937132169629,-0.5916848515668048,-0.8336547641668698,-0.9597454361768376,-0.9263752145108066,0.10448496210893234
207,12.403833575754263,0.9479256264821236,0,1,16.25012150071679,-1.556440091776884,2.4764372965873016,-0.5453986444934479,-1.1322043903657661,-0.0754958746099892
208,12.716574978924218,0.9880875929414634,0,1,16.590980533608533,-3.0344158317265695,4.759862341001077,-0.12808275499898533,-0.6518168997650853,-0.4331391794758865
209,12.830394956063538,1.006482738590664,0,1,9.563130021127451,-1.8328437792420917,-4.025800079108819,0.04942007311107203,0.0738300535579899,-0.4054142826695439
210,12.72628184332652,1.0013749384380455,0,1,10.675108457768932,0.9435759647604695,2.630231542743169,-0.1733666333962308,0.5821970561419345,-0.11441712382483228
211,12.403959866311537,0.9731341668728546,0,1,10.551798574130196,1.8814138359593244,4.373042130762421,-0.7323713885251736,-1.2824184276728128,-0.02690756184542244
212,11.881581826945617,0.924341077820971,0,1,12.430252624436926,-0.28400019090811107,-2.9286546591211997,-1.1290402134539224,-1.064758356154294,-0.23057008463547563
213,11.19408099627417,0.859723053525649,0,1,10.267714060377692,-1.8291932911891586,2.282193409824902,-0.3092716326341533,0.8959993434978536,-0.3609305805062278
214,10.390561301858785,0.7858299904673228,0,1,9.6244003786658,-1.1836400386952175,4.721874755160288,0.4773658223678146,-0.26378345186238344,-0.3312691442793991
215,9.53086916045987,0.7104196018117485,0,1,10.727670235587928,-0.4148824449536563,-1.2259998238867185,0.382262791207948,-0.33951428957633595,-0.1817368768902073
216,8.681398236374974,0.6416284900884496,0,1,8.717464212556646,-0.28257169787675857,-0.5901972097285412,0.2533080615568527,0.4292343790253672,-0.06074990534546379
217,7.910235107021742,0.5870806195561107,0,1,6.902046922603398,-0.7566210333241047,2.1220246505729725,0.28236118115846864,0.05236838648288439,-0.049846017658010645
218,7.2818990122604035,0.553092392441263,0,1,6.792314339381929,-1.2378255890279084,-0.11257009968058826,0.3762525735003093,-0.36019585099513246,-0.09939489584182773
219,6.852078441180588,0.5440873633094843,0,1,6.692303653758577,-1.15723740776325,-0.6961621048252501,0.4963787029835519,-0.0230268489636277,-0.1458690271528243
220,6.6628307281918415,0.5622656483032293,0,1,6.453091413000324,-0.9486277718836061,-0.528732804612215,0.5766327405202056,-0.17369037703696621,-0.13812592817190583
221,6.738664457036886,0.6075105139718444,0,1,6.692449510548559,-0.493280550163878,-1.1310995176040946,0.6644960653917019,-0.2548573414953798,-0.12618251717811999
222,7.083828044775919,0.6774753057010525,0,1,6.552059391965717,-0.5250648975605849,-1.5847612371886703,0.7388860261604969,-0.23574767027839774,-0.14201250672111007
223,7.681044913269017,0.7677844816539008,0,1,6.82210690628156,-0.6079703293465509,-1.5493148122111366,0.7986704668730197,-0.2467202655502511,-0.179034937893678
224,8.49187179921217,0.872299267435984,0,1,7.740633935549695,-0.47677834568378735,-2.1748566092419765,0.8187247820327794,-0.2658795348084162,-0.19725636474487426
225,9.45877610236536,0.983431139481233,0,1,9.52953961130192,0.024038399834527057,-2.4060567591916686,0.8677895251970233,-0.2546322516812243,-0.1435029318530441
226,10.508908741106216,1.0925217308998558,0,1,11.154426085725968,1.0435592411974408,-1.6902659985887427,1.0735973372462482,-0.0747114977602546,-0.13547858904651394
227,11.559422060017756,1.1903327834943727,0,1,9.517266981021962,1.959523303767335,-2.4969895923390304,0.8392287625547219,-0.1263514707133937,-0.1352802728996208
228,12.524098106400254,1.267694356214586,0,1,8.596032201477563,1.1173580164713794,-2.870310152311628,0.12110662027726521,-0.793706374110579,0.18156803988936857
229,13.320971592931777,1.316334448756111,0,1,10.336849848920348,2.3808251681428394,0.2187636392875772,0.4536660928456677,-0.7408260308600622,0.46325378228739583
230,13.880396593526273,1.329849804433622,0,1,20.178436135422892,6.6135965468917135,3.7189744424664224,1.2135984997204539,-1.1999376340316987,1.1194237450735742
231,14.15256033145989,1.304683866191313,0,1,18.678045504454754,3.692124165004365,2.3149115981514723,-0.25709123454569116,0.3461720715053802,1.5815110492489073
232,14.113101387433472,1.2408969140308435,0,1,9.824756389531975,-2.2375455434435745,4.18905208435139,-1.2309334982041118,0.11525693376306458,0.7973882086906308
233,13.76571270418792,1.1425030531092015,0,1,11.221052687056853,-1.922316385104039,1.4797746998996792,-1.184472717625926,-1.2142773225505306,0.27104057369419365
234,13.141405226889422,1.0172291686374777,0,1,13.461649977525278,-1.705269866706772,-3.3463236034340635,-0.4952739364748561,-0.8789835117966232,0.09108723133482384
235,12.294886008686385,0.8756888820572305,0,1,14.998085913874785,-1.555014156781662,-2.4938738643118303,0.11104718705603721,0.4780887891094508,-0.050578820254068485
236,11.298795438223934,0.7301061424684062,0,1,10.48042402600781,0.6122904733875503,0.5879080796058285,0.35814989631824545,0.6850970573215148,-0.04513613074101623
237,10.236519213725911,0.5928228084604072,0,1,9.232695064371795,1.141307212612217,0.040968421729782295,0.14381938018276913,-0.007457900191724315,0.06077656726283274
238,9.194334266869799,0.47485592578197905,0,1,7.378527115534865,0.04522635570692206,-0.7764397953402676,-0.12541732236641862,0.1499547693739926,0.16440570453072526
239,8.253798341255596,0.384734644389807,0,1,6.878640301649504,-0.33939321481690177,-1.151634175576071,-0.06579966193880571,0.13617529237854087,0.12734471759615254
240,7.485295174595291,0.3277667156815203,0,1,6.48023285397058,0.615043747140397,-0.8094982789027821,0.019606661550170566,0.37661398500600174,-0.05160563451810683
241,6.943360612508367,0.30578731590197267,0,1,6.84990086376504,1.725354840056884,-0.0014877687159911039,0.03826155147163773,0.09273289127716754,-0.1914194965877382
242,6.663944226061185,0.31735287067581647,0,1,7.686594322367006,2.350317753850375,-0.7144486663881926,-0.13917181449383068,0.16301554467281365,-0.19203053361481073
243,6.663315826254353,0.3582772259458697,0,1,7.509133254493565,1.6239002766515662,-1.3792200536005106,-0.4490317139295635,0.2501384001561976,-0.06108535951727733
244,6.938085194599307,0.42237126506369205,0,1,7.927859485021968,0.716175464451305,-1.7640872450451377,-0.6604426165444025,0.19258397763445131,0.062374260676046164
245,7.465849919406463,0.5022374819305856,0,1,7.478044325668302,-0.03487902535306826,-2.0011685833563138,-0.7117228220170918,0.39460575326161207,0.13752718366541705
246,8.206276593147637,0.5899913270978459,0,1,6.195114886718103,0.15984245764762237,-1.2968817797312568,-0.4636442102226491,-0.05823942590745142,0.08368814434529998
247,9.102794659344578,0.6778344797724948,0,1,7.620255268886918,-0.4419209889485593,-3.2105759711921276,-0.5304554577338856,-0.4822914337903539,0.010106947407246901
248,10.085334954330403,0.7584773642212745,0,1,9.062546731930023,-1.4667477079826252,-2.268438270983308,-0.4462040000915555,-0.2588366581684011,-0.01709376423518608
249,11.074538595434191,0.8254682848899662,0,1,9.671052303650125,-0.6164286363054668,-1.3890862890533906,0.23820795987080845,-0.4896645621611212,-0.22606341221503198
250,11.987603589708412,0.8735073365279231,0,1,9.770742746668404,0.7039681425151347,-1.1080009848839698,0.15734020246816185,-0.23172276221773155,-0.31280489194245353
251,12.745526926758329,0.8987948492532454,0,1,10.717483507648225,-0.2749875518080752,3.641733977814783,-0.8230959176477066,-0.22878139778135614,-0.1641297721691056
252,13.281014827143666,0.8993935597062798,0,1,17.793342769785504,-2.0052405972090255,5.411527103327705,-0.6600727938709722,-1.7631573881760552,-0.47535844890865936
253,13.54585496516176,0.8755007153020847,0,1,18.91006786492663,-1.8864947172183817,-0.6878048873924338,-0.053669628714348765,-0.5723924337178299,-0.8284380431574548
254,13.516312639130858,0.8294865498221967,0,1,12.266530368300915,-1.058127111712101,-1.0729644877956608,0.10080751642123738,0.8702083174752941,-0.6114821534849516
255,13.195436429134528,0.7656043512031941,0,1,10.639442008587604,0.8604182227320504,0.1360470164668334,0.3402617344373569,0.18827094457343985,-0.33182027103984973
256,12.612005113808092,0.6893972241319798,0,1,11.386342759863835,3.0660509280193065,-1.6139718723664116,0.20767759626769752,-0.31083188717641674,-0.24416904408516746
257,11.816704505481287,0.6069441991016455,0,1,12.84165936284972,2.019771036854323,0.13627499178334398,-0.17309124465840206,-0.1837460074094137,-0.22091410749498624
258,10.876495579689228,0.5241394958735532,0,1,11.221498769859677,-0.3214234579534576,1.1889999645300189,0.03536335967970724,0.11830042755147824,-0.22431345563830454
259,9.868047485554614,0.4461709781613116,0,1,9.029829141846871,-1.862486630616134,-0.4870589290227123,0.2921863968407044,0.13224665545398986,-0.16206286596854214
260,8.870928612777915,0.3772835663710329,0,1,7.142914571022819,-1.3587128734172709,-0.8085384934689143,0.4068614762673669,0.17702360143401497,-0.1240924752191129
261,7.961179720217054,0.3208180371480554,0,1,6.895255324134307,-0.6131417053855087,-0.31707102750827626,0.39932809483051057,0.004400653444284312,-0.10574321669169041
262,7.2058344413488316,0.2794380331238656,0,1,7.1120913815916,-0.25674858255235944,-0.8341428975459152,0.3680785459394917,0.018267358837421175,-0.07723469906666937
263,6.6587559206262705,0.2554182417917949,0,1,7.201701520474373,-0.020540612560117452,-1.1329364356164868,0.37193958867905796,0.039342679245929796,-0.04961592799831753
264,6.357847741947266,0.25086688747700325,0,1,7.056928243241012,0.38935217712510317,-1.366334381227303,0.4343448511897876,0.02287612688433762,-0.03657607755368596
265,6.323434435647501,0.2677850643348673,0,1,6.663827671944838,0.8012512809487118,-1.3954812739254308,0.3954654058057377,-0.0755259354515381,-0.03239872366071775
266,6.557527071473684,0.3079119108767466,0,1,6.498972468717813,0.7243549690020422,-1.4676707751935574,0.28995686377767665,-0.21083997555646772,-0.036232735374435714
267,7.043799410847277,0.3723603859364257,0,1,6.4445477198793535,0.3692349229431706,-1.5601146301270354,0.3189896042641278,-0.25185423589843875,-0.06959360295844262
268,7.748298817621335,0.46110597422673943,0,1,6.908737761224562,0.052806085320762704,-2.0154519580575774,0.30922407501154175,-0.4176671687194527,-0.05259929462891636
269,8.621079396791979,0.5724406794015353,0,1,8.591419319541613,-0.41106824432849376,-1.2904407218902978,0.21352723865958334,-0.2741142015736723,0.06742967578650814
270,9.598998158380377,0.7025388324804863,0,1,8.69632688644591,1.6764755886933804,-1.310809142603462,0.3182890054928343,-0.27583489693231134,0.02096357756624268
271,10.609856167932449,0.8452916063584981,0,1,7.811883932274523,2.164096718393651,-3.489253225291484,0.07455745864031063,-0.5326389754321886,-0.009123479482470491
272,11.577920819304218,0.9925431213413269,0,1,7.389727763954178,1.5520986662968872,-3.9445474206711246,-0.01206936209651722,-0.5908067378595749,-0.04676469326897375
273,12.430606455531398,1.1347938970680915,0,1,10.47366424079758,0.8705712356900894,0.39249531558767825,0.5590987190328855,-0.12424511644093035,0.03280562551569639
274,13.105648600635211,1.2623287235845384,0,1,20.79479481502946,2.599586416900949,4.402341294019483,1.3792671230444402,-1.040602812965804,0.9767438236116562
275,13.557557703392332,1.3665944315939134,0,1,21.728286296697316,5.552977559809114,0.8234827420202488,-0.013850017493878935,0.14498914232046786,1.4633692431020189
276,13.761888862140394,1.4415399580263075,0,1,6.445808400154237,0.5502420496636901,2.784057451377256,-1.346872214744016,1.4889510388554952,0.4625607195654927
277,13.716379569938562,1.4845901621207525,0,1,7.590819453599479,-1.454594218213717,0.727466919479729,-1.8461022312583313,-1.7629843229161486,-0.10239204469093363
278,13.439126010424378,1.4969899081808191,0,1,14.123296125305806,-1.7683649332657587,-6.590409524072172,-0.939058097062243,-1.3867836755512084,0.007701695843099807
279,12.964820959875123,1.4834191230703098,0,1,16.2999065601601,0.5444284748682444,-4.068977178146504,0.12511688187103165,0.5301152478736634,0.13681127206125773
280,12.340077166949028,1.4509929251563656,0,1,10.746702716448965,2.2445617729458873,1.5768594051673828,-0.3984698655932836,1.0513483856078307,0.13200248048038513
281,11.61840870836014,1.4079345498006246,0,1,10.190980844000592,2.2499663203971445,0.6678431770911176,-1.0119742643610126,-0.4631703932721037,0.23100603238717507
282,10.855240772921707,1.3622589046225098,0,1,9.369446815773957,1.4265899201131527,-0.8516335799379471,-1.3644413528665513,0.06586312759291632,0.32014213848204837
283,10.10343972801891,1.3207260613093788,0,1,8.951215426981777,0.42036782406791273,-1.9688328468598413,-1.188414027044187,-0.02666924508196753,0.2645469954307907
284,9.409901295706792,1.2881928288911817,0,1,8.956444606468239,0.09899082454019822,-1.9347315485885066,-1.0983384749719542,0.29588183128440876,0.16330532488632118
285,8.813499190017597,1.2673819094277228,0,1,8.99655895556667,0.19278264772961168,-0.9001236169527381,-1.1655747769886646,0.17620305182991003,0.14348701481912973
286,8.344315815822135,1.2590202985263996,0,1,8.934556354719177,0.35482259325340143,-1.0518365865934725,-1.2805321899623763,0.3131599759340425,0.18523849165801404
287,8.023760948125352,1.2622543137774802,0,1,8.611251804988242,0.4771981499430905,-1.4343459445772935,-1.372074759512094,0.3779751684483155,0.2510566529969324
288,7.865045197800734,1.2752176221814326,0,1,8.59168720193297,0.6692143108780777,-1.42523162333952,-1.3352049200294682,0.40279306141587223,0.270924751953307
289,7.87352601913439,1.2956185465086159,0,1,8.338282700443777,0.46352905697046304,-1.6183443663001884,-1.3183621366829088,0.46223978831058166,0.2297864966721602
290,8.046642673097281,1.3212326436322865,0,1,8.127294852536194,0.3223685919259341,-1.7000884123837885,-1.3143913920987533,0.37537114147957107,0.18582163738661553
291,8.373435058327312,1.3502311059169123,0,1,7.743314194446459,0.6785294132183495,-1.32085435087053,-1.3257532297771633,0.3702230729821538,0.16943778525724326
292,8.833920324137681,1.381328771057421,0,1,7.668291730123891,1.0706786871710785,-1.3206948968582295,-1.389912236657874,0.21180002520426613,0.14634109059437525
293,9.398796051887107,1.413782175073605,0,1,8.295005161987364,1.5084609345065547,-2.108734399194122,-1.2869100713923143,0.06220694023000311,0.054615866039132564
294,10.029980184483655,1.4472996261573354,0,1,9.000145219144663,2.233900840375092,-2.0632190064433265,-1.0375623910038692,0.11681234156985032,-0.1565972311199838
295,10.6823680486511,1.4819348353449133,0,1,9.497527074471714,1.0764282148663218,-1.4204685104439947,-1.168666620046931,-0.12739131190114109,-0.229474058670991
296,11.306929625773483,1.518013248516356,0,1,9.673172221976587,-1.525058380591633,-1.6324701704264606,-1.869752874795154,-0.2880416452378086,-0.07859115695432535
297,11.854945739494129,1.5560851879160555,0,1,10.01488700555083,-5.468034381606967,0.3255764744674297,-2.314531029388485,-0.15033307689866804,0.15615562716692824
298,12.282826565043054,1.5968430508878075,0,1,15.74590940496622,-5.323355314021766,1.6557631820233205,-1.421746034775504,-0.5579030572886287,-0.08374028295498638
299,12.556642024769479,1.6409339093351099,0,1,16.743362911795,-2.354492481578102,-0.6583850437899835,-0.5687452472164725,0.9546553451868753,-0.6080266230330276
300,12.655418114814582,1.6886632765550906,0,1,10.414308704224572,1.0169129009728655,1.7772517758865878,-0.37641108946769813,1.667174368285908,-0.6317578453934798
301,12.572618444358463,1.7396733302966545,0,1,8.593189460187745,1.8096697111871325,1.6551498359888908,-1.1326067469273458,0.3982379897734807,-0.20793385366886596
302,12.315919309199197,1.7927222880114506,0,1,9.536845254287254,-0.2770891690636659,-1.0833492913427956,-1.6713456311811365,-0.5101536635944953,0.18269515280516674
303,11.905901438879232,1.8456683215561254,0,1,14.509468561746473,-0.6274242461167918,-2.0555273520759036,-1.5874319798915888,-0.5255427737634619,0.16513612141065712
304,11.374221721370898,1.895694201991997,0,1,14.370774467941372,-0.8831760263985967,-0.5908993509480531,-1.6516551877911618,1.2243633774953941,-0.061840740780681275
305,10.761367587862473,1.9397310186948324,0,1,10.071034487615366,-0.5893166929722303,1.3308084282263268,-1.7819451518519984,1.182068964613401,-0.1461166115643425
306,10.113786035533526,1.9749796675150773,0,1,9.365961815664699,-0.2357879808768405,0.0839234265886492,-2.00331452345778,0.586905282481032,-0.010437442057724148
307,9.48030980935794,1.9994083033332588,0,1,8.563300776272412,-1.2973322583387779,-0.8726623168903985,-2.092025752945246,0.5074118659234135,0.1202617215389862
308,8.908154155332614,2.012126311258791,0,1,8.627140821934303,-1.7769449895950242,-0.33950495009922854,-1.951041798703843,0.23296184081690263,0.11322450228839699
309,8.438962949004347,2.013584593512246,0,1,8.607948873982643,-1.3096316296820445,-0.6577257483683705,-1.8826493946851173,0.3471221594137421,0.04650874022818235
310,8.105340646063754,2.005603013048391,0,1,8.05686704505532,-0.9710034103886164,-0.993754789669051,-1.8893839303192888,0.37832910220787364,0.01860611989769435
311,7.928162638979045,1.991257824261802,0,1,7.571164890660746,-1.0657615957165878,-0.6492498367560652,-1.957927950575967,0.3769072575350929,-0.023937743120662307
312,7.914857370523733,1.9746671376048557,0,1,7.337750294965806,-1.1513277551524899,-0.5220473619865533,-2.0066803770843675,0.1667024347994437,-0.11671940847613867
313,8.058817699301363,1.960698773494449,0,1,7.448723908743651,-0.9920239127372003,-0.5759040863419488,-2.0015583615177768,-0.02973618063540874,-0.2439130955128616
314,8.340063310520076,1.9546090846226494,0,1,7.73407561361911,-0.5731309852036645,-0.7630810932145499,-2.0237096344410355,-0.11390609907918035,-0.3892447485404507
315,8.727183552296706,1.9616174115724048,0,1,8.491673791877393,-0.020298291835633604,-0.5305013827482541,-2.022362521212892,-0.21673533846278525,-0.4686448233313225
316,9.180433453923431,1.9864333697162244,0,1,9.001859401756482,0.8482922016354162,0.6268336519332538,-1.7947052450440224,-0.15904084556385856,-0.44689297630166364
317,9.65566922133801,2.032778561312144,0,1,9.771782943410635,2.5323687841413443,0.9415047533554136,-1.6404358058664907,-0.38887766618442243,-0.31571443816486067
318,10.108647593685676,2.102966739955238,0,1,12.007284794573275,1.4616813068934564,-0.5312306538247904,-1.9792902633460945,-0.7921017344849776,0.08961581530735913
319,10.49914210932116,2.1976081267063106,0,1,11.457866347646862,-0.09535290420701466,-0.45413186446937215,-2.2369736930489514,-0.04905197945808136,0.3177473577916947
320,10.794413320430339,2.315477510142674,0,1,8.304148579726517,-0.4502538577701777,0.9278426978752287,-2.3761937823118835,0.275603480441739,0.07687588560369171
321,10.97180498063337,2.4535488853923497,0,1,9.13573750762271,0.028286593833476037,-0.19011340299722598,-2.3319768204186366,-0.5363993135414538,-0.11620440933790539
322,11.020474127576822,2.607176495604421,0,1,12.51136444114623,1.1471725403937423,-0.25111946388545225,-2.4810281374963714,-0.2810737981087021,-0.07069106369435356
323,10.94229684705217,2.7703987557278484,0,1,12.861509803632995,2.199194153813812,0.3657511650858178,-2.6848983176630723,0.166501511563351,-0.03400113005700222
324,10.751819720423475,2.936341990109039,0,1,10.9680702131704,2.2747228118076004,-0.9447605199862441,-2.9885540528168337,0.21521220098927338,-0.1269001102863183
325,10.475001435929325,3.097690858658309,0,1,9.8113072368015,1.514626304690115,-1.0435544165874395,-3.2323262500143013,0.12176928610078291,-0.1514353309794528
326,10.146620579531879,3.2471753818308544,0,1,9.78463579681379,1.2365664764679127,-0.48480549964854736,-3.3591507105879934,-0.06238070007631494,-0.09417278200206787
327,9.806534383572512,3.3780169491430483,0,1,9.81103018312847,0.772735425274344,-1.2213063767785481,-3.3970097285713843,0.012534032544633913,-0.053538518780863104
328,9.49522678048313,3.4842891026065703,0,1,9.671948028235422,0.696876144732366,-1.2523464725639857,-3.459936626433128,0.21754322301317242,-0.03496546487005929
329,9.249176120251207,3.5611785528454387,0,1,9.045461628304201,0.4822993634415145,-0.3486974921106241,-3.5123139028168717,0.3731277007944893,-0.034028637808199536
330,9.09656839250434,3.605161895007149,0,1,8.418285177552974,0.2017134093722323,-0.16822895474317517,-3.4995141383033217,0.22548626730202795,-0.004173570252876989
331,9.05386326581085,3.6141299625950882,0,1,8.501849359498634,-0.1515070280447612,-0.5022881757112553,-3.4813747396517014,0.10564980286011706,0.09506484257671162
332,9.123686885768784,3.5874895835283613,0,1,8.686375130529443,-0.27049824728534344,-0.427486441135195,-3.5030047313302237,0.11008451168430275,0.23546639198171906
333,9.294430663377367,3.5262529896562143,0,1,8.017833774397797,-0.4287611883718634,-0.9185440794230165,-3.528294865980225,0.07331346909942828,0.32226610711003995
334,9.541756150867322,3.4330936185759167,0,1,7.875708470574728,-0.18864188482275168,-0.7606363081377998,-3.3977502596353757,0.12043767748455837,0.30623338733311245
335,9.83194476903001,3.312313548268263,0,1,9.458289308878392,-0.7228048948813954,0.09902107395719802,-3.578668830340411,0.02025112105641155,0.34591964640845246
336,10.126690601288866,3.1696461746557163,0,1,11.617665825019841,-2.114478613196599,0.2420521884097316,-3.636767794167432,-0.05384197620971267,0.30430433217701663
337,10.388560253539914,3.0118239810464376,0,1,12.921286986079625,-3.66505139510354,0.43369833717351414,-3.2938710777611457,0.32683143408240567,0.020265192892275852
338,10.586089509148923,2.845890371608235,0,1,11.193263801988033,-4.2492533214278385,0.48307097454183234,-2.7089601830394194,0.6266047920514739,-0.22727924605959943
339,10.697550767191903,2.678327209651782,0,1,9.121845992399274,-3.1495543505059866,0.10090138074368211,-2.1921355110080305,0.4144088057708683,-0.22705122226695096
340,10.712852434851188,2.5141748050143433,0,1,9.885440946001975,-0.7556167009820869,-1.0850510909023774,-1.8170961409123039,-0.058752367114947225,-0.05149603671995916
341,10.633603785074856,2.3563811031589648,0,1,10.077365383198307,0.24385291280491225,-1.4637789550535922,-1.9206569428075377,-0.03415435943274506,0.1604344563481377
342,10.471779405576575,2.205583869837219,0,1,10.45946579606349,-1.1033030072765921,-0.9229512145469596,-2.236066227916951,0.06533095253206661,0.2523294925555155
343,10.247506271136343,2.060404313933131,0,1,10.450228901602673,-2.5303123410424835,-0.4411948201393829,-2.315628454685544,0.13492979634876154,0.2285836955701698
344,9.986384901645787,1.918169039848527,0,1,9.612724694749295,-2.9405718643967136,-0.9559362235348131,-2.1289756267686637,0.23152168797308334,0.12919013199381088
345,9.716636038814299,1.775855883962646,0,1,8.570017225811675,-2.5896732011386274,-0.801929220862325,-1.9294590429460017,0.2248648476450082,0.01823497626703122
346,9.466326790357947,1.6310227691968324,0,1,8.37325887723967,-2.4207521206985576,-0.6391443904807952,-1.8509912125992516,-0.014313970265648608,-0.037974129428690315
347,9.26093251938267,1.4825187726859712,0,1,8.830754659633632,-2.6550831143924034,-0.8285205511450742,-1.6910840503801114,0.012876714119025677,-0.06039179591333656
348,9.121444730338911,1.330856348032576,0,1,8.82481984747368,-3.060439134616365,-0.5023646714258873,-1.4152129513831455,0.07786658225944078,-0.10459187120274731
349,9.0631144252744,1.178212642178737,0,1,8.60110752378104,-3.195584299549192,-0.5609665190744937,-1.0721734114658774,0.10015371032934449,-0.1724960382792895
350,9.094785418710325,1.028109772835555,0,1,8.465373058770684,-3.0485696217116884,-0.8472291174831371,-0.8024014375700605,-0.018459312646966104,-0.24724635609570894
351,9.218695793296101,0.8848848435732515,0,1,8.827073983889877,-3.0120171251949928,-0.8916186028485035,-0.6701090906339632,-0.09760302258477281,-0.30745063216981444
352,9.430620750356944,0.7530857588366477,0,1,9.22103227180439,-2.882076650851357,-0.8217472783099814,-0.5479670831153499,-0.1886318572402665,-0.35971738924536584
353,9.720263147052147,0.6369141943100155,0,1,9.581650863155154,-2.412937504235208,-1.2543600830688613,-0.35828705149489126,-0.20926009662549824,-0.4168069133658431
354,10.071844550504625,0.5397950014359538,0,1,9.539964446575983,-1.948499106895525,-1.3646858124705243,-0.19049013066240195,-0.12509694164569876,-0.4311434937581013
355,10.46490585000671,0.46410280343883553,0,1,9.709475099726122,-1.9909502266933414,-1.705468730684276,-0.19398963968961436,-0.2678231685655629,-0.3739209710623277
356,10.875378681555269,0.41103691579205404,0,1,10.001586703922227,-2.2444955325855025,-2.42917748357664,-0.24436848411167525,-0.27067815720282046,-0.3168978977088958
357,11.277002163194025,0.38061079473427295,0,1,10.387482771525905,-2.6594213896712215,-1.8068089280113775,-0.2725087215459245,-0.2549858619075802,-0.2723563094089774
358,11.64310651467731,0.3717134877955359,0,1,11.182255672575813,-3.246754355692126,-2.204028225079626,-0.24342502865837534,-0.26005594619132083,-0.2688836138419757
359,11.948676903284492,0.3822081566581281,0,1,11.313910453987416,-3.0752724701498964,-2.2610881961480307,-0.09999311201938332,0.17057935738635463,-0.2775964678922808
360,12.172490913357631,0.4090527891282599,0,1,11.47415848116461,-2.6207322690851202,-1.3542686262781194,-0.07346524180780768,0.3794936182530281,-0.20234320060940705
361,12.299034690829473,0.4484513242261708,0,1,13.506004317422287,-0.6523441262449695,0.820165038315485,0.016890659567693794,0.1275126271564183,0.053411546404046654
362,12.319869597497185,0.49605731892763755,0,1,13.911363831261747,1.7043505274588975,1.1374798483142465,-0.2504244457781307,-0.20233091561200203,0.28167247515023575
363,12.234166597022265,0.5472466273570072,0,1,10.817214801919162,0.317949632997373,-0.5836791404693433,-0.7614277175240268,0.3062443214532414,0.10796179121958069
364,12.048277609887856,0.5974502164964091,0,1,12.132462951339985,-0.38609817730918927,1.7283240185337372,-0.7097012274254826,-0.10694215601359677,-0.08811414324736014
365,11.774443042454976,0.6425105862959245,0,1,12.643669627226764,-0.03534613330033419,0.3487450114857101,-0.3941479310191212,-0.076008940468163,-0.1591427137480381
366,11.42893988533055,0.679017814673734,0,1,10.850866274257374,0.39008535542480977,0.8701188315088424,-0.3867383224168936,0.24265773609739502,-0.13825433964858366
367,11.030084189974776,0.704593380537461,0,1,8.89643130995154,0.555664262854929,2.4214588329977937,-0.7634971706703221,0.09821810096068292,-0.020461263256562664
368,10.596524635192191,0.7180961254610978,0,1,8.716169287568835,0.05353765564113489,2.0955409123364173,-1.013539582900532,-0.22705130015642846,0.08634037164981218
369,10.146187368804423,0.7197117964743914,0,1,10.574602915404085,-0.2653908555629654,0.9820711061177911,-0.9276566808449054,-0.20783390584362266,0.012170639652751574
370,9.696000118630892,0.7108776587397674,0,1,11.627098937526238,-0.17082032533427235,0.4859725610725281,-0.636862721182378,0.1563327241222212,-0.20782273476647525
371,9.262186245882333,0.6940166216631194,0,1,10.137463445634637,-0.09371072890318194,0.4898376218730112,-0.491156470723893,0.3435376165278006,-0.34218405387861367
372,8.860683937614056,0.6721101903690322,0,1,8.798561627919769,-0.04087079568628954,0.5447968908779843,-0.43369187662577585,0.1660144963646229,-0.3109081200138699
373,8.507282726598548,0.6481954643650935,0,1,7.925790306056873,-0.13715548410303444,0.3987896103057668,-0.41946029502505666,0.19595035855905713,-0.19600724891103877
374,8.217324381999283,0.6248994188814473,0,1,7.55641753172714,0.12277693180996709,-0.04464992260919287,-0.3922913299920067,0.0789477101589507,-0.13822803028114694
375,8.005070610048131,0.6041155762369993,0,1,7.965364936981618,0.8331667329025578,-0.037768292140540456,-0.36215119673536583,0.09965758119012617,-0.1959010690633124
376,7.882932889612159,0.5868898258208642,0,1,8.027800885127258,1.18781504234055,0.2090406027674225,-0.45534980388797774,0.2136989269117019,-0.2519929615635242
377,7.860695641162257,0.5735242185763096,0,1,7.726329892881484,1.2599261672219197,-0.22232991822401557,-0.5665897780171445,0.21052489976436037,-0.2467521865457453
378,7.944752485914734,0.5638453608825268,0,1,8.081001909118406,1.0554886787854012,-0.6046609077691087,-0.6884533058415228,0.09837610255157601,-0.19173607785039568
379,8.137309659953761,0.5575374212525982,0,1,8.571237076940564,0.5977368965230702,-0.8551060638288477,-0.7347199442814178,0.10116002089908814,-0.14978302583314043
380,8.435515526799213,0.5544255368503446,0,1,8.845956503600016,0.16113063864157812,-1.1958239203001737,-0.7043477733759916,0.11242805897520429,-0.11213363946870926
381,8.83053844823891,0.5546186138764186,0,1,8.84883932392225,-0.48942437787294285,-1.4183110779200667,-0.6455355937380571,0.14110329067984867,-0.10881848213540504
382,9.306724694149803,0.5584728244051811,0,1,8.582081800196113,-0.5869282333429547,-1.2732643190067718,-0.44753958810197864,0.14737891655335306,-0.10068200416083949
383,9.84109803055799,0.5664009138328843,0,1,8.534335710636848,0.018164791887548937,-1.2333105649784224,-0.3551808994158912,-0.002659987006757444,-0.046448858568603826
384,10.403549368989804,0.5786056149625228,0,1,9.913763927038673,0.6924080786734428,-0.5112718094499891,-0.3561773476072658,-0.10827041808677855,0.03286561229948338
385,10.958032594374142,0.5948376562212864,0,1,11.087032928468036,0.1257147813294039,-0.08233350196412868,-0.6058459362080818,-0.20057382434705073,0.1584611526441569
386,11.464913039120187,0.6142624349011275,0,1,11.13222629723293,-0.5580538246633199,-1.3729377919498182,-0.5084185686020086,-0.33810186655648616,0.13320689888479992
387,11.884376631949957,0.6354774401472681,0,1,10.334939584219565,-0.9331882208058102,-1.3890168802411063,-0.21987984116768552,-0.36107867151008766,0.0615135292806519
388,12.18058360647784,0.6566785590516951,0,1,10.123932919040426,-0.6033596963695924,-1.790713225235219,-0.16640079573296432,-0.4690378787403409,0.0854917943017069
389,12.326039811903932,0.6759390170434014,0,1,14.57962408648782,-0.28002782872688287,3.391641492163024,-0.19063400639453792,-0.9054670994411962,-0.027594272169433012
390,12.305417533459813,0.6915355072365749,0,1,17.239394122058794,-1.1140968408200813,3.8678117386453668,0.00877365612811685,-1.1298402484905121,-0.31362509263526583
391,12.117883636605711,0.7022352904204966,0,1,13.914268281475286,-1.246985362031333,3.1761505894043163,0.36311340138682524,-0.18460903534861106,-0.4136440984553884
392,11.77716459886135,0.7074662369036486,0,1,9.187470980238881,-0.8914842276687677,3.010632102040741,0.4183597671871747,-0.1180348210037417,-0.3844401723466674
393,11.309248728308516,0.7073369601003923,0,1,7.814160620249193,-0.11460002394500748,-0.14167206441005606,0.5140527565423821,-0.11867548413903027,-0.3822731328432393
394,10.748497851541023,0.7025287606668408,0,1,8.294722892424733,1.6084189904279091,0.3950700245691306,0.517482981248132,-0.6049657805101241,-0.3879100345881714
395,10.133436687108569,0.6941106022642667,0,1,9.885886956921338,3.2544784463672913,-0.31940514259339237,0.3878643915871216,-0.5446929484869334,-0.3301819524300368
396,9.503299804751943,0.6833313210435707,0,1,10.000801693575943,1.8739324276805878,1.3118215595823495,0.34307953139479985,0.02239478333705656,-0.13925490644846364
397,8.895774114093273,0.6714410852941839,0,1,9.398280203970444,-0.832254580080688,2.7027063078304727,0.5097798365725359,-0.24005521536845598,0.0465874389204718
398,8.345767292160055,0.6595922072937336,0,1,8.21372771501988,-1.8096205261169045,0.9840390309338611,0.5975061611643676,-0.2013772800061846,0.09046491031872325
399,7.884765379170907,0.6488526018414371,0,1,7.088161074419025,-1.6846799676403936,0.6969441463317125,0.5207246934729948,-0.1516108157171414,0.04233310881430105
400,7.540386034500936,0.6403269079692615,0,1,7.343375259694481,-1.1242725626152097,0.6194674755352874,0.5870674565667752,-0.2666002224795465,0.002479145272672051
401,7.335880579631037,0.635334651159406,0,1,7.987321259091241,-0.4273447094249027,-0.09929242755731066,0.7684216181068857,-0.3297180556784968,0.024066091712245413
402,7.2894308723242185,0.6355605148017969,0,1,7.904288430999443,0.08405672958434168,-0.7736612422938043,0.8503370165691845,-0.21730402581419164,0.05523461300645315
403,7.413119739650681,0.6430813119203741,0,1,7.626848534872268,0.6047183579899743,-1.2956477458414755,0.8024009208680776,-0.30016488184983325,0.039280510259185324
404,7.711511017911024,0.6601961585469104,0,1,8.098767094328673,0.9143153059595236,-1.7830890416439684,0.6374057119695873,-0.2866925637476296,0.03935496712034749
405,8.179914008782664,0.6890407674860041,0,1,7.99884402960059,0.776557228503565,-2.0222509502894344,0.6102549742740035,-0.15435880208451008,0.07204360250503074
406,8.802605425455363,0.7310372661418627,0,1,7.569061191746374,0.7222234183012461,-1.981373627333223,0.6071202573937906,-0.20145109189875318,0.08375858773385601
407,9.551470804883733,0.7862908913164949,0,1,7.850678332836213,0.6673747497048015,-2.6802048878564997,0.5567830637256885,-0.49701213318331605,0.06501726651904503
408,10.385626371076663,0.8530753074721802,0,1,9.594651770879318,0.08027119228111751,-2.9304017524633403,0.41202316372584896,-0.6167285574283433,0.12272775485608438
409,11.252526665444694,0.9275474394716157,0,1,10.983277648007785,-0.1577132534842245,-2.3265172394713924,0.49964681084993595,-0.3144532361526407,0.06058089899917352
410,12.090854157957098,1.0038082883207748,0,1,10.250844234392803,1.345138214049344,-3.1829984125351354,0.6396350749179001,0.23598444167954524,-0.18882166040783258
411,12.835199388354427,1.0743800412089852,0,1,9.356721505696628,0.6336349901769307,-3.474896708242842,0.44249210571300174,-0.34069521315404894,-0.14827020558377346
412,13.42222559127081,1.1310944467076467,0,1,12.062836593767406,1.4340899291204878,1.4041134434858908,1.041881438290068,-0.41283213175299355,0.0717376096688078
413,13.79763201509193,1.1662814472889318,0,1,19.475633883265097,5.913004126691616,4.23265649197372,1.4051115528260312,-1.3116075975157977,0.9252631757985228
414,13.922803582388163,1.1740368128032916,0,1,17.569452121536862,3.9137014865683364,-0.6121018380964294,-0.0845938538648748,0.1467052899206688,1.2617853400537873
415,13.779830444478938,1.1512877361194864,0,1,9.422239409382975,-1.0329195417773005,3.7284188143443244,-0.9454547077855789,0.46644525412531707,0.5793791614371999
416,13.3739256991959,1.0984080944613872,0,1,10.867184068634833,-1.1655957024115629,2.4507130160267945,-1.0448157470571986,-1.5519385834268224,0.20240210552767468
417,12.733048999321749,1.0192470737466501,0,1,12.58406422883159,-0.624405735500687,-4.490008381683781,-0.5744855181141761,-0.8172675088854291,0.08102227404209006
418,11.905185405636782,0.9205764889733756,0,1,14.362338198771987,0.20805503715217208,-2.090424412612544,-0.21426211885550744,0.34865015183354897,-0.05484122989030501
419,10.953866020613226,0.8110935913950005,0,1,11.238882077406942,0.8920983242828111,0.9657957938397033,-0.2210890458520803,0.7133525377765596,-0.18554415189468793
420,9.952389045543633,0.7002078937820188,0,1,9.198864258287074,0.9329960432803208,0.3355287128491162,-0.2577922924488705,0.0763209464004947,-0.09845911870572323
421,8.977220441023716,0.5968631392405233,0,1,7.630801677559068,0.30741284354985055,-0.5523263860188701,-0.49305441812126477,0.09010163328360601,0.002095605631808849
422,8.101267325175481,0.5085951176024085,0,1,6.7732536981751785,-0.2655467787355013,-1.0506054668435003,-0.4541680096563053,0.1487628199344623,0.0007036153321773352
423,7.387859799520759,0.4409355928645833,0,1,6.208393935768722,0.03390874483552244,-1.1438805178632336,-0.3067005143005597,0.3359877949024533,-0.07971227566224746
424,6.886153551816893,0.3971830920853005,0,1,6.4710808604288665,0.8205311680934595,-0.7875021298236473,-0.17069762430735438,0.12356028577657173,-0.15917466647334802
425,6.628312150770506,0.3784957931182196,0,1,7.013299252736821,1.541407500205332,-0.7583165462582014,-0.2291280408618567,0.17691963528394947,-0.1570726680178453
426,6.628409853963731,0.3842218410710555,0,1,7.2229980936306175,1.4435119734027593,-1.2006236092395077,-0.4933605389251628,0.07695301741377683,-0.08612008858539744
427,6.882679325617524,0.4123580282073139,0,1,7.6911903477937384,0.709260517106557,-1.4070315946699337,-0.6174092545354457,0.14577953950861852,-0.005869892057663415
428,7.370617185060118,0.4600147669423304,0,1,7.594117831633006,-0.23478114476590067,-1.9842274564469868,-0.7576279290615804,0.14315744647117248,0.059048042952029624
429,8.056565598822436,0.5237741897002056,0,1,7.500376905490161,-0.6847976616476524,-2.6319306740397197,-0.6648597085878539,-0.013380935063787848,0.06654641932161076
430,8.891631883903793,0.5998711000734458,0,1,7.612668908065318,0.05966356929020789,-2.131456423189072,-0.4592075738607277,-0.07620952156067205,-0.015666965172811024
431,9.81606096170447,0.6841976281597625,0,1,9.341928220659467,0.10464829175066906,-2.2935561803716586,-0.6186046816012541,-0.4200574249911191,0.012325357696095125
432,10.762319294687316,0.7722060714488719,0,1,10.319129016345011,-0.23245392683371263,-2.3218333720383297,-0.5831882987242298,-0.2765931247606326,0.03166379489248956
433,11.659134638741133,0.8588327776249892,0,1,9.435187884536193,-0.12348242619575336,-2.600290343840614,-0.13877776772891987,-0.33170330264741327,-0.1007925630616654
434,12.4365869555997,0.9385745321690726,0,1,9.472476034089842,0.9950706632216767,-2.5880882280825714,-0.17062750527480328,-0.24700049244793593,-0.10009085476107922
435,13.032081309980732,1.005810452144979,0,1,11.572953777120947,0.1983916864997056,1.356784436592729,-0.9451656341536792,-0.23537358599453673,-0.028318792344971616
436,13.396625698223904,1.0553721300096224,0,1,18.582928950042046,-2.6519028381765395,6.897262375016124,-1.1703953409050405,-1.5456384007829505,-0.3773631115052656
437,13.500349400266522,1.0832444560873544,0,1,19.37450590362303,-3.73215245486598,1.0292057882185577,-0.3369719847232224,-0.20537729618807157,-0.9262398794062818
438,13.335957626683093,1.0871921531487043,0,1,10.70793293564231,-1.892619969287833,-1.4885876826777462,0.7493236457899084,1.2752869560305315,-0.9246285047638885
439,12.91921710128678,1.0671122913333577,0,1,8.640538896218336,-0.15448330070977218,0.21284517287630378,0.8244350135367898,0.12764259813181228,-0.5478340333578353
440,12.286525655550546,1.025009165374253,0,1,10.592054817665455,2.332596585250831,-0.37715151567224087,0.8601983576488448,-0.5490352885553688,-0.32585140521795736
441,11.49047098941283,0.9646186874104368,0,1,13.56598169695495,3.102403259967128,-2.1677074211963054,0.25093648917150935,-0.37352176522646874,-0.19167088264002066
442,10.59445642447631,0.8908149950757016,0,1,11.44147840911323,0.11920483505049638,-0.279506767911089,-0.007168482196723368,0.8503535925682117,-0.11824309014801972
443,9.667108915697348,0.8089772127213197,0,1,8.198479187676604,-1.7175341071319674,1.8175813929235964,0.3899866939864981,0.18923670856567512,-0.06115780063025652
444,8.776851321320448,0.7244724138461129,0,1,7.2793751847855885,-1.7762604789027594,-1.403518318363159,0.6370454072283125,0.18260114448631168,-0.0480321399508847
445,7.986977636616384,0.6423406537341303,0,1,6.458914971053642,-1.1404608875183389,-0.947444583932798,0.7442653124491861,-0.025877339909092415,-0.08427004271220241
446,7.351611206171492,0.5671820947843694,0,1,7.333136188350128,0.07574077545295774,-0.5175411635756889,0.6883810723025693,-0.1458488679005976,-0.08002090034081355
447,6.912796341883446,0.5031761959420682,0,1,7.667321241291546,0.5133442372350465,-1.6565615506219356,0.5905141888950525,-0.041083342194091155,-0.01060118737284625
448,6.698682370268542,0.45412985096102587,0,1,7.708437168103344,0.8363274911017212,-2.1814674424259404,0.5709647222929346,0.08369826185878133,-0.026029990304557937
449,6.722508590574627,0.42345927297492886,0,1,7.1005069481025584,1.0754865253952475,-2.220865117470721,0.5330211614225824,0.11985713623220873,-0.08780062369280373
450,6.982065706110317,0.4140467202819709,0,1,6.749282444173867,1.0092573400049385,-2.138536774543316,0.41966820795487436,0.12718377406854237,-0.11369140308020961
451,7.459513676573957,0.4279606982204265,0,1,6.205774571930842,0.7582640027410452,-1.78249519579812,0.38329694725824104,0.007090881318511028,-0.1417742746388516
452,8.121744695366894,0.4660750637450353,0,1,6.221455805666328,0.6501516615834374,-2.2229060673613636,0.39412152749042584,-0.3807453877971853,-0.16428078776461708
453,8.92170259258957,0.5276614516295145,0,1,7.895767394723561,0.1748551070754176,-2.651068986131221,0.26202088353919584,-0.46559267129383103,-0.07977223094763222
454,9.801073033388406,0.610057708533041,0,1,9.45004616652837,0.8159757475048244,-1.2505761565223499,0.37466301217860437,-0.1961073321316093,-0.05811760628896818
455,10.694538114616858,0.7085327487323381,0,1,9.242606455299981,1.9385469515102034,-2.7038780515310323,0.3022008659450553,-0.29683816995107826,-0.14039602481250235
456,11.535449591129847,0.8164710445492179,0,1,8.89266582664407,1.0256780685694429,-3.5780565672047118,-0.057808356178106035,-0.331429623937503,-0.05714621074775347
457,12.262417643850275,0.9259727227340823,0,1,10.193551934319446,0.6939971020735585,-0.7724995096221975,0.056041471028577636,-0.039421310725454926,0.03752822176349108
458,12.825941054290412,1.0288883592292564,0,1,17.091524585155508,3.0148113426223357,3.45120862589287,0.9702696355885216,-0.4132612163537365,0.6346400853035103
459,13.193827168023942,1.1181748449888038,0,1,24.11826581950804,6.311402560937784,1.9272424298841724,0.3476633684551298,-0.5161681310164011,1.4785860909898438
460,13.354010977791345,1.1893010963416604,0,1,9.808632164363686,2.0598352266780906,2.57161986122444,-1.1251401007741748,1.6424132925450698,0.7404916802726903
461,13.313905127284324,1.2413245139087874,0,1,5.695695149786494,-0.8778666067437028,1.8844239339849636,-1.726192482006826,-1.1634019160812281,-0.12743050721760707
462,13.096612930577201,1.2772798705692205,0,1,9.918768796155499,-1.3706973527105564,-3.8341834012154123,-1.4315800508830474,-1.2620304093549026,-0.0710262890429955
463,12.735455721621312,1.3036941154015604,0,1,13.857722504086412,-1.0350897314602148,-3.9698239100523516,-0.49260225643584854,-0.47010352867898847,0.19553634632539
464,12.26846309778148,1.3293047614023024,0,1,14.254663128830428,1.0907873222638558,0.07215688632402632,-0.3457047353843964,0.5920200672097048,0.20388943148457664
465,11.733811971509306,1.3633032642086749,0,1,10.290237485073245,2.8118021577679126,1.6506044793534596,-0.6974111987744452,-0.030581061470589574,0.10534541524321683
466,11.166476914446232,1.4135405127537075,0,1,9.876860024507499,2.845918182608406,0.23784013042892804,-1.3491641647330181,-0.22522157334974693,0.15225240715362287
467,10.596092861893512,1.4850828592736134,0,1,9.052118881802851,1.9579204900680949,-1.5381587868806827,-1.441160879625727,-0.015265403058544404,0.17916965937043575
468,10.04607237821056,1.5793507324980343,0,1,9.519029858662524,1.6366204837264813,-2.385559698706651,-1.4204097732668397,0.14368549992682214,0.09129157277246983
469,9.533994268434084,1.6939045803386539,0,1,9.370402327939146,1.6336242238887613,-0.955315197274294,-1.6297327569954663,0.1983268208010257,0.015450614726433531
470,9.073076400211791,1.8228251821284616,0,1,9.14973713798451,1.7278752724519233,-0.7503164416449524,-1.841017215985966,0.2118900715995443,0.01806441678052295
471,8.674291773349603,1.9575691409472258,0,1,8.701592348521014,1.6397580903586482,-1.3783918024837754,-2.0072205344150644,0.24875029186120176,0.09836393906473041
472,8.348524747503534,2.088144245993729,0,1,9.114028676092078,1.466507543058351,-1.4361184341412228,-2.1486267199211877,0.2862665766164999,0.2106156753706836
473,8.108140974690796,2.2044327645459836,0,1,8.882278643841964,1.2743480427255442,-2.208221361290071,-2.216127936321994,0.3563116076090831,0.2678860267510401
474,7.967451142802349,2.297493332591788,0,1,8.46028480388894,1.1193292405796909,-2.172755976634319,-2.2538950938799327,0.3687256554543686,0.29413802879060197
475,7.941773563610674,2.360690497455368,0,1,8.017048259816617,0.9846732100366231,-1.7635173284168415,-2.413069621446351,0.39592141870187963,0.34831062079062813
476,8.045120623724877,2.3905267515019823,0,1,7.419545234033846,1.1198038532258252,-1.8614737654676723,-2.5363642406606632,0.3396216936184834,0.43591892792615067
477,8.286881213500035,2.3870805959336754,0,1,7.187922969684909,1.1189605784483,-1.7849769281109744,-2.672922018684747,0.2544623219666403,0.502046838142477
478,8.668142683480648,2.353991672741424,0,1,7.626734906256281,1.2091752165307263,-1.376915969642941,-2.473922388771847,0.268164324916569,0.4273868913955921
479,9.178408143177114,2.297991012610398,0,1,9.72912674254956,2.0611380921155185,-0.48430142425432937,-1.9571194450943912,0.38638902753463716,0.12633200281416593
480,9.79341113719248,2.2280495492972827,0,1,10.696907912285212,0.41098461890032295,-1.3238102789446669,-2.1506398007072454,0.4460888819772138,-0.0517996296315437
481,10.474598838082944,2.1542875038741722,0,1,8.24806666876044,-0.6617198277148361,-2.469255641981472,-2.0292216205516365,0.2609173144618132,-0.08110769611923026
482,11.170757661703504,2.0868207948115014,0,1,6.128884668959625,-0.5160641893658274,-2.6657616000756885,-1.777558610618791,0.34840806040995576,-0.10924522262571983
483,11.822163181117135,2.0347078671397316,0,1,6.87702279568658,-1.1428006209011843,-1.55258726548295,-1.6311888796791316,-0.026597038666707602,-0.02873401091516814
484,12.367315282932301,2.005111975018515,0,1,11.120046045662002,-3.0489254446296097,0.639583431840382,-2.4217756698355073,-0.04611443817776127,0.1182852039835616
485,12.751549691109858,2.002726765921819,0,1,18.70581691993201,-6.341378408085091,4.45373014203427,-2.6580672171180435,-0.5621632752510457,0.22431972460620905
486,12.935771458115942,2.0294532475628717,0,1,23.848659210035184,-4.296481145963027,0.9077078475065377,-0.9115494270817944,-0.16386292857876295,-0.570570759442834
487,12.902912734594267,2.0842983778433886,0,1,11.853512846641165,-1.1420209555825558,1.995103563075617,-0.10839687852809597,2.4978040645577817,-0.9051962808952776
488,12.660187274258003,2.1634941333629274,0,1,8.546411311453426,2.264787622500392,2.0928224464066543,-0.8204177137185817,1.0991880567290422,-0.36192128109325955
489,12.236767947750089,2.260866965226878,0,1,6.088602204578823,1.2473763988954547,-1.4034488022867349,-1.941894463712031,0.3086792401135203,0.266235549402457
490,11.678184004841121,2.3684737950220973,0,1,10.73020165059745,1.1916336199819275,1.0584440280104388,-2.4508401808049576,-0.5867981600668337,0.4264175787110374
491,11.039446545106694,2.477456226940907,0,1,13.71547909256764,0.3710260691870779,-0.7555050462969809,-2.916918088955548,0.4967378417820264,0.16085196917075598
492,10.378471043009554,2.5789839855448227,0,1,10.246066041259617,-1.7388626758354162,0.8955543338319344,-2.9715456750766673,0.6993304041599719,-0.13181175016905827
493,9.750477258677964,2.6651167141976506,0,1,9.135469855558846,-1.714511729760525,1.312774796402015,-2.626208902372436,0.44293098076653387,-0.21718395133513593
494,9.203463053573628,2.729449651986909,0,1,8.295297516058556,-1.0282119195746273,0.1081061571129504,-2.3942610524973382,0.4809172308326792,-0.10856073078360205
495,8.774734442944723,2.767506402102218,0,1,8.567100736570408,-1.107394058054028,-0.40232745990018814,-2.5000990520735846,0.10093474040257824,0.010157100000629188
496,8.48853904195263,2.776934886742516,0,1,9.121055949787166,-1.195079408735401,0.35480434272034655,-2.5971123352732697,0.018724853443297346,0.007265353617561244
497,8.354843186719163,2.7575927559506246,0,1,8.794827789198052,-1.0027912641873602,-0.09765491221696916,-2.779920184008053,0.06714270188765395,-0.11902208151845231
498,8.369221750939504,2.7115706609388757,0,1,7.860117615129888,-1.0120633323743011,-0.5016915218438311,-2.921664104495122,0.17614265658712042,-0.31759451494763113
499,8.513806068144298,2.6431364532640638,0,1,7.463627025583938,-1.1753234666660972,0.5728152086108322,-2.854485770110674,-0.012294947978481881,-0.4985486712863345
500,8.759277964447886,2.558539994765709,0,1,7.956222737251646,-1.0900026157312408,0.7004412584087509,-2.631620927315897,-0.32929955753373447,-0.6118312865751331
501,9.067912218421991,2.4656243079791924,0,1,8.671166205764788,-0.6579414087129583,-0.3175199139777655,-2.273089723027725,-0.46816191975757954,-0.7007956656669484
502,9.3975668410645,2.373238756272887,0,1,9.417677959646863,0.7862344529275324,1.1863987641181404,-1.9559637978079125,-0.04796390084546931,-0.7323089162964481
503,9.706314002414516,2.290511891000851,0,1,10.062683154470145,1.8700324315334833,0.3106764403828843,-1.8803515424207358,-0.48062612174661995,-0.6454438575111283
504,9.957195156900571,2.2260767077893995,0,1,11.875033994955183,0.23176934560547524,-0.7600787344791168,-2.178754134957781,-0.41087185787691133,-0.4087296497082169
505,10.12248449316908,2.1873289685764634,0,1,9.435609899319676,-2.1194657747689547,0.6348281377264606,-2.537604090644374,0.3892336162504661,-0.253139935077214
506,10.186915269552298,2.1797555467515095,0,1,8.294739810821072,-1.982172002582669,-0.8108920261527457,-2.3735376043150436,-0.31876236332735375,-0.3230852940067083
507,10.149518937597355,2.2063376366544416,0,1,9.97635735968356,0.5382010272389434,-0.6697031980144257,-1.9932799774442176,-0.4016713831718388,-0.4744359736978585
508,10.023899037565888,2.2670470335999897,0,1,12.553248054000637,2.607027727120859,0.7105729090311673,-1.9293114462346443,-0.624968714759177,-0.5235148317155386
509,9.836804407070113,2.358503199752831,0,1,11.596593194247019,1.9977189031210936,-1.0133660403972515,-2.114343237605626,-0.007368561095908744,-0.3733611109953555
510,9.624880008200465,2.473900336174223,0,1,9.021645542111122,1.4313267780404637,-0.4415710436346668,-2.1842032130707207,-0.16052646623476227,-0.15541609663679223
511,9.429671062430575,2.603310218395977,0,1,8.982054145026039,1.1543512870822241,-0.0599705095552329,-2.4240753129477555,-0.5850150860146951,0.06728206874829076
512,9.29137142710278,2.734414805590286,0,1,9.187853701911989,0.6549551008898477,-1.1750486471732162,-2.576880834299284,-0.49490283312141115,0.25176375368695963
513,9.2422294357671,2.8536436064742507,0,1,8.678950007771842,0.42901110610733706,-0.5913736116999133,-2.6624408406644604,-0.14034080992199474,0.3786191358187453
514,9.30074567757078,2.94760836351228,0,1,7.645103993144647,0.5144982532239724,0.5241405559538641,-2.8925969471267594,-0.1355925578060418,0.48609648838509584
515,9.467786680490061,3.004656574710458,0,1,6.905304511940587,0.8623772404402353,0.7448150261512451,-3.1462699003448034,-0.2168956411280427,0.5790050407273744
516,9.725539327260314,3.0163130190112595,0,1,7.167267160265292,0.8042254463748923,0.6259598150756005,-3.440438375627674,-0.24968733509745053,0.5769168472043761
517,10.039825744481373,2.9783559549244285,0,1,8.6879848630557,0.19264816013036998,-0.503774155408817,-3.4927060588770487,-0.22137244528086072,0.4543387723192693
518,10.365658442809318,2.8913025022864307,0,1,10.813137989486693,-0.6214252316643532,0.49600280237287947,-3.2589233072787698,0.3876445101873642,0.22710228961688897
519,10.655127403243796,2.7601723285648654,0,1,12.421848558096949,-3.567185821071465,-0.16663099158718586,-3.0506361481309847,-0.3130555091687076,0.20281653718296486
520,10.866009647781317,2.593552179175911,0,1,15.380580098576866,-4.3800879549906275,-2.605167731778823,-2.251023992338379,-0.4801592754393995,0.18794233223279963
521,10.969176152333912,2.4021575065506036,0,1,12.952760148193947,-2.420951329378675,-1.8723065415097193,-1.4428947741180633,1.0278625654569014,0.04336366883535654
522,10.953154227125978,2.1972234086265203,0,1,9.544980662527374,-0.79069800975041,-0.8757163753012885,-1.3309648704226027,0.38795036726220966,0.05231112165146324
523,10.825043324022442,1.9890979210326882,0,1,10.145586323150942,-0.5620692586772358,-1.1536686151338216,-1.602014490092543,-0.03479943389272685,0.12370062191161431
524,10.608016002147082,1.7863277333168115,0,1,10.311989242571803,-1.211543622258891,-0.8396243872844564,-1.7875069809522661,0.07160365945528638,0.16825351317324644
525,10.336398795663746,1.5953454459071994,0,1,9.482281944721006,-1.9126589625243224,-1.805087956842137,-1.8127500902081861,0.45785564488461594,0.15443002142451595
526,10.049610570600748,1.4206650329380013,0,1,8.177926107660241,-2.2743841102270013,-1.131784762296972,-1.727484198901444,0.6311056068145063,0.1104979220079614
527,9.786158598619222,1.265352752212314,0,1,8.076347371581344,-2.139680369377972,0.2731908208213357,-1.5492055906425959,0.47424144667630497,0.07687540041198358
528,9.578644196917958,1.1315090859593537,0,1,8.708867269285765,-2.1973347209438527,0.24012266324774575,-1.3229402082452257,0.2632702277500731,0.017380061337795617
529,9.450382525854115,1.0205636345519102,0,1,9.573365250188397,-2.434803091573089,-0.1714990809828111,-1.0609678969350815,0.14094868927876597,-0.06048812557250932
530,9.413827604538156,0.9333042300956131,0,1,9.684890830394599,-2.0836491711249123,-1.0347252092233354,-0.7724778978649619,0.3251584812162976,-0.12556608589827764
531,9.470614955460205,0.8696823562418812,0,1,9.233827888530657,-1.8331288777955035,-1.2729940888508537,-0.5910190460015763,0.32708029307957887,-0.14980035885672793
532,9.61281060479376,0.8285212464270678,0,1,9.457758425525693,-1.7530104822794232,-1.2350343567411328,-0.5365051624816117,0.164131287605963,-0.14273509364305997
533,9.824914567259963,0.8072835324001083,0,1,9.89679594251107,-1.3657256151240462,-1.4879245798056446,-0.5299598224003842,0.10694432008420914,-0.15181099270292345
534,10.08623542725496,0.8020328109231667,0,1,9.93202897712481,-1.2043901241141846,-1.7121806396398898,-0.6246913993944337,0.045043600267227965,-0.14014889016533616
535,10.373342851747445,0.8076607305987181,0,1,10.062122599017899,-1.5369038893569897,-1.8419903188143862,-0.8546935076152915,-0.10221630214853814,-0.10423575216253232
536,10.66237971313955,0.818369165178929,0,1,10.246009413230425,-2.09487392085673,-1.8163628491048622,-0.9985305502640139,-0.08988177420970375,-0.10641043597344794
537,10.931071758703364,0.828322608593719,0,1,10.528635851895494,-2.4441109272494095,-1.7179522169086807,-0.9467690898957901,-0.111389002913136,-0.13927501114315013
538,11.160309338454102,0.832344220857153,0,1,11.519870262595402,-2.239059548036064,-1.234996312445823,-0.7886918090115302,-0.005934574037457485,-0.12522042353715424
539,11.335199125358038,0.8265293952546173,0,1,11.778723573413071,-1.3159838269582544,-1.1646470457214484,-0.793604834944659,0.12871092772325593,-0.01764284375473308
540,11.44552269395785,0.808679721290365,0,1,11.246994317737471,-0.8705463756648593,-0.6496769254723763,-0.9833089150368151,0.10377101488131715,0.10928551562934924
541,11.48562338120411,0.7784942029529696,0,1,10.612656415788575,-1.061053175592329,1.3942436073842661,-0.932793682749643,-0.15388789039555298,0.18880930096981344
542,11.453858463390931,0.7374838094127707,0,1,10.937133092143323,-2.114049267593535,0.451918183024554,-0.9842525091137125,-0.5152210642874855,0.16714935280207197
543,11.351834101835951,0.6886114696984696,0,1,12.003661432566417,-2.59919585696303,0.5731093836739924,-0.5537426995276361,-0.29419106574421516,0.01740595127230074
544,11.183636950385608,0.6357163441200698,0,1,10.946394028400258,-0.9176447503575201,1.6683114867459548,-0.03009684111877968,-0.09607786897148687,-0.141309862448821
545,10.955223533591964,0.5828485929438486,0,1,9.922536433438403,0.36345686881950057,2.0818732670183544,0.03314811821079018,0.09280187781337428,-0.1293943498531808
546,10.674096721309903,0.533680183248846,0,1,8.931043386015025,0.46302320230726174,2.564753374819895,-0.28527234653444017,-0.016035931192459104,-0.028502565426279835
547,10.349380190823132,0.49113033285379726,0,1,9.440732374460328,-0.6602274772941744,1.7954446004885534,-0.6710156653186419,-0.3648862289938695,0.01902451621943505
548,9.992305982835875,0.4572541032445438,0,1,11.534790260512164,-1.0145501539141641,1.1929723014828548,-0.5173691421031694,-0.36304646298346777,-0.12131353526565511
549,9.616920788319081,0.43334031388373384,0,1,11.296667870334868,-0.8724587526841756,0.43174883435964584,-0.2189503753881961,0.21945508435385624,-0.3736759315688093
550,9.240612743028601,0.42010750955488435,0,1,9.224896414621778,-0.7293486778298539,0.9230862720858242,-0.016519048692439364,0.3447614712993993,-0.4659690903998709
551,8.884045301108108,0.417891817097492,0,1,8.388284660866418,-0.28219097891937167,1.2058778331522713,-0.1344471411103121,0.015561981791193148,-0.35772740772485456
552,8.570302635514574,0.42676374484884205,0,1,7.68281727337699,0.2621048544820263,0.08687839206329885,-0.23561596773873525,-0.11399064489070192,-0.24950844603727776
553,8.32334224094262,0.4465578770284739,0,1,8.461584005709378,1.0284683276118265,-0.21525177890771297,-0.21886814170578156,-0.17858289619995527,-0.31390471007893744
554,8.166015321598293,0.4768297954522607,0,1,8.30931204726927,0.9928948307155708,-0.41221650488328027,-0.35324177990709726,0.1610839062635757,-0.3810217882431969
555,8.117904147315484,0.5167650071150592,0,1,7.951953983040805,0.745675176946478,-0.5693717357974232,-0.4075670500009175,-0.016480625973255978,-0.4012988063406324
556,8.193137311799362,0.5650638083237339,0,1,8.761666522224147,0.5177115936548617,-0.5287655633891838,-0.4373635083445153,-0.09087302926268433,-0.37524616993799326
557,8.398290795385579,0.6198267193208299,0,1,8.849154891222401,0.13694506805584417,-0.8717255806452278,-0.48246008544112884,-0.008993797841741584,-0.3037319259991542
558,8.730505727934643,0.6784731877448397,0,1,8.785450014812715,-0.4695410711023727,-1.518794101923277,-0.6294905333321336,-0.10408144322210701,-0.1809339809135696
559,9.176042967831076,0.7377362969121758,0,1,8.519877714129724,-0.3590802013337031,-1.545592369488054,-0.5261290064397451,0.1027336849971869,-0.08511836369529181
560,9.709617053630101,0.7937778142141635,0,1,7.747911549057479,0.2875676189267968,-1.5341811583475295,-0.4589253703661262,-0.04655043218226163,-0.05558134242552615
561,10.294936903463187,0.8424515454376794,0,1,9.142246235574559,0.6802906645911267,-1.5657883339464211,-0.6336111258922522,-0.5482540261115736,-0.01672504284419548
562,10.886827655541826,0.8797032564698286,0,1,9.935919552900954,-0.1949064106205319,-1.697241344504067,-1.065144784747776,-0.6111528667960158,0.09355972491396698
563,11.435057714501811,0.9020408491952625,0,1,10.031075640590764,-0.9943883980852304,-1.3786012447841258,-0.6583692743562063,-1.015485684433161,0.011215824166277354
564,11.889585646976272,0.9069687529570882,0,1,11.580784270742463,-0.6221400323332873,-0.39986996776073463,-0.5305680368951553,-0.7702951987434815,-0.13669353539278173
565,12.206483958049416,0.8932877514783675,0,1,15.69784555954064,-1.89358849591552,5.876299596039369,-0.5038144602326278,-0.5243190620872195,-0.22837640119616237
566,12.353438572798556,0.8612156193378645,0,1,15.182180817828105,-1.0807276106882486,4.542532012787858,-0.13843570781119902,-0.6989755763723369,-0.4926425154861756
567,12.313662781027897,0.8123480857320693,0,1,11.389956738745838,-0.8024792265163972,0.08687327433160069,-0.3108696584102929,-0.09798260516641007,-0.44078360306631925
568,12.087464497272268,0.7495144821228729,0,1,9.988140167714006,0.6007053673933621,2.794556635564154,-0.330543102649935,0.2401114568173917,-0.29017195100071164
569,11.691450199553694,0.6765750944060333,0,1,9.438134147638042,1.8078248680641815,0.020682473278039744,-0.41965970678355663,-1.076806730092217,-0.2620327188963409
570,11.156007265527505,0.5981713868314764,0,1,11.316074902272264,2.295569506197646,-1.361229516949387,-0.45043233204825084,-0.7781838676390649,-0.23514602573266258
571,10.521904856707268,0.5194081492611374,0,1,11.244587523136312,0.8474284794515331,0.27838176317171254,-0.3614167207744244,0.31308586073489547,-0.11509542037769134
572,9.836625572710261,0.4454538218844885,0,1,9.822731395052326,-0.8947887013656389,3.092598124873263,-0.06470487206543421,0.03362405929821837,-0.02037400115566592
573,9.150720960291508,0.3810958646355322,0,1,8.380241890905447,-1.7439986999611714,0.08080680767775099,-0.01001364830661201,-0.233184609468751,0.002518158063391132
574,8.514336643215321,0.33033950621657465,0,1,7.335675432815061,-1.700403571444264,-0.9767462813274896,0.11892877560399172,-0.11463297222228123,-0.01757194689109757
575,7.974070311262048,0.29614243435151044,0,1,7.043810378646659,-1.2474926594293818,0.7177709022014801,0.21847308383053138,-0.1360601039356212,-0.026517684678950992
576,7.57033904267633,0.28032992701017406,0,1,7.899495565078923,-0.9826462474454102,0.387017343369834,0.208983407089095,-0.307537942799147,0.016670954937662942
577,7.335327630138104,0.2836681315707864,0,1,8.255055126978784,-0.7548228329500208,-0.9327071847751205,0.33833118627484676,-0.11106339001672748,0.04353372489964411
578,7.291412454386197,0.3060228540733705,0,1,7.850586536298057,-0.42459264902242827,-1.4311992607609438,0.5221338494780124,-0.05043048116441763,0.011096332232799908
579,7.449847494939368,0.34651402810919507,0,1,7.911375819793434,-0.2769003371630454,-1.298080628195084,0.47561485150508287,-0.07057484572792275,-0.01827380170895729
580,7.809559672120502,0.4035928596744725,0,1,7.710082777111828,-0.4542823688621985,-1.317041409186988,0.4067484319119846,0.007546042769619482,-0.04332934512674924
581,8.356106789263045,0.47501059548306557,0,1,7.414513864202092,-0.28305695953633325,-1.5256724805025212,0.44308703118096926,-0.04972881997252048,-0.050997787679721684
582,9.06108746061117,0.5576988726715146,0,1,7.494751800130682,0.4312023056136511,-2.3908034213597893,0.47134825479923786,-0.2706696817245189,-0.014980571981231816
583,9.882432273384541,0.6476237333518611,0,1,9.275911429197366,0.787014110399323,-2.7948565355243034,0.41677412848242706,-0.6047617255296478,0.06992107342533446
584,10.765977356642473,0.7396989662661165,0,1,10.797871754285058,0.37697225003735324,-2.253208791058071,0.3711441692324712,-0.4322989599722964,0.12194872155699306
585,11.648545434469023,0.8278517569417704,0,1,10.15118329417728,0.3885211773689094,-2.4475480091665736,0.41078295275923243,-0.17724332659739772,0.007727956101875523
586,12.462524413754613,0.9053267775053363,0,1,9.458196363969064,-0.08189767307753379,-3.439833060358515,0.21202228230741582,-0.3209490782683472,-0.019491384595910138
587,13.141691655462303,0.9652816971516922,0,1,11.422145214709749,0.11398432887709667,-1.0922708318289784,0.6008013165759085,-0.3247836975522712,0.11259967142944888
588,13.627731067766323,1.0016501133521791,0,1,17.831738149655518,4.761106796599821,4.817596084834158,1.4125543941993264,-0.6632253806147733,0.6489402269325026
589,13.876512681142664,1.010135651829652,0,1,18.870681312733325,4.856884210172176,1.6235741196896358,0.36673850694389204,-0.3834795111649427,1.184060678916565
590,13.862978235567414,0.9891047685735415,0,1,9.936407477419225,-0.7762144805977034,2.2832895706948384,-0.678331321832783,0.7324345248066984,0.7374487087742744
591,13.583738189255302,0.940126660107928,0,1,10.011152523688786,-2.3142508715817756,2.5647175758421907,-0.9629647363351188,-1.0739541013055067,0.33859464559590685
592,13.057193608535774,0.8679838132572916,0,1,12.810547083028238,-1.9892705205451355,-2.904493432727781,-0.5822505970912765,-0.9138909331409971,0.17860910658331056
593,12.321613775625847,0.7801118132009388,0,1,14.440490766189106,-1.4005913279164568,-2.8114597465654483,0.08758212414147629,0.1948092052301172,0.0581652507421303
594,11.43170454822691,0.6855720754110359,0,1,12.392709439160113,-0.0033636312539101778,0.8866776783078862,0.16602091701094887,0.7731116518934699,-0.08555627465447839
595,10.453986092865566,0.5937717449572422,0,1,9.84510368775631,1.1297151767988616,0.7515776116619365,-0.011736576121399852,0.17098577700597617,-0.1471247070087761
596,9.461224370937568,0.513188934848559,0,1,8.428418503210754,1.1002121478150215,-0.8321928843139474,-0.21338698461613675,0.03693559262821442,-0.09433189669364876
597,8.526354319325034,0.45033470813192583,0,1,7.574766813777498,0.4701653621282411,-0.8123036322741266,-0.268286233916172,0.12405923330829144,-0.0791038606101213
598,7.716548974212833,0.40910926173537593,0,1,6.921014914465563,0.11604478588244146,-1.2137706797905663,-0.20346914128668728,0.20643058146432752,-0.14453341980302395
599,7.088097146971547,0.39061663322637563,0,1,6.793337396830779,0.621370198801999,-0.5997931690987404,-0.12501741138512942,0.2569863016294231,-0.24432616855966216
600,6.682547422113133,0.39341154368314374,0,1,6.648802630934545,1.2325079229001918,-0.44961475403216605,-0.16567625382886897,0.2651117133519596,-0.26000037014477834
601,6.524291871855823,0.4140806636318849,0,1,6.798333899352312,1.5008470222717443,-1.1295934516191555,-0.3180654121185437,0.1506660661991403,-0.21135478698905108
602,6.619529106292207,0.44801692492913736,0,1,6.834796833297383,1.170511965090525,-1.2859667426970425,-0.5542893201925306,0.34698079430585893,-0.10711207715703332
603,6.956432393588412,0.4902282992335324,0,1,6.660652099153417,0.364461156483433,-0.9642464995278065,-0.7118865771193835,0.21965405954176298,0.0006360703649187239
604,7.506357803403448,0.5360301544852418,0,1,6.792993826653353,-0.3713152947546541,-1.4346825419734326,-0.7793889283773461,0.029257241020698797,0.09756993824467877
605,8.226001570571368,0.5815061520887418,0,1,7.351192304885569,-0.072946318444071,-2.0492183161894455,-0.5812817488255634,-0.20573499830488698,0.055123730207314044
606,9.060464538062105,0.6236867129096656,0,1,8.959474652775917,0.07743692086527316,-2.2241018371862125,-0.5363687745981967,-0.2650191415230155,-0.03221355727131124
607,9.947144211503801,0.6604723637394144,0,1,10.361666183053208,-1.2757546878925154,-1.2311134530953534,-0.5274521556038898,-0.291374040376301,-0.05213133309554862
608,10.820272507375707,0.6903966845962431,0,1,10.438539594073937,-2.328629403674907,-1.3296565362464612,-0.05625469963413551,-0.3429714208003686,-0.19940383711966148
609,11.615827896575798,0.7123587126588674,0,1,9.755215285826878,-0.9105441502596104,-2.958190023227916,0.37301438133432174,-0.20835605891336542,-0.3031160302989736
610,12.276513713423551,0.7254483900407317,0,1,9.77535740101881,-0.07523811890067869,-1.5889532619325322,-0.16661450038648856,-0.05457328406552681,-0.17566787063092232
611,12.756440554060218,0.7289408825999548,0,1,13.724106039519564,0.7821501091473312,3.7140722459357693,-0.426250330900037,-0.6174116699558416,-0.1906020552236959
612,13.024981757728613,0.7224543661871566,0,1,19.82713555858739,-0.9885044288529634,5.008923547789097,-0.4518169130986312,-1.2943967738942244,-0.5755392582299961
613,13.069073047512974,0.7061774585032535,0,1,14.293515657016496,-2.092430570156619,-0.0213096340227264,0.16878101049012356,0.29491047455678476,-0.6838440618797791
614,12.893330011197921,0.6810238071978637,0,1,8.725782678337099,0.05825387274314518,0.12720569059384476,0.47622378158594564,0.8279353127313768,-0.5030695119189561
615,12.517972832968418,0.6485996520741019,0,1,8.779845896928009,0.8538837046735669,-0.2571891760510122,0.292170972890853,0.0606417856447453,-0.27340352441612503
616,11.975350166824617,0.610963666142571,0,1,11.376244910591453,2.7510355830599136,-1.3939533999357754,0.2264713934080011,-0.5722068565109285,-0.10904211236114562
617,11.306201180987019,0.5702621758432753,0,1,12.727484234111715,1.5834812951611976,-0.413893116347772,-0.03419210448623012,0.028037635666025955,-0.0656046673007836
618,10.556450988300083,0.528383953542203,0,1,10.737627311646847,-1.061487302350904,1.082529256842378,0.11525366006277223,-0.06938135612940394,-0.09562849991950435
619,9.774707601504971,0.4867736936241374,0,1,9.552794558214654,-2.532036269353015,0.003412128135715848,0.41352572555257805,0.15817124132197588,-0.08407085177107032
620,9.010234302402546,0.4464765680513293,0,1,7.772253355732411,-1.7261361521914076,-0.6556186307334735,0.6364948927845301,0.14191761426533198,-0.106185262223483
621,8.311122483116684,0.40838704191405883,0,1,8.570569860858134,-0.17621730066821067,-0.5460109691572637,0.6192084390325495,-0.1632997456129821,-0.10905729832961354
622,7.722472981439175,0.37359083114174396,0,1,8.670339703139012,0.7592377083627745,-0.9641871322012117,0.48858423062314177,0.023012311253131988,-0.041487753741883654
623,7.284430571413667,0.3436591026105556,0,1,7.964008496092713,0.9142036133742121,-1.2904785655065667,0.42810635292527843,0.007450084237229383,-0.018166172363874168
624,7.0299273646442435,0.3207828468105283,0,1,7.323774454069849,0.7775681458738194,-1.4590573647577976,0.3975667478120733,-0.01600171533086854,-0.07891617525923732
625,6.982086466163814,0.3076951912989236,0,1,6.943798243519785,0.7284815689038481,-1.862948814510252,0.2884862167083698,-0.0654268222944469,-0.15860543525308562
626,7.1514518408477,0.30738967864477973,0,1,6.648242878182429,0.5665004006491133,-1.7153378617161301,0.1659551853714546,-0.006067952025981389,-0.18976076811485693
627,7.533467358814399,0.32268806270148254,0,1,6.320131059568664,0.2902619785903394,-1.400826470598944,0.12267181686169737,-0.12415866395165014,-0.18241539265189025
628,8.106815367078589,0.3557386428403939,0,1,6.372826175988604,0.4453760290638425,-1.8975270459297493,0.1961636506153945,-0.3469866216037717,-0.1854417248670428
629,8.833259158761146,0.40753645576031766,0,1,7.759794120462319,-0.029016445081721253,-2.5151232544145836,0.06831622584193643,-0.3883154011939561,-0.08736902203625688
630,9.659478162721348,0.477555066014801,0,1,9.258794361784426,0.17205449586346833,-1.0853035032333098,0.29220679474408784,-0.11370789036936128,-0.05547924659355553
631,10.521068754597053,0.5635740562936512,0,1,9.205843411301206,1.6075998578306572,-2.5196759274357703,0.4546851530133478,-0.07690071320362225,-0.15865079779757862
632,11.348496671809311,0.6617775715770046,0,1,8.991777071563623,1.3694232110870772,-2.9706143690883247,0.08204377716716676,-0.22500693932129476,-0.031701806985779866
633,12.074406220404141,0.7671767638948858,0,1,10.856901749633755,0.8564183355208518,-1.4476694124782197,-0.08828358895967113,-0.21092118893032444,0.14498521861342123
634,12.641318222437063,0.8743571334045228,0,1,15.585381460026388,3.2299458451691803,0.7719258603184791,0.6345521563428995,-0.3817725142141807,0.5217895584000488
635,13.008392019753062,0.9784630066265239,0,1,21.924798649785366,5.713845026580421,1.4282105994122356,0.16217855221396144,-0.561935742755601,1.1249086753452207
636,13.155787452471298,1.0762228662860187,0,1,12.523775622687605,2.0497564676253397,1.9122690211515798,-1.191605213947859,1.1434397455875391,0.8365638203887814
637,13.085591782405453,1.166740438494095,0,1,6.944610877088711,-0.6117849750991026,2.0172736104498865,-1.7290487462700768,-0.5911142481726921,0.16815925583160957
638,12.819324343745105,1.2517863945770429,0,1,10.020202127927968,-0.641810646745223,-2.8829954556759883,-1.386403407591641,-1.141268399795415,0.027680489085263705
639,12.393115411583572,1.335449215936672,0,1,12.764201798369761,-0.092322926973583,-3.202816248710556,-0.6475878324575918,-0.2005205600869525,0.24202751057933952
640,11.852036612404307,1.4232040561091464,0,1,13.62704273384976,1.0185654810748852,0.38923492325762,-0.791355750414083,0.443264759870497,0.3072964406350913
641,11.244662755900857,1.5206463317435464,0,1,10.475959793430205,2.240719110632066,0.9721704414796256,-1.0733557990937441,0.3160729193175474,0.11321712899203228
642,10.618363577589157,1.6322223472101964,0,1,9.327826329984052,2.727742695639674,0.49586520174810944,-1.5485692457096243,0.010046866172192725,0.032089265460853146
643,10.015551623266676,1.7602448122115528,0,1,8.513302687459614,2.3994217674920533,-1.1350593592759217,-1.6502866863285568,0.00018559765378421637,0.14298126332917718
644,9.471104498208424,1.9043563124619531,0,1,8.59231357899783,2.1694966648176135,-1.4155137768114205,-1.7438687584878638,0.24874150897563208,0.21480858375504433
645,9.011144290131783,2.0614730620586568,0,1,8.615512181331445,1.9820644141920845,-0.4781307109590283,-2.0803424913517206,0.3580715636328313,0.19534129422896765
646,8.653161720787915,2.226146163544439,0,1,8.429867972724768,2.0912186281596834,-0.4839715339011316,-2.377761845902377,0.18955831601046996,0.14019258188057152
647,8.407198677496615,2.391222242402597,0,1,8.732901690345074,1.7470401512454017,-0.9882995336148024,-2.4894105626520786,0.20771846791624807,0.12420751326007556
648,8.277582898792794,2.5486640850184195,0,1,8.98014580086077,1.088731860547417,-1.6625366004851112,-2.5552205111732693,0.23313526863386916,0.19477019937665982
649,8.264619773236253,2.690401209700951,0,1,9.18975019547651,0.6059007804507583,-1.8233336151283999,-2.674161840079688,0.37862823081699,0.31605725123835343
650,8.365711334901523,2.8091105838186117,0,1,8.83878399922533,0.6305166287987231,-1.4618081505126046,-2.782081126225738,0.46740555215814894,0.39634570000400104
651,8.575582677910598,2.898862571469469,0,1,8.581847685072143,0.6821125832131782,-1.2919786562935915,-2.879549013473964,0.49126184411934454,0.4243122388920731
652,8.885603766270556,2.9555951874002475,0,1,8.121002206388296,0.8295121616106884,-1.4663566941306299,-2.9238539408899853,0.3739117158974367,0.46478458790802385
653,9.282508054004893,2.977400516163196,0,1,8.575615412316544,0.7375494386663777,-1.8123658428819298,-3.0095081426321095,0.15110010606702118,0.5344578835360588
654,9.747024452200018,2.9646258140170816,0,1,9.236411627348083,0.9939234490484576,-1.3637852615702313,-2.9963188259498508,0.35171791180039197,0.4885307020015474
655,10.252996609998634,2.9198120896697612,0,1,9.477949788163853,1.785861032863071,-1.0857526066759602,-2.7526028411304835,0.40267226953960966,0.24335472393453386
656,10.767478874975062,2.8475139837322385,0,1,10.675282321495573,2.8471202869427428,-1.6615754896712864,-2.284171665872785,0.40031365306156336,-0.1249152237932793
657,11.252139476003686,2.7540561918666877,0,1,10.100321297035771,1.3446608071688022,-1.5308266857048318,-2.568263625614747,0.7342008863512898,-0.19767168110328892
658,11.666130239528542,2.6472643472706525,0,1,7.803093190020525,-0.8059853349081781,-2.035981473440175,-2.878709469492142,0.22525251991287104,0.03572293745025215
659,11.970387366075714,2.5361551804556375,0,1,9.511746642006878,-2.324218661532048,-0.6692070341802618,-3.0259062581932703,0.19633804336849975,0.17387232689730728
660,12.133002959201047,2.4305117879845914,0,1,12.829795523720037,-4.698931073489576,1.545929622996218,-2.911245304554271,0.14671450057373336,0.1164796388997464
661,12.13477776091782,2.340258954680994,0,1,18.977751107909185,-4.077182620125469,2.411678442207304,-2.09858944181702,0.2744216593000033,-0.566463673836784
662,11.973526295795889,2.2746189123187937,0,1,15.96847608542216,-3.1256039082247224,0.937103581192466,-1.22930409544187,1.1591299803362602,-1.297684085905902
663,11.665630850801767,2.241139639623314,0,1,10.106928840910422,0.0441024484896669,1.1135727839795857,-0.8724979238970914,1.387876515067346,-1.026042671568615
664,11.244055212614114,2.244779375842293,0,1,7.9442670050069735,1.2971020925928143,1.5903175060685608,-1.5460248116666258,0.23558264960051653,-0.24951996271090918
665,10.753246872161352,2.287249974601103,0,1,8.639036855445731,-0.24257897708819123,-1.4259858137523627,-2.3349936808626244,-0.3915380282523841,0.19473855679930335
666,10.242334576248911,2.3667595367487766,0,1,9.920946988786568,-0.23063744491711596,-0.7089869209409905,-2.407235600729585,0.6109424194022277,0.037835962170454804
667,9.75825251661044,2.478184422885666,0,1,10.004982041882855,0.13761238953469337,0.756115436086565,-2.4599969941017035,0.49448460680572714,-0.31022566301461263
668,9.34001489453824,2.6135964256066333,0,1,9.047682926515062,0.1682053923084464,0.2435606358047473,-2.5820997647964092,0.7557866526089189,-0.397844869571099
669,9.014800033132463,2.7630151143239,0,1,7.66880498691578,0.27060332281830535,0.7332121256388338,-2.8139935903067297,0.6143842278155056,-0.2791138960818545
670,8.796101681195347,2.9152535352394713,0,1,7.738742911710394,-0.02333706541680209,0.8647834192550493,-2.997438792546468,0.3363212065063949,-0.11027238559585334
671,8.68396007581522,3.0587560712417985,0,1,8.390790089392183,-0.4193684246335798,-0.20192247662118482,-3.151928992870255,0.07821183550167687,-0.03732078771836218
672,8.667049336849152,3.182370080378434,0,1,9.547091081697666,-0.9241451056131136,0.22784464988783823,-3.0778653219627503,-0.0019081934091468723,-0.10116305371905157
673,8.726117166798494,3.2760365826796902,0,1,9.719350676383751,-1.0371025244196808,0.5427517880538447,-3.0491195351847447,0.1574396789194014,-0.18711017453216092
674,8.838043820622133,3.3314177429109177,0,1,9.341327389476856,-0.7944477118612675,0.37620676568144856,-3.148822434361194,0.2107495905101743,-0.21951317934746395
675,8.979737590738853,3.34248540144456,0,1,9.246578921951901,-0.540184929475063,0.715237299723018,-3.2900348981393894,0.12719187913515756,-0.22183739678244185
676,9.131238284088367,3.3060686047894943,0,1,9.522690921544523,-0.597054549678662,0.8436663990827034,-3.3783975165472144,0.017746077332203847,-0.2315709291846195
677,9.277667470295865,3.222310465522966,0,1,9.747381270370214,-0.9775094255855173,0.5355872404724548,-3.365563417298636,-0.016613000544439566,-0.27909495003749635
678,9.409935098245356,3.094941510223811,0,1,9.190278774324279,-1.331226943172528,0.5960528325503587,-3.284942666136274,0.07024777873511683,-0.3531950386191094
679,9.524336301455131,2.93126181039186,0,1,8.986856289405221,-1.3568854178156056,0.8370234735886631,-3.1058428279791666,-0.026046469922423803,-0.41286091569161165
680,9.621341504865052,2.741747181731421,0,1,8.87234279876566,-1.629617379358503,0.6498140724634363,-2.9588355167807694,-0.033093054950644275,-0.47320176986789914
681,9.703978692810054,2.539251071097071,0,1,9.118489554171314,-2.023583101875027,1.2289346268108619,-2.5809742121636035,-0.225724417934884,-0.5267057159580601
682,9.77620222904626,2.3378513504252005,0,1,9.42521876598277,-1.93711232064694,1.8898581566934314,-2.1412257334686045,-0.15795841736239172,-0.5552097472741575
683,9.841546313007774,2.151473253713125,0,1,9.579019917825258,-1.3659575210289685,1.3691914218800652,-1.75322914221607,-0.2937981035319916,-0.571414514201955
684,9.902227166905988,1.9924831576201558,0,1,9.868830970694853,-0.5093748487976457,0.9252860134879012,-1.5116539726383198,-0.01985978708675212,-0.5958442119047288
685,9.958746430917227,1.8704676560513271,0,1,9.838192378846479,-0.41253338229919545,1.4670376367260831,-1.5715634933572893,0.03433752660092414,-0.5946504130363643
686,10.009983533423412,1.791374962410444,0,1,9.491191174085285,-0.4838437012713712,1.1781728695535572,-1.6908009854412913,0.11904530721626483,-0.5187728067285047
687,10.053731031314852,1.7571124840823817,0,1,9.184996512775761,0.05257712240725141,-0.03400229875886149,-1.7573201856269312,0.043211244689008735,-0.46062957487775064
688,10.087585479202682,1.765598790106708,0,1,9.87712671522262,1.5264933835772336,-0.4721571271175823,-1.7560182306408185,-0.06943685934347361,-0.48311208131293737
689,10.11002016566273,1.811195362208947,0,1,10.795203055299217,2.686402001616267,0.04069036245280081,-1.782391387473266,-0.21312195943200093,-0.5315615033957701
690,10.121340573677823,1.8854100387500508,0,1,11.450175325991793,2.8111415777722413,-0.49847744566269636,-1.8822437251538342,-0.2763847108360631,-0.5181936988820622
691,10.124141361371436,1.977764513333361,0,1,10.894707515772023,2.3219674767977154,0.007939541578309093,-1.972344809721557,-0.1491556505496096,-0.4642534648812009
692,10.122963219853926,2.076737812279596,0,1,9.91269021936444,1.7497449396202536,0.0973819200511156,-1.9746556001802724,-0.2472586684091053,-0.39603098707807877
693,10.12312791009162,2.1707232726770336,0,1,9.007304424257182,1.3437794097940738,-0.5603836448543317,-1.9618637632515714,-0.2774806049968145,-0.30555243854085185
694,10.129098693786775,2.2489569757094423,0,1,8.361630540839922,1.6875516998751,-0.5420395030030557,-1.986885703828984,-0.3426163248462684,-0.21446521278719993
695,10.142970614521914,2.302378733141879,0,1,8.377609033704202,2.088410687026563,0.3326476612703656,-2.3245877890165083,-0.3014965257263636,-0.06390885643560919
696,10.163686815917666,2.3243654970821135,0,1,9.485474078775944,1.4264866575975923,1.6995809909881745,-2.6857885724545145,-0.41711865355863736,0.04986022029948693
697,10.187291245403195,2.3112427212519706,0,1,11.344704914750235,0.050527306761504485,1.2447392578704166,-2.715823046352555,-0.6740779385988969,0.00866858944752204
698,10.208101120096494,2.262464931569681,0,1,11.254673267999479,-0.7782680465088008,0.7530161873280543,-2.409632819114781,-0.12843281085519875,-0.07462566210141842
699,10.220329498338854,2.1803960200316688,0,1,10.461771001856098,-0.7997859040649797,1.3859874233164373,-2.0349030873679452,0.0493055564045346,-0.14602097386128426
700,10.21957725692674,2.0697122082310044,0,1,10.471270169622608,-1.3316939838606499,1.1929426359347364,-1.9753042827904135,-0.009501795781798736,-0.1954834754080127
701,10.20375719937884,1.9365542599400671,0,1,10.43978961913463,-2.072016691074193,0.5596339651386684,-1.7016811579671993,-0.08950216078873918,-0.20208739514252935
702,10.173285047149106,1.7876197876315343,0,1,9.84025742776786,-1.2792271013275305,0.5437291796469517,-1.344331734825611,-0.02322006225094674,-0.11191122033243157
703,10.130633393809111,1.6293880904873939,0,1,9.320711935147578,-0.8579516242698199,0.420250771079893,-1.4031792926977444,-0.17352442347760333,0.04240866296026458
704,10.079522162525897,1.4676146851597942,0,1,9.743170234163406,-1.1736988679999918,-0.1558775166283746,-1.468000892612107,-0.31471724573175885,0.11382265521167577
705,10.024084657826558,1.3071405964833054,0,1,9.349392910425815,-1.345896608627249,0.09708749084497174,-1.422551237306534,-0.25153612682785054,0.08163856594303283
706,9.968294072506879,1.151963157021084,0,1,9.280514195273174,-1.5990722100180486,0.5082397709811065,-1.2716690288982635,-0.3245049832773576,0.03485035998307664
707,9.91578579987059,1.005446553403207,0,1,9.823681700336321,-2.2263124236561844,0.6562183800852127,-1.1298613075482615,-0.3737919362988784,0.01969357869412995
708,9.870020088971673,0.8705336276877094,0,1,10.361702675560569,-2.730601986877007,0.48210459000510486,-0.9490634035083577,-0.3536325783390029,0.030811262546871894
709,9.834562157741086,0.7498512418600869,0,1,10.215233670659583,-2.776910859453172,0.6801195776656234,-0.7638576874076843,-0.28245384397609824,0.052343846023045065
710,9.81318129187668,0.6456591869390528,0,1,9.898778664434513,-2.5624298601694835,0.8660356429146251,-0.6161780413732211,-0.23459444559668255,0.041183104993019935
711,9.809534750047717,0.5596554906041438,0,1,9.65349863753101,-2.2450970899322833,0.8519156199507336,-0.4481304663824242,-0.2136237339009382,-0.0025178167284076207
712,9.826389535382031,0.49270265525201135,0,1,9.485950911481039,-1.5485559335976185,0.8554480764297056,-0.26866440578204126,-0.1989402740591125,-0.05698025667340424
713,9.864561458318128,0.4445689941688841,0,1,9.1176308253561,-1.0438098133387381,0.5976729299293835,-0.2036718084458827,-0.1575870847003943,-0.09671733430067651
714,9.921919282567654,0.41378104184812187,0,1,8.878084270504305,-0.9176193873392422,0.5287683417789942,-0.05897728399239199,-0.20189147136473443,-0.13288980210695567
715,9.992847521172994,0.3976567009552646,0,1,9.03590125561007,-0.8725133240457241,0.44547665666203595,0.1862319441108853,-0.3836904550830716,-0.18024125999881163
716,10.068461038351067,0.3925419645757331,0,1,9.922097903893304,-0.7673681109032278,-0.012452228301106347,0.23402018452701928,-0.34858643799038547,-0.2244152939180752
717,10.13763889890448,0.3942233914199901,0,1,10.978524294036482,-0.5810536808097251,0.7818334712050792,0.08516180988106983,-0.13509079852889913,-0.24449181010800347
718,10.188672989034412,0.3984521477765681,0,1,11.305771853887284,-0.313343352065221,1.439656964605728,0.07936774051168548,0.008207157655884128,-0.29980557681047537
719,10.211133304206832,0.40149889713787806,0,1,9.955007859591072,0.48743939711906875,1.3469815661271352,0.3642899147145601,0.13416561374554475,-0.4092635513133733
720,10.197534537399573,0.4006531036862317,0,1,9.738700513492867,0.9445987842243285,1.5151492362454404,0.49155115731191396,0.0655567962214203,-0.42917339661963017
721,10.144533419124343,0.3945796260855064,0,1,9.908286783928645,0.6989365226186728,0.9390015797881813,0.35972215130511026,0.14972043852214142,-0.2847581070256485
722,10.053568542526442,0.38345922227831525,0,1,9.252006030582232,1.2223216724045711,-0.2993013095374865,0.3593363104973028,-0.10033340476165231,-0.28328742456016254
723,9.930949415557569,0.3688776376699887,0,1,10.971958108107358,1.2433333733389837,0.637757516457443,0.17368506736491554,-0.02327074214524468,-0.26919087332846214
724,9.787387707421239,0.35348163464572874,0,1,10.693873498128834,1.1655169716292937,0.5283861228945089,-0.007354632484150254,-0.014744435767680274,-0.2783754135561672
725,9.636924330629517,0.3404677335030182,0,1,9.725691456458387,1.4707940173939407,-0.7900819996331774,0.09073687791246977,-0.08960207954988722,-0.3321298191247953
726,9.495248605647047,0.3329949817752724,0,1,8.87350590766197,1.5093763626536425,-0.17924745649601442,0.09973761383736313,-0.04007515145322592,-0.28350249918830484
727,9.377561918348416,0.3336166683805798,0,1,8.98717091478504,1.5795471191564452,0.0902124297824404,0.053890537726416284,-0.16468066051025843,-0.22545175323011393
728,9.296326036919776,0.3438170355133048,0,1,8.730731393619465,1.6305015061020305,0.034779080955428116,0.005735554934107112,-0.11541373140040845,-0.1810741757209284
729,9.259338585274696,0.36372509636983136,0,1,8.443301821549692,1.8103601051908056,0.14575833343932088,-0.02906457792407634,-0.12051833975404712,-0.11051015222647481
730,9.268547992569763,0.39205705408762215,0,1,8.247605608445506,1.9352742155912033,0.02717085853658171,-0.12318434950581417,-0.16054340088293878,-0.028183469139894023
731,9.319885012834021,0.42630446281736456,0,1,8.887522655072134,1.4652309102553904,-0.018862267908101988,-0.3484930327446384,-0.22609321643922733,0.10684210130219281
732,9.404187844687195,0.4631349113360719,0,1,9.0625240270485,0.8288974318871618,0.322018279898342,-0.5110547786082215,-0.272666697627652,0.23118514027593678
733,9.509064348748266,0.49891685696308063,0,1,9.671370087846983,0.2488077616277176,-0.04282402190326197,-0.537249633229758,-0.6191734340680345,0.27417524974111496
734,9.621309987235923,0.5302443025943618,0,1,10.665041960771317,0.15340214211177375,-0.4765549725006207,-0.48894174074444274,-0.44822511705724716,0.27381947293684405
735,9.729342051577541,0.554343589330226,0,1,10.657767322118637,0.7806017956549657,-0.6599065679234521,-0.30394319103589323,-0.38193585764871213,0.20550300361143492
736,9.825078682898098,0.5692968820132479,0,1,10.889405350207134,1.0066510191287987,-0.8471216998064939,-0.2600320952165656,-0.3521739796186524,0.1585393611513673
737,9.904822738025624,0.5740900661098365,0,1,10.10648434941009,0.9520623568217363,0.22480824190161125,-0.2656790952418567,-0.2105729965263233,0.14416910946831532
