id,ASVM,GSVM,walking_nonwalking,normal_abnormal,ax,ay,az,gx,gy,gz
1,9.85109851256684,0.6619208279847658,0,1,7.721736907907242,-0.3197629415359946,2.8925804094045753,-0.621739878381593,0.49582507373442225,-0.28196309953471616
2,9.989669185181077,0.7023270726012593,0,1,7.909328476808042,-0.5104718849516026,3.5127397163700005,-0.592367091641326,0.3309322218472395,-0.4336503230436184
3,10.128714728682532,0.7231466613089726,0,1,9.619877897607575,0.14762670014472784,2.1325450426951904,-0.47578960331271036,0.0973011552720687,-0.5494645604351306
4,10.250244108816961,0.7225951537570702,0,1,10.906362975470083,-0.001574077710523566,1.9867490809981496,-0.4706623318446895,0.2075300479011699,-0.6063375440380033
5,10.336941444803157,0.7006629329089769,0,1,11.547921465483187,-0.16592819692107133,1.715921381599079,-0.4626507423079514,0.21185370478711293,-0.5662129808331212
6,10.375108601707764,0.6591309988729296,0,1,11.267357010011972,-0.2731606651952721,2.1100521258918055,-0.47617096334315906,0.2468872118282144,-0.3777802690947548
7,10.357007296823616,0.6013982678002007,0,1,10.905653275519528,-0.3791405916041844,1.9928659127230282,-0.46743411872615964,0.20760818593421046,-0.15852174295161123
8,10.28207743308273,0.5321566693429455,0,1,10.07210475538999,-0.6936163384352234,2.004602673643126,-0.43716459818736,0.24981233864827732,0.014620713524715511
9,10.156862437960399,0.45696321809365087,0,1,9.331105209757338,-0.8596031238301184,2.0495864198489504,-0.37405250118901234,0.2129067222448299,0.14663844101687934
10,9.993836210210766,0.3817597820665046,0,1,8.989027971501816,-0.8216600539895196,1.9274672665384631,-0.27210993156993735,0.14874528958584937,0.214423102292999
11,9.80956228462154,0.31238390346353534,0,1,8.98362821831525,-0.9164364364579158,1.7229231612673797,-0.1923800589512964,0.0357281357969054,0.23332394931337075
12,9.622661567235298,0.25410432454302817,0,1,9.379729022251293,-1.005541087082423,1.6594049652483611,-0.14058891858212674,0.05693744357592876,0.20504256398205853
13,9.451945268976418,0.21120773811294197,0,1,9.690167813174178,-0.6793323923216675,1.3635516799058076,-0.044293641502426054,0.1053731384924395,0.14249831397537846
14,9.314876097559289,0.18665908691749614,0,1,9.53419059988653,-0.23427095732324382,1.3788983343244547,-0.011942541563413647,0.2070617927116909,0.07986200902014778
15,9.226361389057413,0.18185490936363363,0,1,9.020464623181429,0.037287390721877534,1.5734881765911004,0.03325649937449651,0.20069326246264185,0.01930706476986561
16,9.197819937240101,0.1964874515254044,0,1,8.813425332462504,0.33488187830010807,1.550067572234172,0.08673240528850304,0.13031943387557077,-0.021812148615469713
17,9.236486381636427,0.22853732116632527,0,1,9.007410923797451,0.1628905300785192,1.5974475344836245,0.12365210183007345,0.07031060910530007,-0.04720758953850039
18,9.34495931682426,0.27441300948207464,0,1,9.19766204907864,-0.4265328009688255,1.3120059229666847,0.16898538327377235,0.03223027181398115,-0.05836597798055994
19,9.521009401389318,0.329251382408248,0,1,9.368953683618031,-0.7865773335504651,1.549108702717664,0.23866822586772565,0.06023688683080934,-0.03773637314986639
20,9.757637579843337,0.3873785821267559,0,1,9.790823295360028,-1.142559162419632,1.564392443732921,0.3309821244453121,0.017379257027768224,0.01502926980293307
21,10.043340481838166,0.4429050443535353,0,1,10.174265339383677,-1.296038687711632,1.7211678071606349,0.40448770490151653,0.09008768145973207,0.09085390651007676
22,10.362531007604794,0.49039692561196435,0,1,10.40011474066004,-1.1473303239363777,2.2025574797724046,0.48852458650607217,0.12443925002235451,0.17494267543939362
23,10.69609500186658,0.5255374096844602,0,1,10.454953009058407,-1.21433444219323,2.157940173373122,0.6090730797323374,0.12112022876898612,0.26317443478765057
24,11.02214006065782,0.5456737265680022,0,1,10.169748127541185,-0.9985751985870013,2.0765874930426795,0.6768297043248336,0.1603275425651619,0.35504704845938617
25,11.317082065353569,0.5501477463182968,0,1,9.849669779319228,-0.3342072956072108,2.205349117961121,0.5932726476544142,0.1239182756890807,0.3923255070350256
26,11.557257213784863,0.5403361665207206,0,1,9.867446277246778,0.2337059575460635,1.499061558187324,0.47715191614798513,-0.07150903856446275,0.36836773963999947
27,11.721165299256317,0.519379364439988,0,1,11.046815163346295,0.05826550274551526,2.4704784424234068,0.3222223236990658,-0.13884315929231048,0.29412276299870876
28,11.792204272737731,0.4916425285997676,0,1,13.621887338470385,0.6088567676306671,1.8857428358087531,0.3322517840529587,-0.2988835152851434,0.20009427529845464
29,11.761413162034088,0.4620078799178699,0,1,13.835959088569886,1.9041172347561328,0.576238517547972,0.1088008091775575,0.1323762687962906,0.17420561323751804
30,11.629488818780022,0.43512615196441995,0,1,11.428200924761192,1.707232423712818,3.0437280337522603,-0.22750634005262704,0.14308402908883985,0.15316302784920963
31,11.407377125636506,0.414753776667201,0,1,10.895770129302289,1.0307182592994073,3.122920661481791,-0.36470642066423437,-0.0514910235240831,0.07163856854257036
32,11.115081480414721,0.40327393476350387,0,1,11.136987874463413,-0.016115384964282536,4.836650821919336,-0.4040346981783603,0.026532672831984794,0.0389702619231871
33,10.778798611617677,0.40145646724907125,0,1,10.492962585331336,-0.579056618096957,3.9641590395627886,-0.26219784438155425,0.007661851492951579,0.07842259514873823
34,10.426889712431082,0.40846837849404705,0,1,8.180259651339716,-1.2555182424065576,4.605972887655138,-0.024664912050479743,0.3106983596380511,0.15115628128131686
35,10.08546554628014,0.42211191811451165,0,1,6.0842753842086985,-1.5821015123655031,5.533969122088865,0.28741060888609576,0.25226019646873366,0.26673819357476847
36,9.774508227095803,0.439239718341829,0,1,5.258398055449125,-1.7622399016879222,5.654860205478909,0.3852537482058355,0.03940362273530044,0.3450361326873523
37,9.505409472712689,0.4562743571723994,0,1,6.053784963278136,-1.4523210769198829,5.036274135921662,0.3477067464330731,-0.09616488861922455,0.3823486586080486
38,9.280502535837542,0.4697482432572747,0,1,7.933015366319005,-0.5751737951970176,4.27902673059,0.27040970723137997,-0.12431021534754402,0.4186872405636716
39,9.094641113285796,0.4767846383003304,0,1,9.512437301594932,0.21440949259341965,4.2354470939063775,0.2787757401290517,-0.12089913472029559,0.4122457198163746
40,8.938307057971588,0.4754593737411631,0,1,10.46046690937967,0.07854840296141757,3.273442047638561,0.3514406188758094,-0.017612633679155897,0.3372377065697591
41,8.801336779287865,0.46500664101790085,0,1,9.151912453120373,0.302020652290166,3.507712951201319,0.397813322911719,0.3627828791303303,0.2335175656919886
42,8.676304727965604,0.4458547580897327,0,1,7.511534229535337,0.9525374878378811,3.9495603344910664,0.40871298866843736,0.29025569031758414,0.15587273219807807
43,8.560882471568252,0.41949928337914594,0,1,6.978365182985158,1.324068291741068,3.6579910436837406,0.35484812680406463,0.14725219783641907,0.0791577284696483
44,8.458916575527676,0.38824431914051766,0,1,7.319701492007453,1.1295980542884223,3.2459130015724367,0.2652992213997247,-0.064007999601488,0.013406015127487713
45,8.380302893444817,0.3548661337793506,0,1,8.215089491919372,0.5756339353527874,2.6111450957412523,0.19933743669693726,-0.1860021780012571,-0.06349675213509723
46,8.33986426627603,0.3222666108257661,0,1,8.559062601952894,-0.035153908635771766,2.230836652407605,0.1370187046044655,-0.2116363444873519,-0.10898043343308762
47,8.355419194003948,0.29317894241754683,0,1,8.658753449275261,-0.48044152207202145,1.7768960378128964,0.08718312971643351,-0.19834443727935983,-0.11134818790376613
48,8.445195776086418,0.2699663089803453,0,1,8.554712135234658,-0.515842977136752,1.4172231448458488,0.00025871579102294633,-0.18793191339265225,-0.0884498207661628
49,8.624789454097877,0.2545257497622791,0,1,8.42385465335072,-0.03795154184905346,1.3853969446183698,-0.12163567867701144,-0.18656239322431598,-0.035060973718686064
50,8.903982853579523,0.24828212920052414,0,1,8.45477289653243,0.514590612422772,1.4499376959507475,-0.2083088189630303,-0.23842732750460852,0.0391094969911789
51,9.283876896271526,0.25223470356816935,0,1,8.473300650535524,0.7171478964992515,1.05097488112957,-0.23001368158210173,-0.3044838191028561,0.097165630348682
52,9.754852911682018,0.267005396725898,0,1,8.592159629299434,0.26790979110004876,1.6343159597267791,-0.18880308794854614,-0.22041264100741134,0.14581281478998578
53,10.295849143502434,0.2928397727989813,0,1,9.100681503426811,-0.1009700544640406,2.482218665467281,-0.1435973846318016,-0.2460310230049055,0.19210682583425462
54,10.875275529518495,0.3295312583334381,0,1,10.15218403044243,0.240015659583693,2.229591896614385,-0.2104694499094122,-0.23813481679995233,0.24485244026497208
55,11.453624176074305,0.37627032145145184,0,1,10.964563755148035,0.07868397472035218,2.356601983748597,-0.2498377182984819,-0.21730420973754805,0.23526754215554826
56,11.987512756373214,0.43145320131779213,0,1,12.286642146328807,-0.9329949323490802,2.1557915090779596,-0.19252347839715336,-0.3619638060012728,0.16218610005400314
57,12.434604082445878,0.4925129186319301,0,1,13.122319040562882,-1.7380607570262618,1.130648343719244,-0.13830044028089392,-0.28278139554731213,0.07613421454474939
58,12.758655803652015,0.5558544039993621,0,1,12.545802751111088,-1.7542271920157515,0.3967844685108889,-0.03196644695294501,-0.17854515166652132,-0.0044553255927320115
59,12.933912568286582,0.6169768066478384,0,1,13.06475490758345,-1.8290485673372696,0.8435138706596325,0.11570225442258583,-0.31397464258019087,-0.1628217259675188
60,12.948142550200622,0.6708360207861404,0,1,14.20398169481154,-2.1659181903010443,2.6727657885976965,0.3010732328187125,-0.40486758832403524,-0.3732362341937667
61,12.803789073929876,0.7124341857947655,0,1,14.544462833719624,-1.96277756180165,3.6425681838522688,0.5922162086838793,-0.3224042064053982,-0.5910630421596328
62,12.516947213436735,0.7375385199151164,0,1,12.44661107470163,-1.4459103773801218,5.7666990395261095,0.8385647822880942,0.04506638312586841,-0.7612286924313273
63,12.114244147950963,0.7433677741942594,0,1,8.609862414688871,-1.3345950053730766,6.858581371377811,0.6168916268470616,0.14039924534004927,-0.8032571983565608
64,11.628214229417857,0.729076069888156,0,1,5.27244818657748,-0.030701876681386773,7.041323871459486,0.21083135198717287,0.15895504428726412,-0.7497111375054949
65,11.092252419259474,0.6959181623778141,0,1,5.274349876833811,2.355748833694425,5.867803297085743,0.003616202197014476,-0.025467159728183718,-0.6835780793499141
66,10.53641774610369,0.6470710438587494,0,1,7.125480153852646,3.488449298272414,4.907944063021846,0.033628608712991954,-0.13098412759539896,-0.5896852733366742
67,9.985060902569991,0.5871731575595442,0,1,9.056631028315428,3.072630031746335,4.010182799317085,0.09795495987194187,-0.3104510962497223,-0.4385928269373162
68,9.456568057771033,0.5216956593162473,0,1,10.173038752035778,1.3756949252429205,3.9213749219255813,-0.029904979243318523,0.0007338676853041833,-0.25743711202980046
69,8.964779984215209,0.4562746067057612,0,1,9.626821853482227,0.47619863641871885,3.8004942420965615,-0.23711938680027994,0.08862696063291403,-0.11319257270467704
70,8.521199450745689,0.39611520616932433,0,1,8.644358432032586,-0.3549030844457428,3.2048886365963023,-0.4245006031114368,0.23678544262562062,-0.0561607713953892
71,8.137075843582053,0.3455378594650365,0,1,7.488761450749492,-1.1407837682044444,3.2876890015573124,-0.40215262671602586,0.20890342826330874,-0.07827281983568239
72,7.824750056041514,0.30768607048744384,0,1,6.43149319628864,-1.6833938173147747,3.021172859817446,-0.3155330451661017,0.11777587104561753,-0.10374628196331671
73,7.598028479830617,0.28438126155750126,0,1,6.189793643912614,-1.846090339494224,2.986642116210908,-0.24325647912828108,-0.0011583593346712845,-0.10418134133835041
74,7.471636980186047,0.27610288195757976,0,1,7.142186575497763,-1.358470508453243,2.6185024199987716,-0.15377695281124815,-0.09955581021107741,-0.07097381508948004
75,7.459911112944641,0.2820848972519703,0,1,8.357459458845764,-0.5830487160097009,1.8607420256103453,0.0031649619007971357,-0.14271619632365443,0.009287209236751408
76,7.574865994944512,0.3005301147338687,0,1,8.363801257982388,0.04540672420528959,1.191847751965833,0.19895992751042213,-0.04888142888978062,0.0529914942378845
77,7.823789730934788,0.32893653549297514,0,1,7.817914121196069,0.4055757247841783,1.271355349755232,0.3558068375082395,-0.03615653679221986,0.038369428952085206
78,8.206619077992404,0.3645047217937196,0,1,7.418353385267928,0.14333409913177614,1.3475347895635037,0.4150028706173006,-0.1525111620694202,-0.00748279215666172
79,8.713567037334538,0.4045641347996227,0,1,7.027534397900802,-0.2325672167557351,1.2194486832207916,0.3342930997461586,-0.330380258597897,-0.07397263072132641
80,9.323646696308986,0.44693570604104355,0,1,7.203206206646271,-0.33307275050582286,1.6515199164121,0.25229742897257157,-0.44034814164363667,-0.159321664104925
81,10.004720521166387,0.4901477412695606,0,1,8.712785604305976,-0.30542831679856125,1.3096688119755024,0.374020307894691,-0.5957833112550135,-0.2509881803573436
82,10.715426644469682,0.5334435143371075,0,1,10.90569626427792,-0.5169591745528039,1.5289990298657554,0.4792659760952065,-0.5081427397002247,-0.2875606198963303
83,11.408853771382306,0.5765595355568682,0,1,12.823376728834733,-0.5083325967423528,1.7123158940796583,0.48861256395892877,-0.395604401097543,-0.244320958976009
84,12.037338216769527,0.6193121691356477,0,1,13.565060807230056,0.6268622053216281,1.1488965450070499,0.3844252409574663,-0.2058045943659353,-0.08488176260743886
85,12.557463854858012,0.6610982531660061,0,1,12.88004749652459,1.4347968382162533,-0.06633633768376143,0.19015173817723752,-0.12920060014577225,0.16202529367279392
86,12.934382591708667,0.7004681593759537,0,1,12.046809870324916,1.2673931132959408,1.2790922751522362,-0.009525634193083778,-0.029661036594160976,0.3177911940893957
87,13.144869673505218,0.734936030906433,0,1,13.145765618642027,1.5666679336919747,1.4243947220323345,-0.06637816878948707,-0.410862837286963,0.4242447256678851
88,13.178876016752668,0.761136505283466,0,1,13.340920539595261,1.5342308530353983,4.169286389488704,-0.301690670600159,0.17629601430549127,0.5316629024798148
89,13.039572514290844,0.7753357137051595,0,1,11.765893846441424,1.578949606851682,8.43151237376951,-0.4520941438254508,0.22507427178526895,0.5977613499272966
90,12.742010278102487,0.7741939593549911,0,1,10.310526428367078,3.893484428803975,6.839199576413487,-0.5976759207412642,0.22475168612683755,0.7501931028364192
91,12.310673440681745,0.7555937293589322,0,1,7.055248912462629,3.3740748208439717,6.687768934879652,-0.8131494840144723,0.13312429350101251,0.9111227555235384
92,11.7764258027256,0.7193115931443445,0,1,7.402193340127958,-0.5239004140720629,5.869044903304315,-0.6114000956942321,-0.17539937485338009,0.9150975666979241
93,11.173514115568915,0.6673379583486663,0,1,9.164187816893161,-2.7970827879224545,4.34105456437073,-0.03593162611036355,-0.157647976787104,0.7909713797480727
94,10.53719259179119,0.6037344203255531,0,1,9.957345147725102,-3.4443928286560097,3.886490305539088,0.13605810803364451,0.2523586127937968,0.6226578374720748
95,9.902148657563817,0.5340420933076138,0,1,10.448515849383318,-3.024173559539731,4.619080475253579,0.031274560649284085,0.17410840808540412,0.331856749128604
96,9.30146049611327,0.4643744506934264,0,1,10.228131152348507,-1.227200543129589,2.7441169944219674,-0.034352039526084406,0.10592101726342186,0.07799451415354551
97,8.765597333621436,0.4004056887220734,0,1,8.425134138390865,0.6538212900485076,2.826865689034183,-0.11771639871836918,0.1637956731678021,0.003278051579262846
98,8.321108274315948,0.3464810660896653,0,1,7.0212211263876405,1.7192541099904413,2.508789854152244,-0.04546454574300938,0.15264959573666817,0.03548365094382839
99,7.989009910755926,0.3050327341785253,0,1,6.010248179948396,2.463013026998083,2.5371227085308945,0.03356767332772509,0.12663052884529352,0.10119329243559931
100,7.783223885567276,0.27640469950919355,0,1,5.892929560404674,2.0683323877501434,2.445505571674329,-0.057043948299631365,0.0223902515152941,0.11666488904846789
101,7.709537719972869,0.25910061924190025,0,1,6.637743223870088,0.9993455905966339,2.334250779513725,-0.16239579080697655,-0.14354000245521137,0.049953873824204825
102,7.765428770684545,0.25038681394728285,0,1,7.9245780549663145,-0.34998333227271683,1.8813681965395948,-0.28262626907105626,-0.22955192553143147,-0.03092347696993915
103,7.940802198422391,0.24711897100512836,0,1,8.674639287274506,-1.3830290692116824,1.556489188560498,-0.3447405018259474,-0.1662019320449507,-0.0008630367231052875
104,8.219408239782101,0.2466214157458881,0,1,8.691671801883876,-1.3943471486115566,1.0022477749156766,-0.3705254972848279,-0.1052799551324533,0.10544391784530668
105,8.580560273494521,0.2474397677884628,0,1,8.259354017818204,-0.9188482024964433,1.4707951877317054,-0.3774375005663477,-0.08406420334224557,0.18433127766567478
106,9.000820677209719,0.24981261949120373,0,1,8.698761493696857,-0.6071780356589098,1.5345821639137658,-0.3401526824271526,-0.1379204487638051,0.23791801746774277
107,9.455487343725327,0.255758575119077,0,1,9.44830419565871,-0.2457151099593919,1.2883681674710388,-0.3079668223350672,-0.13420449936779708,0.28466061131108156
108,9.919876520153169,0.2687416971454355,0,1,9.406940048717008,0.044098316154113575,0.9987987369598852,-0.2101100018504694,-0.12411672880804528,0.29397186131279285
109,10.370477763423828,0.2929529214502113,0,1,9.597837089106065,-0.44493948677698447,1.4760860899615627,-0.11387441307593148,-0.12539937067303034,0.2587822160357565
110,10.786048316109914,0.33231922715053114,0,1,11.181258103438218,-1.1740946893015844,1.7410679956570099,-0.11545205661873455,-0.15357432876976373,0.20560051008054936
111,11.148646370993093,0.3894154332814787,0,1,11.79109203262295,-1.391797067927421,1.0442997962806806,-0.01167148987029209,0.01053541412185412,0.12118442418344072
112,11.444522133285828,0.46449237236445245,0,1,11.133185239795958,-1.5438387553736017,1.2281535463692976,0.14511623423664344,0.0657888397569337,0.03744301015657208
113,11.664755124550203,0.5548374086120204,0,1,10.91466995425632,-0.9598610329169608,0.3338409405794541,0.2175667143276425,-0.03259765866510606,-0.015460884044281338
114,11.805570981894041,0.6546407487855396,0,1,11.022184595302223,-0.1982558329501768,1.3320964845095873,0.24539362018348052,-0.022466172687261598,-0.13237414119688348
115,11.868327080841343,0.7554544999647239,0,1,11.521847305130064,-1.3028750465988395,1.2090406158145162,0.33089493989261537,-0.4260089233335907,-0.34864519334873884
116,11.859130832214715,0.8472134838748766,0,1,12.88754499028606,-1.6663761400708277,4.1908437749956065,0.6173883483062613,-0.2695680818907355,-0.6135522649141286
117,11.787950745003691,0.9196615555819879,0,1,13.24742625779353,-2.3166355815354067,5.949045561233691,0.7919058619375713,-0.2711637141835214,-0.9362589686501576
118,11.667039250589246,0.9639271312867227,0,1,10.572013039780042,-2.7169185566664042,4.926822460711084,0.6693885886126667,0.001991525167255473,-1.1641443344213023
119,11.508676575110414,0.9739484730252995,0,1,6.220655885945561,-0.7078254253348882,6.966833634392367,0.3875484770609044,0.2217337778147476,-1.2044623154978236
120,11.322666283337313,0.9474787477512504,0,1,5.6896983325850305,1.9739956311285902,5.6372256376962175,0.055688815252755555,-0.18185272150512527,-1.1461764910413155
121,11.11440449120716,0.8864927664151248,0,1,7.137473070067185,3.233836154994113,4.513115082208055,-0.17809436908039444,-0.24826789442303182,-0.9948225843013013
122,10.884362217547167,0.796941079228272,0,1,9.3876775023296,3.0202363618384847,3.7772122696692954,-0.05424085748446984,-0.4462436817485663,-0.7641854763049936
123,10.629350803803863,0.6879193159549057,0,1,11.834752176504075,1.4676952744351481,3.321857032504552,-0.004053669941614494,-0.3066038117622594,-0.47930785968493905
124,10.345220969469578,0.5704182486602508,0,1,12.10638623916063,-0.17019740926223975,3.155704976574216,-0.0801450708384793,-0.09727200572125612,-0.23466144638199884
125,10.030081232124527,0.45587950192193627,0,1,11.052833769843378,-1.1732256271535744,2.7661308142634025,-0.19562584160224364,0.11017064089191739,-0.07521969600201456
126,9.686996466101748,0.35479373951975196,0,1,9.343117834760067,-1.962815904289263,2.825905292678399,-0.2145647111918952,0.19753651168357075,-0.022235730178965855
127,9.325446948684718,0.27554188464852525,0,1,7.972774988825428,-1.7879905973457821,2.6707762837423403,-0.10267539412411349,0.18359425211973204,-0.013076050255779764
128,8.961356840289902,0.22361213822550674,0,1,7.401734308157158,-1.2626139362276252,2.7814918461470906,-0.019387857643575004,0.07630517457772772,0.008379686923260254
129,8.61594280060405,0.20125301539046103,0,1,7.807034709101481,-0.6390711605300111,2.2559007771454285,0.027717990716921864,-0.09526954263068525,0.04745480037220107
130,8.313812323247914,0.2075622080277846,0,1,8.427218300367649,-0.058672860494569434,1.9149510559228178,0.11698632791447924,-0.09386728100891124,0.06300303340723051
131,8.080671330786009,0.23896243178068144,0,1,8.8105995173766,0.4196645727543976,1.4588202030335025,0.20322208818895512,-0.008250105300793299,0.03948880649280175
132,7.9408323568498,0.2899731646106055,0,1,8.40165155594488,0.5673397767602338,0.8104108068652729,0.3423431575404146,0.09234638596868397,-0.028605067683424794
133,7.9146159067094635,0.3541525686719649,0,1,7.704244439941527,0.18606595133767861,0.9621812523649407,0.47972944126704514,0.10016059816952477,-0.09281194465891934
134,8.015782407832866,0.4250636995685231,0,1,7.26883940312089,-0.42534217704442456,1.2311301410120319,0.5552997353371599,-0.03787565538851125,-0.12549631469484548
135,8.249265999278768,0.4971200405180415,0,1,7.307684720412125,-0.9716765526015559,1.445586155503696,0.6218909003839398,-0.09186345497102613,-0.15092193590592384
136,8.609580815790444,0.5661902952116037,0,1,7.988927080417204,-1.2906515284078737,1.1937931225865885,0.6593029489634896,-0.1609182702864347,-0.1848311555273363
137,9.080244608198324,0.6298878721066264,0,1,8.743196622223252,-0.9427915473137083,1.0829656068731046,0.6393656505501191,-0.15632528050416625,-0.18140212510605674
138,9.634413782209535,0.6875274690527049,0,1,9.27359385351908,-0.03869042545564829,1.8598387244595282,0.7018097230490168,-0.11827989345101055,-0.13675962662691193
139,10.236718382242179,0.739788343977105,0,1,10.426945035413244,0.6364900053479755,2.2949665902673066,0.7215307285914153,-0.15409038070421266,-0.03876856136659983
140,10.846105156646866,0.7881712845574484,0,1,10.954193597556712,0.69778829867053,2.3065159077327175,0.5511907239012666,-0.1305065661868339,0.10928119565050382
141,11.41939212555067,0.834366333136981,0,1,11.004241626874213,0.43920108278688863,0.6633922277834047,0.6852694694227374,-0.10134806825969346,0.22663915172289892
142,11.915217580369399,0.8796552010655067,0,1,10.296949434741798,-0.2826308380511971,1.835724543325017,0.8257053422188477,0.058982043624588726,0.27182600133065793
143,12.298082750107156,0.9244545942491246,0,1,11.248889648391295,0.08636414691229681,1.7972804064410983,0.8305517668893233,-0.31497139078484215,0.29144365362184116
144,12.542145179775806,0.9680723966196394,0,1,12.987053653097188,1.2590013081532614,3.683038894998166,0.6055035286243509,-0.05197947920376611,0.3935160673083834
145,12.634261537488813,1.008711318043801,0,1,14.447478867279933,2.7301865433380614,6.35740801514439,0.39790627462437345,0.03176918084110745,0.6208305013993275
146,12.57560106400433,1.043718255678324,0,1,14.358908005956433,4.203230306104255,5.70529616838316,0.34352090247538114,0.387982168573616,0.9769468713362881
147,12.38119792318447,1.0700341220968979,0,1,9.912057095750008,5.004316639195356,5.119338292763053,0.3193070870034514,0.5302847622051878,1.2533430609951939
148,12.077264036561948,1.0847491666884204,0,1,7.1981133682523035,2.4148722892949035,5.03537665782087,0.37288978459316885,0.25886944726927846,1.2277534007985045
149,11.696817476489793,1.085637316443802,0,1,7.498934593976426,-0.9908840999687576,5.205390764578493,0.5124701233524496,-0.1068862582074194,1.0346662401533884
150,11.274771649236573,1.0715565041895965,0,1,8.62509547001677,-2.4912818103050656,3.9801242930432563,0.6719885566003346,0.022098426852985135,0.8346316801744207
151,10.843693162297868,1.0426571099978927,0,1,10.016260326834404,-2.3695545343303066,4.208528705991083,0.7607968349250666,0.17688581572864792,0.5591850171327604
152,10.430962775501728,1.000404964086927,0,1,11.24193538937417,-1.113220146000901,3.1525910132301327,0.7401514061432172,0.23382269597298347,0.2230857340603564
153,10.057410971441914,0.9474661393396193,0,1,10.546535518295725,0.9572505875596508,2.866576897534631,0.7686871400129043,0.4548719695350339,0.03927928669035797
154,9.73703693004834,0.8875056586338264,0,1,9.453321354600513,2.381664626019599,3.072328986761493,0.831046758240642,0.52151558083791,0.043965175996800915
155,9.477324002583952,0.8249296116715469,0,1,8.138300974444583,2.4914823247079587,3.482491059520816,0.8346308258654768,0.5176325626713929,0.145353126187797
156,9.279847305227712,0.7645718649125669,0,1,7.272849407136852,2.243127178529763,3.571013515497367,0.7555801519528944,0.3735040963052784,0.2702594097879646
157,9.141117516010539,0.7113164227323372,0,1,7.52142157302223,1.790381488396818,3.2102682400708202,0.6154416645939735,0.23032625828714495,0.31654507049808356
158,9.053738082436276,0.6696647153196625,0,1,8.590124895697917,1.2166475014670797,2.9579756282044003,0.49697773286690355,0.1225207136527009,0.22602422455659402
159,9.007908380908715,0.6432923801822639,0,1,9.057003618961197,0.4984169762286055,2.4232810147898873,0.4193269969607543,0.13401855342552038,0.1441428779303744
160,8.993145589766701,0.6346686372047657,0,1,9.064442839867686,0.13194680298488493,2.6708042234911447,0.4512639738951692,0.2816735860688584,0.1365074100905244
161,8.999949494609146,0.6448139343043764,0,1,9.024227720055077,0.26793224066318694,2.9403655037019463,0.4848916517050992,0.2872468900094647,0.16223877626479732
162,9.021094035011808,0.6732454812331047,0,1,8.897317627987952,0.1360702016516447,2.6989406945664958,0.52260293761212,0.2840799812474922,0.23291781053456861
163,9.052310180099695,0.7181185786721956,0,1,8.720085048991143,-0.10569300572953108,3.1302295982239308,0.6303640043494755,0.2811421993494601,0.31838132437111344
164,9.09227674608923,0.7765317927424796,0,1,8.605699573974274,-0.10790821514553373,3.0059675090134075,0.7210301048920879,0.1709327053463258,0.36830439600639175
165,9.1419978389782,0.8449375848628641,0,1,8.411844883104136,-0.2570452948456926,2.565618855743391,0.7981781806671069,0.009536341712477834,0.38691200187202635
166,9.203773010316668,0.9195904363422046,0,1,8.534193920547922,-0.452902974061783,2.4255100154998255,0.8685643067921098,-0.10605057410010046,0.4145624797613729
167,9.280031857526978,0.9969697273865042,0,1,8.932721572636412,-0.15618537962526138,2.1752620988469364,0.9219737848463397,-0.14002846199127333,0.456276289426909
168,9.37229902071327,1.0741294659740577,0,1,8.913887645011753,0.04420645560816892,2.1425601638872447,0.9441536378104572,-0.14426661872964605,0.5067422572696408
169,9.480491524522977,1.1489455192701896,0,1,8.708562382332282,0.19127925728059986,2.0941994181721255,0.9882029391139106,-0.1723911262821855,0.5654694986687432
170,9.60265564064352,1.220248550489083,0,1,8.732111623270608,0.6159827275135712,2.869925426236219,1.0437409680956815,-0.1679512366765913,0.5844211165239577
171,9.735141602680928,1.2878441967985914,0,1,9.114026308308219,0.644355431192292,3.888324932144707,1.1335048840515338,-0.308846724475938,0.5109185333559603
172,9.873094517293564,1.3524296741523294,0,1,9.918498093329402,-0.498284765407107,4.205123424017041,1.3064126659247823,-0.442650271319631,0.3113976393902786
173,10.011032868654524,1.4154192625846167,0,1,10.519624269988366,-1.3161302497612142,4.15132653052619,1.4503745146976157,-0.3708451797140459,0.08613233160556193
174,10.143258597675501,1.4786944883750006,0,1,9.694395049938187,-0.4996410907740954,3.605536945461529,1.5015315101928728,-0.1903677136907758,0.006858027203336045
175,10.263957967937264,1.5443036422328855,0,1,8.604593078716281,0.6646255671813543,3.521188778922329,1.4732790645824394,-0.11168118274566248,0.07087659649419964
176,10.36708627985296,1.6141503773102115,0,1,8.35842163295137,0.5023093400956629,3.2349263676029394,1.4238627310383862,-0.15787589440019428,0.15821932758748708
177,10.446343913942263,1.6897245482079661,0,1,8.902716837534593,-0.48235682071999225,2.7445124005753088,1.5032859260741027,-0.2492273487868725,0.2205019106348121
178,10.495582355167548,1.771926846119184,0,1,9.97496122446604,-1.6464337019008433,2.6929297033295123,1.7092231245620757,-0.13310982443609323,0.24304898127098132
179,10.50977403990733,1.8610145014100585,0,1,10.58548067827755,-2.251795289757485,3.269775756138647,1.9653825860212384,0.03212228990215119,0.23177599552559966
180,10.486349622621775,1.9566559090916469,0,1,11.081020686387426,-1.751009837573053,2.962822511326913,2.0854715794718905,0.028696587713612658,0.24406430570788595
181,10.426445193961774,2.0580480039083664,0,1,11.328374570910519,-0.8229460063899511,2.468610848249045,2.0577065846921183,0.1994110391460445,0.36390172411283683
182,10.335557458890543,2.1640404640561965,0,1,10.44473414210313,-0.5477155460659047,2.323299697504642,2.1015739813868164,0.35843383261721296,0.5391002971683195
183,10.223295913801936,2.2732280106947367,0,1,9.248816652976323,-0.629826907972025,2.496597836466545,2.13240158906644,0.31926600576468783,0.6674290794691891
184,10.102242314563876,2.384002239452843,0,1,8.846847982765949,-0.645983437494966,2.3985355947499376,2.17058547881105,0.18195953921963237,0.716391428761089
185,9.986214349741504,2.494579748485336,0,1,9.54833359771473,-0.7521088617962066,1.9225084711076117,2.309219117516153,0.043865303973700476,0.736671364295956
186,9.888351801858892,2.6030332117653163,0,1,10.024492629569675,-0.8626491833656563,1.4365938150469513,2.469425528369614,0.03592115773986311,0.7724259286934799
187,9.819383712917213,2.7073452059318153,0,1,9.771766956446603,-0.92972875891744,1.396866037811068,2.6278583699376594,0.1061606359370969,0.8028581739082783
188,9.786292343345892,2.805487414668858,0,1,9.4236619194506,-1.0148414871937843,1.5383747907477887,2.731584559851152,0.1471066350735586,0.8202508681487085
189,9.791478654462415,2.8955113804157113,0,1,9.242510179890818,-0.8313291961837068,1.5526099184547273,2.805556645644954,0.13344527121507752,0.8318761048729134
190,9.832488091678067,2.9756306921684277,0,1,9.454299837999049,-0.4366153107063911,1.4562835390102737,2.861657964323851,0.07210245763349331,0.8621173665815903
191,9.902329264494456,3.044280255668306,0,1,9.83312792413835,-0.14780043975858842,1.6466918275710856,2.90714633398174,0.13544802209945836,0.9072381135287833
192,9.990364661586357,3.100150759073848,0,1,9.769361685550694,-0.19855938631535638,2.3964693562790953,2.9106957989910303,0.17529073460379743,0.9636106143248484
193,10.083674711196998,3.1422083453332736,0,1,9.875270996707508,0.0847335025121025,1.7237234894950815,2.902218232162798,0.07983766175352644,1.0243954945055613
194,10.168729625604817,3.1697155645452084,0,1,10.05401871560149,0.18196890668392882,1.6409429604592647,2.923607156876704,0.10091942824667191,1.0613116597719618
195,10.233169755447385,3.182267179107789,0,1,10.080308620014128,0.09704257772468575,1.4887475992278214,2.9859281851087975,0.03526731635422621,1.0372369832543147
196,10.267486646083023,3.1798431563390395,0,1,9.99130702217584,-0.24094684241311987,1.5536170591561342,3.048388342661281,0.07945265793107878,0.9861381029854224
197,10.266393988353695,3.162864760893164,0,1,10.308743815563014,-0.06384965760149744,2.1847433182290468,3.081098205222083,0.10983602453814575,0.9795145443688584
198,10.229672408132117,3.1322252870830263,0,1,11.102092917896066,0.9133764652628152,2.371113444713254,3.0332911065486945,0.21820802781716606,1.0194322571829193
199,10.16228312096318,3.0892623764757645,0,1,10.794290996228606,1.2946209230816763,2.2079086626684212,2.9457417972246596,0.41570689042469716,1.0843412052396526
200,10.073619394265728,3.0356480236788035,0,1,9.698307497100693,1.3840780081010975,2.397911865410378,2.8176914446744155,0.5053648411939525,1.1447190834555376
201,9.975939512235058,2.973193524165251,0,1,8.786186546869025,1.3203505119570387,2.4327807611034213,2.6863792698963658,0.48026374693431845,1.1312808827154335
202,9.882265329985826,2.9035933634788558,0,1,8.374071059016536,1.4397975372821534,2.4452157459514363,2.6668815996976063,0.41549907320034846,1.0248537316163486
203,9.804217542625679,2.828156077261526,0,1,8.598891942741353,1.415563186592518,2.4501782293627317,2.574304763821493,0.3067002219019957,0.8719640856436872
204,9.750275468320384,2.7475839780187368,0,1,9.365518712280572,1.208376753447094,2.2391854337468424,2.4659710238483643,0.21859745264833982,0.7361545730982176
205,9.72478017621604,2.6618622346009797,0,1,9.977461114043175,1.0065866144993023,1.9681612794385226,2.443533072692939,0.18952109334247982,0.6964814454709837
206,9.727744212261136,2.570298604398835,0,1,9.863758540117088,0.8911709828441962,1.7047280819588044,2.437387130731326,0.23751142929157443,0.7518643570681031
207,9.755325191476686,2.471720166221516,0,1,9.38612704373434,0.8517940829329188,2.0504536032369853,2.3872198887754874,0.2279313398044224,0.8188598275085499
208,9.800741900152252,2.3647924271373895,0,1,9.424622706860532,0.8552362697447103,1.7795873072741704,2.2799667088719953,0.11412262466461998,0.8258709729217104
209,9.855438566290687,2.248394395041873,0,1,9.537839305527674,1.2341400122567097,1.549462005360936,2.1769559835914043,0.06766898501865831,0.7822337897882267
210,9.91035578841564,2.121971804107585,0,1,9.70091572604247,1.9529576721201845,1.5562500641373687,2.0820450315227865,0.014929561344462423,0.7017244408415354
211,9.957186333657395,1.9857999671282103,0,1,9.683371756488537,2.4683419137853924,1.4696977585886952,1.9389760310475115,-0.010303778658513885,0.6279176227797761
212,9.989481294579402,1.8411102525451057,0,1,9.768396508467207,2.6196486067591582,1.5842250458837253,1.8127846656305637,-0.006229992045076824,0.5837030128644063
213,10.003462733060138,1.6900621021679536,0,1,9.77984621132516,2.5877163114394093,1.9131527810175797,1.6457080392462495,0.04022688072162588,0.5637021970838529
214,9.998422004762208,1.5355710693137947,0,1,9.613363353023681,2.3561270588987755,2.1709142714116765,1.4270072096403998,0.05499486525994317,0.5258975543451142
215,9.976643589242252,1.3810297029837326,0,1,9.566083665791375,2.24467731953704,2.3367549958164746,1.1997041290951993,0.06667217992082548,0.46000715119494046
216,9.942879021038882,1.2299784656581103,0,1,9.417710718518647,2.093880368145452,2.263016444678048,1.0528808931816593,0.017356301834821185,0.39339943519298143
217,9.903482463758644,1.0857923633550968,0,1,9.261749428184444,1.7760412180282368,2.2316359844686033,0.9508600641848669,-0.0032591382622665327,0.34262404726804346
218,9.865385818328672,0.9514405370497971,0,1,9.054857135056036,1.6120933752579094,2.187202321908372,0.8342089689890746,-0.007331610459847304,0.3197290984130558
219,9.835117530872667,0.8293516579969733,0,1,9.051421550926383,1.716695719653542,2.095530389862749,0.7660812275138155,0.010714624392847977,0.31185299502981995
220,9.818041863149555,0.7213856704483987,0,1,9.373176683283907,1.5832530976517656,2.323021484653097,0.7048528964283705,0.038525966761144184,0.30443518651719387
221,9.817915079596297,0.6288830332981928,0,1,9.705809716777996,1.5166720781319534,2.2946879227874115,0.614035666100568,0.06350693955223546,0.2999867601904658
222,9.836748591896226,0.5527446364870483,0,1,9.752442647576792,1.5067633529117628,2.142682917552239,0.5563261006804321,0.07353357888381325,0.2999930816211013
223,9.87488434234057,0.49349308036192996,0,1,9.617817582399905,1.5380507850311131,1.9487369387628395,0.5100128056773405,0.0642487509476279,0.287832069747559
224,9.931162681492479,0.45127872198545377,0,1,9.57866948686924,1.703756250236394,2.0710957791205242,0.435813625215431,0.09507006000182877,0.2603730013694484
225,10.003096854839969,0.42581835237345667,0,1,9.715238347763519,2.0154123492485465,2.2185814339176764,0.35321221665471414,0.05795447556680923,0.22001763456097417
226,10.087028128840767,0.41628481263435224,0,1,9.746494648670181,2.456383845531679,1.9324884109408396,0.25768172304884673,0.049989256726722484,0.18713797052213724
227,10.178291207445302,0.42119383647666886,0,1,9.141485866382377,2.505631764305038,1.56367568190987,0.22875401651015517,0.019668870588207394,0.15049259269858903
228,10.271458036630627,0.43834934693732397,0,1,9.137746362814346,2.490797794376181,1.677077694275893,0.29036414210639355,-0.03067042061489177,0.10652151998038213
229,10.36073400093229,0.4649017032743269,0,1,9.720079272542977,1.9331351295139623,2.775707664731263,0.31999306979218595,-0.1343987077098352,0.06405047963827568
230,10.440528584630906,0.49754374149598196,0,1,10.566277893918878,0.9434782728029963,2.6198068734224913,0.4189629414316709,-0.24319362489526447,0.011447489669877053
231,10.506115771138917,0.5328250032168677,0,1,10.667097361093306,0.463328970225806,3.1328865750893846,0.6092365447719803,-0.17257574767558193,-0.011386528662782657
232,10.554198783579707,0.5675199989847849,0,1,10.341962161853967,0.49804221432070794,2.4662675320562237,0.682910319643941,-0.29222239779114645,0.02496731095078832
233,10.583174910673348,0.5989581100256283,0,1,10.178098546709325,1.1950316455340144,2.3740625929302905,0.7725451811761174,-0.3281119629114293,0.09243974061592991
234,10.592974406647711,0.625223997723106,0,1,10.364263019062015,2.011624392338681,2.8972205615201627,0.7512616310120321,-0.3864698087166462,0.12237715812194441
235,10.58446979343392,0.6451733758216666,0,1,10.674556210359556,1.7656194198191648,3.227168438264879,0.5654168610589033,-0.25569867464297963,0.054552197777684684
236,10.558566821530796,0.6582725875050123,0,1,9.505071969662023,-0.03248198562768829,4.735704665167445,0.41814433265517403,-0.005566039122174272,3.691609231688849e-05
237,10.51519500151353,0.6643397090222155,0,1,8.043483578012426,-1.0774966957618874,4.820841329277175,0.29262962160462325,0.0849017534314679,0.029064631071879364
238,10.452521518172944,0.6633075361383586,0,1,7.4513766091930105,-1.2114172826311678,4.83132206412252,0.3266884900535582,0.151504736663299,0.05950122631227795
239,10.366763649789991,0.6551178338610537,0,1,8.239224003564068,-1.420201570005634,4.2893121639262946,0.6153084071476241,-0.11902629572213382,0.14790549039425233
240,10.252875974683123,0.6397900827354149,0,1,9.508359368985682,-1.2496892495745728,3.698023920771265,0.8824983383022103,-0.12917465896172947,0.28858646829013135
241,10.106110229521049,0.6176179315680973,0,1,10.39643444314215,-0.7274978359465616,3.699128154895156,0.902499856786888,-0.08040987736665128,0.39534497549486763
242,9.924092768959332,0.5893820011865712,0,1,11.0912832589498,0.3968970376423444,2.8598110510388355,0.5730413366765569,0.026328511222953228,0.418068510064602
243,9.708821126911449,0.556465029082591,0,1,10.32814819929192,0.72554375424679,2.7862804050041614,0.2819016680795879,0.1579195946739833,0.36501140068810084
244,9.46798374574958,0.5208117970126583,0,1,8.744413798789186,0.8543808249747156,2.821427697456017,0.21298858436603724,0.1054991853096423,0.2862198430104509
245,9.215251397470636,0.4847517959533033,0,1,7.704887784603295,0.7090303666580899,2.5480845992334404,0.2568010413200301,-0.043590871450647335,0.2328632180382384
246,8.969528067824232,0.45075170790616953,0,1,8.219832795378757,0.5406784200431107,2.3945530582895413,0.2968146801365306,-0.19376153340676738,0.2389853761081003
247,8.7533891959543,0.42116900621347086,0,1,9.060394132727122,0.3449631138858132,2.076264910133901,0.2949613076586233,-0.22172794291946535,0.28068071810061845
248,8.59097873964451,0.39805076975182785,0,1,9.09299922452481,0.04571153270231036,1.7360080858697138,0.2813406762100601,-0.07150885625293261,0.29430268943027527
249,8.505553209859478,0.38298956998349604,0,1,8.660402654911296,-0.12767092838014296,1.8451771540933966,0.2785709127185201,0.08141664006652795,0.26502316468275144
250,8.516804412212382,0.37702914514656627,0,1,8.370068696957768,-0.1768812284456417,1.4645189155200207,0.30870307920226275,0.042088866353436304,0.21220933915394813
251,8.63814913806632,0.38060867653056096,0,1,8.125931410827812,-0.027094490305585403,1.3628901022503248,0.3629293414651732,-0.012027326843785784,0.1622085849805688
252,8.874301723884534,0.39353850209072605,0,1,7.9901073537121166,0.1397504130592245,1.6277505631525904,0.40005145147613885,-0.08206854944222727,0.10561033593030476
253,9.219540817765399,0.4150055666393792,0,1,8.343643491609996,0.41759797429383066,1.8770391425667936,0.38890024568143966,-0.09711658745253893,0.02510020801246685
254,9.657069140050682,0.44361199472757246,0,1,9.0125062494003,0.905084808486611,1.5531326181682734,0.3633508818294804,-0.15815994726955837,-0.04849276184836886
255,10.159731811725226,0.4774543621033404,0,1,9.617278240015132,0.847252155935308,1.6859637603118969,0.33871390005152263,-0.13686120380179262,-0.07665306725500393
256,10.692143754481654,0.5142515112635614,0,1,10.264800196788082,0.3809242415787929,2.0143681524254644,0.4186672689748185,-0.17996977384737214,-0.0764741141073504
257,11.214039599378935,0.5515206189705707,0,1,11.112638824416214,-0.28739433576588563,1.6408461810117847,0.5676062194011063,-0.16346654425665405,-0.06751746336000673
258,11.684451259448945,0.5867841125530084,0,1,11.773315319449123,-0.7693143775211616,1.9007383730373788,0.7005397151459802,-0.08869611028342579,-0.0024787804234363557
259,12.066168991418476,0.6177716222531688,0,1,12.488503671871158,-0.47259235129057214,1.2441012012937198,0.7813941850520667,-0.09027651052581373,0.0776419159844658
260,12.329868293248861,0.6425748122002843,0,1,12.572230782628857,0.23409259073402305,1.3136852140376563,0.6769369377323545,0.09426817990478426,0.15278656010925065
261,12.457296015212172,0.6597280541217369,0,1,12.643516056067392,1.4624103274808724,2.5040218906809404,0.434658399391795,-0.03394588550308063,0.24555010547931025
262,12.4430019714649,0.6682199283300085,0,1,14.264557717848694,3.1643072711561344,1.2720094287772195,0.29291721229767476,-0.056651974881751464,0.3943251117451841
263,12.294275659149067,0.6674701553000323,0,1,12.390371431491642,2.69072893610387,4.6950630128515884,-0.006596402512187628,0.4993554482857439,0.5251625996540267
264,12.02922366060928,0.6573134932433068,0,1,9.886084342396108,1.6369905576035613,5.849854335191081,-0.10508938194754432,0.22400071647354053,0.5425757559217682
265,11.673315117442524,0.6380134888405689,0,1,8.291829815121972,1.6423763790153802,5.665436244167994,-0.2499443798567006,0.33680276019204564,0.5684559729426159
266,11.25514382917439,0.6103011006864274,0,1,6.702708126259697,0.6385908077522734,6.331689241181759,-0.292144903052747,0.060419430133068996,0.5673516794977064
267,10.802408387671251,0.5754142028812077,0,1,7.284546654982797,-1.1401059241043892,5.381066472248223,-0.057472909283486244,0.036124858385376095,0.5330277780512864
268,10.33902679670369,0.5351091721252859,0,1,8.339826240921967,-1.9533684112374141,5.06031294050904,0.24614882008853994,0.07126875816733538,0.4918035681424608
269,9.883884430926217,0.49161984894146843,0,1,9.198547518448077,-2.273572757434211,4.479587786408312,0.2799160686117233,0.21269922155547616,0.46910678801738853
270,9.451147278729826,0.4475458748871465,0,1,9.28261068672202,-1.7125957150321107,5.040223745155867,0.25360096376964353,0.23836301995567116,0.4239960208467968
271,9.051602554110945,0.40566133852917197,0,1,9.612187002093142,-0.8886777078453143,3.5022064561086177,0.22248733223490602,0.13209433463113046,0.32293250576352023
272,8.694293801895775,0.3686500652606718,0,1,8.552217349234324,0.23473229845318294,3.401795183783463,0.17340628904751793,0.2700037301321337,0.21522708382836503
273,8.387828812111081,0.33879656118710794,0,1,7.439963001628477,1.246895698412962,3.2080332509569756,0.1631648114205831,0.2109117273623171,0.10084309976688688
274,8.141045266199509,0.31768458231406954,0,1,6.476484936507047,2.127169366684077,2.9839281846976746,0.14414505494530955,0.19954831665422956,0.04755458556748938
275,7.963042227244818,0.3059688352197774,0,1,6.387906718961576,2.3792603799647964,2.870000672032663,0.05629228777007803,0.054563491641936586,0.006714408824169776
276,7.862776010258131,0.30328263077074974,0,1,7.192457075950259,1.6088538077768721,2.619294362842363,-0.08208424845266585,-0.11951914190150921,-0.09136478359443867
277,7.848427925263335,0.30832195273757035,0,1,7.954942984584613,0.5625433224100562,2.2207512957039817,-0.19488889977954982,-0.2425362802333865,-0.18471755560968928
278,7.926640507256905,0.3191061811758624,0,1,8.216102239355386,-0.6567853288128748,1.830219402258456,-0.25848360998335573,-0.23009882488710928,-0.21349236721626508
279,8.101605729109547,0.3333697962202197,0,1,8.349814903107358,-1.419576176371324,1.4654935212660805,-0.23926179932018315,-0.19962315270670564,-0.16150743433675926
280,8.373966513616967,0.34900671541237804,0,1,8.224565100983968,-1.2788451218258572,1.5133448379346632,-0.33697080399108875,-0.1532456122025703,-0.06871036317202138
281,8.739579373658602,0.3644803495948553,0,1,8.349306214625523,-0.6226733428505304,1.5234868522754297,-0.4038146576081331,-0.21768241820195774,0.005834927024031075
282,9.188329124591636,0.37912320705268787,0,1,8.624853037553951,0.011199116396151787,1.434945370146422,-0.3353447121768772,-0.2969677325568188,0.06512493364953163
283,9.703307057590152,0.39326949602430383,0,1,8.789176177451166,0.17884942604417622,1.6213793426232812,-0.24955014356486688,-0.3764014697021693,0.11277756346318922
284,10.260698036818685,0.40818812445562536,0,1,9.322110756160958,0.5132355469455575,2.2100184578642623,-0.26077653420919106,-0.38104965503370725,0.1686063584259818
285,10.830643287788549,0.4258121649228385,0,1,10.293028939997116,0.41449352131320966,1.8392026322383286,-0.3440765266586169,-0.3983711766094574,0.24767123380138653
286,11.379167518922644,0.4482942991904265,0,1,11.011308613924445,-0.5426097666100004,2.4956297405930066,-0.32109335623459284,-0.20240487472038565,0.278849673894778
287,11.871028622782683,0.4774549398151315,0,1,12.099356374369298,-1.1881626552033686,1.9260370246615253,-0.2535419298532424,-0.23948103101430634,0.22668040631448103
288,12.273133376527445,0.5142269655915889,0,1,12.306579632135007,-1.379174676236864,1.934391011123496,-0.08195522395698228,-0.029928767190298564,0.12873860380685592
289,12.558025528918524,0.5582265536966182,0,1,12.182857994533942,-2.0288734732983,1.47065665045215,0.11644094116142543,-0.10864344714057708,-0.00589819529570535
290,12.706917335554087,0.6075733760668904,0,1,12.371470934070642,-1.5876175110008113,2.4536713929978125,0.40056213513114597,-0.10125232493692427,-0.13774276481518327
291,12.711776524765309,0.6590301881541761,0,1,14.183622017263437,-3.1224124496006076,2.210636938916697,0.45507216526906097,-0.6155072623407373,-0.3882507041928457
292,12.576064890447958,0.7084407534899381,0,1,13.92221553232601,-2.9183009131450612,1.3578140802362972,0.6340945081497946,-0.24064359989350662,-0.6077358034163289
293,12.313877118437498,0.75135459848158,0,1,11.483131404928288,0.1345157796512245,4.549888395693292,0.6982455753149531,-0.26764691086001163,-0.6629146745432066
294,11.947514415939082,0.783681359399916,0,1,10.60809614535234,1.1039375225997383,4.51751385178692,0.32225501850847416,0.07708651909315715,-0.7181057464126985
295,11.503932288097424,0.8022326361387372,0,1,7.305765811633378,0.9111132600983819,7.173561398627552,-0.022644434719837483,0.4622503924168128,-0.7762427441974239
296,11.010870139943385,0.805065217931886,0,1,6.203540613296498,1.4595736130617178,5.975882244380935,-0.20790128876588387,0.22368585781052347,-0.8102359085473299
297,10.493609327977106,0.791603085173059,0,1,6.490580244457118,1.6092400842061316,5.5307015542857725,-0.129778251807211,0.21023192719240016,-0.7711332751708678
298,9.973119233472508,0.7625662749417796,0,1,8.398434973976354,1.2639304582911033,4.599560842608355,-0.09956271720250937,-0.08449729993454003,-0.6484336183650908
299,9.4658800578722,0.7197682866395458,0,1,10.322856937610824,0.6582680405839427,3.873894085981071,-0.13425404994718423,-0.0016502980185765356,-0.4848358781765454
300,8.985088885746269,0.6658588709260617,0,1,10.187877871091247,0.8165385286523401,3.5531913220644094,-0.3556375037714705,0.21412796184292895,-0.33917304151748423
301,8.542518315742067,0.6040805122452964,0,1,9.030924471757887,0.8534388094188243,2.9129922123543595,-0.5379757422611879,0.35614418642390155,-0.22384372415445775
302,8.150209507455989,0.5380743642012229,0,1,7.591745373579626,-0.3145182820042393,2.7934019110874613,-0.5427007021666432,0.3274297413142211,-0.15525976429470517
303,7.821447604642731,0.47172964045050464,0,1,6.437386492958747,-1.4204529284613228,2.248715680525073,-0.4754001463067175,0.2246148313153626,-0.1137908746009687
304,7.570883172849387,0.4090429593721744,0,1,5.8852794237629995,-1.9584669132681054,2.0324608563057702,-0.3990571313740454,0.07402544451617038,-0.10279481587100672
305,7.413971701604803,0.35395372438910494,0,1,6.6876239153974435,-1.5641910705645623,1.6548754759220108,-0.3287936035280891,-0.17246258207959372,-0.08922666864733284
306,7.365966487706535,0.3101412733270682,0,1,8.18829130407138,-0.8761792420621226,1.5406738062842638,-0.23863072153043885,-0.2572580480765795,-0.05574982020339307
307,7.440563846461191,0.2807933285228737,0,1,8.885761334641433,-0.2101417079259313,1.189259280770669,-0.09977209006292372,-0.13253189049603342,-0.040664727792769195
308,7.648139864660984,0.2683726404238423,0,1,8.347460529394665,0.1829277960106695,0.8837676567482295,0.05504786158480874,0.09627315659850952,-0.07228057442286036
309,7.993516235723666,0.2744151829778844,0,1,7.839159819169143,-0.10988900646802817,1.3971085263653247,0.21519313592954642,0.11542629888569425,-0.08651629370360213
310,8.473404750476902,0.29938559376336094,0,1,7.812802286684355,-0.9068590176505669,1.6701225591229052,0.3706094920857978,-0.009062944203716507,-0.0879211444379878
311,9.073997005602456,0.3425953542514192,0,1,7.429579986473207,-1.279788716852011,1.584504412890082,0.43715241645468184,-0.10781275790338224,-0.10852189720907271
312,9.769403578949015,0.4021686251510957,0,1,7.465215602344252,-0.814747067641773,1.8118919555769708,0.271860054236925,-0.3401049370925331,-0.1398494883896618
313,10.521664606302847,0.4750355719257975,0,1,9.049249659315088,0.35874194438289503,2.052850763151813,0.17780882654920535,-0.5115791199780354,-0.18298481966256244
314,11.28280542316549,0.5569493840965828,0,1,11.164344578859355,1.5162296829216215,1.5071193590619878,0.15810360120500536,-0.559197211548509,-0.194206836878614
315,11.998952356726978,0.6425537615982522,0,1,12.1751362180587,2.0055210923243387,0.8343930432404415,0.02058719440210623,-0.44400839864636804,-0.09552544169665765
316,12.616005742847568,0.725558705323297,0,1,12.349525534792347,1.1608762423026966,1.783985695181596,0.04182325081941655,-0.32405510633312307,0.06793456088565888
317,13.085966644092801,0.7990969916196405,0,1,12.652389792229245,0.45860782711161185,3.3438388340157705,0.06537265574314498,-0.4114387800764496,0.27725402022052387
318,13.372818914654585,0.8563123507362748,0,1,13.982325411762291,0.8736660067928845,7.401016340926084,-0.241696674257627,-0.13168231674123307,0.5930469338835582
319,13.456866475604276,0.8911629178227936,0,1,16.1966374470186,3.4537531397923,9.214157524926387,-0.4330824726635983,-0.031835095819337744,1.0252919984801936
320,13.33663446738342,0.8993260058954917,0,1,11.256264273150913,5.096594136452193,5.684356932371558,-0.6485706143438374,0.3296807941282073,1.2705786246150963
321,13.027962049666638,0.8790064512884604,0,1,5.513531444059549,0.5211927666860029,7.153534624659588,-0.6123434451063812,0.08169102538781563,1.0924469147429228
322,12.560711615316247,0.8314299499425386,0,1,6.945315115977426,-3.3930980367952293,5.781012198007378,-0.11874106076771107,-0.5726580191475994,0.8101993770374765
323,11.974223786045663,0.7608659916483245,0,1,8.854741357447494,-4.520117437571636,4.109089073401217,0.359867126885817,-0.3301896912772628,0.5841216746088359
324,11.312791554902768,0.6741463752669332,0,1,10.636742055031188,-3.561389183713863,4.644864120658366,0.4460345664750716,-0.10466860778524688,0.38771073903533604
325,10.621938199870065,0.5797696762377867,0,1,11.77381164072618,-1.8201270714010855,3.5956026893039463,0.3763543313916965,-0.1875959428411224,0.13379237543057707
326,9.945578893550673,0.48676428706647434,0,1,10.856929963859406,0.4678403075238143,2.383997520771322,0.33501776035942565,0.09456140726239441,-0.01628206402123026
327,9.323716390587183,0.40350979545305976,0,1,8.688655750236693,1.8473080898792478,3.1375584805265224,0.22930525211469152,0.19379895558549431,-0.05798093849738213
328,8.790341972177519,0.3367000000824483,0,1,7.146764350295913,1.981508586999409,2.9343670766353003,0.15476926596322038,0.1641918618946033,-0.0528552889537241
329,8.371517354610381,0.29058949063516687,0,1,6.0168539262198335,2.0618088442959395,3.256659415962769,0.08793723660467843,0.07772045228878914,0.003172840760150283
330,8.08390656155253,0.2666143560099922,0,1,6.436573634822819,1.918233870227836,2.9613187667916128,0.028823808732445968,-0.07443812713912905,0.06855619151282168
331,7.934103048154857,0.26342305017818385,0,1,7.4602300494911375,1.245067222525896,2.7100823312566846,-0.06310810480480633,-0.2023520950564133,0.09869501072760536
332,7.918937682767755,0.2772968532360656,0,1,8.436550857469589,0.12011135813299152,2.003415907406895,-0.15632702844910068,-0.2732751610886022,0.10189897199279702
333,8.026690515785496,0.30288431340119315,0,1,8.34570759585928,-0.7432205854034714,1.4062852815815947,-0.19279664439435507,-0.21233076032787304,0.1569007407048127
334,8.238934192809952,0.3341305970301282,0,1,7.959213849297384,-0.9229808977432281,1.2164132064653672,-0.18411658451329044,-0.22794362274443955,0.22478807162091166
335,8.532699014583077,0.3652601823159621,0,1,7.927101199098363,-0.7038359864730456,1.4615296623676521,-0.23081023393606637,-0.32264294771574276,0.26862103986544367
336,8.882729495200172,0.39167042687404774,0,1,8.439090603263907,-0.19592960956290048,1.4368149485161983,-0.30909273863995496,-0.34157083858561754,0.2980047822349989
337,9.263686963808448,0.4106092106255557,0,1,9.24081298109917,0.5898855268997962,1.4282165352328076,-0.29804657822809116,-0.3295389700340155,0.31352939823580755
338,9.652162562358827,0.4215393747244619,0,1,9.886114447010144,1.1617905142028102,1.5491285928552578,-0.2819595001586862,-0.29925367748850074,0.3013878109981366
339,10.02831236440286,0.4261354060600697,0,1,10.618133701100938,0.5047920184441449,1.7398106275728737,-0.399063913349116,-0.2717027401470948,0.2787176883797695
340,10.376888093807224,0.42790987829243204,0,1,11.216052644294338,-0.49574306764058496,1.0585366209339098,-0.4793819108952441,-0.1485962853293872,0.20846930217819823
341,10.687486770182298,0.43152172947210804,0,1,10.904519300536142,-0.9625639520353753,0.923766766175629,-0.3908038978321204,0.06033401681225863,0.06528925496264724
342,10.954003260817224,0.44186965951484053,0,1,10.423220124338105,-1.200338900844765,1.201076924268171,-0.2813077405556163,0.13254837502043962,-0.07982348703446839
343,11.173497920323927,0.463115518322316,0,1,9.994588576563347,-1.2440487087345775,0.9259621455423727,-0.25008227263019966,0.0460968388695169,-0.1640280989860121
344,11.344889369543472,0.49780458300581193,0,1,10.00647263977823,-0.4150111673512127,0.3529937287692629,-0.25209283930891463,0.053962638288511715,-0.17573560607911573
345,11.46793881144491,0.546242304535648,0,1,10.229450202128294,-0.05541785355558514,1.289095955063475,-0.19881638990188086,-0.08391416912215849,-0.18400052154426635
346,11.542844073041296,0.6062480758642811,0,1,11.874908325986084,-0.969508162669384,0.5171626933802251,-0.0868487004798766,-0.29122937129552695,-0.324932210437744
347,11.57044289863514,0.6733417646306875,0,1,12.588069036599487,-1.5919924197944173,3.6042081079123833,0.1828469002979038,0.08592774133675267,-0.5321812227069598
348,11.55267677574775,0.7413389520438696,0,1,12.655900501262671,-2.09606813466112,5.063700088946308,0.26978308686709424,0.04086513944505107,-0.7495560901654881
349,11.492788064082138,0.8032509258350685,0,1,10.967814350378411,-2.7390136040938216,5.647240840545181,0.16340820416176358,0.4755742732783367,-0.8894155813172525
350,11.394859659506968,0.8523243401004089,0,1,7.708377907897721,-1.8616930637849551,7.05696379646246,-0.15268099713625988,0.5528477632480002,-0.9406474631765188
351,11.262726624352043,0.8830311115209378,0,1,6.384252059654919,0.776545328216667,6.236783623726191,-0.3938502220613553,0.24048969213581786,-0.9502594472929042
352,11.098761410790141,0.8918402420542745,0,1,7.038665658485182,2.360050685882579,5.121714958770668,-0.5333785981184224,-0.08527660473133683,-0.8688060562969554
353,10.903257103463247,0.8776626315512082,0,1,9.117441462829431,2.458281384799968,3.449115142935631,-0.4431625403830812,-0.25067019120687967,-0.728251843157649
354,10.674943696063231,0.841936456013166,0,1,10.674209263521558,1.5563750635900762,2.9527533497906777,-0.46622113580741187,-0.09212901103479261,-0.5576028371027998
355,10.412666867939814,0.7883895264673485,0,1,11.219030742475148,0.02768335787435348,3.180370668207491,-0.5588304838015322,0.005546314311038294,-0.4289051452532939
356,10.117720740236729,0.7225580270164794,0,1,11.309706331467707,-1.1524775837390275,2.7845825029724085,-0.5844810518657223,0.1397519494980959,-0.31326426280521164
357,9.796030794924944,0.6511522591059788,0,1,10.269138455641269,-1.8884756575155262,2.7765543538949644,-0.5775108395915407,0.3472488840713877,-0.20707906149260225
358,9.459440793919013,0.5813474858113328,0,1,8.73234499504749,-1.7941650636360156,2.8175557960889264,-0.5461791746568238,0.3892722295599333,-0.15197312374309493
359,9.12568845390382,0.5200593676602534,0,1,7.846313167199793,-1.4130776038219799,2.9296476345827025,-0.4245907882772878,0.3036399211682035,-0.09814909469268121
360,8.81706577756951,0.4732552245639003,0,1,8.080987425896321,-0.6211240275840081,2.9344655859481166,-0.3336834724076684,0.14459810589389385,-0.025838039226457193
361,8.55806248218609,0.44535819065864296,0,1,8.57667346268934,-0.11044673277937161,2.4738450117973207,-0.3209563060295282,0.0763121078759998,0.038520589593788526
362,8.372407191608639,0.4388100798032177,0,1,8.712346187746489,0.4272775031547049,1.9530891790612963,-0.3064795463975521,0.12164970086168808,0.05985314939557225
363,8.279913088274004,0.45385462587274394,0,1,7.931770360406915,0.6777194659097708,1.7512393146445335,-0.3339497114894866,0.16914478791827542,-0.0048600081047669936
364,8.293520634341453,0.48857892366659034,0,1,7.216113207183806,0.3783160121126513,1.6060590726795245,-0.36885974722366816,0.019587414617816566,-0.14141763296745855
365,8.416959974850311,0.5392130149457028,0,1,7.065035687459554,-0.10265117890095332,1.9887533342068573,-0.3937830109909963,-0.13955451958418127,-0.28816815459340833
366,8.643469629457663,0.6006460653581289,0,1,7.517258922081046,-0.23489022625453215,2.0340024215713792,-0.4046532534528935,-0.37647415388167,-0.41246410313262294
367,8.955909269723936,0.6670813967316458,0,1,8.47655936982339,0.051530965680264065,1.7746419743987583,-0.445421251662318,-0.4883901976807611,-0.4811737528013546
368,9.328363545310395,0.7327301259351661,0,1,9.232719593667206,0.17988665722109143,2.187195035079295,-0.5062086829070063,-0.4791939785445415,-0.4940172115132195
369,9.729021674559757,0.7924425411592848,0,1,10.067935478928593,0.4917099155663101,2.329524741875683,-0.5673540920246837,-0.44533563173113155,-0.47757608067808327
370,10.123851652955302,0.8422001013184726,0,1,10.751535335928452,1.03550898110546,1.8837750372960171,-0.6364260707511633,-0.38178817246826324,-0.44349410773543446
371,10.48046138728133,0.8794308997308528,0,1,10.909073880586323,1.2341504483115069,1.5656583623653209,-0.7232583582902702,-0.196540397523342,-0.36763388760305704
372,10.771581447778955,0.9031523497275917,0,1,10.380189802157021,0.7364593775056827,2.0609173225345225,-0.7644689387955326,-0.03738323042659496,-0.2801190621915613
373,10.977776271014488,0.9139729107232708,0,1,10.013418444108245,0.557045867726835,2.275231368205372,-0.8037092719231245,0.013034945156140152,-0.21183655453149525
374,11.089197642643407,0.913992865274018,0,1,10.109838141335166,0.1943334814290464,2.708966067968585,-0.8643117185539456,-0.057712191818860545,-0.1774048682232843
375,11.106325851850208,0.906633324166376,0,1,11.312863226051304,-0.4777622351650422,2.9301895841765395,-0.9204067705631167,-0.032248853435498506,-0.14642845686103875
376,11.039646727108124,0.896400702308512,0,1,11.983992369769616,-0.5199731130645796,4.625885814149756,-0.9829641500257698,0.05323289396596942,-0.03314222059866964
377,10.908151446190539,0.8885733104985901,0,1,12.554927903473137,0.3822645609332044,3.3025645982338605,-1.083859391515102,-0.044482686996716383,0.17197861051787264
378,10.73658044779399,0.8887902491492524,0,1,10.588054222954554,0.9162586551748845,2.9736276242891226,-1.051172296514794,0.2329667832732752,0.2906011424580931
379,10.551590299072338,0.9025397564976995,0,1,7.956567045012912,0.08371143517330126,3.491631290769443,-0.8127171574459032,0.1943844368672752,0.17773289735244183
380,10.37745127289908,0.9345853378202991,0,1,7.135140770734314,-0.7233119629098284,3.4466820234075746,-0.6370629473369821,0.12291557954680118,0.03046804273089858
381,10.23223652043042,0.9884184732455197,0,1,7.340165924807556,0.05425430995633464,3.7044919571392656,-0.6656167342180235,0.12070963439418271,-0.007328998961589432
382,10.12546997674495,1.0658562759302528,0,1,8.483163672677685,1.4190905216290828,3.9577784123675994,-0.8448809778086146,0.12513524836027246,0.05900376388720615
383,10.057785297567255,1.1668841074228118,0,1,9.959559528719106,2.3070798555217684,3.5321721227412928,-1.1409605981961097,0.12322164625212108,0.13734448771776983
384,10.022499196588015,1.2897768703798715,0,1,10.809926740202242,2.880566593558603,3.5507065159661018,-1.4264631043502647,0.28494667006541285,0.1485340906105297
385,10.008433595171036,1.4314493012146168,0,1,10.65676210423062,2.2998582747471144,3.0613734061486357,-1.6446055168234106,0.29856459225186177,0.017983071953035862
386,10.00307643094566,1.5879259537411061,0,1,10.01164291731699,1.1913296256337726,2.878427103539798,-1.6820880833326832,0.40057819890197566,-0.2037517583982749
387,9.995302326879662,1.75481105193468,0,1,8.816477643962537,1.0504749393281523,3.1995748471904997,-1.6651204442765868,0.3018153257918464,-0.3942425071785986
388,9.977238288139745,1.927674046070263,0,1,8.771786600755522,1.1082961920609187,2.7605818773615547,-1.7864921798932512,0.17031137349580622,-0.5178083656041778
389,9.945223768747804,2.102322317360205,0,1,9.496700772255782,1.1938259594303193,2.5590267174231984,-1.9303618801741667,0.11317334587354702,-0.6379666856583383
390,9.900006910814316,2.274977163030041,0,1,10.037944571761846,1.284080984640647,2.2877534234779895,-2.101909760772229,0.09934974571616133,-0.7438191266500649
391,9.846323197853783,2.442386533064453,0,1,10.094387233780258,1.3696225289497246,2.0252260922117142,-2.2671320682148206,0.1834424497595388,-0.8196483127325697
392,9.791933110981452,2.60190115517172,0,1,9.791982674616394,1.4855050947725361,1.8466859097773174,-2.434789551215884,0.26698628851661776,-0.8304601154656379
393,9.746179461265978,2.7515227960088953,0,1,9.584867111670103,1.063390499686793,1.638745801793291,-2.651155829180289,0.24026624553335515,-0.7972440484642176
394,9.718204381217308,2.8899160216323296,0,1,9.172725250353247,0.5638621608540003,1.7114368291903646,-2.846523460192665,0.24780993472613239,-0.760756312165141
395,9.715089429736853,3.0163643576625048,0,1,8.996543284053072,0.6970607767080169,1.7009217364600422,-3.0108401712059236,0.22733513566182345,-0.7470558958085329
396,9.740268468734495,3.1306517366546918,0,1,9.029532910352472,0.814604471041208,1.6116351615395557,-3.1335066975526265,0.242613894283395,-0.7634012037381124
397,9.792557379783794,3.2328626243262115,0,1,9.051037221093875,0.7236783800910008,1.9428307030589242,-3.1164695436059624,0.18839555493539675,-0.7638011399144393
398,9.866039359059862,3.323117848943263,0,1,9.548958836980216,0.6168243495235874,1.998180161124863,-3.1384588421032595,0.12935954638997904,-0.8009072748677583
399,9.95087107945598,3.401290335702921,0,1,9.777518996094646,0.4645369941989102,1.8441231220376757,-3.2085747885540017,0.11733344236613888,-0.8530385428049915
400,10.034885993057255,3.466763450507814,0,1,9.768337945887705,0.5343791983215019,1.8811982690435685,-3.2551476546538116,0.14289301961285383,-0.8930123284603181
401,10.10571558725143,3.5182948813399664,0,1,9.842110672620082,0.6033303510416352,1.4237716440886627,-3.3033127157411255,0.10947307543222569,-0.946312912549296
402,10.153050343318995,3.5540303349962445,0,1,10.138245853500493,0.6617618297903115,2.8837829227420197,-3.333690157985,0.30416563054722434,-1.0053272582413109
403,10.170614869388505,3.5716808344306705,0,1,10.935988647191191,-0.15878682896556684,3.1996944930033866,-3.375539842319444,0.2720617122144896,-1.0777571699751995
404,10.157436549471267,3.5688437071194343,0,1,11.089007295595396,-1.3629621124071156,2.1422056207569504,-3.345839095710701,0.4690992663621131,-1.202619911981068
405,10.118078289611711,3.543417449724648,0,1,9.85045148448017,-1.5279376359983157,2.5100503124782616,-3.3038740438739693,0.554205558066699,-1.3195207993373852
406,10.061719884286255,3.494039980747126,0,1,9.173703618174818,-0.4627311378517603,2.5935743046691173,-3.238918891683961,0.4927165186536963,-1.4001632483318753
407,10.0002739969685,3.420472194759554,0,1,8.853132263508824,-0.09349576731809257,2.7800714155217374,-3.198666278978062,0.4633822593695935,-1.446340742433259
408,9.945989914067471,3.3238557919983243,0,1,9.063370715369958,-0.9349643690710712,2.3604341509131226,-3.057877443869153,0.3956535762628656,-1.4821934723119279
409,9.909109011706645,3.2067953325320544,0,1,9.20445434976653,-1.4953624594246635,2.012316813622373,-2.876960362072164,0.3353439631584711,-1.461106853598385
410,9.896063265250607,3.0732461012707084,0,1,9.248765378774332,-1.8571902013790558,1.6355034580220116,-2.71919559342455,0.2631463520417801,-1.3543294016315963
411,9.908520492682586,2.9282248376815385,0,1,9.265201552398915,-2.147828087173894,1.3691203967661296,-2.5961171137498713,0.1293220460889252,-1.173676233473172
412,9.943366436185817,2.777389675351159,0,1,9.60153751735233,-2.0304979558054144,1.3643684908974534,-2.5247017176259767,0.06729550374265776,-1.0162699880833168
413,9.993527369434867,2.6265499282065456,0,1,9.950911962267082,-2.166919612445248,1.3250611469997196,-2.495231034016565,0.030737193794165802,-0.921845647344656
414,10.049397398714131,2.48116407102147,0,1,10.206735672961381,-2.018881066801057,1.20648255871376,-2.4079554992251495,0.00821305993805512,-0.8478708379089417
415,10.100555968363125,2.3458732129050457,0,1,10.239860768321288,-1.490616866322706,1.0488092745362798,-2.2115787841833012,0.008470623826792622,-0.7812558360459275
416,10.137457549471005,2.224109284920564,0,1,9.88097943415412,-1.4244880635237487,1.4150617768044722,-1.982864163403165,0.025696112197858275,-0.7489286338601135
417,10.152841538961734,2.117817207461909,0,1,9.74127889139979,-1.8226664691488044,1.3971501666920139,-1.8440837855053283,-0.054623193346685375,-0.721467138172213
418,10.142708231328607,2.027331374862281,0,1,9.838871787532682,-2.5431957170269714,1.6256143169656077,-1.8223291964926793,-0.0228456141856642,-0.6683296566594208
419,10.10678828091953,1.9514363316059677,0,1,9.92521293350109,-2.967142789176473,2.058347969205637,-1.835118013551432,0.026939235351242874,-0.601126407282196
420,10.04848057417443,1.8876146234269697,0,1,9.727288216120883,-2.809268114498337,2.1917630433537987,-1.8021789364061658,0.12102324709779101,-0.567907786913424
421,9.974272846045082,1.8324495049125344,0,1,9.298986888313085,-2.496582279291422,2.6456143501727416,-1.763716340707147,0.18021054882707915,-0.6034155684200908
422,9.89272533984769,1.7821201824849617,0,1,8.937272252111239,-1.9895794630963133,2.965300703333882,-1.7398831298518886,0.09401470414272448,-0.6728607973668964
423,9.81318754039888,1.73291206515739,0,1,8.950619216877232,-1.4852055431193931,2.55680956630738,-1.6778338188991582,-0.012677111735356884,-0.7252713596545478
424,9.744488029387906,1.681666510642371,0,1,9.00622238737689,-1.48141166890357,2.5834287376582177,-1.5955991028681669,-0.03208412414133081,-0.7171141827908182
425,9.693844122844181,1.626111718966898,0,1,8.984730644102026,-1.7420976507844586,2.329421077367539,-1.505944789606465,-0.1439585434640105,-0.6720503278299055
426,9.666173231281741,1.5650438410349499,0,1,8.867212693964186,-2.168163715224706,2.0321548931453375,-1.4334061575870645,-0.10051628218538997,-0.6318244232517787
427,9.663877094731388,1.4983575771033666,0,1,8.692521010476334,-2.384704575022362,2.468094776554932,-1.3121567961502032,-0.07805602960299812,-0.6290424208951906
428,9.687044144662782,1.426950369605549,0,1,9.297496513533485,-2.169659230825785,3.3566420137541435,-1.183277582733002,-0.14750668961828095,-0.612786350260344
429,9.733897976203433,1.3525376763032613,0,1,10.126528801932249,-1.0922743218929603,3.7606177056897256,-1.176993185507738,-0.2992910202416116,-0.5280071380975943
430,9.801246000343014,1.2774164407930468,0,1,10.566769064970197,-0.5079840373087589,2.891562186558419,-1.2092792066734916,-0.22216484236205009,-0.41712407240115
431,9.88470950823456,1.2042024480295503,0,1,9.204561900464928,-0.6111035372356044,2.930692072475627,-1.2549815419375552,-0.05048632273612829,-0.34052725108541687
432,9.97868074482513,1.135553158242222,0,1,7.791168537478496,-0.8929796474058661,2.9337291433971986,-1.182618644825867,-0.03854160930060682,-0.325773736579882
433,10.076191964526387,1.0738818461961694,0,1,7.925630946795944,-1.0270475021263386,3.411652206487928,-1.0115291950234007,-0.02131460661753258,-0.298403066299962
434,10.169032352396913,1.02107744813257,0,1,9.001765546182735,-0.5437168384617057,4.3461720369368635,-0.8797755172531908,-0.07076801171565378,-0.23763947611368427
435,10.248372033377834,0.9782621590872008,0,1,10.244307282857095,-0.544370403312891,4.076858049065071,-0.8103807055874966,-0.10944633626750731,-0.20318002612647984
436,10.305877726540752,0.9456309459646263,0,1,10.693223261114106,-0.18981598530681934,3.5362677030834533,-0.8522597030553133,0.07979740392768593,-0.17498560311413155
437,10.335022068511503,0.9224107033920185,0,1,9.948032778362082,0.3105231224620157,3.476622242567231,-0.9324231715470284,0.13042501863193612,-0.16434770775024526
438,10.33218074207038,0.9069513673024692,0,1,9.641536751143505,0.40646278986858775,3.247426117403716,-0.9306137746427259,0.06571159551100471,-0.1866065246444305
439,10.29720501954465,0.896929872280849,0,1,10.17023543334071,0.5409191242043897,3.274446322273301,-0.8645435887305609,0.14678176789123415,-0.2244647414209392
440,10.233342207568564,0.8896259169218597,0,1,10.360476981595017,0.2730600533038008,3.014299110101439,-0.8251588689470402,0.19244367247177424,-0.3059261932129444
441,10.146542878462064,0.8822223453653476,0,1,9.688941639363495,0.0050151901308425825,2.70096080892783,-0.7904620171315411,0.24420053607346728,-0.42565006492359286
442,10.044318065552725,0.872088160818042,0,1,8.993117319711528,0.15546508075813908,2.70268584316363,-0.7317099264463705,0.17800966791555792,-0.5079485483309447
443,9.934409474230854,0.8570119807480331,0,1,8.943554361743407,0.31928142246281443,2.5272567084158384,-0.700130310174056,0.1028859039806707,-0.5325441595956488
444,9.823591122435959,0.8353653661798102,0,1,9.26325013281414,0.1531879423211405,2.580745309626702,-0.6595328485244313,0.053964776348842704,-0.508415131948791
445,9.716884852947572,0.8061885011937572,0,1,9.457448344416814,-0.2709533148639618,2.377692171190919,-0.6533759137260043,0.0691014456037063,-0.4544667802583245
446,9.617344125141718,0.7692032881088745,0,1,9.255334233449942,-0.3583295679451481,2.17306240298488,-0.6621050724376849,0.09658956185515721,-0.3757055492719839
447,9.526402569817085,0.724768061851787,0,1,9.116183907844828,-0.28131606270188486,2.090232286883384,-0.648992063985064,0.1194871216886199,-0.2929231652170077
448,9.444660089729533,0.6737924170498928,0,1,9.182211645512739,-0.2428599926385242,2.0920252701452475,-0.5922418751564626,0.13364674811178437,-0.22704792052190223
449,9.37290514844246,0.617630961227025,0,1,9.51402284554758,-0.4939040845694045,2.1721117879244582,-0.553429653181031,0.14746120182859962,-0.19437043772977214
450,9.313131178019423,0.5579725901946432,0,1,9.443810349020657,-0.6972245723211999,1.9404188900645158,-0.5220805226868407,0.12771288546597184,-0.170845866358759
451,9.269294435809167,0.4967379508657448,0,1,9.238365734825349,-0.802206566694117,1.8312227951555362,-0.44463306661605295,0.101610001307131,-0.14417150996438483
452,9.247595562937933,0.4359928408637992,0,1,9.226438304641126,-0.865000762480124,1.9375040132893109,-0.35838821686626404,0.05447113074253126,-0.13382974150395494
453,9.256151270259679,0.37787999308890585,0,1,9.390894848673511,-0.6646680901121201,1.8479736567846876,-0.3252866474692398,0.058978178516817005,-0.1420469491710271
454,9.304035291553793,0.3245654619875724,0,1,9.41418896877194,-0.18122534734542928,1.8007393022696188,-0.32448332342603253,0.09783023398540332,-0.15237661467290664
455,9.39978580323188,0.278188164554146,0,1,9.134059668372789,0.07400778383676544,1.9026742578762523,-0.2749832424732632,0.10131137947957362,-0.154672763413511
456,9.549589898805438,0.2407946359468437,0,1,9.027186246173551,0.2442839574939671,2.0663239090235432,-0.22925952462990862,0.058658593136670455,-0.12542604904492663
457,9.75545295066009,0.2142407721628218,0,1,9.101359114447595,0.32115806527891416,1.9758887960404117,-0.2179111428512545,-0.015411166114414785,-0.0790554342951707
458,10.013714832568105,0.20005051073334934,0,1,9.395900006283616,0.38342398343284984,1.9276500225438276,-0.21899676218652356,-0.07066956537677253,-0.04145022123211299
459,10.314257967755251,0.19923499615942614,0,1,9.599851123333124,0.26256405874799155,1.8770535167145628,-0.21245530916218064,-0.07382177076384087,-0.03410990235518768
460,10.6406576219259,0.21209011315482834,0,1,9.863807354681914,-0.10308296315474516,1.95687440828803,-0.15808145091797907,-0.12843784521904994,-0.055255550026227986
461,10.97136906458632,0.2380030613316064,0,1,10.571349244467118,-0.3860574910039527,1.7426088558847719,-0.08992734494644959,-0.19931029043157533,-0.07755129926145334
462,11.281854720678199,0.27530924164341547,0,1,11.613793459012939,-0.5650890071627743,1.9365691660119921,-0.04972554962003479,-0.19426008586704133,-0.05521438947662505
463,11.547361520424992,0.32124727411027715,0,1,11.98288120356038,-0.5915984886187761,0.8498429978431566,-0.04494815817433185,-0.16780516174344443,0.0338517299878518
464,11.74591469262559,0.37205825937108084,0,1,11.437613945977981,-0.35231064319549854,1.6439328952510517,0.08675368159757671,-0.031043873019800855,0.11532509836074954
465,11.861044404362358,0.42325950239722493,0,1,11.710638365370809,-0.6602199458915263,2.2915049901772515,0.23785053801658382,-0.23073928656090825,0.14841009996976948
466,11.883803697036281,0.4700884810473352,0,1,12.70483717832815,-1.8177031136513098,2.415448269106026,0.39586167538149913,-0.28618216479099007,0.07402850243571203
467,11.813728032394675,0.5080639456372533,0,1,12.409175649305265,-2.4393406396425235,2.713095720344174,0.6109397466155724,-0.33895501173240067,-0.054979813650954786
468,11.65851444500335,0.5335643575552401,0,1,11.333159622415188,-0.8856616529408844,4.039897588717481,0.735049935674269,-0.2729657388910837,-0.11928440721656482
469,11.432397952171925,0.5443023091216111,0,1,10.677628523985117,0.6691989012286665,4.670756527612752,0.7092616590237931,-0.3326743038382626,-0.12825375231752703
470,11.153486777276356,0.5395924584053339,0,1,9.052563026726766,0.9408390847707315,5.276485430199519,0.41104389877448516,0.06714184314071561,-0.17623239616434752
471,10.84061387498894,0.5203663600686306,0,1,6.697067924032574,0.6419542971111799,6.5567625678550465,0.08146464787888484,0.09492996486236892,-0.31128856645410957
472,10.510449471156308,0.48895587296444165,0,1,5.992822920360691,1.352187771833101,5.813179337501426,-0.15490190613681984,-0.07578018211413824,-0.4285800521863161
473,10.175596907089565,0.4487146536813106,0,1,7.1378815039726335,1.881906644980502,5.62210454875485,-0.034703469800904024,-0.1781232447847094,-0.4421134773958984
474,9.844123329647672,0.40355765521017517,0,1,9.20153964333102,1.4303352419610729,4.601717436520395,0.10058835279105063,-0.37537441344522937,-0.34982242470506825
475,9.520520782606118,0.35748382007055834,0,1,10.005977208303143,0.4766258726857974,3.9275837708359416,0.0289473939422173,-0.15650267220900385,-0.22259779098352234
476,9.207630422379516,0.3141325967150662,0,1,9.671000418304516,0.31039897838257063,3.870099235197409,-0.08174132061342161,0.050196591840975455,-0.09873873042854346
477,8.908803854303208,0.27642106417369383,0,1,8.930541078386696,0.0944176624256514,3.463405356043706,-0.20657891211268378,0.14985742667835028,-0.006031038455818275
478,8.629622784364775,0.24630475006001307,0,1,7.978864215562963,-0.5600081664074084,3.399976941924411,-0.21757680628148918,0.1683833742251247,0.02734733042657624
479,8.378780247309022,0.22468939073363153,0,1,7.069130162525143,-1.214128199379388,3.167626859762289,-0.1697847829578439,0.09294089245003125,0.034168240667676895
480,8.168067616095076,0.21149600686341033,0,1,6.640435628167491,-1.3874773865514334,2.764296064447846,-0.07816461622984876,-0.028089245486924836,0.03403583709894805
481,8.011647403526082,0.2058592307550298,0,1,7.331631453675689,-0.8036154946995125,2.5969117237933848,0.006787719939907689,-0.1888543277512642,0.08745469384494256
482,7.924847734565278,0.2064223952702396,0,1,8.50507814499036,0.13344394913149293,2.084234662492781,0.07017714499809813,-0.30620884408977145,0.19178805230623028
483,7.922627818118793,0.21167932699863062,0,1,8.788616855341864,0.6341381914641439,1.6265752780063643,0.08369789848456782,-0.17451149231503996,0.22849575616972567
484,8.017759116922317,0.22030527776879782,0,1,8.162306788174337,0.7242294923015753,1.3067311830701458,0.08159919999254835,-0.06294353683434442,0.14156903225351058
485,8.218771980120101,0.23142611130965093,0,1,7.608584544170705,0.6250919089860072,1.0956799119709086,0.05139673204276108,-0.10057679488576604,-0.008997550339164112
486,8.527859171852906,0.24479341523008294,0,1,7.600430191314252,0.4572251830573795,1.2402980106477803,0.04727206462445451,-0.23439767652306717,-0.13937194612491882
487,8.939104953832345,0.260848632017467,0,1,8.237313373481344,0.2664892956229387,1.5429576476414166,0.10418666667132116,-0.2776839121951666,-0.23632642614720778
488,9.43748290756139,0.28066204312763937,0,1,8.73608187480923,0.1152618326516181,1.3415217558702408,0.09401610213694583,-0.3171318321282171,-0.29233577285044077
489,9.998976649286384,0.3057314639460491,0,1,9.198524821759879,0.01613261986203081,1.4015447338934517,0.0029790582447555493,-0.30547944919525705,-0.2642574963330076
490,10.591964066317116,0.3376380493418733,0,1,10.203465639171402,-0.04006171635175955,2.368315892295572,0.06827088201557195,-0.29184953167735006,-0.18404329051220863
491,11.179745456030343,0.3775888370370066,0,1,11.670456536384975,-0.4052857845190283,2.221370419513906,0.19350294771633864,-0.32840561817831854,-0.1026838040784628
492,11.723859252720187,0.4259171833331119,0,1,12.537845353258195,-0.29836856975683124,2.0158334795999044,0.13571383882691912,-0.2548954027657595,-0.0008257810505837038
493,12.187682755366154,0.4816461188848833,0,1,12.319471184720921,0.3055178679145218,0.594101202299969,0.1509465117502309,-0.24386502068181107,0.07689217795664599
494,12.5398127502012,0.5422324395891982,0,1,11.88549937018003,0.20826878271719024,1.5312729149641444,0.17560978657432616,-0.07606538274306011,0.11814593772777313
495,12.75684768367858,0.603592998142612,0,1,12.265531072173767,0.4444476230630768,1.1786020322379618,0.14061164645520982,-0.46663703089529257,0.19563393862928724
496,12.82534808196132,0.6604666540834961,0,1,12.898491106726741,1.0189609643769548,2.181280595776399,-0.16915344673333677,-0.12636184976923184,0.3816956754916982
497,12.742830550116278,0.7070922865660944,0,1,12.460555089645757,1.4866650700954902,7.759321734900575,-0.3938498954997638,0.08101898430288879,0.6020636531251321
498,12.517659092033462,0.7381016325154423,0,1,12.148506804175083,3.543762309686924,6.670424490741241,-0.3727545594422277,0.09756349398167666,0.8796187464684986
499,12.16776348078852,0.7494567090408757,0,1,8.233858878809256,3.3671340542167547,6.1208502489176855,-0.5613915896776016,0.31427007776166493,1.0337435195802303
500,11.718347636381369,0.7392275695960404,0,1,7.01401822593013,-0.40461001829613286,6.442089381995362,-0.4050320893628588,-0.11213518935820636,0.9308893175619529
501,11.19907358739965,0.7080264809583523,0,1,8.242369844447136,-2.5914134101190225,4.628409032395288,0.12816777067086235,-0.18426870292927616,0.7606067541185086
502,10.64136961160085,0.6589920428361059,0,1,9.184139188222714,-3.6197182126973604,3.943350479175312,0.350045271626337,0.19478197927622184,0.6304070946201951
503,10.076339776138346,0.5973265791603086,0,1,9.853149188587267,-3.356242351058041,4.90499078602325,0.28099854856072437,0.17373437778401796,0.40430825242160173
504,9.533350190799704,0.5294926546422821,0,1,10.149845919437666,-1.8700395220949189,3.0088690548841486,0.25270724831306,0.041629061557950583,0.11204133678146772
505,9.039029101537148,0.46223995578064125,0,1,8.756209049672423,0.21099420405134492,3.104014048841459,0.22513339918656186,0.1344368922429806,-0.09822142399721227
506,8.616359027414623,0.4016513294625332,0,1,7.553464203506584,1.722313946023507,2.741931939426654,0.20173972265213402,0.08758146907280974,-0.20119317799905329
507,8.28373689622197,0.35237017557092204,0,1,6.429036136039146,2.5750338874185488,2.804228990995324,0.21067520078253116,0.20109698464799508,-0.18977464877223307
508,8.054136266084098,0.3171160844937285,0,1,6.025100626916339,2.5983917063915785,2.6959483085978366,0.13729604345169358,0.05852278529640221,-0.13822493175675363
509,7.934630546862247,0.2965341330820005,0,1,6.7312684911319245,1.6626815954972414,2.509394456854409,-0.026937460208600123,-0.10212948425157915,-0.1061169200740813
510,7.926458292239713,0.2893714483338091,0,1,8.267752868860017,0.3299293418610535,2.144842074577144,-0.077182897827956,-0.30808843625823507,-0.11327311742878314
511,8.025594120173867,0.2929336620746006,0,1,9.211698100392459,-0.8869477606159845,1.4385440472752375,-0.10630824976771376,-0.29561868551545883,-0.07886027168098557
512,8.223573170925661,0.3037396863581876,0,1,8.969971405668597,-1.54700114061478,0.7796484548609897,-0.21374577791715255,-0.16272385933456404,0.03022072798039201
513,8.508248276862513,0.3182678497746465,0,1,8.233879711988797,-1.2433628274728672,1.1999579849448565,-0.2952470273165947,-0.1434161712707346,0.11523195164141165
514,8.864294527571998,0.3336741407357795,0,1,7.873135049211259,-0.6478007144770573,1.4657823622993371,-0.35653997406060606,-0.29839845326189857,0.13821402015613332
515,9.273530553414162,0.34836361762138174,0,1,8.208157383555884,0.1174613455864864,1.393183103355671,-0.3440354737566847,-0.3848177821535517,0.14797878923934335
516,9.715326130335653,0.3623084058621036,0,1,9.079098137595873,1.157636112247268,1.2025334198124775,-0.22588280131540794,-0.46909217442679124,0.2043758811129069
517,10.167381724981677,0.37703521738779555,0,1,9.678348240800926,1.1005904432943627,1.1012447092561204,-0.13532849236922195,-0.46261324342793547,0.3060964348996441
518,10.606997476511212,0.39525678416832544,0,1,10.564009179392883,-0.5058118959771063,1.9765703452663472,-0.11981233618140306,-0.34003054424402146,0.34107049998728833
519,11.012701032894494,0.42019094311597066,0,1,12.175510750102973,-1.9336223814545388,1.5222360168776887,-0.020789164870048303,-0.3205934261285011,0.27642256030638096
520,11.365904556005939,0.4546852247204324,0,1,12.407463964956568,-2.454420881446525,1.220586532225582,0.15973998927163946,-0.014949490972594173,0.13255447157946434
521,11.652212652991912,0.5003254591299728,0,1,10.928040134500737,-2.0460942506838435,0.6982464615372569,0.17290764994458438,-0.025357914442254426,-0.031149784873220173
522,11.86214154191006,0.5567340190962942,0,1,10.24238106904881,0.09811225466944025,0.42296710405033905,0.12777992923843481,0.004299374598530585,-0.138270480335689
523,11.99125325096716,0.6212406671737658,0,1,10.854515445475828,0.12080599021126659,0.629886814089407,0.07820574122887794,-0.3057282355529769,-0.22925484517300176
524,12.039869840124288,0.6890337302939312,0,1,13.038050739449561,-0.7388408069717689,0.6751595114941584,0.21486591099863336,-0.2125808519634754,-0.39801245884862857
525,12.012477693162854,0.7537874405257442,0,1,13.341819056025516,-1.0618938416976884,5.191778076914597,0.5770210537235888,-0.09635261319662979,-0.6393250793655317
526,11.916747091355665,0.8086426528575107,0,1,12.729824664818345,-2.8637070866134384,4.494112710848889,0.6557869439829676,-0.08767389806443732,-0.9279720916843265
527,11.762035311132584,0.8473266594215335,0,1,8.465763836271877,-3.2256564247315866,6.581551234656994,0.524697573489556,0.40288083474928016,-1.100666286897584
528,11.557484568586373,0.8651627448023897,0,1,5.35855741358257,-0.45707787898180674,6.753562696218931,0.21310184637134708,0.03259698235333831,-1.1000272928617776
529,11.310247813718291,0.8597560713379803,0,1,5.941447990236673,2.413155441374601,4.999768843634479,-0.12344289882235147,-0.04958111301077983,-0.979390326890899
530,11.02462379591774,0.8312382874464231,0,1,8.190373711953235,3.524063760447661,4.670311789523734,-0.2445474875376,-0.18645624101707176,-0.7828148744542832
531,10.702672103869364,0.7820731930498578,0,1,11.28254747111377,3.647973461797668,2.8713397008780466,-0.23787960771881858,-0.31438416874021796,-0.515596825739648
532,10.34625712613507,0.7165283074736001,0,1,11.955833760397324,1.8478355965274547,2.799941665361713,-0.3387589977623465,0.014277881819275076,-0.23688381228390784
533,9.959806081078742,0.6399741950805877,0,1,10.920618111926816,0.2992567899237891,2.7381404932442495,-0.4188785080990534,0.04099304252928535,-0.0876642323010805
534,9.552756873686942,0.5581755983325287,0,1,10.178117224494448,-0.7316564499516602,2.3857590083174625,-0.5194252530533368,0.1558646700874604,-0.030517469882634807
535,9.140843408467264,0.4766936064612267,0,1,8.710246499849195,-1.4451333564435775,2.24592377228436,-0.5271033270308557,0.1784072346264758,-0.038779282571716714
536,8.745842211084433,0.40045052414142596,0,1,7.596653819856558,-1.510782329197049,2.0670232558966593,-0.4652953261363782,0.1680201090948988,-0.05625067179940087
537,8.393900047427733,0.3334513375774162,0,1,7.205420301533652,-1.3327063856528338,2.2839150373605843,-0.35827395255250527,0.0497870437398111,-0.03966772437454817
538,8.112875689162983,0.278629684142882,0,1,7.585863071124504,-1.000503019036682,1.9403497220367076,-0.287189946161675,-0.046860829980243435,0.0030984673635520233
539,7.929202987588554,0.23779104222453418,0,1,8.42490239872205,-0.39600575277030375,1.2845045350079984,-0.14896456758690454,-0.0752866069912809,0.04468821082673939
540,7.86468593476333,0.21164400307309564,0,1,8.669665362794372,0.27937783417714585,0.7808426066991219,0.006924140831049296,0.0500348001125457,0.046123652340018896
541,7.933510557843464,0.19992313409414358,0,1,8.058774410303496,0.22999518818160236,0.788019048562987,0.07741428681213752,0.1367992386956773,0.004119637054838246
542,8.139728219844343,0.20160331941822096,0,1,7.408331812470237,-0.22933487682206344,1.0316259995480532,0.14980236380936443,0.1048652971997135,-0.06669171574897304
543,8.475551074571626,0.21518545243772516,0,1,6.858498818636586,-0.6686755945413313,1.2314600938721387,0.14044519821097534,-0.08288225049936243,-0.1474378306780318
544,8.920901219819791,0.2390063292226196,0,1,6.885656515818217,-0.5664130199004862,1.1554078112879216,0.07324836635528595,-0.2585930797354642,-0.23058526860619155
545,9.444617917421636,0.27150483052629426,0,1,8.105510183151646,-0.14608833520044087,1.6161702793176265,0.06931097921468223,-0.34662719488256116,-0.3099070728356857
546,10.007458136090298,0.31137279688136715,0,1,10.346148105003383,0.12728057089923434,2.2155376633802075,0.10091170155227051,-0.4092794098522195,-0.3275590204575296
547,10.566566394029229,0.3575389603713771,0,1,12.102223473891426,0.28092198503219135,2.3978644853716116,-0.008961216709393581,-0.3430524290657097,-0.24661521244633772
548,11.080621830077247,0.4089789960589736,0,1,12.728463252269982,0.9314808398530788,1.1651077940021424,-0.1977429662955473,-0.33074020504305884,-0.05960384241136227
549,11.514625921874229,0.4644048370613573,0,1,12.519772800516312,0.7593278400714635,0.13220597647739987,-0.18028674751601168,-0.05358522505053931,0.11429865055498674
550,11.843406304652657,0.5219404203696196,0,1,11.409557207004232,0.06128474546062862,1.3235901495075792,-0.07461986352956007,-0.0058529546792904195,0.21519593003125717
551,12.053314786004696,0.5789139126289664,0,1,11.96681963121165,0.25235800244621326,1.2169307643741338,-0.15313701845256908,-0.1570337766669651,0.3230970002051894
552,12.142076632314005,0.6318731693811805,0,1,11.970375336781837,0.18183763551662346,2.974833725229752,-0.3483548332205296,0.08425471938081364,0.3873148721845536
553,12.117105187183002,0.6768663917374106,0,1,11.290331072659272,1.0739429789809085,5.27527214628961,-0.4398353986922905,0.03618627564127279,0.5109418483698992
554,11.992777239160459,0.7099468975544211,0,1,10.549753544146252,2.7677358915996866,5.345303342768299,-0.5116952135600514,0.02112342053755685,0.7268189782521708
555,11.787242891800936,0.7277894125476442,0,1,9.174263047459016,3.4843714213431105,3.802672501091937,-0.40075668068875536,0.13963864777122037,0.8827723527389179
556,11.519390122117041,0.7282686367036519,0,1,7.928263983385688,0.6149406527359297,5.412512986079179,-0.28373845107202667,0.0680119067732145,0.89746850840991
557,11.206570917572858,0.7108598358093382,0,1,8.70108995724472,-2.0940760654988106,4.0237326238793205,-0.006863745628685035,-0.36141861497046684,0.7822785154018335
558,10.863525294699711,0.6767721433463555,0,1,9.976721191336201,-3.4228773068027603,3.497734623187461,0.2431500214669303,-0.044580748073589645,0.614492943011011
559,10.502572799979927,0.6287999580950505,0,1,11.028004685881182,-3.030632078925726,4.065244684575233,0.2808441466044919,-0.006387221078206835,0.3799294014811234
560,10.134698260145026,0.5709490889046537,0,1,11.337417723040046,-1.5547387271975543,2.4531561105931834,0.31122183288044164,0.020633736411488326,0.14137257744191167
561,9.770869437864615,0.5079365024633227,0,1,10.027574841886699,0.18668312088377864,2.5340203766157567,0.44634053831015874,0.17997375995660803,0.02277526946782439
562,9.422952243588682,0.44466321690310145,0,1,8.572470651231864,1.2921418525712889,2.75040164326033,0.5202745948446618,0.0986560823453615,0.023420554149624795
563,9.103893303505222,0.3857278320549937,0,1,7.744288032690625,1.8526681781847667,2.535484848620005,0.4773350033650001,0.11916026397142392,0.08442156173267865
564,8.827210685300454,0.3350098870972107,0,1,7.457124742787838,1.8829038703188972,2.639274372975174,0.3597974599986161,0.06353005489125775,0.12587384707659882
565,8.606060757014074,0.2953335437563801,0,1,8.110145025147824,1.5613146762179828,2.446886350741129,0.20442743998330007,-0.03711228242147978,0.10146708173565168
566,8.452159539455815,0.2682291137535573,0,1,8.933871813592928,0.786180047861704,2.0576764855634484,0.07787764562123371,-0.11094683196909978,0.03675034934713057
567,8.374709816864735,0.2538273485604348,0,1,8.972554031736205,-0.15317026954893645,1.2116614318933077,-0.0344712416819395,-0.09805095207844482,0.023288087938281403
568,8.3793683074923,0.25092743913922044,0,1,8.291542783194194,-0.5280585129756927,1.0982563439943966,-0.08064850628612841,-0.0017149069724708623,0.10162917645536136
569,8.46728554089831,0.25726201278045,0,1,7.761703580949979,-0.23467938059677346,1.359607541086486,-0.09810854954862336,-0.021610298029631273,0.18446148645915936
570,8.634355920364175,0.26994367605733977,0,1,7.729276117231947,0.04164785351772314,1.3272150734714365,-0.14684015059996758,-0.10696831207116242,0.23932916250261538
571,8.870921140987281,0.2860311394637677,0,1,8.130899529805314,0.22088975596856172,1.409885682248319,-0.10084537965550268,-0.1780061482240373,0.29839626288158766
572,9.162167366869605,0.30311472733531025,0,1,8.755104218291548,0.5077132640031075,1.0659353496729786,-0.0008635410244416822,-0.2613160272034482,0.3718311022360914
573,9.48931574853856,0.31980340454100137,0,1,9.040955076402703,0.1162623796580679,1.276908625736182,0.011383538225695721,-0.2673282964188124,0.42484321260718827
574,9.831481508885267,0.3360040313369268,0,1,10.141718953036163,-0.7734413207067842,1.6680467165739323,-0.0095392514822011,-0.23606718344644922,0.43673709258391225
575,10.167855644087274,0.3529177799491027,0,1,11.566529457730596,-1.1740658064433578,1.3770554386996512,0.05776443062409447,-0.11082780489346276,0.41269226606644555
576,10.479727732960395,0.3727322855043365,0,1,11.744382009944875,-0.7836982277423684,1.4205942337964808,0.25032346616433,0.14304451942109933,0.33234430303964607
577,10.751891931080694,0.39805006997909803,0,1,10.868583827221999,-0.6645359484441291,1.739535738575081,0.3450552681037674,0.2121172211076439,0.22371624591566436
578,10.973196718521029,0.4311516861188458,0,1,10.21854820377321,-0.28249881961928625,1.162507283608219,0.20777604780808676,0.24243813329532748,0.14749487025063648
579,11.136348040923677,0.47323688249033774,0,1,9.77226500154651,0.3004164079325144,0.5250576045156538,0.05211281846782712,0.228404791857692,0.09298545859531801
580,11.237385262914572,0.5238125135810662,0,1,9.748699579268026,0.6901549544816884,0.17580305166231172,-0.025893661884181005,0.19164868189232903,0.04785587073927201
581,11.275343955160325,0.5803928384452758,0,1,10.046126048985782,0.2096918925123303,0.8036560514808675,0.09065073531433399,-0.055101397392574386,-0.03422075944033719
582,11.25243266409947,0.6386345123473374,0,1,11.663847182024476,-1.4106941182073531,0.12966549071330644,0.26204529261384474,-0.23758270895846753,-0.22421457187570307
583,11.174661359530555,0.6929399262562946,0,1,12.328296794813276,-2.118482261393724,2.428840279141617,0.5543631212199474,0.011430654233020685,-0.43864637244889715
584,11.052453220625887,0.7374419200346876,0,1,12.438874576389502,-2.205099511259991,4.086405800261355,0.7662698950973879,-0.06265636318405506,-0.6297646200837604
585,10.900566446739074,0.7671652760690105,0,1,11.911574501121951,-2.749660431791485,4.107876687005985,1.0428894270428288,0.03103170945376274,-0.8117759209099003
586,10.736795877812728,0.779090931590721,0,1,9.34845400766677,-1.8084428952110367,5.091121412101264,1.0707075163768551,0.22991261500862772,-0.7776000616061569
587,10.579398165590378,0.7728616244458121,0,1,6.594695236446825,0.19742596006680374,5.852366643019757,0.6651336999156816,0.27006026389512344,-0.5906393980681413
588,10.443786412315616,0.7509665753448628,0,1,6.021400810302524,1.985412346579948,4.924085142040609,0.24884182808536945,0.08706667740323414,-0.4577320507323232
589,10.339467942080299,0.7183923164535382,0,1,6.903821195619712,2.645225760568225,4.204777033892897,0.17281214853848512,-0.09027334778238062,-0.38296075075542785
590,10.268216304476155,0.6818631259574484,0,1,8.77339014167403,1.873794125864929,3.8109829022333157,0.4191141288313265,-0.282532702033516,-0.30033463015888345
591,10.224057272212349,0.6488627321210848,0,1,10.498969207654742,0.2953612274934245,3.348227489041325,0.5842914201607322,-0.29844171624802934,-0.22982692211015934
592,10.195021648387048,0.6266206024591938,0,1,10.914663348259651,-1.1705800748358246,2.900780815170856,0.5682672072701599,-0.06565520354824005,-0.22884837525979632
593,10.166079252085698,0.6211981939944002,0,1,10.489463875874314,-1.4742492242590917,3.301585674524409,0.5147746154312736,0.0452223815014276,-0.19173402198277592
594,10.1224307273209,0.6367657370611401,0,1,10.31255712748898,-1.2860614065658738,2.667434855203731,0.48906434783523717,0.07144696645026519,-0.09410896969578306
595,10.052421465975554,0.6751330407164164,0,1,9.449209024114893,-1.2033698902030903,2.6824289767725755,0.5323188351197768,0.20544492863474975,0.00014644280160896315
596,9.94962523892722,0.7355769967670169,0,1,9.047981915997191,-0.7150787671266058,2.8090363516944024,0.6453473627497059,0.14316332248889221,0.09892972972393167
597,9.81394707536083,0.814980058373682,0,1,9.34219794279055,-0.19934459917287012,2.450513218682593,0.7661010770035481,0.06335609852000847,0.2141175692080983
598,9.651789037984793,0.9082568809774383,0,1,9.817864502051716,0.047694642133641094,2.1942001469860886,0.8611301996343549,0.07169287525065392,0.31859477875299336
599,9.475381416420442,1.0090096350637898,0,1,9.902563510081347,0.09958339056887118,1.9281471375629704,0.9472531681326051,0.1748770608220964,0.3578477323444393
600,9.301370544993878,1.110325701311438,0,1,9.483186594371263,-0.12042748201074935,1.9878616621915948,1.0411150715044604,0.348272630040104,0.3211902182377642
601,9.148769540271966,1.205618394895064,0,1,8.827339652369515,-0.45121747774077614,2.0306690071430484,1.1699726302830031,0.43476207828963864,0.253604005870775
602,9.036467613262548,1.2894108113050324,0,1,8.3709329796327,-0.6574065275702156,1.913110764102704,1.2893727342711458,0.39846004413055586,0.19464489859193695
603,8.98062219940106,1.3579722445346478,0,1,8.110100862562366,-0.7299435701887887,2.051136405368425,1.3819544580337029,0.32289709389667914,0.14454070510722014
604,8.992345343390802,1.409734254293462,0,1,8.207378008042632,-0.47660420721616326,1.748301518759523,1.478588877168451,0.15626904476738263,0.0990234643397777
605,9.07608054959211,1.4454380054745328,0,1,8.625399760032899,-0.2471290914590462,1.2239531356882887,1.4870174242471077,0.041476325975108336,0.0683188905788157
606,9.228942597232491,1.467993609250671,0,1,8.515511500613254,-0.3009820111238433,1.5271927764681246,1.5306994965915646,0.02469189324014916,0.06525411583542794
607,9.441098566919273,1.4820629195485755,0,1,9.077603276293091,-0.15534492863752092,2.229802340948946,1.620818513139373,-0.06927587194892336,0.09452974335173309
608,9.697054223049186,1.4934079898335355,0,1,10.13857398958318,0.1235849503468997,2.6519162827205585,1.512845291380366,-0.03666202389049929,0.14382580392299527
609,9.977525582893092,1.5080786550718037,0,1,10.809779051650873,0.7643171899513671,2.7822393958747007,1.3599742817345648,0.06191414435687986,0.19526064513679228
610,10.261479636791783,1.5315430488194515,0,1,10.68111257598788,0.8337924772561478,2.2384732475512674,1.2995531442671417,0.09133590493876421,0.22379871423504577
611,10.527978929453468,1.5678850785524279,0,1,10.049276103064054,0.23826473437827483,1.272768145555705,1.4287448572367674,0.0713716185403998,0.23378020805000327
612,10.7576625806522,1.6191890498437966,0,1,9.612921790631315,-0.7774533335100504,0.6463677400644952,1.5602299415164822,0.05678085520482765,0.24403797185803988
613,10.933939290815484,1.685198988830497,0,1,9.70951954907049,-1.388651433170925,1.6259603329762418,1.650997032372454,0.06501754162322476,0.2833596987520104
614,11.044100237147159,1.7632911785482743,0,1,10.816072224849684,-1.1819000490564513,0.930307007995354,1.708866715782868,-0.043555389070300814,0.3681070123311036
615,11.080491176445884,1.8487527726802386,0,1,11.045090979485853,-0.603881425023977,1.7950009401423275,1.6403294437402602,0.3881083347562857,0.47283472757344486
616,11.041660907805722,1.935327758225854,0,1,10.747249501500525,0.6691127165781275,3.476431660587632,1.7274531564603557,0.4419325348892126,0.5682831036351926
617,10.933166625121395,2.0159704417299373,0,1,11.289710626919273,2.329262005614807,3.9226310456235622,1.800883245698411,0.48390400698599206,0.6870229759736773
618,10.767593432612214,2.0837268206281,0,1,12.157832063176944,3.2986775607561754,3.53935363279804,1.7694937219091516,0.5858420711460501,0.884107500083682
619,10.563406486572307,2.1326418585418634,0,1,11.0903395839887,2.915125605845519,2.8314695107379704,1.820721354973943,0.8374743451163058,1.1291333708650804
620,10.342529370685124,2.1585712159885815,0,1,7.963057931389733,1.1872840658745119,4.113508131761385,1.9423643662929067,0.6263060097515659,1.2344414732204945
621,10.12699083175333,2.159770909365963,0,1,6.957158055993352,-0.13669543846903437,3.276315650322611,2.0773774517140597,0.2629679103614016,1.118519655073347
622,9.935424464672444,2.1371593072311508,0,1,7.31729970524987,0.07934151366085804,2.9669871926271143,2.068186578115222,0.24462417655651875,0.9170953179238652
623,9.780374664531951,2.0941966979037954,0,1,8.657698694269419,1.5752841049874826,2.402280522900796,1.9934769477940106,0.14427612491447792,0.7185498663464108
624,9.667109598120085,2.0363985429442395,0,1,9.836169210495655,2.9286273367570637,2.1904416137454477,1.8750113646141209,0.22119004968565317,0.5820367667502678
625,9.594092159680216,1.970568943210455,0,1,9.95671491488155,3.310119266372533,2.205487892537879,1.7344780510991469,0.34603947852208716,0.5282424455465623
626,9.554720750097859,1.9038902318540598,0,1,9.279275445975186,3.0283136779079087,2.4915666329732233,1.6302897405455488,0.34999098840230186,0.5383208720590503
627,9.53967881781589,1.8430213844669388,0,1,8.81777869208405,2.301529667135858,2.74683663719333,1.5804051329506212,0.2715233281185385,0.576854307457596
628,9.539268298791768,1.7933417918333365,0,1,8.869963313470038,1.646106606062438,3.100122951887243,1.5747967552347526,0.21200510562966682,0.5953036048560069
629,9.545306752578718,1.75843626307486,0,1,9.199291902007076,1.1057359123734287,2.963440393381544,1.5888376277977454,0.06695397965742356,0.5754529748176247
630,9.552371603136713,1.7398646112379177,0,1,9.6441689060921,1.0789434034260696,2.704728360376511,1.6376995253892288,0.15184720530329643,0.5478042040653134
631,9.55830599701059,1.7372075629641095,0,1,9.461940766692496,1.1139663460043054,2.838082879775764,1.7131881818502583,0.23264764212868966,0.5199756916967883
632,9.563990538104523,1.7483400863245018,0,1,9.190911313562689,1.2529009265152338,2.737524808639549,1.6978104272114385,0.30614014373150594,0.5213236914024303
633,9.572486773258234,1.7698598255749065,0,1,8.651973266724744,1.5145061743542587,2.958731045623646,1.6503902837103506,0.3085648209138511,0.5707111888433242
634,9.587778358543895,1.7975934471079653,0,1,8.341415514076528,1.3728415051213225,2.9331971519799036,1.7171148089046655,0.15294541999832906,0.6107898669420315
635,9.613428731002674,1.8271125176953034,0,1,8.56044885977675,1.0837833399637324,2.8936109753428543,1.7538495462573476,0.05323965332381039,0.6250503887468207
636,9.651484152163286,1.854204808687306,0,1,8.961532743121523,0.8619431959893568,2.6672013119947224,1.7372280876158253,0.0193603567102847,0.6553985520761939
637,9.701858851994743,1.8752607319786163,0,1,9.242355342698646,1.3030150646551613,2.304472022314085,1.7912005037145737,0.04975831532480795,0.7119521704869256
638,9.76227804640627,1.8875469151563553,0,1,9.415037929093103,1.4309419129050842,2.749524624882895,1.8265113704589233,0.09874246238904902,0.7566818420417479
639,9.828689207924382,1.8893515759526494,0,1,9.874126222192395,1.4326511648022762,2.9001258991134367,1.7326650144845785,0.06971391889110876,0.7796731707729561
640,9.895941442359943,1.8800015987310987,0,1,9.902814720679103,1.7079043615887302,2.4757194852135664,1.6236390744668516,0.10520343555378266,0.7841143799068562
641,9.958510304558404,1.8597686670267957,0,1,9.43652777542648,1.6984451311579258,2.636747118340363,1.6416866401452643,0.125251929232515,0.7745180547299241
642,10.011110709817578,1.8296959231067706,0,1,9.151890079923506,1.642360373546842,2.8314072035158193,1.6374086578332054,0.06558368148625729,0.7774423025397876
643,10.04915462980782,1.7913803759542528,0,1,9.134046987044094,2.0379969284756143,2.7980170393681836,1.6087175326886551,0.053181357911117784,0.8016726417075885
644,10.069106618051592,1.74673909373515,0,1,9.062207754413333,2.033297989302916,3.125363715908493,1.5944508452655952,0.06875167382917512,0.8221374495731748
645,10.068816239701208,1.6977765353489023,0,1,9.293639134490249,1.690881895383045,3.393752591404803,1.5548916033812377,-0.04892903232343187,0.7993472881896538
646,10.047858893968316,1.6463649232216044,0,1,9.720018305161247,1.436677568652297,3.1887107422239125,1.4679190916386147,-0.0640889870154835,0.7179231915375006
647,10.007836393362123,1.5940528453546536,0,1,9.549945256014892,1.4335278081657397,3.484987594906335,1.3901004554703458,-0.03906334521781098,0.626448224590356
648,9.95252885470932,1.5419257832835835,0,1,9.497718956688686,1.443057907604611,3.0913844404524156,1.3394883003847406,-0.04985079761039343,0.5508170454062796
649,9.887783820946117,1.4905474698770391,0,1,9.286399682557919,1.6407510806059358,3.456186338727312,1.3245182216568028,0.029991014394459906,0.5140607398405596
650,9.821077135610508,1.4400046812442346,0,1,9.302798774878916,1.5337739601612068,3.3522997100285714,1.269584978948089,-0.05090173866437196,0.4856302302864718
651,9.760757490993832,1.3900581329131168,0,1,9.110841322802411,1.1520189416138578,2.989762045735478,1.3236651034619031,-0.07332605678870545,0.4629510185343169
652,9.715064338564579,1.3403739261536325,0,1,8.846353672265629,0.922137203033746,2.8683356469820014,1.3715745093868803,-0.13295827124706158,0.45285150086780507
653,9.69106588584433,1.2907835399612753,0,1,8.872389737690598,0.5210702661476824,3.3159788604822613,1.3304555216119582,-0.11751882107442,0.4679384768366535
654,9.693681898573507,1.2415069255872322,0,1,9.09271785026007,0.7495831570107154,3.421212254932258,1.242954712956522,-0.10056085295160143,0.4822479240868632
655,9.724926379822659,1.1932806217167298,0,1,9.288561367792777,0.8612648324440241,3.4227801750074613,1.1243849387421656,-0.038790379833402104,0.43684466897285074
656,9.783446903485544,1.1473597209144915,0,1,9.230257642127237,0.3963537321540323,3.7726921720046103,1.0614691998165946,0.09344547995138633,0.35486207157592975
657,9.864391457436227,1.105397703432369,0,1,9.032989106096881,0.1321912497343934,3.4253393001865335,1.0295988959627844,0.11192118633011111,0.26207538995438623
658,9.959626973572185,1.0692371008978152,0,1,8.865609652337815,-0.4018470830568879,3.061649471079786,0.9856543762222593,0.16018952414272686,0.202037869505015
659,10.058349734683683,1.0406577508396555,0,1,9.05431563317495,-0.8518039744994277,3.2112210079029824,0.9921926718754164,0.1953115909968589,0.18891314915512472
660,10.148117886709667,1.021128105216473,0,1,9.699883642834749,-0.8438067114888834,2.974798472810164,0.9852090543871661,0.14517019096283412,0.2231879209487109
661,10.216265905876131,1.0115947947220694,0,1,10.172029426877664,-0.6843638335031316,2.5991599740205125,0.9522363817834959,0.19934387561502595,0.2570649053839406
662,10.251549270326322,1.012333715523279,0,1,10.215091207418434,-0.8943695038426026,2.558651177290971,0.9447326953800415,0.23432099061963912,0.2822616439623752
663,10.245776601320982,1.0228769972041687,0,1,9.873755819417685,-0.9842753817603699,2.872504646982775,0.9109380103971961,0.2054565470410247,0.3364521873676127
664,10.195166133627852,1.0420248925996667,0,1,9.830103909034047,-1.0318608470715458,2.7083403611903316,0.8544105684598419,0.09094701087570038,0.4269264657150285
665,10.101212024223852,1.0679468998697297,0,1,10.114123090248036,-1.186420107810266,2.5345546388479425,0.8532255568887991,0.06876845149268078,0.5087686516811549
666,9.970926494554075,1.098367719115371,0,1,9.884022202956265,-1.2369898516376152,2.2659845964039023,0.945091871077605,0.05959215570666417,0.5589765439979992
667,9.816407730036818,1.130818216426406,0,1,9.371587611362084,-1.0578418061293615,2.25134641965547,1.039300137932727,0.08445801929516532,0.5721527408602279
668,9.653766970059015,1.1629123694700934,0,1,9.297937024274479,-0.5726786720866197,2.256538534796565,1.0968630819384013,0.08962446230406822,0.5703188082957368
669,9.501528228331324,1.1925970066358436,0,1,9.419076388534881,-0.128216813493959,2.1126979710699914,1.1654589746599018,0.11651671499493445,0.5925953712612946
670,9.378674097564115,1.2183211212297254,0,1,9.184514825060312,0.20159501570003988,2.1413343845846597,1.1663318142321342,0.14944299710808467,0.6034151692823073
671,9.302541601754612,1.2390890086274804,0,1,8.818134364598675,0.4182622045356463,2.0322947624594176,1.121993426292998,0.10922213445641896,0.5693431546402841
672,9.286783326042135,1.2543926405127095,0,1,8.82144556204822,0.7990609383690521,2.127915054737375,1.090366329697777,0.052947353326844804,0.50733509303743
673,9.339610054162712,1.2640542019643939,0,1,9.063375000039224,0.9391287488241101,1.898122054218876,1.1105264383307307,-0.060331956108096184,0.4397436861869581
674,9.462514963170651,1.2680374766707627,0,1,9.20782563159111,0.6495827044173434,1.7789824238948144,1.0923605031212182,-0.10164615696491745,0.36428192630514167
675,9.649640843481315,1.2662967717658085,0,1,9.130020010344063,0.033406205114638474,2.137674292312739,1.0776678365929901,-0.11637171744558525,0.29476205271122596
676,9.887900179786786,1.25872073057543,0,1,9.248577265124322,-0.42312893589610884,2.257800330576731,1.1275290651565522,-0.1392591064093943,0.25243135994524707
677,10.157900688443977,1.2451985323864654,0,1,9.646130320628044,-0.469212419817557,2.123497678361079,1.2104506400312582,-0.1593768356726572,0.26435521385329325
678,10.435657856153465,1.2257950687994659,0,1,10.151618803427784,-0.20024521822446123,2.07982273573224,1.2584640624740058,-0.13619515056219209,0.33989498785868594
679,10.69498236268792,1.2009813645512983,0,1,10.315120415235464,-0.20013147566711098,2.3478587173212047,1.2239413066026816,-0.0995963479804507,0.43904780221470835
680,10.910324338210994,1.1718404906014135,0,1,10.759543677785933,-0.01254692618275515,2.4095866309114364,1.172581135980764,-0.05702750354225845,0.5433962123993066
681,11.05976311391202,1.140167038776442,0,1,10.974556022082279,0.33422809968028067,2.309170905376022,1.1391208561672488,0.056192853276638775,0.5992415556704195
682,11.127771338731332,1.1084005187170722,0,1,10.866270101716049,0.48223301893288667,2.9390737895100534,1.0326614632584337,0.08065250963022842,0.6064424022067538
683,11.107364454898683,1.0793732692991262,0,1,11.170898318805165,1.4485200939054899,2.3251919361550457,0.9691478684195226,0.026316083301204628,0.5958902439997597
684,11.001271386468868,1.0559023543614179,0,1,11.215575183980222,1.4117754149551718,3.905032324671737,0.7789936970043044,0.15284172751418057,0.5695371456210395
685,10.821834528511918,1.040301794546338,0,1,11.188557809013908,1.2818207983087355,3.6917932865468472,0.6727842963199525,-0.021809295822213193,0.531736812280901
686,10.589485230613445,1.033923807051884,0,1,10.647625041886904,0.7887521632959944,3.437333614787506,0.6240294620754194,0.1284067858453237,0.48728128756321337
687,10.329865929106484,1.036842736083412,0,1,9.567050407919046,-0.45390429098742,4.059072072981733,0.6728880619058953,0.11372383347045341,0.41984729548932803
688,10.069967319924405,1.047765534499924,0,1,8.326109846389913,-1.2922621705264477,3.9773428609701917,0.8967707277711578,0.1943808151205636,0.38452150703233773
689,9.833943196153971,1.0641921553516385,0,1,6.950444959764076,-1.6404560903572085,4.521207079249827,1.1297190726887019,0.20979968714319583,0.43799973038178874
690,9.639444356493522,1.0827769963136642,0,1,6.350177374199195,-1.1994960769596263,4.691293570550375,1.21341791214033,0.17844388742807302,0.5496689407850717
691,9.495280650146562,1.0997878004819401,0,1,6.686801679333698,-0.1062706853557503,4.450560282744595,1.1031367592544197,0.01810699159546373,0.6404910688850352
692,9.400943923231617,1.1115462735081232,0,1,8.16092830281735,1.112947652029088,3.799286304851063,0.9043588748498204,-0.05731070036494746,0.6595072407511066
693,9.348058302400789,1.1147689381436443,0,1,9.770276642429499,1.612378289167552,3.108713394281468,0.8273051677245609,-0.05034389262636461,0.6189898454280776
694,9.323308271622656,1.1067852089763188,0,1,10.419804172506762,1.458585573311111,3.016488624721681,0.8470973793238911,0.15792177112225483,0.5497246894498127
695,9.312018030748845,1.0856595439364543,0,1,10.003793304868536,0.5111859592534248,3.4202382617465585,0.8966213892187396,0.2018504024303469,0.43921351282859655
696,9.301469336780205,1.0502648919666526,0,1,9.41410017414321,-0.24020975547241005,3.0069532351409136,0.9162961884060095,0.1687096782470719,0.3181838491179167
697,9.28327087038081,1.000345753409907,0,1,8.178134011109728,-0.08764901921648195,3.3441196017774635,0.9517662426830366,0.10940506812858382,0.2567566844443211
698,9.25449909790355,0.9365843951659353,0,1,8.046695779424681,0.028736334451875442,3.075713831321763,0.9391462336624311,-0.10262375126178433,0.21264501262046706
699,9.217715348506502,0.8606573941309708,0,1,8.500281398546369,0.010277671782183124,2.6357708040427577,0.8699131638569383,-0.26115011791323134,0.15441034180768462
700,9.180174109727497,0.775251489636711,0,1,8.89984352248216,0.23794914071812587,2.041166294013064,0.8047582977795461,-0.2831220632293077,0.11458567431055937
701,9.152548353638815,0.6840030018888306,0,1,9.173432481025383,0.5251258348511352,1.978318185898947,0.7076307670179097,-0.18873466496673397,0.0988383386638615
702,9.147395111492026,0.5913347524691859,0,1,9.237276332320498,1.009387696235616,1.8244814642666105,0.575576534378656,-0.08858643339552677,0.11363059433384581
703,9.177483263676399,0.5021845991825874,0,1,8.942148491359925,1.4108656761518552,1.805728560011497,0.44021860764981835,-0.04462960876113738,0.15667617879046278
704,9.254072407154087,0.4216425038993416,0,1,8.774901614078127,1.4312630541423077,1.8538305852354635,0.36005193116337536,-0.09610221556369136,0.1838743328506939
705,9.38526336668348,0.35453013035743913,0,1,8.818169288105835,1.2078496449956708,1.8989346247726397,0.27161368569756805,-0.1523482263828575,0.19210391971218532
706,9.574589153353948,0.3049644048638095,0,1,9.052132281866692,1.191639800853387,1.7083025464091812,0.1764588757188784,-0.20264909138434864,0.19100337646390889
707,9.820029305247601,0.27594692154614126,0,1,9.494728449183706,1.2114414942612308,1.8445885111539755,0.09895535441114982,-0.15240421710031246,0.17891727041297883
708,10.113591194302293,0.26902003708345584,0,1,9.991988800877849,1.2074875613683085,2.0529215885185894,0.0904973181249102,-0.10156478325550819,0.14283639735395262
709,10.441528294596392,0.2840300430324071,0,1,10.156486336267916,1.370845070739943,2.0809380514092033,0.0857608412769905,-0.1444547589961541,0.09260928092204887
710,10.785195262478508,0.31903426515076044,0,1,10.000743395817707,1.0064592857598853,2.1128711999382586,0.10763755527178841,-0.25879410800003055,0.048402270491538245
711,11.122494839291912,0.3703771983286299,0,1,10.465563583879344,-0.0016205214886502266,2.2187927084039702,0.16555816992232258,-0.35530859772653844,0.06191570641535063
712,11.429836250873336,0.4329409642973931,0,1,11.45285391517785,-0.28225873853916517,1.6826461147032237,0.20613274370522755,-0.3953532613073346,0.14438539102389816
713,11.684464803607517,0.5005546069878378,0,1,11.493823534343095,0.3754170350245199,1.1785698518936412,0.16055159045416703,-0.3193481231307031,0.21138502517541818
714,11.866930533977447,0.5665325904140271,0,1,11.439320870327276,0.9546210200556402,1.5600984731943108,0.1455534163881927,-0.3778406283927453,0.1572256062511022
715,11.963368970819221,0.6243044632513001,0,1,11.975526777869838,0.08445912724857131,1.9004770327784613,0.229739519766556,-0.48871782102634764,0.01169178456291545
716,11.967198223343862,0.6680855960963482,0,1,13.408536996585115,-1.1908041127211828,2.4665679537589735,0.5298545374464533,-0.46766578624632765,-0.2101509464046737
717,11.879816708817987,0.6935167772106929,0,1,13.395060617836513,-1.8508689935242204,4.838874558848886,0.736602163713355,-0.17498928638551828,-0.44992610650815573
718,11.709976105333503,0.6981761678972704,0,1,11.036396548113206,-2.418753948234461,5.533543798965823,0.76722309716527,0.004426759289598326,-0.6046425961789852
719,11.471790843516311,0.681860496010594,0,1,7.360782604525522,-1.5851822159956233,5.725938384106716,0.6929629156892849,0.19404454672561822,-0.5833965854511083
720,11.18181117407944,0.6465604170750624,0,1,5.771841677945932,0.39814906283071144,6.737612626444727,0.36418962494850365,0.030665206264111587,-0.49685899387699944
721,10.856014813583045,0.5961173540313538,0,1,6.490643820958893,1.7419486215247766,5.652724812366122,0.06136487634532092,-0.08063928193344737,-0.46580634554422856
722,10.50766830967989,0.5356244137504644,0,1,8.190906103097381,2.285260257688064,5.2160635102634565,0.09826656203747286,-0.17261047734702112,-0.39654798706936184
723,10.14666089993589,0.4706911606658217,0,1,10.335996725598322,2.3567712977520605,4.11196643368025,0.16957344171370156,-0.20012598216853106,-0.2945327747999075
724,9.780303820118029,0.406711194660842,0,1,10.135064360175233,1.2907721173600857,4.284896470554773,0.04835244921778169,0.10720068397175343,-0.20219834883654808
725,9.415052385955864,0.3482546187746793,0,1,9.304375294042565,0.8276919562221144,3.6329829551218507,-0.08419747004628099,0.046279530922511296,-0.14175010563976131
726,9.05839287244936,0.2986684546295704,0,1,8.91107143525949,0.319733880527717,3.3830499649023147,-0.23965088008319493,0.1452456515133639,-0.11177615713397111
727,8.720260837601822,0.2599183075897246,0,1,8.141291440684599,-0.41800680831548154,3.324378923456187,-0.29544648707655924,0.10951297383531969,-0.09492797114888928
728,8.41366150339194,0.23265349228721635,0,1,7.409881333392383,-0.86977372393618,2.8323452552525796,-0.2672176456863132,0.11780279212751009,-0.07888456003584096
729,8.154457999686564,0.21643858363774127,0,1,7.007582571980081,-1.012912815908151,2.7876197425971445,-0.2269067994225822,0.01771678418189314,-0.03322017897321219
730,7.960470918819339,0.21007810820197048,0,1,7.502190128772917,-0.8090539368892128,2.4238238491811743,-0.19333615329202752,-0.15103859414964974,0.026133883236960753
731,7.850071248954744,0.21196680324113534,0,1,8.204470814251033,-0.3629937868839952,1.7964047538541927,-0.15203257006240353,-0.23971612377349877,0.05565726086622718
732,7.840392425398458,0.22041483077881416,0,1,8.795689525821944,0.21787209217453665,1.0812552340100614,-0.04507503518705803,-0.21758497834445573,0.05885035565455806
733,7.945228393979544,0.2339163090764646,0,1,8.110937211864366,0.6094733452316301,1.1703980926871727,0.05745282376433198,-0.1028097068059111,0.004888159530812787
734,8.172715519825879,0.25134614355835416,0,1,7.624020944487834,0.5120681323194726,1.3245439778618555,0.12810808309672128,-0.16873238060228457,-0.08120344474475405
735,8.523035532721316,0.27207999521044085,0,1,7.888960375493906,0.17046863430457995,1.3385338589406615,0.20871558082649422,-0.22156968402062993,-0.1450315647553083
736,8.986544515628067,0.2960315248678464,0,1,7.973554120663894,-0.2851461691545082,1.8888225693939296,0.20052822521112404,-0.2565271485369365,-0.1638775512511482
737,9.54281366451874,0.3235940012613656,0,1,8.45001768853644,-0.5558990506366575,1.6543766835279299,0.1888060884967112,-0.3495247519168736,-0.14930952146888832
738,10.160997247958917,0.3554718525739062,0,1,9.158771445694263,-0.402594676005846,2.108976941039553,0.2225725450233547,-0.32214572733396396,-0.14296448798331954
739,10.801733974822948,0.39240061660157993,0,1,10.263384868302243,-0.3068396214296389,2.5791632461036333,0.3456301837750247,-0.3095381700068421,-0.1747316008414794
740,11.420496307807609,0.43478010761933256,0,1,11.595164807051207,-0.08738054169178193,2.2772807308541956,0.2869753805781352,-0.30979749193120826,-0.1356563779721991
741,11.97200340833152,0.48227833278997356,0,1,12.18817074674895,1.1042402894311587,1.4090681331323962,0.051436487764972026,-0.3312994402598066,0.01403027994994868
742,12.415087926002004,0.5334935330570856,0,1,12.457271807641655,1.782797068956873,0.04658846391816269,0.07646985561725264,-0.28842382865190697,0.15552631201492798
743,12.717308056109973,0.5857768967811504,0,1,12.657349513960401,1.3461655380469468,1.1934385021381149,0.12120626047353936,-0.19807199990092247,0.22490036498856694
