id,ASVM,GSVM,walking_nonwalking,normal_abnormal,ax,ay,az,gx,gy,gz
1,9.848065390981057,0.2588821265851894,0,1,10.277435725862388,-0.34060614199959877,1.4448256032615499,-0.22520005076702734,0.1494862947656467,0.029962442585415215
2,9.823057086624676,0.2630043573975235,0,1,9.970966719942492,-0.428972331049979,0.9994289974139156,-0.24528240330080778,0.20925802369959481,-0.005979582653530946
3,9.780463813825236,0.26186196131374484,0,1,9.537730614213359,-0.5347267513105757,0.6526442550191495,-0.18139930998259504,0.2325073006502744,-0.05567008336565765
4,9.726114939517196,0.2567906428051344,0,1,9.630561882173382,-0.7202871715054042,0.6983893960498296,-0.12161154272912435,0.14330073699070256,-0.10819482204793988
5,9.669497070187148,0.24979095461975687,0,1,9.850013141870265,-0.994089906515049,0.5423177195084075,-0.05197115068748922,0.21164247084612464,-0.1389172933995539
6,9.622778777007106,0.24336810427795405,0,1,10.049292503066622,-1.0171355143168008,0.7381973853774949,0.013947744874743824,0.20231843582852418,-0.13395380511199886
7,9.599209260650964,0.24030895806268426,0,1,10.146232030404096,-0.8252141157609009,0.8485090743339659,0.046893587284146825,0.25393330358539845,-0.09976301560331745
8,9.61097323733743,0.2434138781977358,0,1,9.860313749368531,-0.5576542792651087,1.1963934402336958,0.041556058888607784,0.26064575863574196,-0.040640171206038876
9,9.666688656729871,0.2552029095170961,0,1,9.692138268041054,-0.44882121891062365,1.1513759232843481,0.040254915315636866,0.19697948483637817,0.039177219873177724
10,9.768892836732089,0.2776193807365012,0,1,9.170310504834909,-0.22503070763696043,1.1429909739496604,0.07352949268781149,0.2631435375000281,0.09206767259966014
11,9.9120273787822,0.31175834630756355,0,1,8.467386733587194,-0.012028016995194186,1.44748420151299,0.15279687983100865,0.23227058697284603,0.11459024009280643
12,10.081525158922236,0.3576492831388596,0,1,8.031098860611161,0.6481855005592484,2.30558134431564,0.2740645015886523,0.22864609922188192,0.1345073775826055
13,10.25454354161237,0.41412110808069397,0,1,8.438006894411808,1.074016024587628,2.423502477624891,0.14861465206245356,0.25553504795726517,0.1658402759589237
14,10.402626242232206,0.4787744789443458,0,1,9.688669634675527,0.5375232306607168,2.868246119561368,-0.04465054839916065,0.2866539872283521,0.24800375854028026
15,10.49613478591336,0.5480812069854348,0,1,11.225274471009183,0.49437439754863827,2.057522844360804,0.031666974227616905,0.42055623859151015,0.3193250937720888
16,10.509789722763847,0.6176201689822665,0,1,10.970797661495924,-0.19936691297428674,1.0574450883355555,0.11244499380071395,0.734735602322746,0.23445449613461994
17,10.428276001190504,0.6824431156393013,0,1,11.150801910780205,-1.3250997537903682,1.5192060113625556,0.2623912730871411,0.3521846428804851,0.07528730792158445
18,10.250724404256168,0.737547864640901,0,1,12.855377195671633,-1.6087749162692468,1.4618820730674837,0.42785801580445915,0.28840714021848274,-0.046782055376058646
19,9.993008609247145,0.7784226107001259,0,1,11.81118142428366,-0.8916334548626129,0.8290823917144104,0.5110737431072158,0.8082889201382523,-0.09731419731380768
20,9.687166785429588,0.8016061071374501,0,1,9.70249050461474,-0.38840926908652024,0.6387724052591006,0.5667506519447366,0.7726362660897066,-0.11952490077044839
21,9.37782310879246,0.8051827261562059,0,1,8.995827908503504,-0.29212949375477704,1.1184330224346895,0.5851391034954403,0.6572856442497186,-0.10388408207599015
22,9.116134520495319,0.7891162172709211,0,1,8.478577484326689,-0.19585319708386495,0.32282718658239595,0.5730751476679525,0.8096735856040816,-0.06652778963651958
23,8.95232386109443,0.7553406647821409,0,1,7.635609749448897,0.38410532611120557,0.128960827226264,0.5641047905354583,0.6798285214232739,0.007258476865621037
24,8.928118905940405,0.7075711374542947,0,1,7.360988796156042,0.8784892673504215,0.04654777573460709,0.4301520336337427,0.4857329901502763,0.08208553640138123
25,9.070366432577831,0.6508536984129127,0,1,7.358735337109077,1.291067148270423,-0.36854453469241616,0.27908606314582,0.5546164407347498,0.1448793763501737
26,9.386790519295758,0.5909273591116023,0,1,8.659964040117446,1.685634018580766,-0.3475268170549721,0.15465357714484118,0.4169624854836658,0.1778387178919658
27,9.864398094326429,0.5335053065325819,0,1,10.738126870695437,1.5667321980826088,-0.343449157348405,0.07606481742835808,0.3525453382635448,0.1864114900717306
28,10.47051699203627,0.48359168126064955,0,1,11.03045894576107,1.2915059059375291,0.3543661896546698,0.0561422177638916,0.4968292746281523,0.10650945150399078
29,11.156037452719131,0.4449353690732532,0,1,11.16615724966554,0.8057450528567051,0.5219253784990098,0.012055785401792966,0.23395539725658349,-0.0490653438334638
30,11.860238140062902,0.41969259239240936,0,1,11.110204209028508,0.37117344878042363,1.248766198561491,0.08416684101440104,0.2845405861529015,-0.20554912538765557
31,12.51659815800618,0.40833388659692493,0,1,11.654464208210005,1.095335291038696,2.040700911825143,0.12829839654481473,-0.01583981593951257,-0.2840857405522072
32,13.05908441869609,0.4097917761661374,0,1,13.203875960174852,2.0944748026042377,2.599077397846472,0.26244100156638506,-0.043149482537885156,-0.35580417481028626
33,13.42842559455206,0.4218052697700236,0,1,14.664582979768777,1.6772962531758597,5.316048615732253,0.1607498237219004,-0.24155132143268768,-0.44318174681045436
34,13.577844534029328,0.4413831875633585,0,1,11.629756739801076,0.6281550197910065,2.21772476149104,0.034516942827593704,0.36792658868230516,-0.3859627068294182
35,13.47773021094779,0.4652910366929524,0,1,11.040852686308082,0.6527982727750378,5.6602197683012845,0.061602766845878426,-0.5173650588084684,-0.28598140141971656
36,13.118834196405706,0.49047243197237234,0,1,15.004586594510526,0.8038183383500598,7.031985643461792,-0.35286242579830934,-0.5258031722392966,0.017886802699517455
37,12.51369773056348,0.5143442180354894,0,1,11.821724100583396,0.2614407761376821,5.98544820310678,-0.3846699980463774,0.30678868032977424,0.073207780677056
38,11.696119934018256,0.5349460313788568,0,1,9.47167813035024,-0.16424476949246145,5.9482413508652385,-0.2742145639842791,-0.32061839792707136,-0.1994332984273399
39,10.718665011795993,0.5509678076714798,0,1,8.344452421243828,0.0625934887061892,4.670022289398267,-0.25031259137596346,0.14176984619566366,-0.42240181304977187
40,9.648506374346793,0.5617092609245327,0,1,7.228496837732473,0.6636431186316762,4.374003082543555,-0.1303494105403845,0.039023309161937914,-0.38378376024002187
41,8.562144278346569,0.5670340593478852,0,1,9.081434271071966,0.8275952722219742,3.7771339378029096,-0.27955223949468094,-0.30304136507658075,-0.04797771230706477
42,7.539545126817857,0.5673668280773961,0,1,8.333398217796091,0.11819173873760046,1.776779676846892,-0.3723595378229775,0.46773614299083927,0.1597196963855987
43,6.658103727440908,0.5637488431003016,0,1,5.754544065918511,-0.0025278313085292294,2.4042845351133924,-0.46694357350789156,0.01675491778602644,0.09862294124444221
44,5.986734119938407,0.557928641688842,0,1,5.5780125403137975,-0.2437821890097902,1.6796079353497206,-0.6064375132011641,-0.25927526557678665,-0.09771050171163176
45,5.580449287594218,0.5524296615865024,0,1,4.431390465586347,0.16389258884291708,1.5578489992869906,-0.6256126905866635,0.2215105345444136,-0.3067772410670886
46,5.475901071551161,0.5505199978643869,0,1,4.344674951248675,0.06217367473618821,0.8247001209777557,-0.6818053632529287,-0.14577990437772875,-0.4236749865159429
47,5.688368006649062,0.5560175533717288,0,1,5.068668015960101,-0.8005416356322308,1.3007627535308406,-0.5445485324114144,-0.10387066903230974,-0.40982415836119074
48,6.210538869114094,0.5729012468187201,0,1,5.644690000208581,-2.0948066613740313,1.029554451305201,-0.4229852166955686,0.14213067400593746,-0.28872634185960117
49,7.013187507344143,0.604759161141695,0,1,6.349033405501594,-2.9286745875011997,0.7449513248409595,-0.08828249585169755,0.07704025779253518,-0.20488134453313778
50,8.047564162266077,0.6541644731700957,0,1,7.776283304031218,-3.050692095358664,1.35591819509089,0.30232763688695524,-0.3342681937430255,-0.21265708008222647
51,9.249128030021996,0.7220982254223159,0,1,9.170788466119468,-2.927848570900664,1.5274581421507112,0.6931352164884437,-0.14190383196270853,-0.1445755269119171
52,10.542158625833473,0.8075183191955772,0,1,9.820857138761141,-1.973663390986463,1.4959250625056604,1.0474662150412664,-0.09097390629094505,0.10249794123100296
53,11.84479971473512,0.9071240726850786,0,1,11.91047150822282,-0.35266299199237533,1.4791247776045988,1.0412794987340894,-0.46625273704776427,0.3725138100203844
54,13.07416335575299,1.0153270733619,0,1,14.480335747266887,0.5630352866799162,1.1820518836335798,0.5984790727557984,-0.7595919693918473,0.4387898185804203
55,14.151211721339395,1.1244438305120357,0,1,14.946463405484803,1.5982221875364193,-0.5171183499903063,0.42824075056901634,-0.2386328080132501,0.30746085593236666
56,15.005248841711762,1.22516517578693,0,1,12.365756982969398,-0.04533408724254911,-1.638934913826844,-0.00019684318305939394,0.27903152010455606,0.1094875072159735
57,15.578008999850228,1.3073785239707958,0,1,11.48985897602426,-0.7091295254922169,-0.9700970455299817,0.23494671753877122,-0.5639147373228383,0.07894635539683723
58,15.827417506937694,1.361358679387676,0,1,13.60808932542692,2.2996830386753104,6.813765260380571,0.32008403916578587,-2.3825068093608928,0.2811141573956529
59,15.7309217451895,1.3791899257791653,0,1,17.7899723786295,5.982700552089039,18.308981593690525,-0.26129979313528345,-2.1925254559030054,0.4957276621376732
60,15.287877010670556,1.356118551635746,0,1,13.627899168461832,5.317577812228101,11.728698837120623,-0.9988287278216398,0.9286672436503256,0.6391252279472349
61,14.520294090652838,1.2914837776229495,0,1,2.687806970297811,-0.5679264351951527,1.2258711063867527,-1.147775169240202,1.1571088012415651,0.4481765209887224
62,13.471731431793842,1.1889843181145106,0,1,8.192331996483833,-3.4139071057008112,6.315978672119827,-0.8156515753248175,-1.0626988119516732,0.5298397021890178
63,12.204872985914905,1.0562393936367782,0,1,14.2592726114893,-5.637776339459387,4.416948432934489,-0.3932847208130848,0.1222101269847977,0.40298039576046135
64,10.798505450110497,0.9037927669344041,0,1,12.32369575664464,-4.461551424786085,2.3374702476982625,0.1828752394714204,0.34352810184567995,0.01991604498905204
65,9.344007082459596,0.7438223967700005,0,1,10.50437060654461,-1.934903781413385,3.7059561778691834,0.3125993300325852,-0.20553192913791346,0.08978659903759717
66,7.940849368407545,0.5888327659619006,0,1,7.398592716646602,0.4931693105856854,3.2333823820065772,0.42256461057123623,0.4895833143627503,0.28809687860424465
67,6.690664974044067,0.4505297577679993,0,1,4.711986742374184,2.349902755482693,1.2432724992128854,0.3728981962079013,0.2557371167238877,0.372928191810001
68,5.690011081860745,0.3389584082864367,0,1,3.907416911027079,2.6527243899385553,1.3265872067814646,0.1663269703827975,0.18267464403910633,0.2251493973400391
69,5.022513031152938,0.2618886652151952,0,1,4.504890072689714,1.4350131704225024,0.5330836122985029,-0.07459299724498168,0.4897827409836663,-0.005427082516317159
70,4.751287998677054,0.22439850608157244,0,1,4.906859415375919,0.4200883964236198,-0.4240809315684318,-0.018240448333447727,0.2175313480660464,-0.10608730279041714
71,4.912458121222332,0.2286174393645403,0,1,5.692365079614189,0.39174993865032043,-0.3571205397674405,-0.0057837943005176725,-0.07481310102261066,-0.04001173660498909
72,5.510374214038219,0.2736276848345459,0,1,5.339400540711033,0.4729030670700216,-0.7808394329851774,-0.11045400343696272,0.05908284933920761,0.10267999867237897
73,6.515058697129726,0.3555492566901899,0,1,4.775804619342728,0.667475444220079,-1.2081909258784005,-0.1396722626148447,-0.007039210220676036,0.22334914176094917
74,7.862365198954493,0.46784099961959974,0,1,4.546641318132715,1.734061359187469,0.3426788231630011,-0.06081834287532022,-0.07720106883488402,0.240711657078498
75,9.457312119585685,0.601826710016616,0,1,5.909044008776825,3.2400173601347926,0.7837975611902892,-0.05662381114696662,-0.387096501439444,0.12799869993694382
76,11.180782673308508,0.7474110001800846,0,1,9.922136562241537,1.2911711916328734,3.514750380785043,-0.8865230584692637,-1.0297270123818165,-0.004932897546200761
77,12.899204614014064,0.8939004477775359,0,1,17.603407563935836,-3.332892724225312,4.939974494955486,-0.9197683871150188,-0.9074979775311464,0.03249236871511969
78,14.476107097084741,1.0308195692833428,0,1,17.07052765621837,-5.471044256031881,0.7031004763692611,-0.345054256314945,0.35051483715052945,0.1121871502788753
79,15.78401817301872,1.1486329812193614,0,1,9.772186234143163,-4.202973662158244,-2.872983820262227,0.6130728655659294,0.7568425653291243,-0.04671990357211276
80,16.71532323167303,1.2393409498627177,0,1,13.664865745199673,1.7583435568674661,5.623976736233736,1.029827720711451,-0.7190836379848434,-0.6381237469125498
81,17.191252692319335,1.2969545512478688,0,1,18.174899474794007,1.0187475073024232,-2.2937347062591202,0.08641987992285796,-1.2483029621426576,-0.7686097003531024
82,17.168543679545728,1.3178520394176838,0,1,17.34270290491271,-0.5558371563203728,10.842945295700545,0.48866422075319355,-1.2376271424381664,-0.47139147139894033
83,16.643275233759677,1.3009982591952711,0,1,19.71278734796727,-1.8429635546257654,10.822756240842542,-0.14784035179998373,-0.11488737131496474,-0.7205393025244745
84,15.651283058361184,1.248007411491794,0,1,10.165978901210028,-1.7388715563291697,4.773040960482353,1.015936657380365,0.49133008076287626,-0.8033352861305608
85,14.264896940359618,1.163037065634627,0,1,9.298607502235892,1.9084203883073294,8.126278737424425,0.9443231496959021,-1.4735178675298501,-0.7213785069757298
86,12.586456153414508,1.0524972513474644,0,1,10.831446304121126,2.906484093736637,4.744230651647682,0.8633486777792713,0.7090803820313765,-0.48188124279295924
87,10.739618822271995,0.9245603081700534,0,1,10.530271364762806,3.284827860221949,3.6560943528727976,0.21953915333753696,-0.12754137405993987,0.05199832159928829
88,8.859531066319368,0.7884970742021591,0,1,9.64757164765185,0.40269904900815556,0.944266187678524,-0.08360357228916244,0.7391784222705274,0.2523674215170773
89,7.082636699807103,0.6539258128745722,0,1,6.4155397172812245,-1.0058697748394003,1.5819483374637444,-0.23381261110882193,0.6224339211162614,0.12291707284740933
90,5.536684669915867,0.5300857069238349,0,1,5.362299208864452,-0.5193013201262157,-0.2699485687853092,-0.3059408609912074,0.12942934327150626,-0.09034240926326154
91,4.3314833293635395,0.4252161740241033,0,1,3.7454520946626424,0.18800566896584117,1.4259112251482027,-0.13227763647655844,0.21644634645293676,-0.3352540597511459
92,3.5510358226796073,0.346069673989999,0,1,2.5570506872950314,0.17096612041499956,0.41398448214827344,-0.09098230844146622,0.5839155957792002,-0.33253617683094233
93,3.2477126804393115,0.2975454701946315,0,1,1.2201017620275982,-0.525569330124014,0.30479035816822264,0.02235257761258469,0.41499485816920784,-0.1696710398125486
94,3.4390081373942465,0.2824194993757426,0,1,2.411896760587608,-0.918329005657354,0.8991282823633259,0.010520141823825598,-0.02115725106383196,-0.01701877473453576
95,4.10717148564823,0.30116283617050127,0,1,4.209381921917132,-1.0788728609257159,0.2655854135278997,0.12637133205448817,0.14099881367114447,0.01564602591718397
96,5.2016300160924915,0.3518734664229583,0,1,5.798687803996606,-1.0184629748785154,-0.3942317761502822,0.28346656830394495,0.05180471612198458,-0.05221652561408828
97,6.643730700275453,0.43036311673597566,0,1,7.357986731471061,-1.380070577336368,-0.6513866613291559,0.2849878925168372,0.07888698595476835,-0.13528233678952653
98,8.333075097304077,0.5304250470203917,0,1,8.004351551480747,-2.2230601126804155,-0.20111432937156562,0.348175328316716,-0.13532782237579868,-0.14095066428465935
99,10.15468742797832,0.6442701211248871,0,1,9.825209653543935,-1.404718613517233,2.0702071929486277,0.7946038847746093,-0.6262042810304759,0.05293962226211134
100,11.98639028453493,0.763080033063005,0,1,13.497223270776788,1.6077941085348957,2.347710472129992,0.8526286153493942,-1.048971525848889,0.16299127973737523
101,13.705960857066707,0.8776119840952965,0,1,14.530096152566475,1.9363144465590654,0.8478229333652957,0.3732427732135356,-0.24781119618111555,0.0007762165453123526
102,15.197857136507075,0.9788161429840367,0,1,13.03730874492828,0.07222118896370038,-2.1013226414449178,0.09716386874277265,0.24009635711144242,-0.13180303174171243
103,16.359542821110516,1.05848042978224,0,1,12.351879994618455,-0.6709177078111037,-0.09438977048734384,0.03575017971980145,0.46412408782956327,0.11004667952622627
104,17.107611689885456,1.109935758603922,0,1,14.948215778553292,0.2249009426673661,4.27275781716663,-0.06540759891984618,-1.5123841095024813,0.790570237386294
105,17.383802074458057,1.1287908921952032,0,1,17.981832728410787,3.735296827539152,8.98791469814457,0.2653582219133477,-1.7381032225017665,1.0026536224224407
106,17.160516242113566,1.1135586328969718,0,1,17.881771513350593,3.6417383297574344,13.354443565949317,-0.39908934575082594,-0.36716547974204966,0.9433815280529917
107,16.444916238266,1.0659864927139726,0,1,12.470796682128187,-1.7796044426131319,4.946011920394692,-0.40778598295787827,0.6264740755464218,0.7194440252583204
108,15.280532181525672,0.990968626120937,0,1,13.835802979498308,-2.2152140761540577,7.1458821001581425,-0.09579538594047715,-0.6510025867326488,0.5163728913839061
109,13.745721457106866,0.8960399286171726,0,1,14.640934216235305,-2.669246879953278,3.8828470812998175,0.0856212279205285,1.1387747500728274,0.25405045522630715
110,11.94891045974941,0.7905511455603828,0,1,11.53639550541225,-2.102325349958217,2.495058663567962,0.1701067717921584,0.5888742502697246,0.0010515764590464266
111,10.020976728667623,0.684664558494761,0,1,10.922980320023056,-1.0316452625560342,1.0059043570894497,0.17564145706608833,0.4256724745500648,-0.059355476783912044
112,8.10538123600721,0.58831552518182,0,1,6.749105329257635,1.4587500853450361,1.9316056554663679,0.2734514445820523,0.5442677466215087,0.0012978692767109533
113,6.346883340747992,0.5102749066325082,0,1,5.349308116403199,2.679789221176755,0.609068454294257,0.20669760769839454,-0.009614774455463857,-0.021729425771474527
114,4.879872921919395,0.45741976699247844,0,1,3.361909190479879,2.1882062979031494,0.6421515917720617,-0.01355930525560773,0.5361555691605575,-0.08200842509039245
115,3.817440129320717,0.43427500101785244,0,1,2.1679436394811424,1.4524980159419407,-0.04104396666736359,-0.2006349341110454,0.45621585212533916,-0.10476175102262548
116,3.2422206435773226,0.44283965771110034,0,1,1.621879307357408,1.6601288878343365,0.5228104246288249,-0.21584900752101951,0.21355357837092528,-0.1175328618514503
117,3.199822354294108,0.4826739594496927,0,1,2.6073434808437783,1.8857489548148487,0.19356989976463446,-0.2894265120994011,-0.004764489593529714,-0.14008766021654284
118,3.6953142215111936,0.5512007535538702,0,1,3.5368397358876114,1.680690513495062,-0.06776470347128417,-0.427421635914391,0.3292777414262874,-0.10417867204983429
119,4.692921600951549,0.6441586037607665,0,1,4.628775778365799,1.1896692638591195,-0.6117564005481413,-0.6942203150778178,0.40728309493716325,0.03480770997563418
120,6.1188151464159874,0.7561235188165926,0,1,5.315241566382725,1.107001114710245,-0.6334214023286714,-0.8840043641001409,0.4914318171192545,0.17982005507356963
121,7.866742337177075,0.8810009820283026,0,1,5.575919639042362,1.572536622063909,-0.5081446716876359,-0.8659529202476725,0.11737160596941928,0.2313169370457814
122,9.806166904621021,1.0123991899674787,0,1,7.277501661077621,1.259117408560789,1.4857971533057166,-0.9702161225151338,-0.6794859126195811,0.21068098050456746
123,11.792415555617024,1.1438359411312664,0,1,14.970820301558577,-2.9257920080323583,3.4932805588144196,-1.1550608288009172,-1.165426975820022,0.04824806545347566
124,13.678022846540975,1.2687956953767592,0,1,17.353396574922854,-6.372151899519916,-0.9743434934684628,-0.6133199107356796,0.168859972539318,-0.0072966900199088955
125,15.324184811931604,1.3807237972285484,0,1,9.762903716666486,-3.463377302440898,-3.5034828705368235,0.39292497171471674,0.7848993561324344,-0.021878059549398917
126,16.61126993473625,1.473095806446069,0,1,12.201118521880955,1.0526226284069053,4.536775384062257,0.5452439944930415,-0.312945409344045,-0.6093924080054346
127,17.44768487680913,1.5396901533522638,0,1,16.225298448642732,-1.7492245929925954,4.047073869168409,-0.13343610967185224,-1.5024211914853896,-0.9501215568452387
128,17.77662627266199,1.575099727527514,0,1,23.74604041769682,-4.257036442587607,13.80346053153836,0.39359373414678256,-2.119216886777036,-0.8472357454176439
129,17.580106990420834,1.5753852471350758,0,1,18.789593656337935,-3.215258901972794,9.591272305862004,0.2900160636650498,1.4786673512162964,-0.841310907854227
130,16.879533525159232,1.5386892049680527,0,1,7.328158304328122,1.5815262962879468,4.069705084330931,1.086222401232939,-0.8408471695777775,-0.7632588934635026
131,15.73259650965904,1.4656479013677621,0,1,13.568344476887624,5.6427525492372625,7.84683724587416,0.37162574145762023,-1.012924576942576,-0.669008495118894
132,14.22714558224744,1.3595300371701406,0,1,11.187155786952495,4.626296379572659,3.4244399500495484,-0.07779494739399222,1.364014817468951,-0.20628614880977894
133,12.473280821011516,1.226117583913555,0,1,12.4628553171942,3.009374808623109,4.460173048799299,-0.1263189019624016,-0.9046324316107918,0.12447150288337247
134,10.594742871341822,1.0733801859885983,0,1,12.317661141435895,-0.24148075048174933,1.8637662383071245,-0.46110204446044295,1.2421313106119096,-0.0960758709744762
135,8.720218081069277,0.9109830350044231,0,1,6.844785649923998,-2.671670220292321,1.197086656951307,-0.7000280727032104,0.9316326647467591,-0.3153063270982279
136,6.974905168326308,0.749643347130756,0,1,5.795741856296513,-2.5012167990643746,1.3730703325835807,-0.5433359165538492,0.0085739156110499,-0.4358813789160553
137,5.472710664432014,0.6003453524242999,0,1,4.519690181747523,-0.8741605892650003,1.512654927734473,-0.29269249984076456,0.3758238913123857,-0.37112939022933955
138,4.309534264768444,0.47345008828283974,0,1,3.4717040601345874,0.20472874071301073,0.332897525023477,-0.1311637936718432,0.4245002589516388,-0.19835507362185317
139,3.558070095956058,0.377777625007847,0,1,2.6424067129987634,-0.05680941570365896,0.4265972282307207,-0.11743148966553553,0.20347603238149642,0.011061477913581893
140,3.2643523788684337,0.3197689528678027,0,1,3.51363988770222,-1.1240209692444383,0.32348985019384463,-0.08851103678536724,-0.002256859268187062,0.14519319172810344
141,3.445997540732542,0.3028395262770669,0,1,4.857167813428029,-1.4472593299360579,0.020125718811037432,0.07150371961780955,0.03569173031104303,0.14838839750612956
142,4.09185391022877,0.3270170016266067,0,1,5.585608597001445,-1.1260635722302932,-0.741192416454887,0.19927660362595995,-0.09483481236150787,0.04439376177703396
143,5.162687937244699,0.388916728548327,0,1,5.140421494375089,-1.071838608660061,-1.0793982062343361,0.3624498049875538,0.11737281849639211,-0.10781504042880183
144,6.592693755344016,0.482058601501823,0,1,4.695990105903861,-1.2269351400832866,0.3619106218563459,0.3669486781778451,0.1462859825963255,-0.18022539054315265
145,8.291943717453025,0.5974804266420838,0,1,5.872605824013136,-1.963201625132638,0.946276487494171,0.5246945094456636,0.0012692393454455599,-0.05020354052027825
146,10.150173326713771,0.7245659198443251,0,1,9.22701628661628,-0.7693024525861248,3.270189835448089,0.9151639546582436,-0.5471928940076464,0.19845439654419772
147,12.042293509884521,0.8519848823127776,0,1,13.144133203323335,1.3326033841246945,1.3786197531543087,0.7526301550197273,-0.9063625608251745,0.2647885830034609
148,13.835737236761377,0.9686456865788664,0,1,13.359364344343362,2.460907890273781,-1.0827662509567106,0.22140305314010128,-0.4089593679434907,0.16826482153617997
149,15.399384189918594,1.0645905818146493,0,1,11.646848271366178,0.8065113406145186,-1.965980921195233,-0.0950860537855369,0.41257100656689316,0.03588638033635929
150,16.61354742798249,1.1318019275313465,0,1,14.486670276362927,0.7610248282941093,4.151851588910188,-0.23249477037357713,-1.0512459957796476,0.49277090305259796
151,17.38029106837228,1.1648870570571659,0,1,19.067771300307264,3.466964998865196,6.409347478027824,-0.1624854891467159,-2.033321523657376,1.0057115837978154
152,17.633025533944373,1.1615583897403268,0,1,19.416272763202823,5.517060304795766,12.67437415811828,-0.5456412690554974,-0.622022890529277,1.03103509430957
153,17.344005770503685,1.1227849642797016,0,1,13.854688289364988,0.07703994667185621,7.751193399242478,-0.965989722808563,0.6428753967527663,0.684579836314171
154,16.528406500563555,1.0525367488676873,0,1,13.539118515205304,-3.0482464231413853,5.4317749618280216,-0.38743895774915277,-0.3580469965251441,0.36663682048188045
155,15.24421398546747,0.9571668861746202,0,1,16.57490005747689,-3.472742031347802,5.325996427982393,-0.12530331738732123,0.20665185698819982,0.23654929934755814
156,13.587919914130849,0.8445922645048742,0,1,13.563861367094386,-3.3618600011373596,2.784835293602534,-0.029220262362905813,1.1960836210031005,0.07980237243244204
157,11.686527096138787,0.7234635138136748,0,1,12.186908052118403,-1.7184238262311529,1.5552459041711106,-0.0363109661068782,0.1322849829178316,0.08089855974360098
158,9.686665603367823,0.6024600464159375,0,1,9.08923219575441,0.3899153887611261,2.2632461457466433,0.11889217584177734,0.9174165707413197,0.11173210882167027
159,7.741879614652178,0.48975668978074743,0,1,5.755214835221028,1.7236047798296052,1.4467866408800083,0.15018190240564583,0.5925519839510368,0.10457157958942116
160,5.999413456444292,0.3926372784737219,0,1,3.8590111264834785,1.688699741331412,0.5922319922027535,0.20236284537694466,0.46179697694557,-0.007867006747690964
161,4.587942275382357,0.3172005854646576,0,1,2.9868032806443288,1.0631551546465472,1.070848556503191,0.10953791521476353,0.22198456259835458,-0.0731626188360111
162,3.607532260569535,0.2681145435793494,0,1,2.8646801009347627,0.812495323773818,0.2240211531391276,0.14228464939964544,0.28024712181329736,-0.046647926795110733
163,3.122700455717726,0.24840784565078822,0,1,2.4547970483330372,1.5251370857877822,0.3792717602026844,0.13677738983487395,0.0825987207100972,0.024854278554119966
164,3.1589178888906795,0.2593185717389418,0,1,3.1093370901543134,1.8272181150675963,0.0322757701456297,0.02522030995340213,-0.08944238709551505,0.07754273552052197
165,3.7024320579138803,0.3002317503138694,0,1,3.967576883990952,1.4155804969087793,-0.10648834957571411,-0.13609305797080543,0.08898890095535578,0.13114404276834016
166,4.702987235393495,0.368729475525246,0,1,4.639462747034095,0.7925438244880675,-0.5143938721495765,-0.35577113217109313,0.11573217951460506,0.22890889314191035
167,6.078914743690293,0.46075350775990354,0,1,5.39530197746127,0.23186162960618148,-0.7412571545643921,-0.47767722853808825,0.12155115751156292,0.3611405615351679
168,7.724089712389216,0.5708531301791778,0,1,6.458661690676878,0.6878032358371847,-0.034994013765439425,-0.3630860761243683,-0.020779905785291822,0.4095474211692125
169,9.516289960755612,0.6924767289281637,0,1,8.459388564108217,1.100835899454122,1.3178299547853536,-0.41729942996191927,-0.6027932483979092,0.3803894964158854
170,11.326435989014811,0.8182735070988354,0,1,14.226590323802382,-2.0607043603270103,2.2617153763864297,-0.7025762413327967,-1.01517961929185,0.2056655497128651
171,13.028033808053577,0.9403997638337567,0,1,14.945029533914179,-4.504343716868009,0.08837000572586895,-0.2805781263711801,0.1380143519964639,0.10585799918100951
172,14.506040241091473,1.0508630462110253,0,1,10.374382395565352,-1.8763191844962097,-1.1140135756796692,0.5026931508231935,0.3392201957881124,0.0853736019969716
173,15.66449598446588,1.1419658570706144,0,1,12.600143103472911,2.0034877252405083,3.3800531303732186,0.5484672844203412,-0.7127810354448512,-0.2379380238450596
174,16.43254026617034,1.2068940505707249,0,1,16.978427625298075,-0.5820402474462935,2.896394733764444,-0.35721277233676474,-1.3564591446359355,-0.47648739183382255
175,16.768512945755223,1.2404202358696421,0,1,22.183068096878667,-4.204126395637469,9.362587764050783,0.054427355837434,-1.4665109744801335,-0.661523383711334
176,16.661680901139867,1.2395999346377686,0,1,18.642054789464936,-4.065375879722367,9.517618411057537,0.25780300894651254,0.9940439753804708,-0.8684274205453361
177,16.131117033927538,1.2042920897467,0,1,7.707025424855335,-1.0573637231150135,3.038948823039351,0.865055510325074,-0.2288809827039344,-0.7775395076066374
178,15.221836280381222,1.137361228538201,0,1,10.8877429405888,4.576819692292055,5.963589593801054,0.6186196770446958,-1.3873943765101522,-0.7149762326470087
179,13.999187394086388,1.044490660866701,0,1,11.112284447582658,4.672317413179442,3.3192012120745154,-0.04977274379838089,1.1507357950978796,-0.5268211208698579
180,12.542939453915157,0.9336215183055834,0,1,11.459683387085597,2.1263113132923297,3.5282235162268143,-0.055462764660241734,-0.10014929750109008,-0.11111237804263459
181,10.942118559194363,0.8141149589710797,0,1,13.137392836652761,-0.7841726752747261,1.9574073978732773,-0.1187123034296779,0.6068463550545518,-0.014226779233928365
182,9.290847887581823,0.6957922441868805,0,1,8.526542367863414,-2.950488410239781,1.6872970905699654,-0.17393291214332263,1.173833224989484,-0.11643464469623309
183,7.684841059290126,0.5880097659192494,0,1,6.919744676817209,-3.6487430665930956,1.2561933910493046,-0.09771344659727797,0.06699323730056002,-0.2060830732269935
184,6.218038468990738,0.49887950076351983,0,1,5.995860726960768,-1.7497961497871406,1.174221230455333,0.15957393519275961,0.27791368425416907,-0.24820940846160802
185,4.979018321177995,0.43469396266300636,0,1,5.061019303869722,-0.03159613573489141,0.7199795199179837,0.31461265973686475,-0.09727803368966581,-0.18583532133405942
186,4.047023489558635,0.39958279417671794,0,1,4.819079516318224,0.7334688702420444,0.005699150906923185,0.40542525749284847,-0.05123172501619197,-0.12704485179555783
187,3.4876043354643316,0.39540227982182297,0,1,3.928764799301638,0.284591830309771,0.47960777470411003,0.36863937094553617,0.13717351296365435,-0.09977152302180009
188,3.348005835560574,0.4218294199673162,0,1,3.560481669537683,-0.6233813177164553,0.41474564363876404,0.3998585318388872,-0.003411486973145733,-0.06655638608083979
189,3.6525807285991827,0.4766086273345877,0,1,3.6815469667859566,-1.0892429197871742,-0.26086396782960986,0.5105130842049866,-0.020402736037839042,-0.04409443927378412
190,4.398698378815662,0.5558893356370929,0,1,3.7603699080280197,-1.0170093692578122,-0.8280112093270973,0.6619585136450535,-0.12550823311249235,-0.08711715995930837
191,5.553798160116895,0.6545943493860411,0,1,4.179671610872962,-0.44412630852706675,-0.6081527608598882,0.7788396188955502,-0.12003773532829401,-0.22494346992889636
192,7.054339465956712,0.7667701181524835,0,1,5.4921812164409785,-0.18415183937638743,-0.44918771857648127,0.6948380175225329,-0.09766939756955549,-0.2914598398058729
193,8.807358926482395,0.8858938310802916,0,1,7.189397514622584,0.05904899955606719,0.20849368310526156,0.6684374624611936,-0.5139034252561748,-0.16007228064286083
194,10.695109211784292,1.0051460818711224,0,1,10.52222519549597,0.5622623467537871,1.2518008069900661,0.5286577860284019,-1.0433463528340365,0.07316479274081895
195,12.582834349156435,1.117690955920293,0,1,11.945931881026478,1.4414789473014504,0.4809496271157891,0.04088566070148548,-0.43586322473512046,0.18540039392371338
196,14.329227622236663,1.2170226381782068,0,1,11.938258655140272,1.1406571456217256,1.2449140806540542,-0.3522582486838289,-0.3953378816438235,0.26886881232302706
197,15.798631733877377,1.2974200005925076,0,1,14.10155997157498,2.660438332914049,5.747618788042954,-0.21258539805909282,-1.4453566889768132,0.5289705240309838
198,16.873622146022917,1.3544825253556634,0,1,22.036381846081976,6.475614963402736,9.793195470850197,-0.33761095306496536,-2.2776622709076992,0.9986636402092078
199,17.46631652261986,1.3856254393926837,0,1,19.3946833668585,3.2140879418795087,7.118041160472439,-1.0812318171311386,0.8629613414574773,0.9835911406118043
200,17.526794064210847,1.390365843262452,0,1,10.975622268477712,-2.152409897202548,3.776458702891172,-0.706059148751126,0.4836393061713622,0.6181890377770483
201,17.047597554760884,1.3702960908895814,0,1,15.849887577157718,-4.9515252138381936,5.549878765547569,-0.11907342021891255,-0.8661401124907337,0.528335150630899
202,16.064196192436814,1.3287777806384806,0,1,14.932511907768948,-5.548206199749799,4.349788742594487,0.25629781345504316,1.3088520332032554,0.466938316754324
203,14.651923724469741,1.2704944543974372,0,1,14.672794671197115,-4.019082953981427,3.090056191599227,0.5207247257086176,-0.36345256683869653,0.4166059561091358
204,12.920013596538928,1.201012337371841,0,1,14.505456068566037,-1.2979252010798847,2.729303956511072,0.7669138749930365,0.5910674550491375,0.41945003270385434
205,11.003240017460064,1.1264364897224144,0,1,9.1740061913657,0.8586384570255269,1.3988883801563607,0.8728144504379427,1.077344591471493,0.48192069738499793
206,9.051708207350755,1.053163638560807,0,1,7.169463988390315,1.9870972615334355,1.1824560636299215,1.1076945410922117,0.4788574631390952,0.3845820374639941
207,7.2195195885987085,0.9876630679272762,0,1,7.419426393279671,1.120546826303039,1.2528483796304353,1.143172805349656,0.27025175088686737,0.276962946047204
208,5.653142046429571,0.9361949153918019,0,1,6.714350912939301,-0.06592471427272763,0.22110636201536954,0.9967808783868284,0.44629398886736515,0.19642495495349713
209,4.4802295162069665,0.9044124508669596,0,1,4.299365629936247,0.3205672078474362,-0.2608791193293626,0.8665760990692605,0.17694467119762455,0.18471859805004165
210,3.7994777325960185,0.8968702371384133,0,1,3.4647000036383124,1.5069096444792829,-0.43858598523650755,0.6617956085207334,-0.2907229652279392,0.21134617778088324
211,3.672044919234422,0.9165361051487654,0,1,3.591361514326486,2.312796300166149,-0.9117024616655439,0.4929819715530737,-0.14112018100056428,0.22161372324263803
212,4.115133615483987,0.9644498751911245,0,1,2.6182211016579156,2.338783444330275,-1.1880644911202494,0.49625235519324307,-0.058596712421004726,0.3023648669392456
213,5.098435105177849,1.0396656871182743,0,1,2.883834046419674,1.4531196348553947,-0.5985778290543082,0.49505478379933826,-0.4962096451422218,0.4898639842961853
214,6.544196344559026,1.1395525796647803,0,1,4.136675095095489,-0.5103597815397752,-0.37887237237948923,0.4324925471254132,-0.6908450542685928,0.7581696029455046
215,8.331596127972078,1.2604263014104842,0,1,5.264052004130438,-2.4149163612843716,0.7346791891565578,0.6301234187664478,-0.826337195242607,1.0651361675638114
216,10.305804533441075,1.3983810333400202,0,1,8.488762805245022,-3.760746629580165,0.9655330741265931,0.9090571194830573,-0.8693891012877181,1.1373624216095917
217,12.291499728961984,1.5501231301390779,0,1,9.819764393854975,-3.009576796642028,1.4024482674094596,1.3149801699666501,-0.5454774795054392,0.9270353952730827
218,14.109817909834666,1.7136030632028234,0,1,12.063581755698237,-3.600272217462193,5.354629721627954,1.297089905416929,-1.277732032169283,0.5644585342316568
219,15.596893078363985,1.8882914496999132,0,1,17.779802286120187,-2.8849941069936533,9.272601301341926,1.856577584404731,-0.6664865718495836,0.16550596767956222
220,16.621508817861464,2.0750248617555656,0,1,23.10077457666006,-4.330175736480619,10.852910733395195,2.0431358483169357,0.11946257892510638,-0.7011696499225226
221,17.099209878267143,2.2754303373457754,0,1,14.736536747124047,-5.698863844784464,5.471769891383602,2.396552901397952,0.6061120632022534,-0.9408112711738936
222,17.000789231672254,2.491012189036226,0,1,9.659610344009977,2.71300897868735,3.708220432759937,2.533882042190424,0.17296308116606418,-0.5686236976224727
223,16.354288593204412,2.7220544564595026,0,1,16.256457194920554,5.138622006699524,3.566305875196074,2.2636428252261407,-0.6769773292311673,-0.13020892201424564
224,15.240871743281899,2.9665594641903166,0,1,19.03118755430704,-1.04444284989348,4.6847465518001545,2.045418101035497,0.3250420998007245,0.292726409048158
225,13.785510611934829,3.2194853870957605,0,1,13.072350250477463,-7.891453951707946,2.3923809427929057,2.3768936600289874,1.9133774866732116,0.33250536022734306
226,12.143474056582699,3.4725211167422585,0,1,7.486170753541986,-7.771707786936199,2.310298292868041,3.1011518368191515,0.35103883092634036,0.43946549869617785
227,10.483736990572991,3.7145256385651058,0,1,8.805866002132921,-5.033356803625524,-0.06658310299850735,3.587531451691516,0.26436396942328805,0.5043660415843174
228,8.970873376990317,3.9325963764208485,0,1,6.863987266628945,-1.6942095865128064,-0.7055760132336139,4.020368571261189,0.7092222760194808,0.764239869500049
229,7.747441227146113,4.113579559287368,0,1,6.141161545565995,-0.1960207034802605,-1.3615177257592752,4.3299308340966585,0.2564341510136845,1.0574836505041367
230,6.918966139900326,4.24574199084128,0,1,4.974342365369264,0.10592303143679092,-0.3242474323565706,4.3071120307792174,0.5745136050868596,1.2518014807351856
231,6.543340253942484,4.320304798527327,0,1,4.894086805814979,-0.4238367437794686,-0.8468153149361284,4.215421629089515,0.42646157142562385,1.400934658771041
232,6.625905371445764,4.332589695245544,0,1,4.973632540570214,-0.03199584438152418,-0.6648884545747245,4.230596693919184,0.4111027356970145,1.462182103405058
233,7.120805674956305,4.282620830298925,0,1,5.1178214611477175,0.5227882223148338,-0.48909901037892356,4.152746548888198,0.28957059046303496,1.3977322989952756
234,7.9384543253649,4.175126281579493,0,1,5.721162139900334,1.650549784487552,0.800660712279681,3.992344597948483,-0.004354526225654704,1.2509579677272624
235,8.95819792299923,4.01896965321377,0,1,7.832713677337259,3.4314567188491334,2.3056601480728274,4.006234450038378,-0.3333388226313073,1.0612327246962654
236,10.044512508260775,3.8261083011381434,0,1,12.586525717956759,3.921335587617442,4.212542837554641,3.8389018853407704,0.18585726011026538,0.9895173351181841
237,11.064426833414633,3.610224435887897,0,1,14.625771545817186,0.3610750611615444,3.920853613136929,2.9224616376633383,0.6876675834546983,1.159801929674215
238,11.903572209170058,3.3852126649365535,0,1,13.353111186359047,0.7261792887983599,2.059302621825447,3.1239929020349795,0.6213991806731914,1.143981923548888
239,12.47853366611853,3.1637279030268752,0,1,13.124633781479645,2.721474149824491,4.088021636920485,2.956351801578024,0.3988239819113836,0.7792623824557148
240,12.744010516305531,2.955990622558887,0,1,12.707584953152,1.7762521480004636,0.7384113550382526,2.4237839657281524,0.5404958118518723,0.6260326456560317
241,12.694369376719546,2.769009337792374,0,1,12.489314073698207,2.2577643645203818,1.1720568905056339,2.334153437307385,0.20378883579604257,0.7194600665120049
242,12.360113342401721,2.6063184845820433,0,1,13.150349365751012,2.025401060107578,1.4884677341907946,2.217471180001239,0.3940880926307878,0.8065053851978639
243,11.800417910923665,2.4682457968572495,0,1,10.348348398024838,1.5613412878113297,0.6897601283397143,2.342513089067479,0.7898344554011377,0.9058348198805583
244,11.093225478400077,2.3526226754431754,0,1,8.815096303787849,1.1277005160652045,1.2617477591820248,2.456226568094251,0.1460250989392334,0.937685210132339
245,10.324517251219666,2.2557600679087564,0,1,8.884750388594224,1.303827843840125,1.61717683657027,2.3443862826564144,0.24318720057121251,0.9411475518342894
246,9.578291010420068,2.17346844977111,0,1,8.342106189231732,1.3404604691445343,1.5482240623279717,2.0664392332169847,0.33953333744264136,0.923083153579637
247,8.928437644321662,2.1019214951829657,0,1,7.751349111503014,1.7162280529692218,1.5485123488937211,1.9499084375641427,0.2067333160436808,0.8954145505380462
248,8.433192931478592,2.0382322947389118,0,1,7.289127619437701,2.7233745553786473,1.3346415516322305,1.9650239053852143,0.2520564747651951,0.8763562915942154
249,8.132290680884118,1.9806935514879973,0,1,7.577583329883666,3.4877562546923553,1.467387788757101,1.8366751473862621,0.2328640357171353,0.8996947175968885
250,8.04648125336539,1.9287033148473938,0,1,8.477354619090988,3.1168455164927873,0.8928106418695717,1.5977196225140105,0.2914699945263749,0.9714581104556007
251,8.178768237978494,1.8824494692600229,0,1,8.673819544791607,2.529333932966897,1.2738386567419206,1.3509708008977552,0.24085008439300748,1.1198007417224878
252,8.516596672271147,1.8424613235296927,0,1,8.839769106785692,2.163633521582318,1.586097959918579,1.163074988751916,0.061792477608988934,1.2348732513223908
253,9.034316054461607,1.8091522002414133,0,1,8.957195176520456,2.207985207711153,2.2997792207579417,1.1035089074596292,0.12305020216050362,1.2422637451434055
254,9.695495802212735,1.7824669924190977,0,1,9.215434941626492,2.0344856953257717,1.9654053688793545,1.0954131493905261,0.08097289373301411,1.172927512206471
255,10.454988153981592,1.7617132785897107,0,1,9.619467440856551,1.9975271308152391,2.1960055470695177,1.3256452212735301,0.05766068578918784,1.0266039057026797
256,11.260906570282051,1.7456015166936496,0,1,10.353507086812368,1.3209665360680007,2.3518147081866005,1.4806248992958688,-0.03695310762923734,0.8715934246742194
257,12.05684413249634,1.7324605777716666,0,1,11.076523271026906,-0.03824127925265033,1.4118575284394392,1.6025965805181601,-0.17267362661598878,0.7837575687451197
258,12.78466572107349,1.7205423596149767,0,1,11.215600449563729,-0.0900758559670469,0.9321411568006374,1.885298083561982,-0.033360351212931,0.7642041869835167
259,13.388067922090807,1.7082977882238692,0,1,11.955767426334518,0.80249572058597,3.8317109893030805,1.97468033657683,-0.2654581670841794,0.659786870673247
260,13.816827349514032,1.6945110788099176,0,1,14.452982368437635,2.883202665281608,3.931223897653033,1.773489916456389,-0.30696630698628413,0.35419763648908076
261,14.031305792045881,1.678228721848973,0,1,13.169446987958008,4.045286599978119,4.753756811471948,1.5439347538774584,-0.09612483978261858,0.074176937583065
262,14.006475908917073,1.6585046883215964,0,1,14.037199084371519,5.128787568269008,7.649361127942196,1.3739153479052146,-0.950795859190839,-0.04252357736919431
263,13.734639393845924,1.6340712386519736,0,1,14.27198721419409,2.8946467395034676,5.423340417042833,1.100977124250917,0.3300416181638429,-0.012359020212848484
264,13.226231513714223,1.6030967658003004,0,1,10.74476584701879,-1.103493280834903,5.926467591513615,1.1422623967672507,-0.0972390042556412,0.07609962027228938
265,12.508597682291153,1.5631845791745715,0,1,9.481550799065591,-2.1159177144867685,5.559827993083784,1.4543373711344265,-0.2663450133062678,0.10021157739729093
266,11.623189597315031,1.511697364230926,0,1,7.273420893864363,-2.634966263641516,5.511211981290679,1.5598138898757825,0.051912961674320225,0.1522438043754238
267,10.621983449887951,1.4463823235385291,0,1,7.893741526001469,-2.8960236370593755,4.620860451642148,1.4150686322479362,-0.08981695996795341,0.29252965661354413
268,9.563889040778207,1.3661629359918779,0,1,9.662925832340294,-2.018213650076165,3.236846030420417,1.5187062418197212,0.03317839952629424,0.48134264113973074
269,8.511551521661092,1.271894288331523,0,1,9.294562726666452,-0.5353581061453025,2.992914430648131,1.519491907526443,-0.12904678151014884,0.5896105351857635
270,7.5285017259752065,1.1668657595812069,0,1,7.760608679842985,0.5414283073324057,2.516536060777528,1.3679060898361732,-0.06271692090549671,0.5889868749958639
271,6.676354543025468,1.0568744729571273,0,1,6.0874692249321525,1.4456004824199913,2.479110802990198,1.1851591158715287,-0.023244030969648492,0.5582599777856847
272,6.0117873717531065,0.9497770456783543,0,1,5.358356292344028,1.410389904444674,1.6480867912576067,0.8464879260665625,-0.12585946069972184,0.5701933884327152
273,5.583248150067518,0.8545402156724747,0,1,5.433765295003833,1.568176375945973,1.4313775183517634,0.6507968999795449,-0.2956201785728386,0.5705310144192338
274,5.427566668901061,0.7799268835376252,0,1,5.325284844323507,1.4232264958375225,1.320874101062568,0.4349921116523383,-0.09552611182708155,0.41773471937112816
275,5.566776928389878,0.7330456966052279,0,1,4.749486252868719,0.9003083727830365,0.8405124088858485,0.2981470757198253,-0.1083148467247682,0.21608512934010438
276,6.005512104624496,0.7180402867949637,0,1,5.041574160761551,0.5446023244207491,1.405176105323397,0.24710749474213084,-0.2664044816063976,0.06382881893468749
277,6.729336178964628,0.7351874673869704,0,1,6.350447293449908,-0.0206517016893842,1.5743760692918756,0.2284253405963166,-0.11227029179147556,0.029387753451797102
278,7.704317002354214,0.7806080373691641,0,1,7.533482079911388,-1.018208526053705,1.1582418182741385,0.42440695098852266,0.04100136798413317,0.11071825593548432
279,8.87801461753793,0.846676279403481,0,1,8.326426309644953,-1.7731504928924386,1.7456429042910908,0.7934334052632319,-0.21240978062090982,0.2134304401075522
280,10.181895938458556,0.9230666813238333,0,1,9.882239463552592,-2.1507788299407795,1.648105795917262,1.0307705591510252,-0.6904917327941867,0.3089623062654855
281,11.535052614815246,0.9982361700436898,0,1,11.36584807736295,-1.5202468495594186,1.1473960274093749,1.2135081678565156,-0.35200232752455046,0.36969985799852156
282,12.849017511702966,1.0610518807957803,0,1,12.46127530391001,0.6241115306959795,1.2314350761417876,1.223469860882381,-0.7767809221197174,0.2985700729387432
283,14.033431140248602,1.1022690193394264,0,1,13.68406114511027,1.987609581873459,0.09318873552912951,1.0977482516673989,-0.6307844755831392,0.16750700787566702
284,15.002272903322462,1.1156369861960613,0,1,13.409859141259455,2.8832805446590504,1.2348588158477234,0.7283541940243866,-0.41292676119622096,0.19947420970143945
285,15.68030856830964,1.098526017444098,0,1,14.900198693274913,2.3309915413434967,1.900054435740681,0.11357432638494658,-0.7382443581012966,0.3385813078727356
286,16.009285483708926,1.0520676473441721,0,1,16.78492173370876,3.3444722417610047,9.406954458519161,-0.33005388443060435,-1.250583109933286,0.7595017333634289
287,15.95326055212581,0.9808534482184178,0,1,15.131710367120633,4.750595309332746,9.269181832000703,-0.73136632916029,-0.6154732052557871,0.7307729744776563
288,15.502412804602093,0.8922456008191806,0,1,10.149277172374187,0.0469495244305997,6.259092107847289,-0.5879629654503129,0.4607179533942145,0.24743622543109786
289,14.674909541841343,0.7953628435515606,0,1,10.949847276242238,-3.1165915740452514,6.3793817206773795,-0.35489765176334054,-1.1724371066801174,0.17752896341355157
290,13.516758380291206,0.699845796640458,0,1,12.964695405319334,-2.74010883055161,7.921634071436004,-0.030347152249159272,-0.1776191891411498,0.22708896632449382
291,12.09977686863631,0.6145649034076374,0,1,11.449373225521734,-2.008809625103554,6.748841073935012,0.003840862985348895,0.14427665269783035,0.15365368206313784
292,10.517728184456876,0.5464778922832093,0,1,10.263282864701306,-1.2135512209246975,4.251776523649911,0.09596543949707341,0.22479637499296118,0.02633841088531156
293,8.880553978564006,0.49983957415494157,0,1,9.414457460784657,-0.10560899171332118,3.9887816553537183,0.18751584691419151,-0.1354277950306935,-0.049905023380636127
294,7.306759028089617,0.4759006180696962,0,1,7.187017914675589,0.28713080220273923,1.2462987531430565,0.3222618467857896,0.39359387214298047,-0.0966261816705096
295,5.914358341697479,0.4731210611129034,0,1,4.415140984447784,0.10895392322497562,1.5873522079554618,0.48518523089444104,0.21843652366390623,-0.1710753078102855
296,4.811188033185439,0.4878111618305096,0,1,3.6834855737491945,-0.5875210178611099,1.1074273068140392,0.5268779265261782,0.04597319879414516,-0.11693410054421315
297,4.08562581656826,0.515034825947161,0,1,3.1668853900903247,-0.5504826218968978,0.32026051082823,0.6055629416174444,0.012293280870414435,0.0695139798320633
298,3.7987745707577307,0.549581749813696,0,1,3.2415578859612744,-0.06786540342824161,0.19136385017731947,0.6708804905713448,-0.2694368865895688,0.23446572791508996
299,3.9789483737681564,0.5868246339103097,0,1,3.278727210429988,0.4934557234453998,0.835968306388433,0.6946480657027675,-0.41716983723532364,0.3604407090826467
300,4.618967658303645,0.6233149137600195,0,1,3.8887832620397274,1.3815815086068337,0.9657096221808605,0.6721215827973669,-0.2979929586139457,0.419428655972052
301,5.676430155678461,0.6570302355696692,0,1,5.167892339391478,2.0252615053561556,1.092732669530383,0.5062924364390946,-0.032583299403256376,0.4300642881162379
302,7.076836646216114,0.6872661220211052,0,1,6.891482327176838,1.8662247200009376,0.7585950790131608,0.1299430879489113,0.1427703192695417,0.44512217222108447
303,8.719233709775358,0.7142466763358212,0,1,8.43794839538234,1.747588243138067,0.6661416323362239,-0.3364800369695638,0.28264817909405393,0.4804461030098905
304,10.483893714003052,0.7385876510176514,0,1,9.128217499796147,2.2978664740848935,1.261467298765838,-0.4763147144797135,-0.12876123976822415,0.46336010676266187
305,12.241467570619655,0.7607619075768791,0,1,11.138187367553169,3.565109487727168,1.5150177545275243,-0.28809744266119025,-0.5050979681253127,0.22817210492766934
306,13.862967745599462,0.7806971448927004,0,1,14.128094492187849,1.2950983694989928,2.5277383487388967,-0.38662554759442147,-0.27529924135771305,-0.06490658055502381
307,15.229825037381996,0.7975950669537949,0,1,17.046680700569805,-3.3622634636598243,1.0518601935264462,-0.5889543449577793,-0.21923453958949218,-0.2822744915504377
308,16.24314966702154,0.8100079587905223,0,1,14.591974366197071,-4.247235738222764,-0.5416726226991923,0.3646950850981531,0.374133780450862,-0.3591808096322102
309,16.831320797375312,0.816143247187813,0,1,15.687382367640136,-1.5064432281822098,8.355939064071562,0.878894714182448,-0.3526631187749305,-0.7807013379325971
310,16.95518420199815,0.8142988701794035,0,1,18.87444180855228,-3.0453743407141145,4.60585865752236,0.3044091111833504,-0.21167230940525827,-1.0066089244096519
311,16.61040544732244,0.8032887069488739,0,1,13.627570151824324,-0.14044509744422773,5.936629600199784,0.7757705274616257,0.3456066748150776,-0.6940473101900942
312,15.826841127361343,0.7827254365774494,0,1,14.837304210765652,2.707166567226153,8.107659516714836,0.3102431322885089,-0.43362162452223857,-0.6007114473341564
313,14.665123564681439,0.7530912393543797,0,1,12.294587172581814,2.232095496437529,6.0644158219829984,0.22867855737850917,0.09687735418837753,-0.45488687476585066
314,13.2109477596588,0.7156145865875216,0,1,10.480328373300187,1.4970968398490072,7.735954147181169,0.2014089193365932,-0.45613300919679445,-0.428310130431677
315,11.567728234852114,0.6720398359873397,0,1,10.329724698485844,0.6417320919084303,5.663037051695296,0.33982971101705356,0.3228321900531103,-0.37704027326037914
316,9.84834858060839,0.6243984497592213,0,1,8.787308507219679,0.8392170149301439,4.137493418817377,0.049757959613811534,0.26102898276848385,-0.23538866860942467
317,8.166712956420529,0.5748693932152888,0,1,8.076193940252839,0.24621494422547496,1.4615411660082012,-0.2961321729344192,0.3066216521026073,-0.10199859824134909
318,6.629780442161902,0.5257698273127323,0,1,5.1314666200254075,0.021488731640674195,1.433804111483816,-0.42795128468672705,0.5179057775521185,-0.03644875539083055
319,5.330730630134131,0.4796609848718246,0,1,3.8287037099572667,0.8897183667306485,1.0880188896425678,-0.45549723310196916,-0.09826162603348818,-0.0005990993735124304
320,4.3438277073363105,0.43950184175043533,0,1,3.3153961260443974,1.4758794404682385,1.1949789104141628,-0.545866996142327,-0.12093669208828299,-0.04305363532029864
321,3.721356413770917,0.4087512457705284,0,1,2.7392460186298067,0.3999329491246228,0.8708083257350966,-0.6753748772451221,0.05742565663206853,-0.11463100400776831
322,3.4926855179098633,0.3913184098569706,0,1,2.845806484352836,-1.1034842138312093,1.2340038981258197,-0.6060175646426623,0.005448439871364796,-0.1334991407817363
323,3.665141463395807,0.391292837510649,0,1,4.175287991196714,-1.7120323644230966,1.1868850324419387,-0.4930368690679221,-0.04480055061189616,-0.1098778568260619
324,4.226051259276523,0.41244315451436125,0,1,5.76939180320596,-1.9420307575427662,0.5109322703025158,-0.2596989690155657,0.029255433666549487,-0.1290206240573492
325,5.145141620567721,0.45754782723323084,0,1,6.994653388458204,-1.8189151483834423,0.09739119333042813,-0.009530744714501065,0.22406360180731763,-0.21313876354272474
326,6.376552524478022,0.527685334814674,0,1,7.163555462467619,-1.7450659249930827,-0.6110667707434835,0.19075730308342678,0.1828209576302512,-0.24623694305860466
327,7.860076042569492,0.6216415051999936,0,1,6.310448908934959,-1.791064612045712,0.7342521609333932,0.315344231697393,-0.025109354835226756,-0.17661299404045624
328,9.521772399812752,0.7355768974610577,0,1,7.261127904232878,-2.3780618214208142,1.3938905715512675,0.520936849648118,-0.07804941092197575,0.004922115351219581
329,11.274613489748871,0.8630448477883498,0,1,10.374876346989614,-1.3419514043958551,2.171704845879509,1.0465205418697099,-0.289404497299896,0.19843066514755892
330,13.020022706751284,0.9953802338144404,0,1,13.358952383421524,0.7775468926460757,0.826308558054506,1.039633970049217,-0.8913256866340481,0.18637093686484074
331,14.651058697149354,1.122418126240884,0,1,13.67915239526856,0.9990122927410775,-1.2124574298183446,0.620217437408006,-0.3972706654214506,0.03949837761635062
332,16.057675842677348,1.2334753098358788,0,1,11.892560471541131,0.5779060528151413,-1.757577833952657,0.1320868113053768,-0.11829916883028231,-0.01240079310748419
333,17.134137295437146,1.3185252329329396,0,1,12.716717534137779,1.901411837744336,3.5882524282851436,0.04364374373477312,-1.0111475343697809,0.39802841948665824
334,17.788217129973752,1.3694641670404948,0,1,16.568519917969546,7.69009184531089,15.148237033194505,-0.17662936686905004,-2.9945312480101873,1.0398415477483713
335,17.951215353493154,1.381276016674112,0,1,18.664536294510825,6.947795475580711,13.442199550348162,-1.0798456036357447,-0.1514802966723781,0.9985775868827624
336,17.587231752484115,1.3528255917427527,0,1,10.953224024812046,-0.805804224809256,3.8216579372282764,-0.8118028625125637,1.2415765943216268,0.5860443666102952
337,16.700045186934528,1.2870511983360582,0,1,14.813503786643759,-4.474381454226249,7.430304961376645,-0.46472342902150754,-1.5286708757330985,0.4532519632489446
338,15.336412079735682,1.1904956001363634,0,1,17.976148555176312,-5.843222071527578,6.106244144291297,-0.08567693781812843,0.695983408931109,0.04531466974380047
339,13.585186091875626,1.0723112771207508,0,1,13.401977598958725,-4.506182833579151,2.7033966580662274,0.20945567748526545,0.5484155648895392,-0.16807350704884058
340,11.572040234908261,0.9430044341217831,0,1,12.748186897904887,-1.363886400092008,3.3835828244334865,0.4597499511447724,-0.40808965703853134,0.02678498320220965
341,9.449928932124967,0.8132062480521084,0,1,9.416751374047124,1.765551985528948,3.1009014568700968,0.3716218518811433,0.6024845809306939,0.16232948248015708
342,7.3860011551851015,0.6926903090933906,0,1,5.881544013767949,1.7960856887096264,0.7658842929121534,0.3575188828775197,0.49158563713258785,0.08915448467743076
343,5.5463453849526685,0.5897353261320115,0,1,2.942221521287491,1.2750281184104795,0.9647163558968107,0.4845366222767331,0.5883796835675501,-0.07530132715041445
344,4.080420757944803,0.5108184686231492,0,1,2.1024196514420237,0.8063127383311777,0.15545586615620924,0.44667962600077327,0.28505046006391915,-0.10680566135013377
345,3.107122024653991,0.46055460418587596,0,1,1.336545275871667,0.9328772295297298,-0.4325614801041425,0.559357869643992,0.16260851913366317,-0.043455962115532806
346,2.7041165433348575,0.44177588607222856,0,1,1.698547196511964,0.9833315020075993,-0.05843901674667087,0.49629050003511155,-0.32877505762668846,0.06638175189173097
347,2.9015012284474593,0.4556614805615528,0,1,2.675358817541622,0.813746013828762,-0.2301550956335895,0.3198671266449273,-0.13818207087633372,0.17754896823648444
348,3.6801629961285425,0.5018612267743912,0,1,3.106552796218255,0.7314398942514957,-0.2538557635398568,-0.01655274039453816,0.17454722825729063,0.31112154937399983
349,4.974663740262716,0.5785927723249779,0,1,3.905761174806216,1.4005006964195719,0.056159613633561166,-0.2654223020457535,0.31429199978422534,0.4292092123756951
350,6.680072509311593,0.6827137318659208,0,1,5.0475453101087275,3.151722931120552,1.2664777459700072,-0.44674200672429165,0.1217469178403676,0.5037384351295678
351,8.661887915148537,0.80977198111681,0,1,7.590280465734397,3.9768842402385247,0.6307671364985555,-0.8414779130315687,-0.6642175033173872,0.5230622583982324
352,10.76795788473881,0.9540302828371653,0,1,12.059451748157285,1.5147934093628759,2.7325168338663457,-1.0508723378129046,-0.7132028475466337,0.42656290472932057
353,12.841108004494165,1.1084722534680054,0,1,17.271820916789604,-2.377272190469728,1.8625616603559147,-0.7750771573493687,-0.14534188626340114,0.11357187238397955
354,14.731154287716699,1.2648416422371191,0,1,14.878435682204422,-5.674869574388932,-3.9862798380410145,-0.21296860477824123,0.47615740315789984,-0.2148776799308829
355,16.305271705930682,1.413824947655893,0,1,10.315987928487726,-1.8917966880107249,-1.7083947907960602,0.8675205474644899,0.47684106212264166,-0.5507598374519881
356,17.456304259319463,1.545502415386468,0,1,12.623514532863341,1.3143995647509512,1.1351203664584688,0.25256888976819347,-0.11241609756311902,-0.9183103098316888
357,18.10915057890223,1.6501218270150626,0,1,15.809311939897865,-2.138710588186392,7.426339590968228,0.10573366372384117,-2.522194226931282,-0.7545641141241355
358,18.225336678940643,1.719114121273499,0,1,26.880474269792288,-3.433457843631902,18.362932145270438,0.2244814011019504,-1.2083720845088581,-0.7511389281435749
359,17.805324281394586,1.7461455860994897,0,1,15.521567402338,-4.958199996679197,5.612865803569484,0.5639199840110675,2.3523283686155336,-0.7358634027536026
360,16.88775793948002,1.7279589396345245,0,1,5.102221751046598,1.4979492635527059,6.7891937019498,1.6213411335324834,-1.7546356566577852,-0.5805725805727472
361,15.54536483493986,1.664814444349419,0,1,14.678208848906229,5.302720254908179,6.815173735382546,0.5604676047380385,0.005574219697580225,-0.5347277090082334
362,13.87819989247613,1.5604708632928865,0,1,11.049266551061855,4.9978035059230965,2.3306959748670466,0.01031374257985159,1.5329456767569511,-0.0071628046871444195
363,12.005425310560911,1.4217813485000532,0,1,13.004605937802443,2.2399055681250735,4.027734332030018,-0.19557050115612706,-0.982821395510187,0.32149645323347886
364,10.05653978523287,1.2580516028017594,0,1,12.03311294500678,-0.7441422922506623,2.3630165111860992,-0.4849210745157955,1.5158398851468804,0.14799532920961736
365,8.162485279819878,1.0802904820045598,0,1,6.7197276096428595,-2.3974406583126155,0.1851361224329184,-0.8052148676375613,0.8592709560617141,-0.11017823839878217
366,6.446898582049208,0.9004203695563121,0,1,5.271615236086666,-1.4928071388223503,1.5073720825725279,-0.542019594029034,-0.3729774537990713,-0.3349428021607032
367,5.017957256467592,0.730470698850565,0,1,4.120653897941331,-0.04725370833569458,1.4473013717371055,-0.46059137563439634,0.3678745712462663,-0.42182261499300966
368,3.9614998932038317,0.5817734363176331,0,1,2.0465882697884865,0.6913060257592524,0.2664078828956524,-0.2927997390111143,0.7597208277026203,-0.2439198434191167
369,3.3361276557483084,0.46419253994035137,0,1,1.3185143198141844,0.14555374356233725,0.9509959064557687,-0.2991756980194595,0.06839337438603722,0.005322344250958413
370,3.1707565137642617,0.3854312155417482,0,1,3.126991542081165,-1.0887160348444662,0.8004630689705515,-0.20117307575108978,-0.06132615862785256,0.1319435890809309
371,3.4646654979865903,0.3504698655699116,0,1,4.414250016541355,-1.7473779006147825,0.8909766651416998,-0.002137211058298549,0.23003502822460795,0.11610764074861728
372,4.189621589641947,0.3611903401113228,0,1,5.498239528302891,-1.8286048050445254,0.010188871515469487,0.2131636913011428,0.023938580900511958,-0.0515660731918006
373,5.2933477179448225,0.4162269901213071,0,1,6.196326648058748,-1.671407478549284,-0.5766174151736401,0.46392574413478815,-0.10321154710560348,-0.26585033972814986
374,6.7035918913463535,0.5110515329501784,0,1,6.011220007422005,-1.2220016557285993,0.02062284570883326,0.5168963554451942,0.04855700965861604,-0.3437988247284027
375,8.332339744479832,0.6382637507374225,0,1,6.663963122816488,-1.1364620388452116,-0.11875845980512548,0.42641423336583745,-0.18209030222332026,-0.20891746298048827
376,10.080091237878257,0.7880420874774001,0,1,9.984315054478573,-0.30843635865266333,0.6330197729749255,0.7463720815991194,-0.8589423032060753,0.06394895293469463
377,11.840357342009469,0.9487136708846864,0,1,13.405161024543343,1.5968584179117995,1.1595375621466018,0.857679838319645,-1.0612881188532106,0.12537203429955998
378,13.504541004257767,1.1074304752060742,0,1,13.877355552167716,1.5967730383201282,0.42790872119229106,0.32105284484098595,-0.3454227647487645,-0.016150738477745594
379,14.96727784571195,1.25098206378489,0,1,11.932853568861328,-0.5436896789020916,-1.8993009220385935,0.024467588882485045,0.20486174552665973,-0.0885748773711697
380,16.132282919904377,1.3668072222779315,0,1,11.569775377307467,-0.24071726654173975,1.620275300325222,0.21582852577795403,-0.4891451003125012,0.21913394150083684
381,16.91871098467367,1.4442263847672958,0,1,14.546557850939307,2.140524094280456,6.5268070093866655,0.14987506593790237,-2.3388537357976746,0.7184411140060329
382,17.26774219408577,1.4757723825375824,0,1,22.898259211095,6.44947199258323,13.122283620670876,-0.2389797742963459,-2.2715731003188235,1.2823900000750428
383,17.148544090974905,1.458323451430577,0,1,15.97985012847444,5.1181440970649525,9.484582246381784,-1.2377120779834672,1.433988460426069,1.2168695218789876
384,16.56240042668986,1.3936856941323752,0,1,7.931474152090165,-1.2164796991804196,3.5153695159467895,-0.8331260265841266,0.37270688317657313,0.5266642244149925
385,15.544097653343089,1.2884058232907416,0,1,16.156248975036682,-4.1487614417446546,5.2306124709818045,-0.35512587461870315,-0.9409890525105163,0.31274130417357987
386,14.160392343139193,1.1528384080153462,0,1,15.043088789528664,-5.761612363227566,2.6085963392418714,0.13359962808147732,1.420300842374085,0.0642107424754941
387,12.505867829321621,0.9996959841684777,0,1,12.401957977493783,-3.441429658204765,1.8978520134675594,0.14555678460753288,0.35845125954714985,0.13820956362172968
388,10.696510958454478,0.8423968161907299,0,1,11.462346484286357,-0.09493920371595371,1.796886239517227,0.17050126475183605,0.08507334784034574,0.34484175905694464
389,8.861302822577528,0.6935114187300111,0,1,8.296335281271109,2.2472664400063844,2.4384048295221117,0.11374457597640264,0.5780686338812051,0.358519985895811
390,7.1323298639595105,0.5635361823184669,0,1,5.650172180131087,2.405132692774669,0.24833093089613192,0.2592901996037335,0.4533056073163941,0.2145985815459079
391,5.634262026148425,0.46011775566982943,0,1,4.328066413660554,1.6749786393597124,0.7847282632910622,0.253275076459932,0.13418914620765576,-0.010689421411442633
392,4.474269287188485,0.3877460259236815,0,1,3.706018150911302,0.638799123660038,0.1697315020884998,0.21795114978509436,0.42872144496150194,-0.1298528826081574
393,3.7334500219188604,0.34785686358082385,0,1,2.5874849052190627,0.54342672641168,0.1629610794410908,0.3133944879061883,0.281858309574067,-0.09823956633782123
394,3.4606440269094167,0.33924546747168605,0,1,2.790202542113751,0.649556512960273,0.6516530203143972,0.353124659184331,-0.1965491543539218,0.004339758260505334
395,3.669179043210946,0.3586781859556257,0,1,3.3065678387741166,0.9089946644509531,0.9500644823340442,0.20455130438424124,0.06529596436604149,0.11180137700606603
396,4.3367410425969215,0.4015962873446678,0,1,3.693911546749279,1.0779861706869727,0.23697063761332643,-0.022574778266858917,0.2941844403366572,0.23399532484786523
397,5.408232271234242,0.4628183251006384,0,1,4.834980830165761,1.3027131703287949,-0.18787644522705635,-0.2853347165893381,0.2563693849434604,0.35554034093650216
398,6.801219759305397,0.537155694789545,0,1,6.071088586574043,1.4715735047570044,0.2542333675091511,-0.5621616230235316,0.37517656425374235,0.45186334575588966
399,8.41337259576042,0.6198582047669708,0,1,7.988216596928572,2.2301824560258816,0.5753243462378766,-0.6408016620675974,-0.1476190616733091,0.5155673621504581
400,10.131108792620989,0.7068194298415171,0,1,10.960962036259778,2.3828935479761744,1.0628118309426358,-0.650157188622923,-0.5639977216794517,0.385399809172302
401,11.838524472313992,0.7945130258554273,0,1,14.915261768828561,-1.0892398504175596,0.8741930552876889,-0.8485021009039523,-0.2302718603534947,-0.020190465765880558
402,13.425638868265974,0.8797018219261005,0,1,14.718238623246144,-4.034152746904776,-0.29994105923897774,-0.35127797145702133,0.47788516991056934,-0.3278109947785702
403,14.795184876312854,0.9590410354165444,0,1,12.768801307978146,-3.4125569643860603,-0.5964337566677766,0.23396141227136236,-0.05941708037006008,-0.3261394992750815
404,15.867641427074734,1.0287517623722289,0,1,12.043784658018666,0.14510025839780688,-1.2899903289512782,0.6521403394035167,0.37923175953927163,-0.3111439186785732
405,16.584733723241495,1.0845382776809418,0,1,12.947457822137782,1.2455954976284354,4.069485004504636,0.0037262117613603963,-0.5036971385357669,-0.3597289063201384
406,16.911837953281882,1.1218506701279245,0,1,17.164258814916664,-1.6133752702482684,6.084803297105001,-0.04649220653277213,-1.4378276224229904,-0.3945921789002805
407,16.839407475236854,1.1364754151568246,0,1,21.9236161701269,-4.214844781349694,13.733499407996389,0.1851245663459161,-0.36017930568454726,-0.7655131076422965
408,16.38296950457273,1.1253173914526609,0,1,14.3668330452199,-6.651771829789153,7.038664262259922,0.8502252604286256,1.1175385798968867,-0.9582922286927632
409,15.581061184145744,1.0871612868476426,0,1,5.973438401362209,-0.5455051400590322,7.0343340586273175,1.5291840648810293,-0.5100518356062984,-0.7615708102827293
410,14.491024574323804,1.023193034525146,0,1,11.980893435220718,3.5934339035488314,4.781612108320542,0.9318651290843571,-0.1596165427895085,-0.5823232908375623
411,13.183429721441493,0.9371294430019738,0,1,11.27609299643484,4.9981730742067185,3.127950724670649,0.49480324243409424,0.3263354178921641,-0.032113010477857626
412,11.736269971352604,0.8349266317207851,0,1,12.367995125759302,2.690612003735398,3.433575206475305,-0.044130998055271105,-0.4248303918012593,0.28030486978351365
413,10.229752274887279,0.7241585047027834,0,1,10.43691986854773,-0.16186410547710364,2.2332833551783438,-0.2204593568265468,1.0098090739000523,0.10610073209995104
414,8.741956122192189,0.613214979190223,0,1,7.959380430581146,-0.7647700317613466,1.9235868908169163,-0.31801122339665916,-0.08395899388229724,-0.22535136362697344
415,7.3453388759783325,0.5104584930761191,0,1,7.125476562470325,-0.8495635038594382,1.530555415296802,-0.2653722757639291,0.015201004628916772,-0.460495707849291
416,6.1040647426260914,0.4234395598938187,0,1,5.1179199186769395,-0.4585373449106739,0.8823963598209547,-0.07458290242628528,0.21273757970129364,-0.3725050256041692
417,5.0722100379530985,0.3582443993468151,0,1,3.831418178471426,-0.04049582303341578,1.4295568108657146,0.04460458504991754,0.05536664231781506,-0.17786518867031245
418,4.2928779582109495,0.3190318713242123,0,1,3.523075529318463,-0.742416995855606,1.6515263532755335,0.01431347208902793,0.23204222379318792,-0.032573220619418745
419,3.798105559502702,0.3078003925384776,0,1,4.185572426910215,-1.5856783511209325,0.7062951288885657,0.09984950256836853,0.15247173147640908,0.04055926554204662
420,3.609219508708473,0.3244001376765328,0,1,5.1381136864042976,-1.6515014737217435,0.6036528107708045,0.2871120726791524,-0.062337551319958405,0.056836628030242864
421,3.7371146894041973,0.3667706807384231,0,1,5.6010242717999,-0.9939174361186389,0.5306545954663551,0.4232285893963854,-0.11634672866945739,-0.01177275432302312
422,4.18193838751138,0.43134608860918966,0,1,4.8847357354604615,-0.3903233485880089,-1.010027790890907,0.5115946821742965,0.0010398294931525148,-0.13301728480715672
423,4.931944918268919,0.5135410214410657,0,1,3.709743004755138,0.02437803943260655,-0.9501182980670915,0.5891441398707877,-0.12129539271024382,-0.20659484206973394
424,5.961764769777792,0.6082237799387292,0,1,3.881860744339508,-0.2100232897787105,0.23140444910088317,0.6727259830355247,-0.1984288827133213,-0.22271668551947024
425,7.230778475283637,0.7100987090201346,0,1,5.823475433096024,-0.38949966391969243,-0.3640032108996611,0.7028812785799545,-0.2645440670133557,-0.2236663108959738
426,8.68245072116803,0.8139559561192348,0,1,8.929453597725818,-0.2608000185297635,-0.3364360789107468,0.7673236184259584,-0.5594028379481762,-0.27730757787417915
427,10.245283488890939,0.9147928704405784,0,1,11.01312375524538,0.6724069336881854,0.1676352009132222,0.7174909742541775,-0.6275364702928101,-0.23477979596097728
428,11.83564385648308,1.0078611426473028,0,1,11.462561638714051,1.8280622255596464,-1.069499902109617,0.683889005396769,-0.3636528267207973,-0.1274824886797849
429,13.362368977361198,1.0887392898036865,0,1,11.64976841883912,1.9229481100763333,-0.1458408822879657,0.2542522801816157,-0.49187834829161303,-0.07630083363302188
430,14.732872684698735,1.1535536623819391,0,1,11.724869485591912,-0.44256633590996186,-0.3030293924645291,0.24551086809083605,-0.13499924876891847,-0.07520422810811121
431,15.860363299851013,1.199441888980468,0,1,12.572972644681984,-0.6529490286676892,7.2901219584833035,0.15917196738496062,-0.9981692454074926,0.21637285329801467
432,16.671519973661177,1.2252469190540507,0,1,19.219616325912558,2.905586150506232,11.84717279944427,-0.2804103940303917,-2.1445550478100794,0.830185794023015
433,17.113547909228743,1.2322721376099401,0,1,21.792173943375047,8.316687288065543,10.054353142663656,-1.118132226895709,-0.2913363358115647,1.3628490873441044
434,17.159292096768883,1.224807104844792,0,1,8.643000438804279,4.881267296543401,6.100361759275982,-1.561038575365322,1.3109928924442094,0.807278905336272
435,16.809474648073795,1.2101465091908723,0,1,10.85400234835213,-0.7009418078031834,2.9822507076433067,-0.6431958870138932,-0.29752990162480003,0.28801375301174326
436,16.092039809112762,1.1979871484841136,0,1,17.488930440776294,-3.009193801698577,3.785313305136073,-0.5056263772431461,-0.4007586947173588,-0.07931175389388054
437,15.05931745716195,1.1993067651633829,0,1,16.886260182140912,-1.605090468843785,4.211486922438716,-0.8488287761787766,-0.113002653071441,-0.2810617248352095
438,13.783722502514324,1.2249765940907018,0,1,14.358039390157938,2.690711173812076,3.1528938564200346,-1.1132363150912268,-0.016287441893820555,-0.25194357863866346
439,12.352313810391708,1.2843727613480775,0,1,10.960621555910544,3.8370869063453914,3.1404525674385515,-1.4031584056342008,0.07711141401061844,-0.2856833316393093
440,10.86039007348199,1.3841669151117546,0,1,9.373131062033819,2.918372665919326,2.178012923583762,-1.5038007640960558,0.15005103677970122,-0.2982384552152143
441,9.404548495626097,1.527380268413375,0,1,7.752681586333633,1.8120581695572722,0.39856745563577806,-1.522006812186335,0.40069053536070354,-0.36332560189255514
442,8.075932123070286,1.7127377472095446,0,1,6.784853554304423,0.46399069079595595,0.3951819956701852,-1.5984635509771663,-0.10256839223593803,-0.365156639238296
443,6.954436143844437,1.9343642124182434,0,1,6.558945348307623,0.14328971839517712,0.601084542102714,-1.626259784365099,-0.045836499157095194,-0.35117972274346415
444,6.104399486017736,2.181890216527255,0,1,5.89464984439915,0.8762857909439026,0.7457916165914821,-1.8287035989732052,-0.012636024554252124,-0.3770458614055484
445,5.571915119961088,2.4410415850300207,0,1,5.695168962361037,1.8290851087190507,0.481370979880594,-2.1264271833281683,-0.3232541539454964,-0.46789260141938155
446,5.383521690181127,2.694751349991378,0,1,5.901538091317688,2.5621393759865314,0.1259427134685736,-2.5399429464900667,-0.40850538723572155,-0.5524529891479267
447,5.545816249964074,2.9247557037516705,0,1,6.307494442080665,2.6631672007794474,-0.14481271270807305,-2.831716383022509,-0.1237760448202897,-0.5744147106496649
448,6.04550977217765,3.1135413702526074,0,1,6.269093928348761,2.888175836233494,-0.1010126164179826,-3.0085634791419333,-6.074702085814977e-05,-0.6098873442771487
449,6.849631653516004,3.246429180503184,0,1,6.3461849244702435,3.2160555300611926,-0.8691312892908734,-3.326362849658329,-0.09136808366093586,-0.7068006012243957
450,7.905921452500121,3.3135254203960627,0,1,6.561621139809424,2.6357681888825972,-0.5093619060406839,-3.6117124081351193,-0.25382393243916895,-0.7550252450149055
451,9.143814270245478,3.3112550513879193,0,1,7.36029899486524,2.496804672816265,-0.711568671768638,-3.628806183826849,-0.1601079535350568,-0.8069438675685302
452,10.476685506059937,3.243215599146846,0,1,8.176869299895559,1.9107859293959837,0.06750076670857204,-3.35036456848249,0.095378817351385,-0.9180912159311173
453,11.80604556774516,3.12016404247691,0,1,10.047108390349777,0.03646163358379624,1.9716861904016527,-3.275037817860578,0.12119406446393086,-0.9405902713364367
454,13.028109656708125,2.959065048409212,0,1,10.762365263603611,-2.506960336081747,2.089228795551133,-3.0989759911815606,0.6015030182163237,-0.8501001120497554
455,14.042646038251686,2.781265594791866,0,1,12.010634061094104,-5.187917426890418,3.2431618649133354,-2.793726433591388,0.4585354944047232,-0.8619912068833185
456,14.763338114715232,2.609996400566501,0,1,14.438409285888012,-5.379732531510622,3.975858723487166,-2.051214772413118,0.4104059280740709,-1.0491308434744835
457,15.12824088718118,2.4675192926239258,0,1,16.456839029761355,-3.884834380421709,6.042535180683938,-1.5980923120791726,0.31593407344078994,-1.176711305708945
458,15.10846525051844,2.3723214800152994,0,1,17.649848272960316,-5.188971990548272,5.117901411308073,-1.7703822606655888,0.9109082719052913,-0.9537105332221334
459,14.713185226541166,2.336775966770734,0,1,16.78385093525358,-3.672145652397373,6.802974561330768,-1.5409906221438865,0.7324986856693645,-0.5312668676426184
460,13.989564640988759,2.365629302408901,0,1,15.242383498570279,0.6301488646435748,2.123355790791547,-1.4767351725811098,0.5379876787055984,-0.3013992600611411
461,13.017198758794947,2.4555541695294085,0,1,11.443987708120181,3.493449751030674,0.8740084330286639,-1.7956234092419472,0.9030265511200738,-0.4262974503963256
462,11.897898952819126,2.595832002169308,0,1,8.553137872360143,3.343092618973541,-0.32842192115165053,-2.6057542587842146,0.6276992241274418,-0.6000727936650341
463,10.74270091707708,2.7700294574611783,0,1,7.235972541925696,1.3967069265711003,-0.020721117346763674,-3.2383099097996673,0.3447494760990441,-0.6229413321454854
464,9.658474826190249,2.958346187944982,0,1,8.353571653035285,-0.19688676833205543,0.4789062354502555,-3.3593570025113335,0.2577658776251302,-0.6831657802395661
465,8.736324997417261,3.140205731804844,0,1,8.446409842159326,-0.564720424012641,0.1284200525603076,-3.2313523128912416,0.7664873014874203,-0.87105918661986
466,8.043263890508006,3.296676379219053,0,1,7.383274893270346,-1.1404191401649992,0.5547720879430953,-3.2362178637819263,0.3086143188746379,-1.1152103621013538
467,7.617792587708149,3.412422669043671,0,1,6.608931283788432,-1.4701417748620795,0.49030952217371193,-3.129971509629079,0.16344152417586116,-1.2921649194613294
468,7.469318982972326,3.477036282603959,0,1,6.559546272346214,-1.1641782563411465,0.22737090343531208,-3.128941323120688,0.09053545977989118,-1.365431671489869
469,7.5808751148558535,3.485718181556026,0,1,8.268247209916193,-1.5358857977788263,0.7248777776963257,-3.2092373271270986,-0.35903058430683393,-1.3335835245321994
470,7.914280000391332,3.4393561788841795,0,1,9.659755715967647,-1.2612347604724181,1.3680721507911542,-3.1785136234920706,-0.2467546333685267,-1.2999045303262797
471,8.416692759104823,3.3440697464018996,0,1,9.101197887174836,-1.3851138733051065,0.3115488502077549,-3.1532314554549234,-0.03296255478631117,-1.3389271840831736
472,9.027477464278558,3.210298329796801,0,1,8.688704342669622,-1.9921993791949346,0.7277652555683075,-3.1212874794430925,-0.2714157296384695,-1.2831437400283172
473,9.684505253849245,3.051512872858706,0,1,8.935311083772804,-3.1650563332146193,0.7868734680483286,-3.0129463563845817,-0.10254287923779341,-1.1554567526087045
474,10.329358478530759,2.8826472763348594,0,1,8.811094713456999,-3.493828570062982,2.976283726768559,-2.544027065894044,-0.4138665988889312,-0.9756285978614706
475,10.91119847833754,2.718380491519097,0,1,11.391771331525241,-2.20661490373266,5.212402793673293,-2.3586702973300495,-1.0872304021304942,-0.7303641852513479
476,11.389223356261088,2.5714403485387813,0,1,12.544488526077089,-2.4640959139257124,2.5488163329891513,-2.383962732837998,0.02811470080088658,-0.5721119812903098
477,11.733751593470924,2.451127699980867,0,1,10.090677378854648,-1.7879420356410993,3.0839481838486895,-2.1552391927762304,-0.2665327340453037,-0.41187674138944047
478,11.926153222771964,2.3622590974911275,0,1,9.771448629685462,-0.32648809481232616,2.551478389631968,-1.8798103846619496,-0.44267792943134654,-0.36086954239247954
479,11.958106967253686,2.3046926609278335,0,1,9.530358557428414,1.232886845217877,1.6909565514491751,-1.8169770539973733,-0.022989099078167426,-0.45774728560689704
480,11.830796517091787,2.2735323451329212,0,1,10.764981313435412,1.824732643960531,1.4971844687744889,-2.048788129721295,-0.5891802969550273,-0.5485633741817744
481,11.5544819812533,2.2600011374165407,0,1,13.015579161282199,0.9431703429693017,2.817625254477458,-2.331072901704208,-0.47337634478434504,-0.5163126637481229
482,11.148436312538333,2.2528518057908493,0,1,13.003067410086743,0.9823039474113076,2.8378605888163766,-2.3841674849803405,0.10794382048755764,-0.49348988328257454
483,10.640803515998089,2.240082711053406,0,1,10.898644722755694,1.319316885285893,2.1943970096057273,-2.291958723868016,0.3793696688559325,-0.6765124917445062
484,10.067809905194109,2.2106809868199053,0,1,9.375391490330397,0.44840317690182396,1.5402498818582782,-2.277507358712077,0.1819869240612104,-0.8803269991026991
485,9.471998816320408,2.1561331673939064,0,1,8.523690021101974,-0.22133471006543964,1.2940143576909557,-2.1821937943651384,0.19713051688432862,-0.9632901725276217
486,8.899546149801756,2.0715056352596393,0,1,8.562715166345422,-0.5192019443839003,0.963185713976278,-2.0221272862008077,0.059311336609004124,-0.8825155722026351
487,8.396972162634558,1.9559811248377739,0,1,9.004416059641008,-0.9344885579040029,1.2049066419794165,-1.8203039944356043,0.10714928814338583,-0.782108778207115
488,8.00759758754495,1.8128261366037972,0,1,8.247352414082778,-1.8198708789374027,1.0223114486410239,-1.6885516717558116,0.30163133172330997,-0.7084645854215755
489,7.7680109465459335,1.6488436135168805,0,1,7.0196114000424,-2.1206205783629533,1.0970577100342125,-1.5058995917222904,0.23716377429473748,-0.6378107286830588
490,7.704773442460662,1.4734245907372832,0,1,6.901412938609781,-2.3582628833046813,1.0928117938462616,-1.3312036560913822,0.2084779968584848,-0.5444127129423093
491,7.831629697706412,1.297348599514049,0,1,6.929302086240544,-2.2749120107574514,1.0590751260391615,-1.152988069322136,0.1293808834563516,-0.4006913699158578
492,8.147543219323847,1.131499188255411,0,1,8.07976715214038,-1.9808837652163211,1.023456110815736,-0.9433687918726871,0.05339274941307424,-0.2876171407219721
493,8.635859485974983,0.9856614647060316,0,1,8.08889679843263,-0.9637683735711396,1.0288846781639809,-0.6640708282727608,0.2736080014281893,-0.23686391121980974
494,9.264817008886796,0.8675516458078898,0,1,8.042867575914464,-0.23990785648675964,1.547946206618541,-0.5906772559440936,-0.004049813738469926,-0.2380902002900529
495,9.989515122180686,0.7821900845437341,0,1,9.530788496382227,-0.09975032897663309,1.723173282953317,-0.6462561656341178,-0.03118461424040814,-0.22303200617113186
496,10.755311641500947,0.7316688042441294,0,1,10.578024993340334,-0.2411517259350492,1.4123768890742843,-0.8002585577023699,0.14892193958313124,-0.12725806069127957
497,11.50244394453073,0.7152925366020119,0,1,10.663681411080699,-0.48224277268949733,1.405282395181015,-0.7759066460689211,-0.060838535918955404,-0.03386113203815194
498,12.171454076311104,0.7300093108113181,0,1,12.006844861556218,-0.3254726813272778,1.517154036279109,-0.7070351791975726,-0.40349141147007794,-0.05679577476236736
499,12.708793618017772,0.7710119430339772,0,1,13.016140876040168,-0.3133850672817175,2.337140207630496,-0.6059018020875465,-0.4208092022012236,-0.15941340520081024
500,13.071825767274605,0.8323895359139653,0,1,16.325401849184384,-1.5503085159673795,6.011944913372115,-0.6332116303161526,-0.9424385519986536,-0.27527527864906115
501,13.232399421129179,0.9077286468480306,0,1,15.222809382833526,-2.244101292734799,5.545915829250498,-0.7431672286083052,0.07224869023616394,-0.17042716584134895
502,13.178384733467745,0.990596207348358,0,1,9.343133347746894,-0.33477313906883743,3.54024860788709,-0.951970727993079,0.07375222153615904,-0.1226257390129281
503,12.913115388504348,1.074873099852093,0,1,9.616135872463067,2.381959651087399,3.766342122706268,-1.0396867062769157,-0.818728133058604,-0.30222428735584705
504,12.453374010557292,1.1549408694538887,0,1,8.7044798994195,3.771524692889628,4.237740218315663,-1.0574157580585721,0.1418654340196338,-0.4374729096605047
505,11.826938740459745,1.2257511497698508,0,1,10.211745768770356,1.9120102601704796,3.2823630300054356,-1.0974578691857855,-0.11678318378782203,-0.3942292408450348
506,11.070508968044491,1.2828328994199556,0,1,12.019499501002779,-0.3494002006815403,3.288974312575262,-0.9899887772182185,0.034772907630434335,-0.28939259153497815
507,10.228221672265727,1.3223153001650532,0,1,10.91041955363299,-0.8386367860168302,4.498179046436348,-0.924261125066022,0.26060516404283063,-0.28488546422756467
508,9.35038635458634,1.3410465912367964,0,1,9.9329023734475,-0.6103059176245125,3.7015139465612865,-1.1236157177447865,0.28451586526330447,-0.35203621856122225
509,8.491830854372466,1.3368535569071132,0,1,8.507582084283257,-0.5213142678506909,2.1528226528544185,-1.3019139749028028,0.49137350968258015,-0.38466032323650523
510,7.709413835609354,1.3089180803360934,0,1,7.036022847534794,-0.5490935231839441,1.6624188463107488,-1.419210679730855,0.20703191600126886,-0.3571075864372117
511,7.058647221653318,1.2581762424754497,0,1,6.716458961119898,-0.8538242333491278,1.3331452456595259,-1.4113774189384956,0.1484940603939596,-0.30754842075289723
512,6.589740362135625,1.1876067764070872,0,1,5.88585994892309,-1.030384013603408,0.9809084672975168,-1.3118506667901555,0.21178218469190985,-0.25518006625248885
513,6.343574193596895,1.102285270359888,0,1,5.437247653415173,-1.380876184673627,1.2584890409518679,-1.1257393247189902,0.04924302631269271,-0.2847901086355594
514,6.348123439618595,1.0091285713979243,0,1,5.63913870522132,-1.9164640517766,1.534468041875251,-0.9861335452697301,0.16155612461480698,-0.3733804772532968
515,6.615731491726033,0.9163173655741441,0,1,6.058759474388469,-2.789325916487402,0.8988745579332537,-0.9482188378554675,0.18577640133360723,-0.4239653458187468
516,7.141479582918162,0.8324446246842516,0,1,6.807583428769231,-3.003920379489089,1.0557930618840663,-0.7960439363001511,0.0815383658151938,-0.40885026764189936
517,7.902744018161618,0.7654865776751644,0,1,7.386050937286532,-2.3292637154261784,0.7968511454623275,-0.5344813933924888,-0.14298158564353877,-0.4148069218044746
518,8.859949954120228,0.72173241725447,0,1,7.937325980983472,-1.3820448894359727,0.7375678426799267,-0.144806734823101,-0.16555343455203994,-0.44367054017862806
519,9.958506197565663,0.704836482210721,0,1,8.718435374611621,-1.3252135142146881,1.0736985326993866,0.21800862272331786,-0.04066112247749294,-0.3800187367736793
520,11.131879670894696,0.7151600647669959,0,1,10.959973419854677,-2.09049696345377,2.0834293066674965,0.561810291711,0.029146271603826147,-0.20317329082314148
521,12.305670313564558,0.7495379654348985,0,1,13.60518935079206,-2.7335752109379583,2.811002983156018,0.5847997954641745,0.056297049907440284,0.0011514337732694475
522,13.402393193778297,0.8015410669948608,0,1,13.758465905151475,-2.395626752014725,1.6825389898233185,0.689403685011214,0.30889942834460754,0.15704726939400065
523,14.346586455823775,0.8622286635795572,0,1,13.086745347111362,-0.8930789443250968,-0.76851157603971,0.569377762493536,-0.07484632917472767,0.18264959745823645
524,15.069938835518505,0.9213100032064115,0,1,12.144528240044249,-0.45690738158498084,-0.8625452379196795,0.3863847244916001,0.15859744658870417,0.14590285708076337
525,15.516277473567209,0.9685654941934758,0,1,12.886484689892312,0.8306503462507313,3.7443378579718227,0.280365515705026,-1.5406170768508185,0.26835804101976946
526,15.646232538224531,0.9953098077462241,0,1,17.09896340409362,3.400041786773354,9.35962106923762,-0.06580001002926596,-1.8227926402493184,0.4058947109471441
527,15.4410921736684,0.9956301813079665,0,1,16.91210131808863,5.052213528223892,16.069305111835504,-0.7385500299644507,-0.6374269626157383,0.602093691896345
528,14.905058025235856,0.9671513388597092,0,1,8.771167875721279,1.1309085820196532,5.744361936595881,-0.5947360589039267,1.042698688394912,0.21543247780002606
529,14.065277605250895,0.9111903010644758,0,1,6.771973026060323,-0.6913715686599008,5.812494894404402,-0.1665369317314504,-0.6017626857399118,0.10013903589168474
530,12.969721343761115,0.8323279108011078,0,1,12.497271838655225,-3.190990352702208,6.079895663576889,-0.4211283892885764,0.10597589242945625,0.20272396025740075
531,11.683608066893488,0.7375577649108714,0,1,10.28520080750186,-4.632859176763665,3.1803898277165707,-0.043472960673771335,0.8375601884178112,0.08117969926278693
532,10.285109145630134,0.63522642635265,0,1,10.746066297598286,-3.371936545301195,4.275861597131215,0.0053102274044176025,-0.5746775498820038,-0.057333681576831344
533,8.86062917662137,0.533959369243085,0,1,9.126361793705094,-1.333795023554515,3.850474389131614,0.13273257844863232,0.2688970558116863,-0.05317191109019649
534,7.499633701714633,0.4417163878563432,0,1,6.078081099473426,1.1514887007688057,3.2014095804170917,0.2588567625806469,0.05822781492926992,0.016806490641250782
535,6.289048177320958,0.365069225488212,0,1,4.8685285974999655,2.036621616110841,1.9496061308988442,0.32938316988788563,0.24488905236556283,0.0007275059083029581
536,5.307530200630593,0.30874622781574806,0,1,3.7607279518844416,1.5509777666929083,1.2605820120510478,0.3849228725004118,0.0486983817261245,-0.030749155096727803
537,4.6201397158702,0.27544093860336744,0,1,3.9169227027279954,0.9335160652879918,1.2482402365551577,0.33886489026229694,-0.08507430259677003,-0.024761144891370684
538,4.27394476120236,0.26584484822380633,0,1,4.034317837203855,0.4619617878856859,1.3806637836075524,0.22046801396270785,-0.014266066617230356,-0.03711450053339101
539,4.294924683563748,0.278851783634653,0,1,4.392325901526409,0.2579404300885515,0.9673642939684394,0.08593141329735135,-0.19015728305212357,-0.015134802453496035
540,4.68629640233062,0.31188817296119153,0,1,4.971425275093165,0.3419769518711236,1.138655849024058,-0.035409993569820615,-0.3325790237255232,0.06246874201661453
541,5.428216813525332,0.3613325701073195,0,1,5.482312938048598,0.7950207863458241,1.24808279351681,-0.06918454859858365,-0.21615096887555205,0.1432358842963378
542,6.478758771011936,0.42298750793951206,0,1,5.722943842296471,1.1566437814008663,0.5551862796301064,-0.28232984716838666,-0.1969924303159669,0.18115756103440955
543,7.776094318090529,0.4925568568008005,0,1,7.182067930670801,1.5093268205425585,0.5283906749018509,-0.47755634235759814,-0.2668897359754209,0.16118738776953126
544,9.241871844843248,0.566068236855951,0,1,8.04611701788999,2.02988446896098,0.457804555992031,-0.6418323261775428,-0.33212648116919186,0.135365525776772
545,10.785760615862136,0.6401707907880617,0,1,9.579390630595338,2.134078017153633,0.5898534196160745,-0.5312832304783961,-0.6837618222193096,0.08106738355460585
546,12.311011361170767,0.712245498367941,0,1,13.413129146364332,-0.4110473085048176,2.355291691685032,-0.8459190808951058,-0.6902898794900817,-0.06082283687098959
547,13.720673645456444,0.7803003139863331,0,1,15.908910319761246,-4.066407927982966,1.273034944786405,-0.6095477745282577,-0.40709225637783397,-0.16357886117102977
548,14.923938407919719,0.8426876299629629,0,1,13.935968294557627,-4.452702383337859,0.5192133220753535,-0.028380049086176137,-0.16247602829161586,-0.13463369655916782
549,15.842090639351083,0.8977564255148061,0,1,12.201178037808527,-1.6359666256782972,-0.36459114809513954,0.5021689928728842,0.5120492228701095,-0.19060788443967905
550,16.41377575877967,0.9435935073678721,0,1,14.301883704403613,0.25847417458042804,3.839723496460237,0.0745201497963568,-0.38579033812638824,-0.41818510858384905
551,16.59946584003774,0.9779813678322832,0,1,16.227673718653875,-1.7668124947068031,4.055713520431091,0.059601952828393284,-1.0220657592855869,-0.3231202677174173
552,16.384886875547398,0.9986107153019785,0,1,19.284367419714602,-1.742025892323904,13.29393015213358,0.5074798011783171,-1.125346824877396,-0.47724072899815356
553,15.782817436426253,1.0034818810053796,0,1,16.54789380537784,-3.934005407009791,7.902485632547449,0.3655431197097314,0.4761157980972415,-0.6888544084664797
554,14.83255475493854,0.991362496134904,0,1,7.072676931502701,-0.6548046600568945,5.533572894324564,1.0488147726271764,-0.2666802812013807,-0.6175036917707615
555,13.596802400366672,0.9621593900271814,0,1,10.46554680273178,3.4919014355001687,7.171017769524773,0.8033112895900824,-0.8186267271422749,-0.6135510851211627
556,12.1564968127792,0.9170990244427815,0,1,10.006288542191173,4.156731286158758,3.7694781418230594,0.3328835725379328,0.8482913724964213,-0.35487163644149644
557,10.604532043085676,0.8586727714545602,0,1,10.379722164135336,2.638914027328284,3.442343925633676,0.10160212495502122,-0.4878686012811954,0.13212644140842356
558,9.039202437921542,0.7903738838478712,0,1,10.252590229335407,0.1782495264600292,2.19088840502271,-0.1250356750087032,0.7485127906843739,0.296338820546641
559,7.557786475290396,0.7163093445567196,0,1,6.542083205053328,-1.701771566574192,1.4851894028498678,-0.2118452262977398,0.6600721210007993,0.16589150561297417
560,6.250461270176446,0.6407893606123608,0,1,5.900989616569755,-0.6432449508526354,1.848255832252803,-0.21191883778549903,-0.35465120582249593,-0.034743088417797933
561,5.194761221928921,0.5679800171922901,0,1,4.775155301833219,0.5895031256520253,1.5333197729772954,-0.3839650295861875,0.11112897573210344,-0.22976331808048667
562,4.450917502565574,0.5016691810544441,0,1,3.2961699558008988,1.2674179445050078,0.7341763518980714,-0.44201809388350444,0.04493126317945496,-0.28738610982623863
563,4.058476307233424,0.4451554218936043,0,1,2.874677893707418,0.9320597580664922,0.6084040809784096,-0.4799804103945502,-0.12772600943721305,-0.2515623618521255
564,4.034534937456782,0.40123077556264425,0,1,2.854726927045866,-0.1224912840128036,1.0690067860480148,-0.4809003772089405,0.17027977273228964,-0.20512261638747264
565,4.373759324336087,0.3722026769600842,0,1,3.9801745940437967,-1.2327691774794318,1.3973690697251642,-0.3126333260566741,0.09826156397791343,-0.18799667284222474
566,5.050078600618052,0.35990033447220743,0,1,5.617209892028737,-1.8074566481309131,1.1634682448323002,-0.12708673522097938,0.12407224268357175,-0.20865586961718652
567,6.019661072553224,0.36563236316262837,0,1,6.864190188121821,-2.283939824995351,-0.20953610118474,0.12398575358948727,0.020024169273694152,-0.29072884087376066
568,7.2245832974217326,0.39008705560119966,0,1,7.488745401105015,-2.084807348405467,-0.08468263860489482,0.4022645635132017,-0.10239789530296382,-0.34434262790776266
569,8.596611360237448,0.43317894287472286,0,1,8.001845891182343,-1.5557135045906245,0.2823823083096069,0.3478803831917753,-0.18600000851470402,-0.2483490126112186
570,10.060709942393869,0.49384746000892005,0,1,9.558781173700273,-0.6623395554353636,0.36714898163609094,0.4051226705684411,-0.4958269686041067,-0.03681560702483361
571,11.538152245860326,0.5698207525608885,0,1,12.51410295141099,1.1672052038691985,1.9925916937409789,0.4344385981557675,-0.8995295980532244,0.11916999095697216
572,12.949289155053144,0.6573833137205759,0,1,13.981442848640109,1.8711383934659644,1.3075376553026845,0.17120547232676078,-0.27707277915434547,0.014403563802132906
573,14.216136608333171,0.7512314234683959,0,1,13.167387669090763,1.385153265565602,-0.12092572524199433,-0.08672336540927866,0.07866627893155975,-0.07489397300349493
574,15.265042380695792,0.8445453925440182,0,1,12.189998363696182,0.2725337304736287,-2.2229623173751056,-0.09953200615343354,0.3797377622323833,-0.08456421098100865
575,16.029808070632782,0.9294095480656458,0,1,13.285468846871073,0.004032528285986727,2.554914441274196,-0.0928721328080016,-0.3054594821654539,0.2617748863762079
576,16.45560589338713,0.9976325348542422,0,1,14.914849730870882,0.4970858263796508,3.525680590452998,-0.0462065997542461,-1.2322654987912192,0.5593390585009216
577,16.503668364117832,1.0418737238832518,0,1,17.691247989330616,2.5617269867357617,11.399419263865346,-0.05761490168628458,-1.5403275860481243,0.8025467955187888
578,16.15613135827675,1.0568344822542515,0,1,18.26007748134705,3.502266109228251,11.227417068798356,-0.9108769843248847,-0.42767472160103565,1.1346422484252319
579,15.419981255563254,1.040208541507017,0,1,8.310497534145872,-0.06993814798862655,4.221597937724212,-0.7340802829244202,1.026499349579351,0.7024749090237945
580,14.329168185490856,0.9931440971184481,0,1,11.349325378029,-2.125599330736919,6.5897528644948675,-0.377198057270711,-0.5871430554330738,0.4432694583338567
581,12.944484873381503,0.9201207901920636,0,1,14.021077609223866,-3.9662038129005768,3.047621419797262,-0.06755619378354157,0.9474167547443046,0.2129496799806888
582,11.351240278723687,0.8283104229764648,0,1,12.222485326710409,-3.6290949478624777,3.0402139203219596,0.13228596694909409,0.3420373540361846,0.04580381218242949
583,9.654787076253502,0.7266028149599212,0,1,11.14665062946545,-2.0808822975583845,1.5996406746078404,0.21492287235815502,0.49169801816163244,0.15285892797277392
584,7.97387574874302,0.6245108168160604,0,1,7.81527048059999,0.5177147445784284,2.2471907385624523,0.3698205131643906,0.47041408168718857,0.2621646517818957
585,6.4319941303593495,0.5311332535318455,0,1,5.776452999667643,1.5177737710182864,0.8524277516041909,0.3374308394174114,0.31529222403412,0.21948083428249016
586,5.147308053236108,0.4542865700665528,0,1,3.5504334691216983,1.4643925342896145,0.37897706717120244,0.39581520460846087,0.3921673776250504,0.10127003467470291
587,4.22225944030807,0.39985456865942665,0,1,2.8489372926292,1.2805254166048876,0.22511619883269077,0.32722428063229014,0.16818353686501136,0.027895205703759994
588,3.7340684199263108,0.37137358413634924,0,1,2.66843335335452,0.9638830551998442,0.267944154669461,0.23384693832411219,0.234449740421311,0.017256149378478813
589,3.7272769231267615,0.36986475607434444,0,1,2.867413315119487,1.0959208937989318,0.42933949316734554,0.11844390997436179,0.060534018388245514,0.06867454352825139
590,4.2091512442005286,0.39392653371082637,0,1,3.6031986158559097,1.674724102499364,0.9051174456960994,-0.017226282638065044,0.00285907201562148,0.10928347736816725
591,5.148367059841562,0.44008815404918405,0,1,4.50245147563286,2.1798783904329015,0.9073789863672711,-0.30108249306121826,0.23762055206876362,0.14817819898512616
592,6.477046357569732,0.5033867008666439,0,1,5.64283354018681,2.1611652258552483,0.1324433769693145,-0.6469688744161025,0.33268590418420263,0.20483885133222177
593,8.09595503792112,0.578074243389512,0,1,6.602122211921979,1.9700885745971146,0.31767717363370973,-0.8001167214191152,0.2233102087534396,0.22340697217872457
594,9.882483136931711,0.6583166449945305,0,1,7.627595057603597,2.2834239554478764,0.16461045850464312,-0.7097001382778249,-0.08867639519042247,0.22010234420348956
595,11.700834019051172,0.7387431613147607,0,1,10.906592208993427,0.35042200561598447,1.862139128694029,-0.869738147490478,-0.4219245372368745,0.12812379731740614
596,13.413560705356913,0.8147529102678029,0,1,17.81738136853609,-4.92140680430672,1.498494710128033,-0.813283302904153,-0.6913814224256082,-0.07212180847756573
597,14.893248443394025,0.882561373840938,0,1,16.210829539117906,-5.470857390093209,-2.295254934740459,-0.16163037816467918,0.5088923044129636,-0.1355947363930112
598,16.03298338635654,0.9390510346080057,0,1,12.03091488232513,-0.7676135574907447,1.3500011179016072,0.5644227371467637,0.3752784347158096,-0.24263726171835148
599,16.75448254011365,0.9815506006439965,0,1,16.808173294990265,0.9746161667127969,3.2938293242832293,-0.18559889409264896,-0.2975763105638992,-0.5760982212807747
600,17.013264565941476,1.007682889916575,0,1,17.29206909219437,-1.8201517949733508,4.379171615662808,-0.32980273241165464,-0.7100867913427967,-0.5453233794652083
601,16.80063615956097,1.0153814840093327,0,1,19.53844483970998,-2.063238509808651,12.150897113079793,0.02608423827619268,-0.48988611149928346,-0.6735381465985614
602,16.142434639668956,1.003097754655101,0,1,14.121749528808387,-4.010855253182152,6.310057777652232,0.28216777287586464,0.7977573750190841,-0.8131582366194567
603,15.094708538993228,0.9701373347941024,0,1,7.351027546132613,-0.6420644260243824,6.522159368767134,0.9282572658510343,-0.790057742395066,-0.7185056496757497
604,13.737055193483313,0.9170102558724998,0,1,10.476719638692183,2.3659016190917126,6.07113430865731,0.6514661641352394,-0.10928636811659305,-0.7285285764765209
605,12.164870668104395,0.8456721625980413,0,1,9.530800478584933,2.4045187308213736,3.736844613233586,0.37604907395053433,0.644261257032466,-0.42770871401265287
606,10.481805791044172,0.7595763820832332,0,1,11.486770271808728,1.568806670213577,3.837040142153179,0.20105198571741947,-0.43411932500273565,-0.012665454062846304
607,8.793193684626171,0.663521702401617,0,1,10.227077228974718,0.055475233917583425,1.9793861960787542,0.03281658745990953,1.057340049977312,0.0550751169616097
608,7.200553532862818,0.5633310844389042,0,1,5.947002824323457,-1.4269939965224114,1.7788354049700363,0.0025356922318766173,0.36303914292162215,-0.08404575352001356
609,5.796924759085898,0.4654175630710691,0,1,5.417587615627631,-1.298956022243362,1.8817830787491543,-0.008816532788755684,-0.13168775477813624,-0.25685851255304115
610,4.662813408052712,0.37629736479968595,0,1,4.517433800125922,-0.3476731485892405,1.0523668213296833,0.01946122394873757,0.16311899191942159,-0.3659908069496536
611,3.8627140183633606,0.30210663330059784,0,1,3.636118077080223,0.7092894617721925,0.5000978486819145,-0.030684267509332855,-0.05372485012421865,-0.3055732541405695
612,3.4422926533721583,0.248164191483548,0,1,3.082164013972154,0.7736231580786744,0.8356776211091749,-0.19202326829430832,-0.01599289886406367,-0.19736123058733188
613,3.4263370746006663,0.21860129865341124,0,1,3.3756053429348523,-0.10937279287888248,0.6619999134047353,-0.2250005799850478,0.12117100223037378,-0.1254858659349694
614,3.817552262119549,0.2160639291511263,0,1,3.740773475920765,-0.9311404326938975,0.48780496819456076,-0.1165142330474719,0.07606483444159146,-0.10624754631590158
615,4.596245348594698,0.24149127392734965,0,1,4.712817656181219,-1.5083955346042666,-0.31598433393161524,0.02569348646030578,-0.024342395265035205,-0.1301027258333519
616,5.72092172179453,0.29397999245091155,0,1,5.365986348101595,-1.8884068458435996,-0.7776671879498672,0.29802787938897357,0.0094083815175777,-0.17485250859277476
617,7.129818052322866,0.37074659320901954,0,1,6.265998964068601,-1.5238239793216553,0.6056289576947727,0.34261881001424244,-0.07551050423890299,-0.18395818089588917
618,8.743424165661072,0.4671955905557551,0,1,7.624211861124398,-1.2973632145041452,0.9598796362977621,0.3510864449371973,-0.11374519689191089,-0.10348294042048016
619,10.46805226983504,0.5770934137301098,0,1,10.647415055855527,-0.006434203048224285,1.4041393875604538,0.7220340478265656,-0.6123396829130447,0.045678197441944235
620,12.200449167367855,0.6928466922323478,0,1,13.507898881525715,2.020529965192228,1.4848048468648731,0.6650702563610971,-0.48467295654432985,0.1070793267273946
621,13.833328909774654,0.8058966640417856,0,1,13.417614171678494,2.1555208920774724,0.30252460512688817,0.015001469608098254,-0.06483599852485063,0.05732633297427983
622,15.261622857927861,0.9072666377703229,0,1,12.227218048595743,0.22801956506966065,-2.7641663293944885,-0.18273532510898755,0.25650331539682825,0.0014008361783020985
623,16.38924967412355,0.9883078100581322,0,1,13.452124305246107,-1.2365196651594437,3.2754212210220572,-0.1978701979090398,-0.5518640532022007,0.3075311846376105
624,17.136174945396913,1.0416353345398994,0,1,15.816316697458907,0.77993975576728,6.12705901628035,0.23717595985257328,-1.564549720199158,0.7074774078267173
625,17.445272027949315,1.0621261247019325,0,1,20.70143348109655,4.71709764391426,13.30785788684734,0.01704781945134327,-1.7237728989160204,1.0510211177552584
626,17.28807470869247,1.0477344601040863,0,1,17.390691125903125,2.8990190563347267,9.221969301640538,-0.8219088038302905,0.30166286729501607,1.1332087923251353
627,16.66833387362973,0.9998706771458578,0,1,9.359616105700619,-0.6138055751013406,4.9038243997906,-0.42980783536138656,0.44243187803203765,0.6441180793094488
628,15.622683503629437,0.923212733957475,0,1,14.881451876528327,-3.070059754049371,5.437233538239392,-0.16273314480973858,-0.19031624508722256,0.422862291853303
629,14.21844606806952,0.8250069016896162,0,1,14.229585151634591,-4.96240522411458,2.5400028576525147,-0.008168639702012596,0.97302604739909,0.21526801953914326
630,12.549072990512448,0.7140529414175764,0,1,13.133267807140667,-3.356880860791033,3.221551311422925,-0.045312531690557545,0.07195288600740227,0.13748341394727695
631,10.727715545282676,0.599608138285255,0,1,10.832898805135034,-0.190083721295959,2.76825524876077,0.044858762960114054,0.6604743591596978,0.17429781081802068
632,8.879299233566927,0.4904051976647908,0,1,7.272015508990686,2.4601424466937107,2.1169813718021926,0.06656457408212556,0.33036391066851795,0.18825229143682334
633,7.131551784432712,0.39390764140811496,0,1,5.757661894973401,3.169718407121167,1.2400899490225321,0.09439844297984118,0.2043929514312075,0.10208347611561051
634,5.6056470205283535,0.3158545148117441,0,1,4.908075914213035,2.25004448908616,0.5735517763646444,-0.051823838542989234,0.3171034604977526,-0.01098972859127826
635,4.407252547499714,0.26008761641773287,0,1,3.7835006195886756,1.2963865862249384,-0.44065693726657074,-0.05913498622666982,0.48592118257518563,-0.079531788681068
636,3.6187266020761344,0.22861353661464404,0,1,2.833700545108713,0.7840287913506088,0.4657395850967317,-0.08642487052557164,0.048084159138809604,-0.09302778734564748
637,3.293063897048342,0.2218320070407499,0,1,3.430358557157482,0.21039034021423592,0.5607326830343463,-0.15488512018527378,-0.05766328200269348,-0.06115413219253046
638,3.450022365393772,0.2388614135075972,0,1,3.2833883872771485,-0.22869469266786396,0.745695782764276,-0.21078047335416714,0.11208447143194564,0.04026540503275415
639,4.0747082041976395,0.2779020924599697,0,1,3.183008678113197,-0.17543289351904595,-0.31663637915122816,-0.2814091812656306,-0.042333747410392336,0.1697444338446716
640,5.118764324558028,0.33658431555712076,0,1,3.9004325126957413,0.5693669048460824,-0.37336071117098024,-0.2902715553910327,-0.03378930087096129,0.22382218222708306
641,6.50417682953225,0.41224796512086054,0,1,4.931980732691852,1.498021163449503,1.0918769100212258,-0.33240957727924586,-0.11727563738374994,0.24215499535653875
642,8.129524569077116,0.502102826010428,0,1,6.666497958645257,1.7072532391736672,1.486927491613341,-0.5212373009525759,-0.20158289760031856,0.2996812849883679
643,9.878196023405646,0.603228941121731,0,1,11.776968221325877,-0.3729789640215424,2.16668181699801,-0.8903336148437835,-0.7642928147041479,0.30358774724263016
644,11.627730210737585,0.7124015115327688,0,1,15.714620139511467,-2.8116699400044767,1.6112780613352964,-0.693874783192554,-0.1275517795003411,0.17360929769571035
645,13.259186778434922,0.8257750812443841,0,1,12.50563892762579,-2.7191210992218044,0.10331533754692089,-0.2820558961833569,0.5455241951543124,0.017091818760958496
646,14.665537038621057,0.9385379639488052,0,1,10.892773147405656,-1.1959363268202483,-2.5286716231954944,0.1029546664959541,0.056597699435652085,-0.14787600160484946
647,15.758501389512038,1.0447164793222257,0,1,14.055732060549108,2.0168178566336863,3.075582710772148,0.016038189185751013,-0.31648702480731,-0.4501624446477572
648,16.47370388943428,1.1373121793292424,0,1,16.310533198937513,-1.6292358178050814,0.8330596195196955,-0.5381544519144085,-0.7253675999800906,-0.5287472976114087
649,16.774090418571106,1.2088640553528396,0,1,19.003632733464205,-3.947536487604826,10.964936786158995,0.1843659635291922,-1.5048241956087667,-0.6192687037669655
650,16.651300944568725,1.252377160353119,0,1,19.841627575055288,-6.121033597865241,9.563154851980652,0.22325325811343735,0.5231063541841819,-0.9341315378511715
651,16.12458205764814,1.262426055560037,0,1,6.862752325767329,-2.624526113297116,4.931745735851383,1.1590466950495513,0.3760521602205362,-0.9025104947164605
652,15.23727160718658,1.2361810661414383,0,1,10.709496264335499,2.9811884534831443,6.4222271852982145,0.7911765609873701,-1.4595458087956956,-0.8597087815741954
653,14.051666282512063,1.1741206338391643,0,1,11.914487659669323,4.164405426127048,2.4740568712602355,0.2696855793214752,1.6061567156696337,-0.5626899177259786
654,12.643511305771868,1.0802658120958444,0,1,11.131651731844379,3.2508797479524825,4.109454046935089,0.1014878702013036,-0.5560928541275328,0.04363105150684998
655,11.09704370831644,0.9618887277582366,0,1,14.564202442621538,-0.15795557442044844,2.3809850355645725,0.05890680027011115,0.5345664661373289,0.21920870425422956
656,9.500810575812096,0.8287718534959155,0,1,8.280669722677104,-2.72012013157403,1.3683533352331019,0.02608702201561194,1.3503816785641338,0.05477416687048637
657,7.943977475184934,0.6921733905369248,0,1,6.63097866786729,-2.9012946887515088,1.5599521231728966,0.06607694771119288,-0.45929248966899977,-0.18461898953471062
658,6.512793553845741,0.5636645498700107,0,1,6.305455891881954,-1.428359258416344,1.4493950735759693,0.1077319086911054,0.05306338693757547,-0.34760798475412163
659,5.287098814365582,0.4539826264658311,0,1,4.8770306566126465,0.38437062140168804,0.5683634540945909,0.22266504644499366,-0.11739586117149643,-0.2820484950018811
660,4.336945560086315,0.37202445639859166,0,1,4.2125555712617,1.5616641432674718,0.6315210641219446,0.22076954935890988,-0.1806756487479614,-0.1719955376309605
661,3.7194424550178784,0.32408386681367274,0,1,3.5929768693304385,1.2751731341409245,0.708708128612713,0.07089722877383675,0.12329927026643674,-0.14636645142696872
662,3.4758846992380423,0.31340192456012644,0,1,3.6136344808708394,-0.14220084754875614,0.1558030991477378,0.0450776961378049,0.07987474435709564,-0.17140376065359825
663,3.6292012027371126,0.3400558696198387,0,1,3.95379336705039,-1.2410816581757516,0.05589041929207861,0.14834920358194592,-0.014821407623193205,-0.18222929337653537
664,4.181766157385538,0.40116993631187153,0,1,4.427555836906372,-1.5080874361787666,-0.3960292097649651,0.37373864551144526,-0.025354831960317136,-0.20877626946979483
665,5.113690794006971,0.4913898490583048,0,1,4.828351909938908,-1.3316756410364496,-0.3497004062614888,0.6453747645758958,-0.1084560326579378,-0.27230141308605715
666,6.381823215065663,0.6035275136685464,0,1,5.996507509371335,-1.1243999551136943,-0.13407812272288286,0.6939568819483541,-0.19027501753566345,-0.2964849610837914
667,7.919812224287461,0.7292673025071532,0,1,7.150677585268979,-1.3545449596742285,0.34448460739702313,0.7563892953690745,-0.15403295769820297,-0.22176311010470454
668,9.639681079305877,0.8598420189287116,0,1,8.732741999716847,-0.78845570242908,1.220012129103287,0.7481394727291295,-0.6123626305094466,-0.060855102178509236
669,11.435352435915407,0.9866309730930516,0,1,10.461628543079915,0.3633529917412522,1.240380525442229,0.4254188524583099,-0.658382030301433,0.028145536423247342
670,13.188436534538008,1.1016838684728814,0,1,10.223219560525648,1.3752643616679592,0.3848689597921567,0.13839183784884612,-0.5248634395301262,0.05843892380163756
671,14.77632568191039,1.198203681255444,0,1,10.973564848447847,2.0518549960615444,2.3080664154202877,0.09223952695356874,-0.8165702382045613,0.26692066430544964
672,16.082193493813993,1.271003604386597,0,1,15.238993996291521,5.3947554372093585,9.00097033915552,0.11925811957335378,-1.9264375846059498,0.7920595792802283
673,17.005876473373537,1.3168869057905863,0,1,22.40732156719093,7.031922750478026,9.474324286669816,-0.5572945580335708,-1.3089044030572918,1.2362319549566327
674,17.474031181827968,1.334833362944186,0,1,15.681647937138072,1.7213419288944187,6.555839000054172,-0.9843187835359954,1.3566521342710447,0.9283646242877295
675,17.44784425946852,1.3258872598579268,0,1,13.716811692112445,-3.655581550687264,4.117543820833926,-0.29998364161627544,-0.4450179655378433,0.606814907007624
676,16.9271454047265,1.2927550380944755,0,1,15.921952652734701,-5.940202008276102,5.667017021135623,0.30429203999711696,0.34249068325931686,0.32662388094399797
677,15.950668349461596,1.239266516620969,0,1,14.139526495127535,-5.398115043247977,3.43651093360046,0.3840299217743037,0.5580799423797675,0.28942910573706626
678,14.592823947294994,1.169921205966827,0,1,16.01389689138823,-2.583688633562237,2.658355491415876,0.6978373801892364,-0.5387870077343723,0.45784016685947837
679,12.95752431166645,1.0896752080120837,0,1,13.851602807984584,0.959660556005592,3.649348924524104,0.7986445486090478,0.7349038928434865,0.6619215910093866
680,11.169623134229013,1.0039676104739983,0,1,9.178702683751174,2.220081323643722,1.8613394920534023,0.8665966965368845,1.2702987544550939,0.7250358963809611
681,9.364684637784865,0.9188375905217508,0,1,7.043516442142005,2.4819560511408163,1.5877089984744859,1.0015972319403592,0.43736224487476655,0.5239513769001201
682,7.678024899401754,0.8409266800984713,0,1,6.867932987550127,1.8277043285152141,2.107672263611046,0.8798722086482157,0.2137367453960415,0.29689548133662597
683,6.2340696142829515,0.7772142564966285,0,1,5.868820030689284,1.3788265188992657,1.0306058436421595,0.6928431900107043,0.489690450749592,0.17465997397540492
684,5.1369221210692695,0.7344559913960476,0,1,5.149909805852051,1.1371624061984444,0.18440204368845242,0.6316159043184294,-0.057739767968660455,0.15173086220801738
685,4.462736375472147,0.7184188187563652,0,1,4.836045893548187,1.0937063726740208,0.4818592093110673,0.5159421197885625,-0.13657965275836567,0.158325778217462
686,4.254236628884633,0.7330867713535865,0,1,4.140517210310349,0.5361486834957628,-0.10767679744746839,0.3282168238962161,0.16361752473305807,0.15203795954610805
687,4.517617094383586,0.7800371260912318,0,1,3.385946583269311,-0.0950536755721467,-0.19975012697034453,0.3726363997211468,-0.01991749362241753,0.25970213628273453
688,5.222049985873943,0.8581585439214565,0,1,4.134813491665271,-0.20167159718840524,0.19906830819743881,0.34290415121672607,-0.37417384368893997,0.4827005057306782
689,6.302016666236669,0.9638100226086305,0,1,5.943942086441513,-0.36128782344999716,-0.2645863216083448,0.40974562615416554,-0.26701793349071323,0.6951800893699464
690,7.6625534992252815,1.0914187490449028,0,1,6.966354793296795,-0.28289587525968585,-0.29696376644304767,0.5754460036203202,-0.6491890217284749,0.9095634224029057
691,9.187251528728083,1.234414669029368,0,1,8.081776537884375,-0.45679748290160055,-0.5018700203870032,0.6833075379368252,-0.8078304757341946,0.9827475874864136
692,10.748525367952274,1.3863292638353706,0,1,9.076912582135487,-1.652723775715451,1.051806130154404,0.8400127203920355,-0.6746749252852167,0.8804943245598997
693,12.219322355838925,1.5418622819715864,0,1,10.742435044896066,-3.6284535801795728,3.404353736417571,1.002663535016948,-0.8824937266808279,0.8546625765249962
694,13.485078865217876,1.6977379892849809,0,1,14.42499381970324,-5.653666784105369,5.237439123714066,1.3223757394717781,-0.8689484450679065,0.7883265677458546
695,14.45438465138096,1.8532102967687043,0,1,18.276666401575998,-3.714574577903052,6.483804794438841,2.1109508911052246,-0.2562195893323546,0.40095402813576025
696,15.06668080442723,2.0101161773030154,0,1,20.551331151658083,-2.209633404162795,8.072780086606198,2.1956835882212857,-0.05804303671698903,-0.6228674904499002
697,15.295697901112234,2.172422317917397,0,1,10.477734406423998,-1.5463026897184624,3.8986081328770106,2.2786216349966475,1.5356449633498244,-0.9123397752510095
698,15.148367609872654,2.3452798536198043,0,1,6.013142437340351,2.6946616242832793,3.9235698708965723,1.9729307806643297,-0.2388368357579934,-0.43698248073607354
699,14.660226743723165,2.5337070911527424,0,1,12.58716145393813,2.929128463210185,3.8047839472032328,2.002402336124139,-1.0222362657972186,-0.17994211678381247
700,13.889086497697225,2.741138757570883,0,1,15.401630814367836,-0.07628475889746052,5.732737686978171,1.9537514417275317,0.44481218961228497,0.1290491986633437
701,12.908490805131143,2.968157070382332,0,1,12.710081330113578,-5.269466587152722,1.225578956907163,2.190597611368593,1.3760024553142363,0.25299823889834516
702,11.80162501823158,3.211701950750319,0,1,8.955949483735608,-6.1611549555287715,3.0105544551332617,3.0562434316107043,0.19841626350577132,0.33009857548490734
703,10.655655923196667,3.464940843372521,0,1,9.604937123579976,-5.147980770880712,1.9689796974701166,3.364648702683017,0.23022736428530297,0.3825277526105295
704,9.556336734380862,3.717813340137346,0,1,8.298816437441943,-3.0241184835563018,0.7458459426472389,3.7922371107575263,0.8064333121373332,0.5533816205629934
705,8.582861689554056,3.95811839159048,0,1,8.787327495028336,-1.8132065274997906,0.04933729395700451,3.982935609843865,0.037987726287461464,0.8527039252972951
706,7.803088312694259,4.172923782271992,0,1,8.209149688366937,-1.2877254130293245,0.30746025621084927,4.110775955210077,0.7074969538246662,1.1474663445191962
707,7.269282038044299,4.350054653434491,0,1,7.279106693368192,-0.9033999979864733,0.31875437167306814,4.2606573875947324,0.5363587493539143,1.366444161345619
708,7.014550568056567,4.479443639107154,0,1,7.311594604854472,-0.8011328994291982,-0.20679194753123475,4.3633465782973335,0.5114426208610788,1.4179698124391327
709,7.050187732095219,4.554177730343862,0,1,6.437377767493213,-0.8522275969480976,-0.4726683456931335,4.436977918095314,0.6715075782815394,1.341419721824247
710,7.364233464383421,4.5711396576047685,0,1,6.4021630287163545,-0.15473409729005583,-0.16735170635266297,4.470811790199768,0.27846695514714037,1.2259702706933802
711,7.921618631318002,4.531205047574551,0,1,7.290160804654726,0.536867391129402,0.140772471205166,4.427420340312318,0.21838497177438282,1.1209434278667325
712,8.666232980671325,4.439014820248919,0,1,8.158282191568523,0.5405776216186016,1.5594205327665438,4.098188095149757,0.037428701664222824,1.1319025746656088
713,9.525103667059893,4.302388137343199,0,1,8.959967341310856,0.6859431374298628,0.26934664417733134,4.051069642586723,0.3954906926142867,1.2081142716798516
714,10.414632155424577,4.131466507626153,0,1,8.034586275749307,1.8772957907085508,1.2879268361086598,4.096130893184711,0.5616725316276618,1.322013428512344
715,11.248555590914677,3.9376822305966517,0,1,9.59030092524754,0.8914878565968604,2.385712512930317,3.6831685563001493,0.48962783227543893,1.3431419561154299
716,11.946971286601723,3.7326361824693164,0,1,12.302299353289863,0.495564784814884,2.27470915795152,3.595125587034896,0.446206426469617,1.3192743348397478
717,12.445366126683474,3.5269710234095304,0,1,14.929697548141862,4.122409008470986,4.578718167590008,3.363968002736138,-0.2909328186303349,1.384269841548701
718,12.702218377415731,3.3293460500439824,0,1,16.363192532601225,6.052898354533351,2.522536509847593,2.710343075670081,0.6001362360899425,1.1983337139446053
719,12.703651179300774,3.1456494692252925,0,1,13.377900047195277,3.3180465272476463,0.8269897626600172,2.2407420295287492,0.8697484733910676,0.8305544882363952
720,12.464067913499447,2.978597144491792,0,1,11.776782257092485,0.8850964286427262,0.8063432500140552,2.397687402290744,0.43864745406731015,0.6703336464485781
721,12.02264263723247,2.827831526668594,0,1,10.623385365010472,1.0003215802092775,0.664866035073121,2.7311296145488435,0.4778979342472696,0.650451449819846
722,11.436569154271153,2.690534946537144,0,1,9.53310700883818,0.8083857829630244,1.4215221638140414,2.82530310810312,0.20820829369798438,0.7440064868053728
723,10.772625456155863,2.5624358075017812,0,1,9.455668828611373,0.4688219843876749,1.4113136144342222,2.724516503907304,0.11176543997673265,0.8473136635488391
724,10.098700887643814,2.4389770373848556,0,1,9.0845037811118,1.3190146125409867,0.8331337647934596,2.6034597763734446,0.24294821431229646,0.9356476787850303
725,9.476592344006823,2.316383705236337,0,1,8.221621947970782,2.732657485768894,0.8852134596679183,2.3664560606169402,0.28203075099292924,0.9609850438353336
726,8.956849263006662,2.1924159918036503,0,1,7.729440388136867,3.651895368713209,0.661366413068038,2.1254158623424884,0.12679008877558862,0.9247895523818591
727,8.575924804071136,2.066694127167007,0,1,7.38712533342007,4.314039225312668,1.0043171249247818,1.851227277594464,0.15818857852557944,0.8876961689321844
728,8.355464802884219,1.9405942673743914,0,1,7.235519741486022,4.407418780216659,0.9511415630297166,1.581780681127775,0.19989424443271603,0.8745865096224803
729,8.303266761751452,1.816806711523973,0,1,7.632888559572555,4.055959375926198,1.4496134118869397,1.4139534184142242,0.21832639118696903,0.9157800310781828
730,8.41527603630565,1.698701059575101,0,1,8.670302146732045,3.2844205176656964,2.2092664471544636,1.2209733176942756,0.20327714556652984,0.9564638505213983
731,8.677958277269955,1.5896524078481018,0,1,9.41759576476718,2.1143634266537368,1.962781026993481,1.0289810434495947,0.20951831501852206,0.9911338731467917
732,9.070497499142977,1.4924570680380818,0,1,9.101325460781808,0.9879146522102775,1.5785888849825727,0.990141495031822,0.10424547317777696,1.0208994653237091
733,9.566506628272181,1.408920429867107,0,1,8.71302590305881,0.799728473833467,1.8473334127530152,1.0006484767428778,0.0441996315152349,1.0114195829061945
734,10.135243452356663,1.3396483204380578,0,1,9.130049617842644,1.1980022921037372,1.433015242304467,1.0131119791613055,-0.0719721403677188,0.9345947228510554
735,10.742582146685812,1.2840294536532044,0,1,10.082222890233732,1.8475506986018526,1.4966734005979971,1.0497392738665248,-0.11764931927817679,0.8176188259459584
736,11.352087065372125,1.2403697810021121,0,1,10.854800535744204,2.124882948330287,1.6654686979586395,1.0007781213300353,-0.1396532237141487,0.7253503183575425
737,11.926452659241104,1.2061322168928996,0,1,11.214916040389186,2.7241871265372652,1.7262662610905146,1.0584187132290321,-0.09626170856789422,0.6552887131632765
738,12.429390773955964,1.17824183275192,0,1,11.320209148629841,3.2676502157021097,1.9247734811487798,0.9729955219601211,-0.04007430239019811,0.5633184306209541
739,12.827857784184912,1.1534279770621827,0,1,11.887805756358507,3.6340432105833456,2.6967010345880547,0.9608452250389222,-0.20085419647846872,0.3760626087926422
740,13.094359872678158,1.128582327502566,0,1,13.288484677473718,2.614336381327565,6.355118023165975,0.9393476801633941,-0.4340183880018718,0.0729139662410263
741,13.208971301829767,1.1011090607217704,0,1,14.188681721532907,-0.09963875408172788,4.878618720016541,1.085589036266471,-0.23814493026154837,-0.038052322888723344
742,13.160703165142353,1.0692281776566412,0,1,11.1120909173567,-0.42584799949850843,2.5229008888088083,1.3626805784468756,0.39919309683363624,0.05478996060212328
743,12.948027537145492,1.0321742975116275,0,1,10.856048661354512,0.3791383639973372,4.321911164874486,1.1139019876506189,-0.4756932782493173,0.061267460087428456
