id,ASVM,GSVM,walking_nonwalking,normal_abnormal,ax,ay,az,gx,gy,gz
1,7.307391956326663,0.08443141931491747,1,1,7.110417488315484,-0.13569643280108673,1.6846796254433491,-0.05232823637295811,-0.033509487810523195,-0.05752874005192719
2,7.9161451245278025,0.09349758471611738,1,1,10.264308929922354,-0.23861610633269267,2.438640946103218,-0.06906133147768873,-0.029380583345424392,-0.07434267821717123
3,8.494015696048656,0.10213492616843427,1,1,9.43352233314174,-0.08789829193305786,2.246758883503145,-0.05735342744062273,0.00209665532818809,-0.06032367530539757
4,9.014163596817317,0.10985878301344434,1,1,9.728280199680205,-0.22020018701269553,2.2118652220020834,-0.07696913748755438,0.017470605578971784,-0.05710827629688459
5,9.456444573190062,0.11626422024059005,1,1,8.959788016096391,-0.2904379264989705,2.268720649554142,-0.09486899939703865,0.01950201488266324,-0.059117356855438806
6,9.808979197121243,0.12106696460875291,1,1,9.243013853908675,-0.16226736523795846,2.3099077018572247,-0.10919921817569556,-0.033140243387713396,-0.08110183863343391
7,10.068357761125714,0.1241334711736567,1,1,9.460093171487937,-0.3580693839067893,2.0697234348790845,-0.06644143036565069,-0.05159634236820816,-0.11991874358307654
8,10.23876203159209,0.12549253308748418,1,1,9.66974512954538,-0.5791671963847155,2.0587781641250564,-0.0387112268008753,-0.06122527641076035,-0.13670679750594442
9,10.330399060401756,0.12532194070224054,1,1,10.019154216945525,-0.5037675611006585,2.1523817499580398,-0.03658661805108455,-0.1010065967265226,-0.10767578235498901
10,10.35760216385326,0.12390888687076002,1,1,10.502056510350302,-0.45456584855419335,1.8278866060068384,0.0005904409987769269,-0.10659498464256616,-0.05177672776123581
11,10.336853759321235,0.1215910633465631,1,1,10.224919504571394,-0.30463969727919066,1.9165097231367878,0.03672297922428377,-0.039996414727547266,0.0022691778503994716
12,10.284900516816469,0.1186933702925982,1,1,9.863621694524477,-0.11428870284313146,2.04927662397003,-0.014487722729016838,-0.048745621816421156,0.04091793712205931
13,10.217097432603753,0.11547808527145598,1,1,9.66544915681892,-0.09770056340538702,2.0144043435202885,-0.07504434848578531,-0.05424370455858686,0.0606475785483895
14,10.146117778897704,0.1121208687040977,1,1,9.606787892927139,-0.07008634708798411,1.9629684881325957,-0.11550331827585725,-0.08496316183687111,0.06017774223317741
15,10.081153839852064,0.10871316974251831,1,1,9.732146681650025,-0.23019353038453805,1.9524055357886796,-0.12464341912421158,-0.07958707826063993,0.04403267535968607
16,10.027675719028606,0.10528092457692392,1,1,9.864298244917663,-0.3526896346614796,1.9598688241358826,-0.09356755915924712,-0.07414349846936644,0.020055960128890177
17,9.987720243292197,0.1018069668073916,1,1,9.912277087296598,-0.4282135310652634,1.9873388614008867,-0.07635521592374389,-0.039419359751245775,-0.0008702472208320617
18,9.960586553330929,0.09825081182347101,1,1,9.862701472495688,-0.4238927386040731,2.1612725069790075,-0.05835609369674635,-0.012965541591508348,-0.012943149933664251
19,9.943755309780466,0.09456839403883881,1,1,9.847896544299658,-0.24302355620349733,2.0865684213703193,-0.044726731995745214,0.0025817552918103465,-0.009009951392708783
20,9.933838073135014,0.09073862820289856,1,1,9.888854802162621,-0.14194515511210887,2.3290901389617384,-0.07410062302764055,0.002357175889907375,0.019917779153429502
21,9.927394041020321,0.08679991442156317,1,1,9.886746113243792,-0.1963914619024797,2.1431751193097743,-0.08476426946522828,-0.026878581613685764,0.0701111746839425
22,9.921507327577938,0.08289007026052415,1,1,9.765632766307933,-0.16571369955113138,2.275311425254946,-0.08856886672689633,-0.010588291026808309,0.10655980766753001
23,9.91408715330078,0.07927386911035661,1,1,9.494766506340014,-0.3065475859935335,2.241750613730473,-0.09174111154147722,-0.006687815966048109,0.10163307918381866
24,9.903923834079487,0.07634003131783787,1,1,9.368514860139243,-0.4576518815768752,2.1268772357005585,-0.059810420326465885,0.005368765588987823,0.07651736500044852
25,9.890586330894816,0.0745570641301529,1,1,9.49019849969582,-0.46211120160625585,2.2857382232074697,-0.04610068705288192,-0.0025017633213260744,0.04776545579565405
26,9.87426142538252,0.0743919022389576,1,1,9.65061309592503,-0.3656758524512758,2.188676542798281,-0.01801694997925032,-0.0023023375493580493,0.024843638556007287
27,9.855605653274408,0.0762098920040482,1,1,9.683629068309909,-0.24354335380347064,2.1478349065038915,0.0047331644574600765,0.032621817715710134,0.014035485284482691
28,9.835630204165081,0.08018245402811555,1,1,9.69695689085164,-0.09294585480336402,2.2593248441172555,0.005432573841762878,0.0507339453582644,0.015786466948413878
29,9.815598597236985,0.08622681697272848,1,1,9.656088650397063,-0.04224157240924059,2.2102885050903565,0.019503251298112853,0.059475354610934256,0.030384683356015425
30,9.796906476119242,0.09399249756013515,1,1,9.49566323796222,-0.09486321764663232,2.252748627918984,0.05277081203853347,0.07410956729144272,0.04130687250043367
31,9.780929419108327,0.10289660362177123,1,1,9.430010280894125,-0.12670860955836916,2.3222404497297973,0.07359043124713972,0.066767240884278,0.04228306869061716
32,9.768851364435635,0.1121992879520222,1,1,9.479233508275433,-0.21663048130655074,2.2754000216916794,0.08562066906414834,0.05362237840623058,0.040156838813911716
33,9.761505368307038,0.12110418381503138,1,1,9.462449967751198,-0.17834767887624955,2.1964228977675333,0.10504967436369732,0.0496358103578472,0.03753298213408802
34,9.75926129226675,0.12886616671516443,1,1,9.428295660675538,-0.12890300409636074,2.2129508743152897,0.13943326706829878,0.045580945491017225,0.029198487580282293
35,9.76198416415888,0.13488878264527743,1,1,9.488943128927527,-0.045628995436809594,2.262249313511769,0.1596246628640504,0.041591789837828,0.024375403682059985
36,9.769069551200655,0.1387953690636126,1,1,9.568151218027975,0.08458111558104188,2.1950432033179657,0.15397219771145745,0.044162850969369914,0.030362287559795774
37,9.779544315954759,0.14046193817994046,1,1,9.567620138881438,0.11885743178711389,2.197512354095261,0.13659670700649673,0.05866155955501611,0.03718930419077323
38,9.792207856223564,0.14000694041672448,1,1,9.552081588877284,0.1301093030134547,2.1613467917561073,0.12336742280612785,0.055642970370872465,0.03812717925506349
39,9.805784801563373,0.13774196925665722,1,1,9.556156431276321,0.10792950021504658,2.198796991893982,0.11079686414832181,0.045564531106038364,0.030595534516978228
40,9.81906493782629,0.1340956473463569,1,1,9.590341482179467,0.03035175581775078,2.2467037736497146,0.10749079087165787,0.034250429908838476,0.015906938905508226
41,9.831014725898495,0.1295277956258792,1,1,9.57726570809027,-0.002753394434081589,2.2269524374969696,0.10696742300166764,0.03931472486230578,0.00967505672926306
42,9.84085250769866,0.12445137731352314,1,1,9.57111184062665,0.043900660309159685,2.2695535875477857,0.09799660412807396,0.05089265646570517,0.005017359013680767
43,9.84808542433206,0.11917612028206666,1,1,9.602584901862501,0.05373080068189061,2.290810553297719,0.08932199986953711,0.0591646000309964,0.007548765231118783
44,9.852510974674928,0.11388176938136628,1,1,9.582561002244297,0.06885049386289828,2.311982791340081,0.08160664404226418,0.07296481437191063,0.00600770572020568
45,9.854190263530247,0.10862240496185852,1,1,9.512875051434127,0.03825626814806072,2.3246639903986326,0.08065934162704351,0.06359482867538377,0.005932886801906965
46,9.853402798648604,0.10335743053610567,1,1,9.504858572239085,0.02999750633192181,2.272320565666554,0.08240221054867246,0.05643663280132021,0.005872678977017358
47,9.850592276659754,0.0980002434382352,1,1,9.661450423963851,0.0333809719728849,2.299146800175227,0.092917472314202,0.05549561824744992,0.010514692101870678
48,9.846307067491102,0.09247246926643668,1,1,9.714769808603512,-0.04035666308710053,2.286546669446263,0.0968646321441681,0.07269423228345248,0.005294634858533747
49,9.841131206732053,0.08675037769045045,1,1,9.588759018532762,0.021624317910447912,2.3620254805465843,0.07836238621511743,0.08615451319377353,0.0027872737529467105
50,9.835601278605525,0.08089163529055772,1,1,9.490491531598247,0.18469448892805626,2.3939946187542582,0.04995734539388261,0.07893094642809197,0.006572910981862374
51,9.830117643719904,0.07503563697729405,1,1,9.415504994326295,0.27667682264951055,2.3414610186971028,0.033106960240969936,0.06179043726083835,0.008162334949823364
52,9.824877143877435,0.06937844290268973,1,1,9.398347493557086,0.2544741789832502,2.3088988149589116,0.01794788210652374,0.047883216986607226,0.0008750106980787424
53,9.819861814957004,0.06413102939946484,1,1,9.509059917654548,0.1509370477619422,2.2833928520827724,0.003302973533654044,0.040285064278862685,-0.0066936107208810025
54,9.81490373539843,0.05947392340302645,1,1,9.58927758007186,-0.035519596602849056,2.31947075660934,-0.0032932982084989317,0.04425128243590768,-0.012954346504943794
55,9.809814947213123,0.05552076001885199,1,1,9.608693214717412,-0.13020196924572822,2.398243273297463,0.00422483594608236,0.04973805892953767,-0.01952659690697567
56,9.804540157925377,0.05229877221432997,1,1,9.58447645003331,-0.09965630522416075,2.4577201320887636,-0.00045601417685224674,0.05065042676286568,-0.01946847731187349
57,9.799275392772811,0.049748234332006314,1,1,9.572446092477556,-0.05327370710486596,2.4773561924167513,-0.008343931764287205,0.048840312793672284,-0.010674660488901805
58,9.794504410124047,0.04773796936342167,1,1,9.576637934224637,-0.025409084130532545,2.4423452641474226,-5.409791272023659e-05,0.049405883545268675,0.0014956806121217356
59,9.790931625445898,0.046091368738243516,1,1,9.460682095323953,-0.047709549169182845,2.5281404342217093,0.02018363167812925,0.04937067156040475,0.0063314748312457494
60,9.789325243467786,0.04461670924455161,1,1,9.336539101949093,-0.09330058525675851,2.478112648040402,0.02861408225680817,0.04007262300209669,0.004834102479445185
61,9.790316106637391,0.043136148678133084,1,1,9.325302212515394,-0.07287263650779083,2.4877960920683417,0.032268581906513986,0.02787552722834068,0.010503884537010564
62,9.794214993940052,0.04150912355471621,1,1,9.394281675435632,-0.0440597826942045,2.4960437678221474,0.036669692129545094,-0.0025075948918457202,0.016787573333178884
63,9.800905309500452,0.039647551916564036,1,1,9.490918681419197,-0.05548731932157869,2.432524701149517,0.03746087890234104,-0.014580334710315985,0.018510733906660293
64,9.80984094520106,0.037521785527656754,1,1,9.51674770096745,-0.08194434181322133,2.4449113351598104,0.03527664146179572,-0.019487637649023854,0.015154711056710173
65,9.820143788401596,0.035157425192953694,1,1,9.552848973492216,-0.07739170820221328,2.41635553120452,0.029832035084708768,-0.015926694724339347,0.011948709432433213
66,9.83076754273166,0.032624139083062546,1,1,9.553460494985698,-0.03223764384115343,2.4520316937059357,0.02776556524040325,-0.017986403870528116,0.007026106613657186
67,9.840682103362953,0.03001878571601618,1,1,9.580895940460145,-0.0183386002561683,2.4830921050279517,0.021353751622441432,-0.010914957584627679,0.00040040260325816196
68,9.849034459509273,0.02744626965978994,1,1,9.605459248064893,-0.01153155501578153,2.4618599033720177,0.01815269538871122,-0.0055088745752923255,0.0028132951051316707
69,9.85525342091589,0.025002097621413314,1,1,9.598035687282314,-0.07579505570222186,2.449347129394072,0.018358648514417753,0.0013749625123199239,0.0085445231037112
70,9.859082939255224,0.022760086021073468,1,1,9.536264350212907,-0.0677523305607021,2.440211110473234,0.018040262507283758,-0.0021893252317721486,0.010676183249991776
71,9.860549566110494,0.020767109698221972,1,1,9.492512653587287,-0.06910549577656849,2.4305758036949254,0.02322260733023547,-0.0065700001267215155,0.0072946638596264775
72,9.859888634728451,0.019044769933636633,1,1,9.428992402327042,-0.09627275729958373,2.473721806816429,0.016942012166537967,0.0017251855210349562,0.008477952723494064
73,9.857463646360072,0.017596243850949135,1,1,9.483276310822488,-0.0195924544354541,2.4556504450504866,0.00967974647942041,-0.005352556189020966,0.012947080945487528
74,9.853708242234909,0.01641585289551115,1,1,9.55876569053745,-0.02312975952886505,2.4836234711338467,0.011622411929519533,-0.007861954501816508,0.013516023092097344
75,9.849101145708662,0.015498920327813628,1,1,9.6441325768429,-0.05344105734752708,2.428237771145334,-0.00013052332395617925,-0.00947768165997445,0.009605391169844314
76,9.844161395408817,0.014849826458922105,1,1,9.636119186043917,-0.0407802343172751,2.385076425787178,-0.009402405327872872,0.009679413242774678,0.007886098909725586
77,9.839437732617666,0.014486516030748036,1,1,9.57027707171899,-0.019075198005109793,2.444885893080014,-0.014662969415133988,0.01731554358706181,0.008985137433167359
78,9.835470375584192,0.014440081451797978,1,1,9.487294115364822,-0.03432102323211489,2.480917457701589,-0.014357184327690807,0.010177855489677591,0.009389488663645544
79,9.832722232332117,0.014748717998849418,1,1,9.460259016498526,-0.12352993127664552,2.437629115245066,-0.008802562512316911,0.0055401305060211814,0.007744211918677193
80,9.831497578937979,0.015446604909364448,1,1,9.443246520522191,-0.1759194032519791,2.458406088765744,-0.01346078785240001,0.002433860235221733,0.0016538639670440408
81,9.831876994408237,0.01654992920782285,1,1,9.486762093887624,-0.14713534999639213,2.477191632321041,-0.01249667876887365,-0.005664471470151605,0.0027002427087982023
82,9.83369297289636,0.018043628975113326,1,1,9.539320732937561,-0.1301081611670865,2.482810380446781,-0.00719912079620444,-0.007712665738008153,0.002397749523384043
83,9.836555348003822,0.019872834126141034,1,1,9.547119639629944,-0.16173468741125743,2.480670285281936,-0.0010636766809775672,0.0012471156415284346,0.005980416141093044
84,9.839918948531773,0.02194221089769826,1,1,9.502902890351427,-0.1717944379319882,2.4571231290535205,0.009427935632717111,0.008824459074838692,0.014362105084228773
85,9.843175759446526,0.0241245372058755,1,1,9.53660311445985,-0.15663163927972273,2.507290222181951,0.021532581103020965,0.00391129086919167,0.02030738774384447
86,9.84575186505927,0.026277219981929376,1,1,9.547850093094786,-0.15712678090393328,2.521894605235265,0.02720027282326202,0.001621148625245935,0.017852029676896475
87,9.847192113269193,0.02826303990723944,1,1,9.54416638480375,-0.1344690836409571,2.4739073157145812,0.02405259093979107,-0.0004321006120118611,0.01759644910532793
88,9.847219729979631,0.029970252765580758,1,1,9.549648217149597,-0.09977667927631544,2.4681402826314605,0.027991624344225374,0.008652542960033921,0.01924797629585627
89,9.845763775204219,0.03132762164136942,1,1,9.52561263575655,-0.08455952327747691,2.4676895935183247,0.03156073996420111,0.01024015121906368,0.017976921463438496
90,9.842954295801631,0.032311452106052206,1,1,9.515141642450505,-0.09167925272523995,2.4481184446229625,0.03130308744737505,0.006492921398686868,0.014023794602402816
91,9.839091444546169,0.03294358068727928,1,1,9.518597658124822,-0.10029503447109742,2.4290478700767144,0.027784394027363067,0.006140630103629806,0.015865837865295468
92,9.834598322648105,0.03328117087208874,1,1,9.514511302063768,-0.11034022915931435,2.4544938055507552,0.02148539964382403,-0.002845326640154828,0.018360648427006656
93,9.829966871772323,0.03340079543227032,1,1,9.526062543976233,-0.08239005360516022,2.485659385491181,0.024951044235194685,-0.00717144943599533,0.016582844151890434
94,9.825702900573274,0.033380204595408816,1,1,9.520446939851727,-0.09239041970235189,2.4536719935439115,0.02827739300368757,-0.00878044663873976,0.017333717844192856
95,9.822272867549373,0.03328118690328893,1,1,9.516324036388067,-0.07827913873309533,2.501434156832535,0.030132075181660015,-0.0010416129952143629,0.015835843268171872
96,9.82005377632524,0.03313631431602363,1,1,9.49946493635559,-0.07971630051715478,2.523556178306042,0.020888368823552234,-0.010873099803041424,0.015123905259986631
97,9.819289194796331,0.032941634980169006,1,1,9.455349640181403,-0.09622453097175847,2.4819848908363427,0.018159500517366062,-0.007617911918002256,0.011666470454374092
98,9.820057596626604,0.03265668030168426,1,1,9.46885311599889,-0.09208651356776153,2.506667676731259,0.027928861239618914,-0.014773544266897944,0.011510923783375964
99,9.822261037973076,0.03221215509087429,1,1,9.481131380861251,-0.10860517498924253,2.5051251256717335,0.024515883547917262,-0.017930418188479944,0.005974644535776231
100,9.825639895827766,0.03152417092813858,1,1,9.501678133018446,-0.1032308738638215,2.4928431584520463,0.024378931094522962,-0.022923554023687825,0.0037358004994279535
101,9.829812827770604,0.03051226221048663,1,1,9.53181730560725,-0.11169802108205124,2.4640961961070245,0.025357481207569737,-0.024032974663328703,0.005847574353328488
102,9.834333292597293,0.02911737950331998,1,1,9.555540188487562,-0.06373557808661551,2.507692022801807,0.025003723214639433,-0.025768485142308117,0.00533874862192808
103,9.838749040027453,0.0273159982495738,1,1,9.561824906895586,-0.06528810312580582,2.476568463225227,0.02640891068420648,-0.022054227782663447,0.008212125118431196
104,9.842651745415376,0.025127463424729914,1,1,9.496873753140084,-0.07675251985774106,2.4897721022659014,0.0188310822882406,-0.011815784161840252,0.007167791244587656
105,9.84571047321656,0.022613505113374482,1,1,9.48647975277239,-0.09756156689687602,2.44265845412884,0.012433956439377836,-0.011264181011724037,0.003545115337978921
106,9.847691268228091,0.019870939298517364,1,1,9.507540894508528,-0.09332830772423016,2.4655620894705854,0.010707867555015354,-0.015528988250300638,0.0015121156128008906
107,9.8484699394729,0.01702007556381876,1,1,9.564880881864974,-0.11918514724051016,2.4291786601569965,0.009107388951885695,-0.013981968299360367,-0.0011984831623566797
108,9.848042590415007,0.014191759175566268,1,1,9.565542746704732,-0.12071417178066914,2.4522797859253216,0.00802285296622957,-0.006921608338489005,0.0008563336761607331
109,9.846531511066585,0.011515475369749595,1,1,9.55754079035662,-0.0866059996257754,2.4325960279145034,0.0030702769719696027,-0.008040546701930757,0.005018410123041056
110,9.844179194826696,0.009110096538066494,1,1,9.572839513698897,-0.08404442699491131,2.402945525303806,0.0028491252291753043,0.00046251210522681304,0.003715992113618002
111,9.841324462846075,0.007077959567453187,1,1,9.521626970895039,-0.08546735800938515,2.4396517178824237,0.0005868869321627025,0.008193744993178563,-0.00047623448452633016
112,9.838360775127109,0.005502023420105547,1,1,9.509789908661237,-0.13243814737790444,2.4056298454632676,-0.000485260519064488,0.009680595953313241,-9.161754070369075e-05
113,9.835683635951142,0.004444967422448593,1,1,9.52244910421823,-0.13231700397001026,2.4169048984757704,0.0033394959996305876,0.006500628229950704,1.7680732354480885e-05
114,9.833637720143345,0.0039485817469037485,1,1,9.542790065623272,-0.12437702935531723,2.429641517016673,0.0071588172186308795,0.0005787335782410749,-0.0009675867343757216
115,9.832473596462764,0.0040319850065525815,1,1,9.526187645573481,-0.11892885906068867,2.4223438820504346,0.005343647617442805,0.0020131494886538176,0.0007285608084285866
116,9.832320462367035,0.0046880540871560945,1,1,9.486455169040559,-0.06982841284826932,2.4574728332285978,-0.00011929985321340543,0.0024376064575395017,0.003847774418237453
117,9.83317790709359,0.0058786115291143215,1,1,9.513829762158052,-0.07279306543324827,2.457622671473941,0.0003099571606670988,-0.0017007745380282178,0.004706545411696554
118,9.834927044682166,0.007529959456016072,1,1,9.531031689648527,-0.10310941250541732,2.4431572980156964,0.0005625035775000298,-0.0005846452965220294,0.0032700603654361973
119,9.837358118103056,0.009530966069548326,1,1,9.547125156645311,-0.09904735848646758,2.426765772703844,0.005314846338319599,0.0017448317747996408,0.0021415567420598573
120,9.840207754585835,0.011735924519984066,1,1,9.547492183757134,-0.12152367719486139,2.4417610974971087,0.005094290388502756,-6.224048790358269e-05,0.0032186023674996424
121,9.843196496733796,0.013973745062536925,1,1,9.563010866775038,-0.13550048128710449,2.407241668878011,0.005666008693439993,-0.002549978084449367,0.0014952875864485229
122,9.84605798655816,0.016063740762880137,1,1,9.569289856577193,-0.1602230287982854,2.4324105100275064,0.019253454106764004,-0.001390031076844056,0.002055227915955153
123,9.848555379031168,0.017836505787053047,1,1,9.52125903639108,-0.15643603069123263,2.451598420990486,0.022585592187811337,0.0038573423931074886,0.003052916387491178
124,9.85048689664251,0.01915661825830069,1,1,9.497230675758436,-0.10687582007656299,2.473059733123665,0.02039562098613562,0.0038159370765610363,0.006002378652855465
125,9.851688488314409,0.019942806456626223,1,1,9.494931444332076,-0.09416087867497548,2.4089125704967547,0.02377243696171301,-0.0019854810720229357,0.008895904108168427
126,9.85204379403465,0.02018127555044296,1,1,9.50906219989,-0.07968895333446778,2.4302996161184542,0.025385084166087663,-0.006523980301636775,0.009612425830282411
127,9.851507051086246,0.019929033222673354,1,1,9.610500644448292,-0.11389351113193277,2.4172649166091,0.019100007234550347,-0.009471370514486266,0.005517214563546375
128,9.850134033374564,0.019305874749547227,1,1,9.626879678491635,-0.11577464580248985,2.3833689143751124,0.020501508329471774,0.004388828755063155,0.007096543158371356
129,9.848105714695079,0.018475804489059326,1,1,9.574976295933826,-0.0836049301835463,2.415731125134738,0.018616534939757658,0.0073452261962491374,0.006231581260276672
130,9.845726936767283,0.01762072817569474,1,1,9.545723810828283,-0.05424724848746642,2.405552239122415,0.007731222043147876,0.0033328840154076152,0.0058035916958342725
131,9.843390700196185,0.016910868057806512,1,1,9.530793849491337,-0.08318402634913805,2.424892288820956,0.00834493109854908,0.0045607784484207655,0.006667812374901364
132,9.841512634919725,0.016477164237774577,1,1,9.5087245390435,-0.07907963379514427,2.453739521727456,0.0019331773760935859,0.008262352748465583,0.007097272668545229
133,9.840451600350718,0.01639065771235318,1,1,9.498067489003676,-0.09211254696066792,2.436380693536607,-0.00486617929311115,0.001366777430660143,0.00978978297986546
134,9.840436580119594,0.01665249812184823,1,1,9.501755686280676,-0.14547786809097202,2.476879803352732,0.006985245887423498,-0.005275707292840792,0.00722376942828333
135,9.841517193333248,0.017196140472734007,1,1,9.521001561015924,-0.14809900965775827,2.459161811835053,0.014378913911681813,-0.009626634640137686,0.006171574764741978
136,9.843547701855941,0.01790101637868683,1,1,9.542772664485867,-0.11685448403961281,2.4360504538030714,0.013794030328292175,-0.007909508876784275,0.009108580991944629
137,9.846205518800678,0.01861496015603478,1,1,9.561238183979208,-0.11324526976843045,2.4358287029172248,0.014342433382475903,-0.008462393708425841,0.011158993578952961
138,9.849038113096233,0.01918130219995333,1,1,9.53532594559601,-0.08235776180328325,2.4270244608428864,0.017431785653253096,-0.008829174930673098,0.012910208905800595
139,9.851528859455765,0.019465995730106097,1,1,9.539114373312948,-0.07694814885564988,2.4388523641287754,0.020256480546251617,-0.007627439332610924,0.010211945071498824
140,9.853172410699779,0.019380384906663408,1,1,9.517054675676013,-0.10775680210332896,2.431561899682417,0.020897458392550854,-0.007444978561258471,0.009613581653932701
141,9.853551095316785,0.01889612295064352,1,1,9.568788859127304,-0.1097567246157059,2.4241453618494226,0.021018370518757705,-0.004239830716923344,0.007397145781900639
142,9.852403273075144,0.018050164847954325,1,1,9.593693170277229,-0.11541370491995502,2.419932655997136,0.017641309420004317,-0.00025364986877938995,0.0034962760299060433
143,9.849672736340125,0.016939458305926584,1,1,9.585045370790862,-0.08969043254079385,2.398130431514991,0.016389688046690984,-0.0020559341371564925,0.004431346149832115
144,9.845528232838962,0.015706582742687592,1,1,9.558887586157562,-0.0532421925152222,2.3912347719409643,0.010950440605012083,0.00864629937757665,0.005643054034134217
145,9.840346907312776,0.014518795949581982,1,1,9.51739868717054,-0.07535285739499861,2.4082804146603243,0.008544778604820804,0.010799070477386296,0.005175930204795417
146,9.834664020981494,0.013543603964013018,1,1,9.512132875055496,-0.12446212103208096,2.4472428775036237,0.010221777829456808,0.007266723322052019,0.004989176885304903
147,9.8290992648642,0.012924185072396123,1,1,9.50930615709059,-0.10743429149671585,2.4446422025271226,0.0105236027174863,0.0006093961839971705,0.0024545863400211167
148,9.8242733965163,0.012757968030055597,1,1,9.531594134624667,-0.1121264142130263,2.4419351671927894,0.004611441500037169,-0.0007683348846807419,0.003787952478573183
149,9.820727656720464,0.013081428062678663,1,1,9.517518736947963,-0.0866232045263039,2.4334085758400428,0.0017662982392606954,-0.006557630951958514,0.005857878555632306
150,9.818855429731132,0.013863544879618496,1,1,9.489697835438331,-0.08528676621032868,2.4223491073286487,0.002918998494078379,-0.006706655577160823,0.006132630518322708
151,9.818853598570508,0.015009180423017658,1,1,9.491170524963957,-0.10845251957720736,2.438599539534317,0.0044017136075970255,-0.013006275742613666,0.005777073972256429
152,9.82069993758867,0.016371981545114656,1,1,9.50131940408977,-0.1481669153387002,2.4016642089010682,0.005375208454004609,-0.014220899146291606,0.004998223785373695
153,9.824160524074063,0.01777471315501888,1,1,9.507226486165646,-0.12695770151143485,2.4269542521340504,0.005599048549614737,-0.01900044009957881,0.0063324821985205
154,9.828826189207593,0.019033654568742467,1,1,9.565835037909665,-0.13346387804139562,2.4054884098017433,0.007031275958384665,-0.021456734874370345,0.007570660957804789
155,9.83417077187895,0.01998313924054848,1,1,9.554484980852141,-0.14790754186996707,2.4367168142974274,0.010340680385151133,-0.02092003126399258,0.0031948549812877694
156,9.839619590140988,0.020496564465711176,1,1,9.521052749844552,-0.1352023263461804,2.428232573835241,0.01487251073490769,-0.015692633710676997,0.004377278991351589
157,9.844616655414082,0.02050112512892785,1,1,9.532664094464886,-0.11869083517380358,2.437455088549596,0.010084577640927496,-0.017197839889055808,0.003143193455892146
158,9.848683159557924,0.01998481120597857,1,1,9.549027927227998,-0.11187173743665885,2.414986907587443,0.01336513432414974,-0.018495744669101564,0.006317827816649264
159,9.851464271672278,0.018995450963000114,1,1,9.529810238391905,-0.09768399212334823,2.437155480269588,0.007571648894798317,-0.017117978838838924,0.0072375471604086
160,9.852763380208247,0.01763256275756946,1,1,9.550768063855244,-0.10531262281018305,2.440185919138079,0.006122060902880388,-0.013284967197338383,0.006203323881886071
161,9.852562461321199,0.016033533645563463,1,1,9.559412222055403,-0.10990990974681542,2.436239332662214,0.006185034624367535,-0.015701825636109303,0.004266103623156317
162,9.851025873853814,0.014356238086573823,1,1,9.569361597520055,-0.12787073848251138,2.4002757013509166,0.004843497704359921,-0.012239267568318512,0.0038473119363765687
163,9.848484322269803,0.012760590686543507,1,1,9.563020515427263,-0.10675288179431369,2.416188594574651,0.001633734921281395,-0.004620655577331347,0.0014837051918187905
164,9.84539722407006,0.011391591199326612,1,1,9.54197944943449,-0.0676847803261277,2.423025911007014,-0.006113318303251803,-0.007685349270275786,-0.0003977762988984132
165,9.842295426200527,0.010366061200306025,1,1,9.534352346323214,-0.08097582968941988,2.4032871212496203,-0.007970240708327688,-0.0066669772891961325,0.0006068342701309841
166,9.839710838913934,0.009764438878751875,1,1,9.522944597720334,-0.127429726047607,2.429485729583369,-0.00818278920298606,-0.006319802528431408,0.0024633925623267234
167,9.838103016925988,0.009627903570346864,1,1,9.522183608494963,-0.1715801802079304,2.3971950818475234,-0.00675013321464653,-0.007078382302575151,0.0015598948900071663
168,9.837793493077216,0.009960191150519755,1,1,9.556641604400792,-0.16757118811933006,2.3894553827912364,-0.0013143318326490178,-0.007645361677104715,-0.0016462483956019443
169,9.8389167921251,0.010732999113710598,1,1,9.550118872602274,-0.17062786170027675,2.4031665033182215,0.0045321228539110065,-0.0077688739265986875,-0.0028509572890100233
170,9.841394144062662,0.01189371626595812,1,1,9.530400611534734,-0.16209734329682887,2.373631910581742,0.00830088620021812,-0.009060547027651664,0.0036052178190990143
171,9.844933893653188,0.013374051760533133,1,1,9.516170458151485,-0.15025594459814845,2.3839009152220174,0.009359481818754302,-0.010238370708571013,0.007814174257462355
172,9.849061627537207,0.015097923142203777,1,1,9.546757709992127,-0.1468019399326111,2.3602827241488717,0.014560167003846283,-0.01161619451282578,0.01319488338355541
173,9.85318103819942,0.016986959582119324,1,1,9.554302915321076,-0.1498595691884452,2.3548611219618234,0.014782812366911632,-0.009859218329243798,0.010375798843867825
174,9.856661594286807,0.018962542039239683,1,1,9.562101611390547,-0.13405764116317131,2.364658502004526,0.011370523418418366,-0.007325055324888606,0.009116128241985934
175,9.858941865149454,0.020944501807751086,1,1,9.602355401340787,-0.14145405371390357,2.3354153779096802,0.013632288944294184,-0.002939363130591522,0.007761253946591281
176,9.859630610011411,0.022847974971788067,1,1,9.628311053200813,-0.14040954874118394,2.318515105927424,0.023557623400960105,0.0037059003685340165,0.0022123831618425555
177,9.858584399206693,0.024580753230193333,1,1,9.621400514797193,-0.10010293326604723,2.330227869546733,0.021006371928193206,0.009518273220687991,0.002204181922327615
178,9.855942728996233,0.026043448209912907,1,1,9.608475186291214,-0.07266371411686008,2.3032885590939425,0.01357110080086908,0.013630593682076118,0.000392538368239715
179,9.85210997975711,0.027134135324987103,1,1,9.566270872068136,-0.032878382887035894,2.3219912809558028,-0.0019570056739548086,0.020565879115968445,0.0010762063693045367
180,9.847686152956783,0.0277581568179998,1,1,9.545610406841716,-0.020374749229339,2.326705018604379,-0.011869582168675051,0.0234630642868339,0.00023561428086934445
181,9.843360642464441,0.027842422591126383,1,1,9.5507512641987,-0.040327405806916836,2.3302385465840394,-0.01890886928396656,0.024141820521046672,-0.002874265164449163
182,9.839790906195647,0.027351899390326565,1,1,9.562375323200575,-0.07038661903045926,2.31985358130895,-0.02261608168936392,0.023088945460272233,-0.006682122305444463
183,9.837489206208891,0.026304548008475637,1,1,9.525409766293201,-0.11216809915272899,2.320111209427594,-0.025887756752569508,0.017173715361654816,-0.008805683448958324
184,9.836737185677908,0.02478046680503926,1,1,9.521653265860051,-0.14417052748142967,2.3164244415016655,-0.026872558427917363,0.013298112636476189,-0.00890210057638866
185,9.83754222455834,0.02292175313052243,1,1,9.552688531699824,-0.14363594388223758,2.308639584405995,-0.024738252850063265,0.008671565199400376,-0.009000833810178492
186,9.83964201825653,0.020921386116960594,1,1,9.566522413140556,-0.1426199836902173,2.320372742693951,-0.022740682353103094,0.009259477761890064,-0.0067803911545563245
187,9.842554959632038,0.019001772827572223,1,1,9.575335832939366,-0.15036574210211584,2.321870007991905,-0.013650860351937097,0.011833588394702478,-9.825836293099264e-05
188,9.845665561277539,0.01738596730116268,1,1,9.567135480482905,-0.1625838878324227,2.3058867738264737,-0.00552621194701589,0.006128934655294628,0.002981047883064521
189,9.848328908354759,0.0162664461138746,1,1,9.575290454298681,-0.13541070815052342,2.2958833176391225,-0.0015826465351192174,0.009174053852593513,0.003925464999847607
190,9.849976665514362,0.015777154418142158,1,1,9.60227090412238,-0.14072531394641788,2.286504820284551,0.0018389186825802102,0.007801971226296173,0.005338593416137467
191,9.850208098255463,0.015973961665914173,1,1,9.619053592328521,-0.10467606098372786,2.2733536612818503,0.002361737003920395,0.009007574928920131,0.005074748712690946
192,9.84885187415544,0.016826833576659934,1,1,9.59238032493297,-0.06834350744166917,2.2939956248668194,-0.0069843390738812735,0.01299103177898731,0.0009669818514529282
193,9.845988684911285,0.018224556356951662,1,1,9.587776675491751,-0.05570660966778727,2.321131553381113,-0.013827987510861554,0.012169343856794966,-0.003920571776841868
194,9.841931683261347,0.01999045449672215,1,1,9.554193351542438,-0.06123202461558104,2.3538886947256503,-0.022575577582784973,0.014190310901155707,-0.002937599119735154
195,9.837170248824698,0.02190578599968902,1,1,9.503337562946975,-0.08845039524677606,2.352778695322248,-0.023084845188628154,0.00856451018315468,-0.0036061530156683203
196,9.832289873882285,0.023736750705992994,1,1,9.531741311183387,-0.11158397431608985,2.3715382144306467,-0.021480589196321898,-0.000494169518251883,-0.0022987041715055254
197,9.82788411824211,0.025261348500876045,1,1,9.569754467335946,-0.14625140785471008,2.3348089287488545,-0.025160464243455995,0.000333852557993536,-0.003682056313274744
198,9.824472731741285,0.02629322499436167,1,1,9.521183049044877,-0.09812062122986379,2.404952149984885,-0.025011305849364573,-0.000741230225313149,-0.0029510655152524164
199,9.822435516282377,0.02670046787383565,1,1,9.51467559318503,-0.08114037432628177,2.3989952953115483,-0.032420195744919306,-0.009810883432539037,-0.003841948220760282
200,9.821967969240141,0.026417762940182523,1,1,9.513667186831277,-0.10838748385055087,2.391655683038972,-0.02889942884955699,-0.007069278253716982,-0.007512139305837525
201,9.823063407699248,0.02545068733751312,1,1,9.488296176267585,-0.12259354373983679,2.4330338046103708,-0.02110667548048507,-0.010870757278382007,-0.0065590085570603
202,9.825525076549777,0.02387167204667211,1,1,9.494401046776877,-0.15560368539076383,2.4241674098573207,-0.01974850977649935,-0.012548933349909488,-0.004007191918322488
203,9.829008290671256,0.02180832637296896,1,1,9.517694173292288,-0.14095360846934654,2.4052003941839137,-0.016600762082056613,-0.014409249598462844,-0.0037659275091776476
204,9.833086426919426,0.019425933345291992,1,1,9.57531166166778,-0.16416055724881015,2.3946151720611195,-0.011705881780268922,-0.01679683916325264,-0.0026984226334993183
205,9.837327230807826,0.01690661801508715,1,1,9.593133204389872,-0.19425210197610313,2.3859618619109604,-0.008356496405165802,-0.013733833158166182,-0.0005951227320836478
206,9.841361006230555,0.014427994352802277,1,1,9.5877079534028,-0.1582017719334206,2.4028216054995672,-2.4121236269154152e-05,-0.009126478546053012,0.003900303274990746
207,9.844923753890333,0.01214418210326501,1,1,9.551437124161593,-0.12465624602288114,2.3840135014225092,0.0018051827295552808,-0.0037622254473045043,0.0038254802067689882
208,9.847867335018895,0.010171872364718886,1,1,9.51187593553964,-0.11672390048659802,2.415897829510959,0.0030641985157111667,-0.0032097481280495867,0.0030415046922177163
209,9.850141491789568,0.008583332390588155,1,1,9.486243425300886,-0.09956245700398794,2.449072264884917,0.0019381231999746607,-0.0069240218873831486,0.0032609818137374924
210,9.851762212416524,0.007406798262042778,1,1,9.533213540585828,-0.11039013320504888,2.439767243956916,-0.0013235839452797732,-0.010387547637040997,0.002840630269633087
211,9.852782312077215,0.006633003408387115,1,1,9.568826186302516,-0.11977734420218042,2.405435825432291,0.00992263208271817,-0.011296726951285042,0.003636341726833776
212,9.853273524371279,0.006225358758707382,1,1,9.562363491152968,-0.12971531549243628,2.3838503493768317,0.0035958394452819354,-0.0031267146500968323,0.0010031746876451768
213,9.853320167186492,0.0061311101667710114,1,1,9.58506625131875,-0.10657275430085991,2.38380827694238,-0.00019991022499291186,0.0010076674768853973,0.0030419219992466736
214,9.853018357060483,0.0062915787790034094,1,1,9.574388304896994,-0.09744528814274167,2.3815484121296486,-0.002085850106130716,0.0038893246765792145,0.0035996242851314003
215,9.852474070753063,0.006650618285191835,1,1,9.547973741549802,-0.09646259328281655,2.412698849040463,-0.0028246727849395503,0.007659071124000642,0.001301846531870558
216,9.851796736004786,0.007160987654589036,1,1,9.526246616549743,-0.13917048459220407,2.4155009675136885,0.0002731701089515945,0.010135065567341426,0.002584967989887476
217,9.851089520199372,0.007788396159094486,1,1,9.52875853188011,-0.11754280945154436,2.4028165535995094,-0.0005703197631976214,0.00808453881231072,0.0034195507620728848
218,9.850440049985792,0.008513010136033594,1,1,9.576258270422965,-0.1384211722670474,2.403042725735079,0.0023983707399851287,0.0038128650252111365,0.002679114798347411
219,9.849914351504424,0.00932852787587599,1,1,9.571120332032974,-0.14655582479026727,2.3876379299919552,0.005799389841633175,0.003319778846076623,0.002609488916959848
220,9.849553700628556,0.010239331406121276,1,1,9.565600488782128,-0.12288883642578043,2.380724301542557,0.005761461141015408,0.010324725556859746,0.0013537869735661414
221,9.849372174990359,0.011256338288677952,1,1,9.53273561764115,-0.11421733862612538,2.4287416625361384,0.005659656213600629,0.01159436515718403,0.004622837514333196
222,9.84935391410167,0.01239196311249694,1,1,9.52947451611894,-0.11818624527290336,2.4124574595786203,0.004715375775351351,0.010490801847295492,0.006115540168230862
223,9.849451873132027,0.013654406300695976,1,1,9.546089994656482,-0.1359035804565893,2.394657998614337,0.005939010301792758,0.012847452885293249,0.005669176048986324
224,9.849591097816798,0.015041630573709396,1,1,9.5485806792766,-0.13035640469104554,2.3713221099480437,0.005496605035774183,0.011892981492150831,0.002857771036833656
225,9.84967780632707,0.01653580820294607,1,1,9.583405084501045,-0.11102059988786325,2.386262097160126,0.003738018889425776,0.010555757759153704,0.003113927895376979
226,9.849612137362055,0.0180993907387855,1,1,9.593194790465503,-0.12956971912610465,2.3759877199681445,0.0007477642701931701,0.016426349747464066,0.0016720034132659788
227,9.849300172649356,0.019673929533004657,1,1,9.544140578122557,-0.08867942218732448,2.3999434144502847,-0.005114273450176592,0.020510138525983858,-0.0005352210867452963
228,9.848662057718617,0.02118226248194427,1,1,9.509376789028098,-0.0846741815136735,2.426294117721958,-0.010698366852823696,0.019180500750161252,-0.002026577211389911
229,9.847637219683325,0.02253393973465197,1,1,9.520646329149105,-0.06300233842348205,2.4062410370546967,-0.018795380856186386,0.0113293262295231,-0.0009809029445582258
230,9.84619107520715,0.023633207125920763,1,1,9.530969102824205,-0.08413040768905018,2.41632650263602,-0.018729829924287258,0.012441340458222622,-0.00389477444127472
231,9.8443263940234,0.024388671246979726,1,1,9.582902718733463,-0.1283881944262106,2.4203895407206972,-0.016962275383542714,0.011896045836147392,-0.0012380151778500046
232,9.842096872565595,0.024723733329051943,1,1,9.591955963794023,-0.14388057982599964,2.4029572141719178,-0.017849417978665672,0.02208518971033341,-0.004335433360389846
233,9.839615230779454,0.024586735701436966,1,1,9.541958604572256,-0.12440021372098689,2.4001368113616137,-0.016986300412411167,0.018430880488177547,-0.00061946521168073
234,9.837048356409001,0.02395951889610145,1,1,9.526821659443996,-0.08002785716362512,2.4027177263500015,-0.020907662823485593,0.014175458247491435,0.0022842030769770717
235,9.834598244692698,0.022862990090650282,1,1,9.490115333410273,-0.08683507780070336,2.3969863130396267,-0.020535087236387622,0.015413413210069735,0.0008594172909932252
236,9.832474969077941,0.021358548578196638,1,1,9.519471334209342,-0.11365907234580838,2.450746611899489,-0.01805954720451706,0.011974136225074228,0.0019413651500276175
237,9.830870931256106,0.019544761968691877,1,1,9.525822147192772,-0.13658131697915418,2.43190801209049,-0.019097084731699555,0.01019939175774392,-0.003004385820048776
238,9.829942553934227,0.017549380943147064,1,1,9.54349935983871,-0.11889963401673376,2.433016254143609,-0.01687071083561051,0.0049523398863335994,-0.0029948000785125243
239,9.829799744427165,0.015517497195706048,1,1,9.547925625022934,-0.14526943026595696,2.451092547603474,-0.015415775331180326,0.0043668904517820874,-0.004085100680684436
240,9.830499671055374,0.013597304523521704,1,1,9.497608574083312,-0.13757095976024294,2.426929390480068,-0.006738803984826217,0.004902449861766705,0.00039894508917878415
241,9.832041892767256,0.011925407447858116,1,1,9.514728874770846,-0.09894065552754154,2.4326087005026547,-0.008270895220342633,0.0066788587110752995,0.0011620235914342307
242,9.834365018226906,0.01061376738428192,1,1,9.529274903638958,-0.09344215334087641,2.4228356178214563,-0.008034829342180935,0.0020165361455724896,0.0034257140756701297
243,9.837347308561341,0.009740052197467746,1,1,9.526359389918648,-0.09596331225709742,2.45226073618928,-0.007398894659820813,0.0003376880474143617,0.004670177457169228
244,9.840813048032606,0.009342441565678306,1,1,9.544542622886777,-0.12064030642086453,2.438552171585645,-0.00865456412699288,-0.002661424036713854,0.002541327474395155
245,9.844544262704437,0.009419119635281052,1,1,9.547413044759088,-0.11885638219288143,2.39860640294285,-0.007893429698238474,0.00023358682919000698,0.0012857321944257979
246,9.848295811945981,0.009932005722494586,1,1,9.549546435759783,-0.10845070802532436,2.4178536415780805,-0.009110999265097695,0.0024699422400310017,0.0013637658708877366
247,9.85181202763105,0.010813791086646736,1,1,9.540364949874519,-0.1295279470601485,2.447787958681477,-0.01057195123149845,0.0035943921962086353,0.003309293072623739
248,9.85484429373759,0.011977012000749892,1,1,9.526832657777948,-0.11986398189078938,2.437679315669731,-0.014213140592080177,0.004218585428033675,0.0032779311386824943
249,9.85716998721222,0.0133237010943515,1,1,9.553286708865274,-0.11349452223107837,2.416683023151623,-0.014334490846374481,0.00750793612482031,0.0047197071325917675
250,9.858612992805552,0.014754244733734476,1,1,9.564111865675345,-0.1354504520305664,2.4342762015066715,-0.011089273009934428,0.007641932174152583,0.003017064731636728
251,9.859064329405244,0.016174538470272032,1,1,9.547867909363788,-0.16374305462141647,2.429023411836887,-0.007350191112988253,0.011815189106094958,0.0020414348998634272
252,9.858499220650192,0.017501240008744638,1,1,9.5585734760482,-0.16988460319907364,2.4479867370521453,-0.010585795935215981,0.014310735090919124,0.0019781882553305016
253,9.856985652430378,0.018665501811019218,1,1,9.582274305208406,-0.14994285008394787,2.4186736605750503,-0.005314506335399814,0.012341211135125036,0.005617884537491565
254,9.854679961104164,0.01961572159647534,1,1,9.578689012773435,-0.15321734207881532,2.4021294842148717,0.0028819193682087275,0.018544342182841213,0.009586601579625632
255,9.85180759356853,0.020319581373749868,1,1,9.53336491769014,-0.15120783863244847,2.4082450609322827,0.0024508560995140506,0.022708378385578952,0.006351081357774619
256,9.84863171074862,0.0207652114828975,1,1,9.489768979824607,-0.14516890249060427,2.4111782002985342,0.005170278469771712,0.016671296988810536,0.009210059469595843
257,9.845416960684135,0.020961036740035226,1,1,9.546916928879172,-0.1394079552130606,2.4187879318989607,0.009405241879161278,0.017040914123574034,0.007279613264679481
258,9.842397102203758,0.020933909546645976,1,1,9.559206899977642,-0.15301945244910772,2.4587722456238605,0.008503078820802906,0.020333139829195466,0.0057727957392557944
259,9.839751690666292,0.020725412176787902,1,1,9.547650159000778,-0.17804874039157786,2.450146303472904,0.01028252394794791,0.018159775073238356,0.006102261302980615
260,9.83759193589542,0.020386517751062375,1,1,9.524573397546238,-0.16371204206059603,2.421168651720889,0.010364460917999146,0.015472902506657936,0.006688765864896566
261,9.835953945070877,0.019971083513908663,1,1,9.510569018153696,-0.13227024376066016,2.4481019322513906,0.014455164004566883,0.01446505763111114,0.009674261329566877
262,9.834799753682296,0.019528963384947785,1,1,9.500556684822005,-0.12771350766067358,2.4470118618211494,0.01025601578360779,0.009962535321804631,0.010496026546809097
263,9.834029161488079,0.019099854125706493,1,1,9.494706195064445,-0.13737601441538747,2.4408163401130696,0.008262710568311455,0.0005960999634277345,0.01194150133961059
264,9.833504608053616,0.018709203329235116,1,1,9.544658479779491,-0.1768811118285168,2.426303936153277,0.010204590482611617,-0.002252066699914413,0.010060203820827545
265,9.833086552907853,0.018367384214071466,1,1,9.553058015239872,-0.21241192313406013,2.4150836302595438,0.01335901774253311,0.002634480965648459,0.005604380884575169
266,9.832670674096034,0.018072667002244795,1,1,9.548302695560688,-0.17719158529513201,2.430140516957893,0.01883869802784929,0.0022274168613819496,0.003403179964708089
267,9.832214566125362,0.017817335925342515,1,1,9.567486719768649,-0.17530553000018392,2.4356570231215344,0.019115880997849173,0.009839178131840404,0.0033362746210692787
268,9.831743271713103,0.017595058122088097,1,1,9.541261690693112,-0.14029739753358586,2.454729115007227,0.024560532313559775,0.01031282450279444,0.005705216284969282
269,9.831330024770294,0.0174069566684591,1,1,9.50438370401134,-0.10009945983440399,2.440350345167625,0.01676351468352164,0.005246427034480852,0.00885764268384836
270,9.83105863618762,0.017264240780677346,1,1,9.457063691377549,-0.09567079135877372,2.4799488763687565,0.009192789183221183,-0.00031059415396344055,0.009194823153630387
271,9.83098286616189,0.017186596547203458,1,1,9.452785198564968,-0.12310500448724195,2.4791373998137543,0.009288001971740109,-0.00937525529433063,0.006923982321424912
272,9.831101028634153,0.01719709482534428,1,1,9.514159736706521,-0.15857261961295546,2.4576306456950068,0.008401943821944344,-0.01415868782630902,0.005998223836257521
273,9.83135817300909,0.017315280319246777,1,1,9.517546878113354,-0.18091796466219698,2.454797121319876,0.011964389933829376,-0.015445517447753063,0.0002096638771941539
274,9.831675680966395,0.017550157080843645,1,1,9.544203910808521,-0.16553446692406273,2.4679751547038804,0.006767154648113281,-0.014656647228267372,-0.0003882045891768225
275,9.831995333008788,0.017894457359492678,1,1,9.557812927031181,-0.15140220339794339,2.4783727954718238,0.009274062113935937,-0.011581719358234424,0.0031737927463183434
276,9.8323179427359,0.01832133924496381,1,1,9.55510469232622,-0.15899835344224741,2.4939108128648915,0.010782147344818364,-0.00730769108691904,0.004223824009875114
277,9.832718160592817,0.018784456982130313,1,1,9.549213397051576,-0.15740483230115174,2.4981151324341755,0.016445948259714727,-0.004597953582826712,0.0036447215687135624
278,9.833326243829296,0.019221859301964506,1,1,9.481277771087543,-0.1649888050830322,2.527464648498361,0.01971395016356038,-0.0012298720967526414,0.004474441048596898
279,9.8342813050818,0.019563303715281245,1,1,9.447528862044154,-0.16317440500220212,2.4976836961169533,0.016884652127869233,-0.00799061169821914,0.004983747512880661
280,9.835673481824749,0.019739630398263444,1,1,9.450184183865108,-0.12005827686300827,2.5128285605589786,0.01922915153416573,-0.01596870790678796,0.006452793900608912
281,9.8374983635824,0.019692253998591855,1,1,9.49008543303833,-0.12700749736396974,2.48049770485604,0.012727391001166223,-0.01842891084831885,0.005316687410299687
282,9.839642180317519,0.019380880678713523,1,1,9.545866291217047,-0.08644904812801843,2.4657730783148994,0.007759808577097411,-0.015931460546923737,0.00408994633509252
283,9.84190292628143,0.018788239500862048,1,1,9.56233484773769,-0.12841862137457122,2.466732598503856,0.008958814824814764,-0.015976872324112018,0.004940293458577053
284,9.844038148712041,0.017921628726443522,1,1,9.561124109593292,-0.17680237638290475,2.4480803845906522,0.007535766152377133,-0.01223108694972844,0.0008995989591497602
285,9.84582200851156,0.016811916118862878,1,1,9.531836730934348,-0.18782126946426853,2.4419817224999107,0.0075309882927313675,-0.007881628705827504,-0.0033425100349592056
286,9.847094896547809,0.01551088110912832,1,1,9.515892668021532,-0.14694220966819954,2.4711721591788467,0.014255862920706144,-0.006943410711399862,-0.006534117223806666
287,9.847795051445315,0.01408736824230525,1,1,9.543225905827272,-0.1274449592726313,2.452365029202668,0.020529106974679714,-0.009464289088687542,-0.007606164231913651
288,9.847967832459021,0.012622003556146616,1,1,9.579759630620064,-0.07438053541423813,2.452345605124194,0.018022702634387665,-0.007254521984429472,-0.0026118023316330247
289,9.847751854026066,0.011199940896249951,1,1,9.550432098515262,-0.05196885073703572,2.508514898732036,0.0013141045742901117,-0.0012711034167661249,0.004795785536633855
290,9.847343801938315,0.009901808058304078,1,1,9.506455582200184,-0.10386220383681509,2.4832702164033686,-0.0016062484782336838,0.0006206413056986251,0.0033234930609796465
291,9.84694827711904,0.0087943592362182,1,1,9.4745473337724,-0.1224510557998673,2.476346549708435,0.001250867067229741,-0.0015476114969961987,-0.0029054926675567113
292,9.8467247468371,0.007923180582322817,1,1,9.518581926642959,-0.1505092634139046,2.46237050910604,0.0027323817622307038,-0.004856837462776218,-0.004310018536896889
293,9.846746201781977,0.007309355087761251,1,1,9.547720299558339,-0.12739896482234633,2.445766060536823,0.007035091987310971,-0.004323864106052315,-0.0008814933373856074
294,9.846980427120359,0.0069505846567999045,1,1,9.530086207612317,-0.10252544015577951,2.4661065059587344,0.011288813907195133,-0.0013541798503632838,-0.0001593975512270866
295,9.847297165637745,0.006825862336547463,1,1,9.533344811476145,-0.10051307694783015,2.4568267853028143,0.009811765486312778,0.0005948938493736307,-5.2665962854957445e-05
296,9.847497741223625,0.006902143127926715,1,1,9.511799667559092,-0.08705591383091472,2.469567125105225,0.0035957259846762252,0.004750550934181509,0.002727474093396184
297,9.847360126248084,0.0071417115892507535,1,1,9.53665022377666,-0.09268591696235681,2.4708955094076988,-0.002713879636705244,0.0016541124713266495,0.0005951420146973386
298,9.846690609622597,0.0075096728076554905,1,1,9.55219263611103,-0.11680680815967223,2.49696164614705,-0.0017542147222067552,0.002542931891772551,0.001642714268985388
299,9.845371639064895,0.007981539871193549,1,1,9.544622256921595,-0.11901781578690371,2.5008689725323614,-0.00631811190603322,0.0036153568096881947,-0.0012504700136223741
300,9.843394891438434,0.008550787355614568,1,1,9.538687047281208,-0.12213707323443077,2.4860178639276413,-0.008064623059481968,0.0066515260421192955,-0.0026177248513166466
301,9.840871112509548,0.009235551978604789,1,1,9.54290164813196,-0.1552827014771234,2.468957106996075,-0.0017183730775227845,0.009137941546197959,-0.008828776207572216
302,9.838014172526275,0.010082934045033031,1,1,9.517491390961403,-0.14007157703221235,2.455411539329349,0.010042040623919392,0.014784239722282568,-0.004650062057061513
303,9.835104272817418,0.011169201309490218,1,1,9.504754213976003,-0.11273791565695017,2.4543758237176037,0.004623622108653042,0.006343085514348619,0.000508725129424751
304,9.832441623179534,0.01259487618430138,1,1,9.502282380305994,-0.11855329269348117,2.4466667220606237,0.0023019577516841835,0.010128183063904018,0.006570079658796128
305,9.83030493387621,0.014474906113868839,1,1,9.463180789125165,-0.1331881029455436,2.41404963475714,0.009726530115467816,0.006570034624202118,0.002461698132824722
306,9.82892723130463,0.01692522470038571,1,1,9.492517595410352,-0.14116963806849445,2.4172225228885735,0.018614041875216012,0.0068305397162074025,-0.00618225055193991
307,9.828494222804787,0.02004753246019364,1,1,9.548751047146247,-0.08166224126743996,2.469843738751486,0.010578530605464783,0.0076542802417989796,-0.011251749044604456
308,9.829158997807463,0.023914122765062183,1,1,9.58671898289165,-0.01805610320710554,2.506614709155842,0.005840127778291993,0.011309298732984103,-0.010522880547689292
309,9.83105602101039,0.028554344915591907,1,1,9.617342038008443,-0.05307993234865332,2.4244016385827236,0.014573758509796914,0.02075783504967585,-0.017145664589839665
310,9.834294524340821,0.03394389235252385,1,1,9.51061786731617,-0.03458800045801816,2.4868581785897126,0.014693694099944954,0.0420818874010259,-0.018314611743280654
311,9.838921065121676,0.03999757899953152,1,1,9.462587477866448,0.08064416414337709,2.4848537472503325,0.0021902427091111906,0.038607080679530704,-0.01042056352011472
312,9.844859275751178,0.046566129684150505,1,1,9.505797631717723,0.09091107169588819,2.422526471179606,-0.005294069661657915,0.040088102548697775,-0.010002275791905204
313,9.851850906574642,0.053438259750922,1,1,9.491532685092231,0.06124259087589114,2.532022410268354,-0.013043612915701105,0.0364552571197788,-0.014601126770448645
314,9.859427108078085,0.060350450013251046,1,1,9.489547881039078,0.16635557507857898,2.486698932462376,-0.02920341455920549,0.039065766271452106,-0.009845274492311889
315,9.866931655697957,0.0670069775029305,1,1,9.513651376355115,0.16950268232248064,2.4292504096137266,-0.04399573165169722,0.03327451767137959,-0.00516006793151953
316,9.873603436054522,0.0731109974947724,1,1,9.519074373029621,0.048446417466407835,2.4295020166916954,-0.062442927087378405,0.013647087175049186,-0.005972751881301599
317,9.878708368790843,0.07840400052711395,1,1,9.634605224267073,0.0406085740166632,2.2889712414228187,-0.08901008667325878,0.005035867513693683,-0.008263280526537894
318,9.881693365885406,0.08270689479029066,1,1,9.75833541044234,0.0832228045823729,2.264647929432731,-0.10639647008225926,0.02398579146609693,-0.011822409720465252
319,9.882321020297965,0.08595292181104487,1,1,9.727507963101694,0.011721599426658583,2.3871816616059744,-0.09222253205265254,0.04695451719326498,-0.016734406209029634
320,9.88074127652477,0.088202377293264,1,1,9.62561244902519,-0.10722078692078256,2.3631019090171472,-0.06890994883305322,0.06380658247980961,-0.01539848313023852
321,9.87747178384109,0.08963255733556191,1,1,9.535078096688487,-0.15807260018102307,2.4287561075337396,-0.054338087663147905,0.0851348512122596,-0.012763000578512738
322,9.873288579655156,0.09050250561324437,1,1,9.465404371925334,-0.11586114874930564,2.456793254729862,-0.05176780531802291,0.0749275154981421,-0.002061418890059313
323,9.869058808198826,0.09109876870873464,1,1,9.496778478645208,-0.05010968652541799,2.404728011403447,-0.04853884619263747,0.0573752409117295,0.005029194169439069
324,9.865561904520993,0.09167351250522625,1,1,9.589168488273778,-0.006521189318083213,2.338467213355345,-0.04566082226539899,0.056122849146660825,0.013044807293394044
325,9.86334015273336,0.09238885856856115,1,1,9.61784991530053,0.018766101866950786,2.33654644331767,-0.04249401179011683,0.06299155637163123,0.016632892864745216
326,9.86260165271521,0.09328055217145505,1,1,9.547002899061061,0.03414351172479264,2.3835172502087407,-0.037688717203604644,0.06893195632233318,0.014567479735554187
327,9.863181268117563,0.0942502224882364,1,1,9.494409742740617,0.04079844274339172,2.498215958184366,-0.038785827631126035,0.07564834279433298,0.016674260132245346
328,9.86455516998553,0.09508972062612736,1,1,9.536100798336264,0.02099465276004556,2.5587575395620763,-0.05264138317139651,0.06935902390523417,0.017090536374512542
329,9.86590007932841,0.09553491318412409,1,1,9.589822756769157,-0.058099913472161875,2.502661155084108,-0.05359342782557658,0.07103707575709346,0.009855703934768211
330,9.866184664424928,0.0953409900665669,1,1,9.607558308767278,-0.04078384858272442,2.480577199266115,-0.0461686045769383,0.09205938514167841,0.0003283238749315538
331,9.86427824350808,0.09436732013115054,1,1,9.508930772477855,0.016890167396778094,2.583960078839002,-0.04931705275028781,0.10294279019426798,-0.0021541796061462144
332,9.859064898060886,0.09265755062203775,1,1,9.402629603895098,0.011561313486490107,2.718961827057218,-0.049868896683637344,0.09137428709245674,0.007366512452073948
333,9.84955907164739,0.0905005870290502,1,1,9.474073020052225,-0.10806002946258259,2.6791079243130564,-0.04782993880048987,0.07735783774152395,0.010972367619229643
334,9.835025329908989,0.08846055326995857,1,1,9.487986232316143,-0.2267541960171102,2.650500730864715,-0.03186898416440567,0.09584597595544217,0.006731997520421328
335,9.81510454075636,0.08736801734094617,1,1,9.403967575282104,-0.20611468398398125,2.6965895606965775,-0.016785653492237443,0.09645671783523876,0.007389197762102559
336,9.789942534235482,0.08826932653505257,1,1,9.410063408206444,-0.12806756962521243,2.6401939044629,-0.008516770295355122,0.0930891196828798,0.014286312630106917
337,9.760310433349545,0.0923351560222157,1,1,9.390654077018198,-0.08544708074558355,2.7080640146801973,0.008020831215376174,0.10736640132953948,0.026810633777898146
338,9.72770071931446,0.10073357523691494,1,1,9.322819141887527,0.010687901446211442,2.6996959252083585,0.0007802671386138067,0.10597852892901993,0.04679130273685579
339,9.694378898196634,0.11447754240147136,1,1,9.308016952536205,-0.023206279614315053,2.720077977349493,-0.006835515676816102,0.11760629668003457,0.05443986280597448
340,9.66336688497775,0.13426200086709222,1,1,9.30548028984075,-0.014395934969949401,2.771316237499855,-0.015990211357665058,0.10994431273110718,0.053219524498366984
341,9.638331850892564,0.16031138945933376,1,1,9.302847443922579,-0.04313950332968087,2.716808011508741,-0.05569801290798905,0.10705697806166116,0.0417042660556252
342,9.623355262437329,0.19226299501027483,1,1,9.355309020266603,0.06317240361155621,2.7194478027275495,-0.10226837498681654,0.12249342905413885,0.03179579696626466
343,9.622564451223484,0.22911275284827032,1,1,9.357118729132203,0.22307052453203272,2.6836575956555824,-0.10902134018565768,0.13041175524063248,0.01721169541315388
344,9.639626742560973,0.2692456510377723,1,1,9.200466499045588,0.0692911155705632,2.816970568683946,-0.12337624357064762,0.14729256482214392,-0.0004402231209451638
345,9.677134416554459,0.31056190691054775,1,1,9.313351430019024,-0.10947076309580601,3.088433181736035,-0.19729779034335856,0.20395827691626764,-0.012758737607928177
346,9.735943642941468,0.3506930696842693,1,1,9.53208139704536,0.05668034890083332,2.9891086633629307,-0.22320080497855138,0.2664342599903609,-0.03826666253489787
347,9.814567322528838,0.3872815662596237,1,1,8.980841543246195,-0.17215211901128452,2.728979655078308,-0.2454649093195909,0.30999347389375664,-0.09674474527014326
