id,ASVM,GSVM,walking_nonwalking,normal_abnormal,ax,ay,az,gx,gy,gz
1,7.377110068532698,0.012722694865579252,1,1,7.341470430072791,-0.6261670100648474,0.3698586653030245,0.0067934269926526,-0.0004329718842207938,-0.011059627518058173
2,7.969474405583581,0.015043749148171175,1,1,10.426746668364919,-0.8890735651523617,0.5521040567813409,0.01728187137071497,0.012126061496275034,-0.01566868183521643
3,8.528391248443913,0.017239146180925275,1,1,9.439462403436691,-0.7897202435619123,0.5543258568700319,0.018069139974345005,0.010189351703678375,-0.012986556546451594
4,9.024659666751008,0.019147089856074374,1,1,9.960804907096078,-0.8418983632433381,0.5582528083273274,0.0177633992650245,0.005018767219496628,-0.013684232160416322
5,9.436764048319903,0.020648887124938363,1,1,9.614543101633496,-0.8190895380046058,0.5760300314963803,0.013813691718939413,0.008963327111578427,-0.011232159269864692
6,9.752794924373617,0.021682435658327743,1,1,9.813210062703844,-0.8227620281666855,0.6029956736398193,0.024045993171002086,0.003120255542807341,-0.010945100878388084
7,9.970751752846002,0.02224569340944342,1,1,9.70259421519843,-0.787658885698277,0.5978282063869576,0.022425802589831432,-0.001478954561940378,-0.009884325107431867
8,10.097443908635869,0.022390727808601966,1,1,9.812410880218154,-0.782449898720832,0.5434748266623144,0.019306947704834692,0.0014063983905370416,-0.006091613951411341
9,10.146410111212871,0.02221031138535803,1,1,9.76651379866236,-0.7517426435099943,0.5122604937303471,0.021252032009173038,0.003523688451398079,-0.0060709093033400096
10,10.13534093792423,0.021819995882279043,1,1,9.78720217802116,-0.7658664960977085,0.5448155295704308,0.017525213563379164,0.005248683068599043,-0.007391604833733634
11,10.083455443943997,0.02133915994879505,1,1,9.730979979861768,-0.7791232368057589,0.5737619201756392,0.011987318514321778,0.0081268122680359,-0.008745591124903767
12,10.00919006109754,0.02087457235652066,1,1,9.76556945324559,-0.7979918261856429,0.5834175242036383,0.00322603660979056,-0.008863206568141541,-0.009804748686347817
13,9.928436704009858,0.020509469495468804,1,1,9.757064475879377,-0.8277127074636194,0.5992577100482301,0.003766091534254176,0.0005693705235192998,-0.011251540428340857
14,9.85344090697009,0.020299926628109873,1,1,9.746592218200565,-0.830854979956065,0.5915516134224277,0.010315273704896726,-0.008745888608026487,-0.010468905513435552
15,9.792357898279034,0.020278367524411228,1,1,9.80132776004179,-0.8045057547129482,0.5413626584603389,0.02503440524682702,-0.001678104199898815,-0.010765913005613968
16,9.74937751694095,0.020461740308864645,1,1,9.780738436151239,-0.7713890111089012,0.5554578281437057,0.03039596864020615,0.006072673603723188,-0.005743301536993904
17,9.725274356685516,0.020860076506463425,1,1,9.777222525011508,-0.7668012063142289,0.5474177130872583,0.03197337749931257,0.006522862940374486,-0.007986555802212848
18,9.71821796881864,0.02148091578832515,1,1,9.776895269351916,-0.7549047734091372,0.5884604662778437,0.030282005540751344,0.002747029170102978,-0.00552988761218161
19,9.724684622818057,0.022326919579641183,1,1,9.763208217076784,-0.7588474952151143,0.5552373473036954,0.011078914361420186,-0.0021717984652360424,-0.004507167002300306
20,9.74033859377279,0.023387304771112463,1,1,9.758148363477268,-0.7771961260787813,0.5732470653578571,0.010547631534818205,0.0038618987609400557,-0.005229931129309293
21,9.760787720320913,0.024626917025374163,1,1,9.723194742539965,-0.8278643816366729,0.5658260923938087,0.005620417591756086,0.010679426277198244,-0.007929555821427455
22,9.782156641639924,0.025978127499798904,1,1,9.756022200788482,-0.7999064706968209,0.5825624840829612,0.012626987950860459,-0.020310782236200448,-0.013400347830422918
23,9.801455267541611,0.027339642759542298,1,1,9.820573927611813,-0.767263172949366,0.5025792340412238,0.007356392634477252,-0.021915387269031784,-0.00971990706682431
24,9.81674647074971,0.028583654096599687,1,1,9.827166141985364,-0.7693197009246363,0.4417680801679677,0.013674103083452923,0.012666189926612979,-0.008427533497158513
25,9.827136855264262,0.029570032953909326,1,1,9.702213365567193,-0.7757907901711233,0.5993436279257399,0.012045531146990605,0.05014642125069034,-0.007775300794500273
26,9.832630707703705,0.030164468108857066,1,1,9.703222665539846,-0.8056579102247703,0.7466796690579038,0.01844371297198545,-0.007022935997617795,-0.006291239838528749
27,9.833899154337864,0.0302568208652394,1,1,9.740115187802726,-0.8183664630114896,0.6095275452845296,0.010441294222357119,-0.03437377499459599,-0.007487666065436058
28,9.832018964159966,0.029776507101654043,1,1,9.769284297167157,-0.8177028350956399,0.4540213701127689,0.012216739345984003,-0.02631582751671796,-0.0064978833762141044
29,9.828225663846082,0.028702957416089307,1,1,9.791779589266401,-0.785256636669358,0.49432419039074765,0.019623021908738054,0.007551759642784075,-0.008567246516117474
30,9.823708577079596,0.027070391398811282,1,1,9.782226241151319,-0.80551460248405,0.561291494828938,0.01899501971123083,0.02372156004823667,-0.011034386751773526
31,9.819459603649578,0.02496677361049954,1,1,9.756444388249243,-0.8280397479703296,0.6388409258959471,0.016710770582968933,0.01935502397466799,-0.00810286619668554
32,9.816178008900485,0.02252698559735261,1,1,9.718908492249579,-0.8219419211591058,0.6138443167965497,0.0235399249313842,-0.008693959391601688,-0.006550597660238615
33,9.814229386603015,0.019920397501059874,1,1,9.782023823587297,-0.7689417614596271,0.57231066304099,0.019861002168645246,-0.015687584001506903,-0.007032499709395338
34,9.813654459101013,0.017333576997277417,1,1,9.780617773653098,-0.7560453758642346,0.5809755383785066,0.007511976018472812,0.005505992682575659,-0.0037404028618277466
35,9.814219939393062,0.014949878309733175,1,1,9.751657468632638,-0.8139798088436112,0.6382334353156378,-0.003236147287019075,0.01459859214241855,-0.0026323230377469507
36,9.815500054273867,0.012928683505508028,1,1,9.737336192153347,-0.8184098506432926,0.5946188084904874,-0.0012038784333128776,-0.002028699392388314,-0.004605863075546018
37,9.816975250108813,0.011387521316975891,1,1,9.790771526106985,-0.8243456117354618,0.5496043199403319,0.009091663402607033,-0.003215383432884739,-0.004413490852161097
38,9.818133819045713,0.010389851882295634,1,1,9.799483821008312,-0.8360217262862393,0.5385219482054666,0.00828392304092896,0.005823339514893647,-0.005087475349832148
39,9.818561768894792,0.00994018540078749,1,1,9.802555085470829,-0.8017940844127514,0.565942722140895,0.002770186661644549,0.004100270404678221,-0.0008067515997968397
40,9.818007451408697,0.009986913960871653,1,1,9.761069390991256,-0.781272979095381,0.5840019975943749,-0.0007222341278510868,0.0116459356009659,-0.0007591231374129392
41,9.81641226719123,0.010432167598987038,1,1,9.748293016555326,-0.8008205709468135,0.601521112281955,0.004267890663777585,0.004147087282966017,-0.00411233942589445
42,9.813906291899244,0.011147209160586922,1,1,9.794539930754807,-0.8214413816229674,0.5819509929016728,0.00953742557182156,-0.0009607840135229584,-0.005387152082961433
43,9.81077440489296,0.011991232319416338,1,1,9.742323848788628,-0.8258972570973759,0.5854687547508223,0.0072665602074607274,0.008387228252492008,-0.005055024486402918
44,9.807402237953951,0.012830868611278112,1,1,9.737542340944135,-0.8016853299884806,0.5785549002652448,0.01741727232510833,0.007891815482655674,-0.006340778394434216
45,9.804212572303987,0.013557364932005836,1,1,9.743294736308847,-0.8085586313953403,0.5774094415335811,0.019180897888966816,0.00778497532707003,-0.003340612747752739
46,9.80160254888401,0.014098561193623184,1,1,9.75509008636501,-0.8140304817226194,0.5868750782854162,0.014197138147074217,0.00021919702790089112,-0.004815512586145538
47,9.79989002203195,0.014423760784536164,1,1,9.767062905002676,-0.8113605692796506,0.5811139058644991,0.013823135508205735,0.0008798297893402668,-0.003926384780584292
48,9.799274163170635,0.014541223058770428,1,1,9.733358013190923,-0.7880428730940964,0.5593060387032444,0.011860952923487465,0.0018509059632865062,-0.004246968983500056
49,9.799812947596822,0.014489696989021432,1,1,9.743187065047868,-0.7935746591643073,0.5935397614384454,0.01027585063790704,0.008187738254647694,-0.003781249038912833
50,9.80141936400894,0.014326513265290988,1,1,9.729511083618046,-0.798905212763984,0.5901154372133861,0.007017219926009728,0.013103578193175583,-0.0037206934991423175
51,9.803877669962558,0.014115085705511036,1,1,9.741528509843265,-0.8000986252389362,0.6319516144718759,0.0035002336767871434,-0.003720255381167167,-0.0032506464972554393
52,9.806878848447472,0.013914464324543296,1,1,9.764356871865626,-0.8163926270571208,0.5861013473451768,0.0015705085311272045,-0.013595926621268985,-0.0013074578299296308
53,9.810070396488621,0.013773013032990913,1,1,9.766813773181644,-0.8442813702629032,0.5046604791788497,0.0015673779632317368,-0.0022324978557085456,-0.004097664367887145
54,9.813111382307396,0.013727314125668726,1,1,9.780978288044334,-0.8574050691150393,0.5992054046638577,0.01138713720204564,0.004776020114783777,-0.0036724410363189845
55,9.815721514654292,0.013805989401828471,1,1,9.780587450313858,-0.842820414422623,0.6129917507190894,0.01774975151221929,0.0017633106313561051,-0.0027131925375972737
56,9.817714075231027,0.014036505078535873,1,1,9.771833901613446,-0.8418199411556955,0.5799439809900419,0.01673954778044392,0.0011820809821801582,-0.004825122344179872
57,9.81900691257654,0.014451726692024186,1,1,9.790139646447846,-0.8215529919656667,0.6106633703977112,0.014973226195200183,0.014690609678554904,-0.002796009037792562
58,9.819612106431958,0.015092603057174378,1,1,9.728840798586937,-0.7814988496969534,0.6151071372898952,0.009682267871603211,0.02866833376207841,-0.0028352269448873695
59,9.819611398775402,0.01600423268333809,1,1,9.705095992283495,-0.7848704887988132,0.6876373401349386,0.008728434921927033,0.018361982793755987,-0.0028070244540237634
60,9.819128274040462,0.017224698574402165,1,1,9.765252418435644,-0.8124741624644334,0.6790647548532862,-0.009274444774500741,0.005401839223987866,-0.0005071898328157282
61,9.81830595889381,0.01876900755023369,1,1,9.808919597163083,-0.8102142503586683,0.6260938096866913,-0.005052776364074091,0.0006346187752082664,0.0014074926211182983
62,9.817293872883196,0.020613160166365035,1,1,9.792258141735319,-0.8550524049247964,0.5983089333592434,-0.0039587094062891355,0.013515025366393062,0.0058228071351820836
63,9.816238142873578,0.022684419872803147,1,1,9.734476553817032,-0.8691604102360501,0.5366324308581594,0.006573863033461199,-0.0018799348955401164,0.00427917929522564
64,9.815270265967712,0.024862549450427502,1,1,9.773192217587978,-0.836036151461528,0.5223256061471158,0.018856967010525603,-0.007506214353180345,0.004358082365836764
65,9.814492043120145,0.026993616271508678,1,1,9.773483750641589,-0.8374195177758179,0.46543210563538173,0.015360003848206022,0.0008056520691107482,-0.0016144627987556303
66,9.813959892671697,0.028913986812892162,1,1,9.759037338109955,-0.8674795440237629,0.5467766187383007,0.021622127817615445,0.04004142493079006,-0.0032953296832201385
67,9.813674179434015,0.030478413433771202,1,1,9.698642572881193,-0.8157359123436416,0.7356699802809307,0.044600586684346584,0.06460341868143887,-0.0015015305507149101
68,9.813579225357387,0.0315840630362058,1,1,9.750692541793896,-0.790142575184325,0.7974721768240238,0.02439764688089374,-0.0025634269442622207,-0.002015379768811881
69,9.813577542022175,0.03218357309384606,1,1,9.765957150180318,-0.8243432988587337,0.5652359233118407,0.0005018656946545539,-0.014283751578770603,-0.0014001954141756785
70,9.813557215085662,0.03228483290473668,1,1,9.775425249121163,-0.8478198493746645,0.5321255967359073,-0.002096695324970889,0.023045429713030353,-0.0014535320975552252
71,9.813425664625948,0.03194042303358799,1,1,9.800745364166554,-0.8392839333693112,0.6537278260168028,-0.0008791366056763189,0.05111403803340505,-0.0030914301162931227
72,9.813139589562647,0.031232217631625106,1,1,9.737464807625972,-0.785508105838136,0.7008310718709164,0.003920477718143025,0.021875956500268818,-0.003813561430218907
73,9.812722069404176,0.03025624660395624,1,1,9.75800680768002,-0.7844615980742906,0.633801205669121,-0.004014495605563695,0.003590439868178995,-0.0054121706605864
74,9.812262500669453,0.02911153772641885,1,1,9.766954945018908,-0.8060345295270871,0.5754754827237445,-0.007272844298471991,0.015845643217349062,-0.003005380851820618
75,9.811900020065373,0.027895134087110324,1,1,9.770861772148216,-0.8516884086825126,0.5679052778250553,-0.005868200168439773,0.035655578806731064,-0.004293344029417452
76,9.811793970754842,0.026702979928008467,1,1,9.748642358955847,-0.8686846058371224,0.6330260322922124,-0.004053338135362689,0.050317525341821996,-0.006959955025937796
77,9.812086202741707,0.02563317130437441,1,1,9.755134662871535,-0.9134018277512962,0.6745337506238337,0.0024893169137571044,0.030207117587440383,-0.0056839728026799145
78,9.812861222977865,0.024786378608517658,1,1,9.768743939099226,-0.8923911179236768,0.7024974256185889,0.0065764858619235655,0.028173160545908033,-0.002555347455588542
79,9.814112106854022,0.024259670538139353,1,1,9.686511876038779,-0.8596414408613665,0.6415621884118852,0.007647228043262827,0.024274771412988443,-0.004863109079195263
80,9.815721856319454,0.024133617104783178,1,1,9.70377506998435,-0.8435906858487379,0.6794219856239516,0.008835039004152662,0.012985498602496603,-0.005255902666631599
81,9.817469325576917,0.02445615116935445,1,1,9.769822450214898,-0.8545310246986749,0.6795313607963243,0.0014817172605241377,0.006478347075903032,-0.004554858176124275
82,9.819063356606023,0.02522853682052561,1,1,9.803583693500332,-0.8375581504754392,0.6286731431624428,0.008784424229610076,0.012967064398310395,-0.005489321390911919
83,9.820199046216553,0.026398374263305168,1,1,9.769460539568358,-0.7766852551411466,0.6753941282931473,0.008668697118971447,0.03613810968909578,-0.005882614027793057
84,9.820621534277079,0.027862242827994817,1,1,9.778583429090123,-0.7936855864527488,0.7002433860152814,0.007145184723577504,0.0214609833831089,-0.0033007361377337015
85,9.820180560570249,0.029477601067810687,1,1,9.777084720313894,-0.8307843849081431,0.6359605676579039,0.00811759862774045,0.02227654710003454,-0.0037419153950390828
86,9.818863088236983,0.031081333334426236,1,1,9.779048004206123,-0.8329891225615067,0.5973437629366783,0.021548536889116607,0.023243111577565034,-0.003219578491205079
87,9.816797780262446,0.03251123013937004,1,1,9.771685172743101,-0.8251831349221446,0.6757742532736571,0.01342242552365483,0.04462657533543099,-0.004703470375900107
88,9.81423146462248,0.033626237820046284,1,1,9.741739444803887,-0.8520607099356239,0.7786743690503699,0.007251417865713206,0.04733484844886474,-0.005005923985581153
89,9.811483447858569,0.034321530639910086,1,1,9.744067429278298,-0.8551596255034779,0.802334972039237,0.008856972940342227,0.030123986858921696,-0.0066308463207620984
90,9.808888319340747,0.034535983898103466,1,1,9.684182224077764,-0.8552087989995998,0.6894384667791698,0.012445745625495596,0.018909824485063648,-0.00940345961889267
91,9.806740475420973,0.03425231213040628,1,1,9.729409931795029,-0.8428125844307844,0.6869814569967225,0.008215262883060855,0.02835850144760883,-0.009033375846174927
92,9.805252216915177,0.03349251293754666,1,1,9.764374969699125,-0.8101611517480574,0.7193230347825629,-0.0004649242732473711,0.0288464169333807,-0.0061969169743922295
93,9.804531447146159,0.032311900260447494,1,1,9.802971686897928,-0.770127474556407,0.7425614167357902,-0.0024131579384780214,0.0273073975080954,-0.004904276926669278
94,9.804577639810182,0.030793906760046105,1,1,9.727319446846622,-0.7925677577462352,0.7137092383811828,0.00031841757428304385,0.04114268470058345,-0.00805632590475922
95,9.80529092009637,0.029046080320910262,1,1,9.683360296271836,-0.8319186208771225,0.678077538429109,0.008110062737422168,0.01154187220830283,-0.009492171446686288
96,9.806490537161238,0.02719632941685193,1,1,9.767808016976314,-0.828450078177895,0.6487268817548525,0.027332376198750334,0.014556669171830645,-0.00911522177265578
97,9.807941498051175,0.025387821171401627,1,1,9.77819417345506,-0.8325983151266197,0.6910391832606709,0.02234902422385811,0.031614564876227456,-0.009443814659233545
98,9.809387145552426,0.023770878103209714,1,1,9.76886247623774,-0.8330868996138061,0.7607313405658068,0.019187469660582296,0.017093037459222755,-0.006348384527703703
99,9.810582484962678,0.022490795847250313,1,1,9.744541672577611,-0.826602191553854,0.7117289777632873,0.013260312542220399,0.012746590102277277,-0.0072001305691426175
100,9.811323001704443,0.021671927084883382,1,1,9.714892680939762,-0.795182869237992,0.7392513969233034,0.006638478287327701,0.01169762448330108,-0.0088177384474733
101,9.811467484558536,0.02140026354426816,1,1,9.715328702238324,-0.8280065618493823,0.809171661095575,-0.02024632235560733,0.00784923854365406,-0.0077168499796202
102,9.810956658492577,0.021708075243489815,1,1,9.772644858286888,-0.8252395895964522,0.7853940298458176,-0.012163509962643823,-0.014917476154633763,-0.0019012993760437232
103,9.809828371559929,0.02256433036664374,1,1,9.783877662474103,-0.7736949683359925,0.7204711334773586,-0.0065486818164623645,0.0061882963460561345,-0.0007846138267285828
104,9.808225858822167,0.02387385252593295,1,1,9.711916218431625,-0.8108871100059325,0.7262091983745506,-0.012543556519785809,0.011011317744867842,-0.0042454604253525235
105,9.80639264787791,0.025486768209192382,1,1,9.766878532769887,-0.7807105511638855,0.7361283636809062,-0.002202891850443056,-0.026677458682680098,-0.006745992318340076
106,9.804648341334898,0.027217714591861685,1,1,9.850567361467954,-0.7948931246388209,0.5570177943668339,-0.006855083384246568,-0.012588752703940997,-0.005025300533482619
107,9.803342972343858,0.028871714696793595,1,1,9.747200128958655,-0.8485807980655051,0.6558383199996012,-0.013473833690306544,0.055035334461853255,-0.004282574387295497
108,9.802793625365407,0.030271405031080025,1,1,9.6400677567499,-0.8541002344785388,0.9539395235932357,-0.012305702547041488,0.03684445980376638,-0.0047636546653855106
109,9.803215891760077,0.031279533523364135,1,1,9.668732842190671,-0.8662217744164731,0.8980641414654396,-0.01775455528883538,-0.027701504639429643,-0.007615425159842663
110,9.804670439382479,0.031812068879412715,1,1,9.696956306838402,-0.8184335180915585,0.7136504865834449,-0.02035673901849612,-0.021512869854201103,-0.006012750616041459
111,9.807044008726152,0.03184046764619174,1,1,9.745090813590258,-0.830124330502065,0.7337787206843869,-0.026666205983473988,-0.01387079073675241,-0.0060899110353886616
112,9.81007212084523,0.03138504768284087,1,1,9.810746764919896,-0.876952888631074,0.7527593566034085,-0.019665055749544403,-0.017988489823886,-0.0025242410299978475
113,9.81339440026422,0.03050349381359862,1,1,9.803340463200353,-0.8274751708116104,0.7532462393094962,-0.013010228167249996,-0.0057476053166976,-0.0020726856503948624
114,9.816622841452087,0.02927879543536054,1,1,9.743701625165716,-0.7301217157076917,0.7737856865774346,-0.020293474352267613,-0.005902735422696232,-0.002760220608410706
115,9.819404121140611,0.02780958035253819,1,1,9.70148784522238,-0.7864214403965198,0.7929863117076593,-0.040784763529669456,-0.010048548425597353,-0.005374432310505474
116,9.82146607979027,0.02620335972495931,1,1,9.74025434878793,-0.9058787810121592,0.6645725673809911,-0.03489258537020695,-0.024062917259360536,-0.010517355977531485
117,9.822646879767309,0.024570850576151475,1,1,9.841031657693435,-0.9180624992790726,0.645654666141684,-0.012717209603681438,0.0002470641079027049,-0.00806434288198824
118,9.822907118950774,0.023018905161999004,1,1,9.760638420770592,-0.8737814740406349,0.7446885336800144,-0.005252539211850157,0.03272111370932709,-0.005227353215768023
119,9.822323162050056,0.021641095879840394,1,1,9.745178303234166,-0.8497352146318623,0.8897621511453087,-0.0054182978339113175,0.007993856591843932,-0.003117944384720536
120,9.821061102465428,0.020507359025673248,1,1,9.764743076113225,-0.8287608134332527,0.8339429762375221,-0.010698871479389211,-0.007056928932684678,-0.0010122213303246333
121,9.81933699161887,0.019655578530605067,1,1,9.660144564509041,-0.8409907033581078,0.6865515860182265,-0.013096859958600394,-0.009289514866380437,-0.0009383114736180344
122,9.817375361316385,0.019087844655231896,1,1,9.72856244615957,-0.8535030106846001,0.7670723896063183,-0.019853036263929053,-0.0015853304753491615,-0.0030053911971891
123,9.815378650771752,0.0187726442114608,1,1,9.79743889363937,-0.8868952475585818,0.7926547569128708,-0.02216309450476321,0.0035759298509366573,-0.0007013370215528203
124,9.813513395582627,0.018652335616045415,1,1,9.78081790863339,-0.8515747380434235,0.7859567296347314,-0.017009905737386158,-0.001920786841528412,-0.0008426649030504525
125,9.811909601366851,0.018653906537130793,1,1,9.734034996315557,-0.7745699631424011,0.7396662984453106,-0.020450966375735048,0.004383769094167147,-0.0008844125160866565
126,9.810664903292631,0.01870060114948786,1,1,9.728011519162168,-0.8236185244635844,0.7320905032454732,-0.023059884129889806,-0.003945510347138569,-0.005003438073420486
127,9.809847290094654,0.018722301939816246,1,1,9.744518325715482,-0.8860345604456571,0.6721529622592295,-0.018020458801691404,-0.01429868247683575,-0.0035077159904622827
128,9.80949460239676,0.018663239118330843,1,1,9.778670916360772,-0.9277413966251663,0.6440763626513195,0.00444651821313146,0.0027723692264877676,-0.004473035007849321
129,9.80961078114981,0.018486510274630857,1,1,9.775646610167149,-0.8497103077046282,0.7647622860746317,0.011821243325537259,0.0254894273242391,-0.005178646929160659
130,9.81015881609979,0.018175740280228437,1,1,9.710852296484692,-0.830608875355678,0.8638443715642067,0.0029198064846713114,0.011867580839806689,-0.007281783309116481
131,9.81105228885954,0.017734653522937877,1,1,9.712537299060287,-0.8112128297709815,0.8383325482774241,-0.010702608572892645,-0.0022150481951987563,-0.005292542222166051
132,9.81215163384259,0.017185342849037846,1,1,9.69007810240705,-0.8624830502657616,0.7307595674508418,-0.01934129604642588,-0.0033925956274494674,-0.008275194734539732
133,9.813273449280477,0.016565796707712306,1,1,9.737955245805804,-0.8745529398739513,0.7318094219250275,-0.014756510792659971,-0.0024755756914919816,-0.006303008771049588
134,9.814217242433362,0.015926896303013506,1,1,9.797308691727094,-0.8898081802051999,0.732525157801541,-0.014491570388700024,-0.0013321572076077134,-0.007983703516373201
135,9.81480486261902,0.015328761201566921,1,1,9.798839349210143,-0.866937794919427,0.7309400124911954,-0.011442350566858427,0.011391958097016304,-0.007932852019828731
136,9.814919715453724,0.014836237979405573,1,1,9.748194114969081,-0.8291021852737976,0.7792116052630629,-0.01087013224850875,0.002401259148080073,-0.0029064420784249583
137,9.814531892791198,0.014513534529166866,1,1,9.73048272930766,-0.8538329175288821,0.7727940896688696,-0.017032140094970956,0.0003302971173177581,-0.005446124411221824
138,9.81370207791061,0.01441831528690895,1,1,9.732689655254235,-0.9162844945754612,0.7536524034696768,-0.01193754705574687,-0.005829333581446226,-0.006139891044595371
139,9.812565877127774,0.014595826003375018,1,1,9.73652858214023,-0.9516649473125366,0.7227953619697849,0.0011736694311337338,-0.002214049637831445,-0.0069869686520904585
140,9.811305241527192,0.01507374399898562,1,1,9.75996005139024,-0.915823819654674,0.6927343749154126,0.009939104938171538,0.006901007862644908,-0.0071459825819117926
141,9.810113973625834,0.01585834721129342,1,1,9.768237515565056,-0.8494857023864769,0.7858622075839162,0.01462069853011073,0.019415887509671534,-0.006650486050269706
142,9.809163151834284,0.01693220396662149,1,1,9.68513977478377,-0.8357859013634757,0.8124715520083919,0.0053153327110266125,0.013851736861858085,-0.0075400850393114675
143,9.80857238296154,0.01825320885218344,1,1,9.705377265956086,-0.8198623301772686,0.7429533151659636,0.005533982031418897,-0.018309982533140732,-0.00879370308344517
144,9.808393241672743,0.01975493253503224,1,1,9.78601630814585,-0.8817851134884175,0.7126034496782753,0.005362862886348386,0.0020797545065896466,-0.004214307679248937
145,9.808609061886822,0.02134888723441705,1,1,9.72680505516706,-0.9498504319004198,0.7244678599738735,0.007617187495959977,0.01847070983763832,-0.005685312297281848
146,9.80914990811044,0.02292969025715286,1,1,9.70949477867741,-0.9184006609880383,0.7596146230465943,0.01954534102698633,-0.012658810408016806,-0.007099600972503425
147,9.80991634800546,0.024383616538803735,1,1,9.8174065095265,-0.8401757572237444,0.6777714134452776,0.011086976309788232,-0.026741111517954413,-0.00768370103880148
148,9.810803535056031,0.025599934597240945,1,1,9.789754718472789,-0.8174284152449347,0.6081708044853305,0.007654048773039955,0.0023404472847245866,-0.00547242962560748
149,9.811718573504345,0.026483480582196905,1,1,9.681296959606867,-0.8812320369808427,0.8564379833034222,0.0044401458102555,0.044284464696321205,-0.0019643055303035437
150,9.812588733558462,0.02696646188410974,1,1,9.682912969957219,-0.8654080210002612,0.9216454321332458,0.014337010739249546,-0.00709304884560752,-0.0035884992123869455
151,9.813363619648506,0.027017319343680946,1,1,9.756757426669743,-0.8136986720787771,0.7294724959122024,0.02060589711387944,-0.04390119138378126,-0.007820902997211724
152,9.814016133918107,0.026644664208828796,1,1,9.817386838372224,-0.803480969155114,0.6243446162873872,0.01681604663882333,-0.007658767925528262,-0.007580052292415739
153,9.814543006369757,0.02589520025833361,1,1,9.784933962360455,-0.8458356555362491,0.7204930779812603,0.013076857880088142,0.014730070967569769,-0.009264436148219023
154,9.814960755649935,0.024846095481507288,1,1,9.745948922158952,-0.8910775371949643,0.7709213322627702,0.005720165740099253,0.017115902403585334,-0.010259537242007968
155,9.815293845970114,0.023593700081280863,1,1,9.678836865237486,-0.9333851079766732,0.7802476101946962,0.010109086464317454,0.016752936966810465,-0.011902024231739862
156,9.81555852748249,0.022240960769903218,1,1,9.698780767695467,-0.8657045859715377,0.7883199113110452,0.02591293016537875,-0.005468229116460484,-0.010264286822421047
157,9.815751520676603,0.020885339889560553,1,1,9.78056307998421,-0.8606407768152147,0.7544487193386228,0.018330173501366398,-0.009624244700824812,-0.004675028245216038
158,9.815851193232863,0.01960833696772529,1,1,9.754355705895922,-0.8849040559136516,0.724353590537127,0.014705477814331276,-0.004188858253055998,-0.002339967688262455
159,9.815831223427026,0.018467533394084853,1,1,9.788191498252985,-0.8072184103794238,0.7332485038938306,0.018659191859319437,-0.007846732841194479,-0.0007373923852299494
160,9.815679602576404,0.01749233478416277,1,1,9.74831839720339,-0.8027479299256622,0.7403058550167437,0.0012591848028129617,0.005938491459748821,-0.002057081264440064
161,9.815414261957724,0.016684643413109445,1,1,9.714280085377187,-0.8507497734956755,0.7594854329050021,-0.0007647178737685428,-0.005713869895710116,-0.004737493273637594
162,9.815089735149641,0.016025013043697633,1,1,9.787909491999557,-0.8564186406654083,0.6733123512512119,0.015218021264084515,-0.011334841194748767,-0.006486175352370773
163,9.81479283472705,0.015483282566609443,1,1,9.792933788072624,-0.8458899799761801,0.6527619103382429,0.018297478941005158,0.013033903198312623,-0.006528204194884243
164,9.814627136534304,0.015030746589859478,1,1,9.735306340504609,-0.843520977189654,0.8003500511628879,0.0153358123070027,0.028161754187369804,-0.006704255958135538
165,9.81468782683968,0.014649767083022671,1,1,9.723185311539767,-0.8546143739619478,0.8111038740796608,0.006521704876991258,0.013927648947256942,-0.006092176760020733
166,9.81503206485195,0.014337457467622827,1,1,9.72454337469703,-0.8599958728799746,0.7623634694352749,0.004174289680558874,0.0036278781961289115,-0.0073279531216232825
167,9.815653689377612,0.014102585290828449,1,1,9.750440560411048,-0.8424842567506586,0.7257747384333199,0.006816372248263945,-0.005066315268948966,-0.004113766935041668
168,9.816471370468278,0.013957693779004991,1,1,9.732597811778389,-0.8611553497279675,0.708016333539946,0.0007897475714901085,-0.0010443938869300483,-0.0052745603550854855
169,9.817335383704709,0.013909989708955822,1,1,9.75674758055035,-0.8643511822166805,0.7272499553566936,0.011353129635674171,-0.005153135109581246,-0.006479725376694372
170,9.818052365135353,0.013954216965864087,1,1,9.775017759118244,-0.8391742684018965,0.7489718901204904,0.016615482439239063,-0.0018544304149325647,-0.002780224877979448
171,9.818422362841407,0.014069230599420121,1,1,9.746387201349512,-0.8194603616780967,0.7461441412335101,0.017657537866653552,-0.0009317340438114509,-0.0037745185108336798
172,9.818279771246761,0.014218496905220515,1,1,9.752708620083068,-0.8175431853283989,0.7805787154666154,0.009871360069515988,-0.000851781655023654,-0.0034238165815308106
173,9.81752954699585,0.014354052125978107,1,1,9.773405898014937,-0.8544877335976171,0.7628787415642561,-0.0007173542799913861,0.0038098667851658766,-0.005212095258690008
174,9.81617154189719,0.014423440771160112,1,1,9.75477784077369,-0.8867863028167691,0.7529905809787426,0.0018864014305761598,0.012988724171658401,-0.005633552521248605
175,9.81430792158254,0.014379072223698594,1,1,9.758348244251644,-0.8687444821355494,0.7615172204549613,0.010564037592406603,0.013561992018070106,-0.006030149829674644
176,9.8121315558586,0.014188784527951106,1,1,9.74135768503341,-0.8337825518686731,0.7497052253850878,0.017053533860691587,-0.0011954052618744814,-0.0028613215109731366
177,9.809897145118013,0.013845535061569521,1,1,9.743638790135448,-0.8048796333212216,0.7151581076112316,0.01582290726214321,-0.0025083848459300936,-0.002659275478801861
178,9.807880729632844,0.013373795905722342,1,1,9.75582057987842,-0.8470529153472048,0.7292845576300311,0.01281889765559955,0.007873832526806072,-0.004272267371589124
179,9.806335698884956,0.012830723212731859,1,1,9.696665082543586,-0.8529354386861784,0.7748752737976101,0.015311015488208105,0.0057076833277162585,-0.0044538813961511456
180,9.805453857850331,0.0123012225258454,1,1,9.755384514583072,-0.8122871556235928,0.7596319467777871,0.01619412947651868,-0.004890738298331696,-0.005341361450467557
181,9.805338642634036,0.011887294960479957,1,1,9.723690102905389,-0.8497612928941514,0.7407854059177866,0.0013675656110434342,0.0009948251082253837,-0.004330787795356038
182,9.805994557075396,0.011693328251645521,1,1,9.74587383104026,-0.8451105944893136,0.7330997203009777,0.0013612372690771804,-0.004060401909550484,-0.003637160493690804
183,9.807333097384904,0.011809988303970453,1,1,9.746646532516177,-0.8477590489011135,0.7258337050299545,0.004157125985646825,0.012853825766890982,-0.0026291593874695172
184,9.809192034948342,0.012299607480139602,1,1,9.734367426300949,-0.8285230868721611,0.7598198112410531,0.01236070256941579,-0.003350235432974807,-0.0020856875898180114
185,9.811362732958205,0.013185357680981724,1,1,9.774427413467883,-0.8061711086594012,0.7209560203982548,0.0057121889065163975,-0.011665993328743997,-0.0014690982703405265
186,9.813619273009913,0.014445576545771664,1,1,9.781229909713312,-0.826127467874023,0.6857195438537949,0.004297368921508982,0.0019900682202638503,-0.003222923100896846
187,9.815743729539083,0.016013925527670832,1,1,9.762789677781516,-0.8503749196758223,0.7409225894367821,-0.0030844506626177305,0.01579152237986695,-0.002921907452221976
188,9.817544525088003,0.01778550661590186,1,1,9.669708698923356,-0.8882740662687786,0.7913045799826597,-0.0003292106649398004,0.015126647729532048,-0.00680476649599297
189,9.818868881910392,0.01962826591535842,1,1,9.745825847932943,-0.8354154709639714,0.789728230481722,0.007021660689461371,-0.021403218577612803,-0.007284436538538632
190,9.819612904552509,0.02139800881274694,1,1,9.816069392179461,-0.7919844382908896,0.5916325869520266,-0.0009204483882939309,-0.01844282574265479,-0.00560954686977667
191,9.819730949672259,0.022954602196506264,1,1,9.807219666400824,-0.8003328964071869,0.5723156714077335,-0.0010770527293508577,0.026156905793348163,-0.002891468921555902
192,9.81924168824675,0.02417677029266936,1,1,9.708817710582158,-0.8538881920760232,0.8281440253171739,0.0029493047247578976,0.041808463416500116,-0.002480018699224933
193,9.818226983871307,0.024973349562442845,1,1,9.705254096486627,-0.9189798832898706,0.9006176049946295,0.004796843620449958,-0.009439840067044587,-0.0033014871616779897
194,9.816822747609098,0.02528995009012339,1,1,9.76013348952379,-0.9110732488116587,0.7426664183126754,0.008538936339085092,-0.023256623777970692,-0.004003684982482277
195,9.815203815261375,0.025111408462433732,1,1,9.782437189894742,-0.8649018838523584,0.6467469112295954,0.013667848216072098,-0.003884012005869199,-0.0029980038777494243
196,9.813564260411644,0.024461373925977185,1,1,9.78389668235479,-0.822352522587942,0.6814326806745762,0.009423618186058719,0.027514936993401833,-0.0016875455833902393
197,9.812092862644937,0.023400104682078805,1,1,9.716500436810632,-0.863564469162676,0.7951818003930818,0.006768810979989795,0.03398893008745916,-0.0024800309581178934
198,9.81094476927221,0.022020420402277165,1,1,9.714890791185491,-0.8941557460213586,0.865461845163093,0.013755255413173045,0.006488455422081639,-0.004772767841466488
199,9.81021447377265,0.020440956197231526,1,1,9.72384428657945,-0.8261451744907722,0.7558001838849029,0.022159788534531894,-0.017001730250518564,-0.0027832965788297677
200,9.809918014100601,0.018796141313102678,1,1,9.765241367305444,-0.8360855219405599,0.6961119245175418,0.013089670787713115,0.008642198831933474,-0.002943810103429569
201,9.809990930870521,0.017223373236562936,1,1,9.711532365295552,-0.8592319835259158,0.8086448638251387,0.004156256623458412,0.01966047484280167,-0.0032732875044519183
202,9.810304024641187,0.015848943148154774,1,1,9.7262939428864,-0.880418410751209,0.7877073858976663,0.005582068665289256,-0.0030509917550662676,-0.00016453141549782044
203,9.8106939088421,0.014774946374573336,1,1,9.770191626951835,-0.8879175806603201,0.7211191963230376,0.009727975509964177,0.003246966422812203,-0.0010492598887870473
204,9.811001131745401,0.014069466359180676,1,1,9.766666808402197,-0.8498098467910508,0.7562774360434068,0.01661729124806583,0.004568607223788367,-0.0013043900784355307
205,9.811105896496983,0.013761629176047943,1,1,9.765619699556046,-0.8193614959113151,0.7533489144817231,0.010128101859096671,0.007636031167008694,-0.0026585819205217857
206,9.810951561790416,0.01384193901116408,1,1,9.756033916544762,-0.8494699531000843,0.7885573993750704,0.010709756337457164,0.01151354569345685,-0.00492730450269691
207,9.81055011334832,0.01426725943195977,1,1,9.722170931174627,-0.8589871918407911,0.8128122150412244,0.008241168164907156,0.004420739249500786,-0.004546588714746555
208,9.809970240800238,0.014969317648687072,1,1,9.738686224697764,-0.84132872490192,0.7798986770527289,0.00041746876448262553,0.007056797981421173,-0.0021215707338277014
209,9.809314464865862,0.015865461000750695,1,1,9.722964409391865,-0.8518373550634437,0.7881077251939878,-0.014948462897262964,0.022268028986696668,-1.5057441315814112e-06
210,9.808694453644264,0.016870130092429818,1,1,9.699172566338579,-0.8793244273551913,0.8251702633953031,-0.015488506459221006,0.016875626173018923,-0.0007778550530283012
211,9.808212468411066,0.017905168666041475,1,1,9.747580259690809,-0.8572287212791551,0.791632760250252,-0.014964416501811881,-0.0036274582694614615,-0.0032863337314766976
212,9.807952468590845,0.018907237895404223,1,1,9.769391984614728,-0.8756021230229989,0.6959580080253176,-0.009203405976769502,0.010889891169040308,-0.0038158615903178842
213,9.807978729686083,0.01983149503807038,1,1,9.774745535620283,-0.8774566681321085,0.7840323362950798,-0.0020826882668969417,0.029597266845561642,-0.0025402510277050963
214,9.808336061384662,0.020651813917131064,1,1,9.715600063097094,-0.8758343628831871,0.8689232064959937,-0.005225938653926388,0.018664786723749865,-0.001115900228778305
215,9.8090465256595,0.021358614625607165,1,1,9.715175731738912,-0.8754497935118357,0.8132171757838855,-0.005574809463780337,-0.001209297297751678,-0.0011006825188894379
216,9.81010221617673,0.021955777174339587,1,1,9.73465757797045,-0.8692563705534093,0.7675732356069573,-0.003971405653561379,0.017325414310239796,-0.00347747825813778
217,9.81145809415272,0.022458000132083523,1,1,9.74045648786858,-0.8791031322657504,0.8003198351141246,-0.004108415242653311,0.029402973062746016,-0.005028238980258338
218,9.813029700435274,0.022888982985445706,1,1,9.736294337106735,-0.8721942574632003,0.8329545242446179,-0.005436478273464443,0.03619718009081274,-0.003002442976293866
219,9.814698171725613,0.02327939354619715,1,1,9.747327429528791,-0.8627802447448026,0.8007553043754373,-0.004236767688338817,0.019203511953163686,-0.0016537397967032988
220,9.816322060133666,0.023663038983276718,1,1,9.74859218904312,-0.8772368362953467,0.7979392576455867,-0.01257140461129658,0.02209810774553903,-0.0018918255770506587
221,9.817753812068084,0.0240706717806848,1,1,9.74248986895167,-0.9191824839302725,0.8330718665487676,-0.007431463464438571,0.024716621433554298,-0.0044550638101940035
222,9.818858483462696,0.024522658414461964,1,1,9.698853047716367,-0.9291840216512519,0.8477601244890989,-0.002997777633246989,0.013565675246425211,-0.006620425985798741
223,9.819532461804588,0.025023078861458853,1,1,9.760080127614218,-0.9292913312561725,0.840465015013749,0.0029976996778966823,0.003909827789916941,-0.0030613909870790355
224,9.819719469069357,0.025557967178943913,1,1,9.776371243185544,-0.8969472819613491,0.7543316063835861,0.013735086397903013,0.018270706324953107,-0.0006386020781479946
225,9.819419709383057,0.026099024347356628,1,1,9.77713524729432,-0.8763053784081578,0.7818793075683458,0.021014756570885612,0.0348250532562828,0.002729401196881275
226,9.818687564044142,0.026611501578622607,1,1,9.742657127211423,-0.8591088799560878,0.7996273893867502,0.018502790938677478,0.03916729755022828,-0.0009972073399748226
227,9.817616087240728,0.027062515169576962,1,1,9.736480355407265,-0.8121626441656976,0.8467330359237273,0.013685602140200617,0.02657137126647677,-0.003030531542811782
228,9.816312270769721,0.027425728406402207,1,1,9.707878303353622,-0.8342012801176191,0.8754512591065795,-0.004600962478819092,0.029865132503221745,-0.0018074691899200152
229,9.814872022363685,0.02768060617185258,1,1,9.73059342286425,-0.8545642663144467,0.9006533020390224,-0.0028257742198590534,0.012742780974291441,-0.0017012485347037553
230,9.813364608195155,0.02780775405129104,1,1,9.720788784280044,-0.9085082175903026,0.8695419685752497,-0.010579229279354199,0.027601006794392355,-0.001146076553101023
231,9.811832447696125,0.027784077910710712,1,1,9.688267266285212,-0.9402105785986106,0.8152152274434633,-8.136633360217898e-06,0.013113975473788113,-0.006178024486205951
232,9.810305555378624,0.027581612666927272,1,1,9.800068983376885,-0.880758928334189,0.7924097392591515,0.01175569858214535,0.004029763935816206,-0.002786310930505573
233,9.80882309292505,0.02717209014635802,1,1,9.80613232269957,-0.8399533332874644,0.7096298504429932,0.001794353012350035,0.029217532146212397,-0.000917894102330209
234,9.807450260320982,0.02653637030182285,1,1,9.735827207187,-0.8854333107118951,0.8378019996936582,0.004317095909818845,0.05796764924848552,-0.0021520712982442017
235,9.806280335892547,0.025674842680848693,1,1,9.66601003718495,-0.8937198867643075,1.0089589462040705,0.014571266727045375,0.03228304749531835,-0.0032446282676103083
236,9.805419505057776,0.024613564453885,1,1,9.730423143400142,-0.8801482458811515,0.9423739083877832,0.015111829690879777,-0.017298969925786698,-0.006197140574466967
237,9.804961246563057,0.02340260685321678,1,1,9.713947339620095,-0.8649340744052267,0.8160887632257666,0.004883285834656428,0.007391135493492609,-0.004613207522966283
238,9.804961319339059,0.02210700034038026,1,1,9.700147533204676,-0.8817200074460788,0.8836766087595764,0.0019347668227668435,0.02004176495677192,-0.0048021806655267054
239,9.805422489502638,0.0207940920155124,1,1,9.719291558117126,-0.9243352331813536,0.9393921717157497,0.007531368698081318,0.012081895281476136,-0.004458325114625644
240,9.80629295068523,0.019522074005435784,1,1,9.731802968884864,-0.9297867891055758,0.8779346878552657,0.010915150144080791,0.00023532603033336562,-0.005033959266068791
241,9.807476832496917,0.018333114975237905,1,1,9.738178571639716,-0.9251393424629072,0.8759764854903135,0.01389944140832961,0.009954164271968508,-0.0057022760418777825
242,9.80885111203246,0.017252247372168242,1,1,9.734222362284862,-0.9307060152797288,0.8911797013557872,0.01960282343126812,0.0030578247503334956,-0.006033486646809972
243,9.810282049837582,0.016290965303755074,1,1,9.743922869284656,-0.8894153680664019,0.9209928516422746,0.025059024681967173,0.005007364428155267,-0.005550560852051451
244,9.811636289149975,0.015453018213779719,1,1,9.720652172440145,-0.861339142850481,0.9175318270934747,0.01935081266180104,0.0003037643594255099,-0.004110248289990472
245,9.812785797596643,0.014739655873278327,1,1,9.716693073573987,-0.8847334245225738,0.908093838743755,0.008553295804944898,0.00214985222185097,-0.0007335482361872118
246,9.813609865765866,0.014152620474918566,1,1,9.699454824081707,-0.9187427820042943,0.9084192903822,0.011754613283404502,0.004815152159298226,-0.0027797208441327466
247,9.813999307746682,0.01369472917039155,1,1,9.740187635630663,-0.9135045436430954,0.9167271898328822,0.01567143258679541,-0.004261288767471962,-0.00523486428715489
248,9.81386664649364,0.013368948658132596,1,1,9.736969300257005,-0.9134367370781807,0.8655468709293005,0.007211934923782115,-0.003552631793456792,-0.0040962703927449225
249,9.813162262085557,0.013177080991509483,1,1,9.72288716615554,-0.917804908415391,0.8773920938603949,0.0049911495330859585,0.005717643764958841,-0.002961007237401099
250,9.811892659940096,0.01311886849998432,1,1,9.723770635568115,-0.9140027607723481,0.9119416043806363,0.013615054599631768,0.006556969639826568,-0.0035873604185652705
251,9.810134911528653,0.013191782326434353,1,1,9.74872470597774,-0.9137876737584809,0.9272648931117435,0.0162659407263304,-0.00468628900422998,-0.0030161626386813667
252,9.808040897712988,0.01339111463449188,1,1,9.767038130026755,-0.8932703886974085,0.8813134409444598,0.01610774622518209,-0.009154954720556087,-0.0006272933397010547
253,9.805826108146952,0.013709593687928876,1,1,9.725845977687538,-0.8902885434939205,0.8932430725205628,0.01299503419694066,0.0006037386681661446,1.24644042299172e-05
254,9.803741348199043,0.014136005569035093,1,1,9.697699605844475,-0.901677408859858,0.9264339074235394,0.010730135163016288,0.00225017448572031,-0.0014278581255979786
255,9.802031822227987,0.014653153795211312,1,1,9.693665177518962,-0.9013178751926023,0.9396775904657314,0.010857187225558868,0.0008479964397520287,-0.001149337058692279
256,9.800893907753274,0.015236275073596971,1,1,9.684753700861227,-0.8959764655321869,0.9236599387823683,0.008492095415248221,-0.0064894345915838866,-0.004832348033221829
257,9.800441685071268,0.01585314034351888,1,1,9.725477666785013,-0.8933561166976591,0.8452646822548983,0.009453696146971256,-0.013708106528152058,-0.0061748890016447905
258,9.80069165611282,0.01646642747403076,1,1,9.732386024480473,-0.8958190138005772,0.854323000610794,0.010735453143598653,-0.009265514795725807,-0.008307783364902697
259,9.801567387728399,0.01703799361540054,1,1,9.735246353640324,-0.8757086908143641,0.8802265145948568,0.011758891452106844,-0.014272432972577007,-0.00709805827524507
260,9.802919928828453,0.01753395999446455,1,1,9.72846920468708,-0.8696279713930594,0.8577140773762212,0.009441410849870428,-0.01759552648601469,-0.006804536178545988
261,9.80455738222429,0.01792936280037637,1,1,9.702396502880793,-0.8802606212068419,0.9102337694859616,0.00030280556495447514,-0.013637137328640817,-0.0056761917284741835
262,9.806277698018832,0.018211478239175235,1,1,9.726952647363431,-0.9015443679954253,0.9328726005240492,-0.007419834109664258,-0.014318363887563652,-0.00542170936396146
263,9.807900253428507,0.0183814868112461,1,1,9.728134406440248,-0.9059720010281209,0.9123050599362525,-0.005478821475781815,-0.01901455108878347,-0.005993416233004891
264,9.809292214623921,0.01845453213484395,1,1,9.745394784666349,-0.9300300339539402,0.890655600438434,0.004589836149762726,-0.01583801177603258,-0.005983555267199491
265,9.810385391448737,0.018458309460709785,1,1,9.737722642056887,-0.9028229694180512,0.82681482909684,0.008048316446186525,-0.012237937631252645,-0.007084353808721771
266,9.811180030775793,0.01843023123405027,1,1,9.738810875333026,-0.8954633395752639,0.8594081147813575,0.007213356691036841,-0.019459652656657715,-0.005982476374940702
267,9.811734643282138,0.01841313608345888,1,1,9.72552648471554,-0.8857819340697026,0.8586767846473062,0.010996464277283518,-0.018312034965992808,-0.007985341144645594
268,9.812144638725448,0.01844953238345851,1,1,9.737594492125488,-0.9116623816108175,0.811452091125652,0.008173187980583698,-0.0188725682536597,-0.0074536050299337
269,9.81251559770242,0.01857466390016026,1,1,9.7249030997669,-0.8793252046238285,0.823551711778548,0.008636930795681525,-0.005538315282302892,-0.007253846325784511
270,9.812938324168444,0.018809348539901922,1,1,9.710000406710845,-0.8585373346117083,0.8830792105312413,-0.0036755457868194,-0.009431094680498303,-0.00750549365442619
271,9.813472085085696,0.019154228711676925,1,1,9.732017557078901,-0.897991888877731,0.8645529608827621,-0.012303317645004716,-0.013735501895782237,-0.0035956461761502325
272,9.81413970277096,0.019587152000052704,1,1,9.757712175572422,-0.870409029580423,0.8187668516914347,-0.0013886451863211985,-0.022557458766446402,0.000781471151765836
273,9.814934022327332,0.020064655799841753,1,1,9.725390370014287,-0.9032479975819526,0.7555714763228727,-0.0020345636448559786,-0.010721903421250335,-0.003928938615650099
274,9.81583125142907,0.02052742023038062,1,1,9.764774237465687,-0.8822717202969717,0.7485858053640682,0.0007005181644757865,-0.027828887319218995,-0.0050593150502214225
275,9.816804356716599,0.02090865649931929,1,1,9.8044281370312,-0.8523609817473876,0.7004500701630022,-0.00973870322249446,-0.02161573313722975,-0.00619578994405596
276,9.817829860357525,0.0211439375901316,1,1,9.763774829103397,-0.8748130829887885,0.7346604985023093,-0.01164584080901918,0.004826654560459867,-0.005279975197449423
277,9.818884488599426,0.02118095981385703,1,1,9.699750985796827,-0.9116747496903587,0.8649551134400959,-0.005442289154950859,0.0215308569178629,-0.009112594033777528
278,9.81993402017758,0.02098798958287292,1,1,9.683699344551616,-0.9253745849346502,0.9240986798793777,0.0017359014087448535,-0.005196602833856825,-0.011573140764638386
279,9.820922428514901,0.02055989698610698,1,1,9.728085386113682,-0.9012273902580646,0.8265978796770871,0.005029529447510692,-0.03482980113581088,-0.0083646283060465
280,9.821770146852892,0.01992049426065328,1,1,9.789776845072772,-0.8497725475328876,0.7347754329067093,0.0034609019743522852,-0.02942885508441902,-0.007682134670656969
281,9.822384437070296,0.01911988548796259,1,1,9.78320147789045,-0.8729136178915198,0.7041466499806396,0.005496257686649661,-0.009605649058919672,-0.009658456731409297
282,9.822676878196841,0.018226491486507505,1,1,9.769570535725943,-0.8964404210035588,0.7529016717818091,0.008323164778545502,-0.0036836796922297545,-0.010277952742633326
283,9.822579284906869,0.017315320161715535,1,1,9.755551218288973,-0.933058062400904,0.8082828310323148,-0.00028339848982260546,0.0015015711103028475,-0.008290377299319963
284,9.822052190833457,0.016455730339149027,1,1,9.704711179280938,-0.9253230693319118,0.8037974403929825,0.0038654974137242817,0.0007097934141334858,-0.009024079526738235
285,9.821086281759301,0.015702132241144643,1,1,9.71790323205032,-0.9270584107825881,0.8400352729952403,0.012213267470749781,-0.010051064481806678,-0.007607354729035575
286,9.819701710494384,0.01508964373544408,1,1,9.755390101686256,-0.9133324160673643,0.7575314660183817,0.014675982872609626,-0.009273407581021426,-0.004106261290493744
287,9.817949888799085,0.014634631406302985,1,1,9.757413390232916,-0.9195238399745734,0.7662287220902522,0.013442270351115707,-0.0018155303155562494,-0.008468716540938774
288,9.8159180099798,0.014338453435271441,1,1,9.752534397764348,-0.9130111172499331,0.7875023915918017,0.013063458215061517,-0.0007307637763127737,-0.006816389188746104
289,9.813732149877696,0.01419214478465573,1,1,9.763572729097184,-0.9094621470527182,0.8012526469563267,0.017248569680814597,-0.0038461770701295967,-0.009801317198098665
290,9.811553770164574,0.014180091671422403,1,1,9.72221144960229,-0.8978906856994981,0.8370135275766409,0.01612551418554452,-0.0013567110782410994,-0.007826756063740599
291,9.80956714820438,0.014281554592632894,1,1,9.718431500304895,-0.8618189438282893,0.8314954167717029,0.008334938600923903,-0.01303642266945277,-0.005910084744216815
292,9.807959396278394,0.014470030727072505,1,1,9.730874642016254,-0.9037479484189919,0.8158457266133421,0.003846238955441892,-0.0060351007015012476,-0.004023772516436417
293,9.806897445783688,0.014711713786061729,1,1,9.726383204202287,-0.9290276181380955,0.8062640107271731,0.00178099626727972,-0.00389674259422227,-0.002323407374458607
294,9.806506238567286,0.01496518146066147,1,1,9.749491216506858,-0.912126747572896,0.8170645717060444,0.009446653845332189,-0.003347357682594164,-0.003701968283217328
295,9.806850406049433,0.015184237203230243,1,1,9.733703756823594,-0.8890306137813673,0.7850994314092918,0.012542811172660881,-0.005068564721781016,-0.0036933598457326725
296,9.807920257526817,0.015324383784370527,1,1,9.740041700136194,-0.8836184428773924,0.7642117811720576,0.01755192273345617,-0.016036878173701846,-0.0057394086102322515
297,9.8096232967612,0.015351420364913335,1,1,9.732019732806336,-0.8901383947276825,0.7682012748585122,0.018434795774048832,-0.008395495125438624,-0.005637977158061989
298,9.811784099958473,0.015249314160078072,1,1,9.708171164698086,-0.8801843956023866,0.8293396403181402,0.01612964313537589,-0.007172453909628534,-0.005097588864714552
299,9.814156405776608,0.015024584705019528,1,1,9.724571575661614,-0.8801627289880267,0.8598960772299991,0.006421925778956478,-0.010869040312360375,-0.004749122397723701
300,9.816450044344245,0.014705775821758556,1,1,9.728331246130889,-0.9048133957649046,0.8120138718565012,0.0002876444025515662,-0.013651730486182068,-0.005544648754613695
301,9.818371379987129,0.014338281947051628,1,1,9.776115775450096,-0.9137024230491094,0.7878174150543261,0.003985215052263313,-0.012393820626425946,-0.006775222731818205
302,9.819670555050191,0.013976013950809087,1,1,9.76316991018411,-0.9132466306264074,0.7408666168106165,0.0070671383940740335,-0.009210001903490153,-0.004946358575765596
303,9.820184786175632,0.013671904742207336,1,1,9.761889846330902,-0.8765882166596322,0.7538947993888623,0.006977524723024605,-0.0007826513265809277,-0.005390663032020079
304,9.819866749892592,0.013469255776343862,1,1,9.767074293300139,-0.8560689672529257,0.7885053873016378,0.009236600724925456,-0.007982426647517598,-0.005435303182876106
305,9.818790905797092,0.013395575148380466,1,1,9.763838901905439,-0.8648768266511923,0.7715030781007769,0.007004061643172603,-0.007432264259186093,-0.006798850034941527
306,9.817136582884327,0.013459909285108021,1,1,9.732960273245796,-0.9103627697861563,0.7770181443993855,0.004239767350497994,0.0014996698558472589,-0.00868026574563362
307,9.815152693388994,0.013653843013880788,1,1,9.7096085776324,-0.9241069288354556,0.8108870118557328,0.005033784489488286,0.007429086682347883,-0.010832524289604574
308,9.813113411446617,0.013955518567762025,1,1,9.720997826271663,-0.921462363857871,0.7896292556947315,0.012909156169596463,-0.010775914354094045,-0.009796695854454909
309,9.81127548523183,0.0143353641842918,1,1,9.740653272618353,-0.8842187706940142,0.7468698279721301,0.014287051521513421,-0.009239908898876619,-0.008418418071964289
310,9.809845253478223,0.014761955219446874,1,1,9.762873882595807,-0.8727522571107502,0.7393279884325089,0.0025635656067120017,-0.007744340378457703,-0.008057742511738894
311,9.808958395509725,0.015206770056337316,1,1,9.748224972022006,-0.8790559883303765,0.7391372951423707,0.0017970313683607472,-0.010028245225889815,-0.004777844996358709
312,9.80867118182706,0.01564736704106335,1,1,9.734694804667015,-0.8763811044566213,0.7397556891910534,0.0072409450660948504,-0.01573370374418724,-0.007035995729283314
313,9.808960764314003,0.01606911684344615,1,1,9.736301012694966,-0.8381881636984738,0.7791777340253301,0.0060880840832147004,-0.016421476784697374,-0.007764217069061571
314,9.80973325609527,0.01646574617371208,1,1,9.717769514440047,-0.8706205993506284,0.8043493830742701,-0.0038494397283475985,-0.011565063625878495,-0.00649792867264439
315,9.810839549385356,0.016838858244584,1,1,9.752775258729121,-0.8991652832069722,0.8000376061094535,-0.007285624331459678,-0.011894039350436756,-0.00795248834241551
316,9.812098250076948,0.01719664677499775,1,1,9.7300076612696,-0.9420835853341025,0.7433096739266787,-0.005302637352108007,0.004049979697192045,-0.009764151552446941
317,9.81332306436249,0.017552104908269545,1,1,9.740384840445298,-0.8928647871824429,0.7400380605174555,0.013752640225131934,-0.017717910492088543,-0.01067464250338737
318,9.814349940521096,0.01792086725612374,1,1,9.794911851007539,-0.8532233130246272,0.6855535401836581,0.003501555770506305,-0.020775969452247023,-0.009605400857253315
319,9.815058489690884,0.01831854337395148,1,1,9.77183248752944,-0.85759722872989,0.6354288204329167,0.002348551285084421,0.0007945441038801898,-0.009674643232798917
320,9.815383464712138,0.018757447906482146,1,1,9.715742163589336,-0.8753390776357132,0.7788181026485228,0.009769905135469537,0.02104127085826787,-0.005394776633062917
321,9.81531557352745,0.019243089404698693,1,1,9.694686078163055,-0.9121570558408378,0.9087699373124215,0.006242685923821912,-0.005289334451825027,-0.0058793277168573445
322,9.814894940053968,0.019771175127064455,1,1,9.761425783132923,-0.911662403609674,0.8200854754399012,-0.0022706197050751786,-0.027083590010772943,-0.007509468739091976
323,9.81420187637765,0.02032583381593551,1,1,9.764975880567162,-0.8688431455976409,0.7167628636352417,-0.00458148220554708,-0.02316750526529587,-0.006293601679939708
324,9.81334734001464,0.020879461815387385,1,1,9.748392586567807,-0.8616428735768228,0.7126672092352163,-0.002513474651716398,-0.0036310208179691638,-0.007952706169812848
325,9.812462514456154,0.021394497890104214,1,1,9.720145873348482,-0.8763531738036977,0.7436684212914351,0.007909557005107409,0.0011264378602809965,-0.011543300546298756
326,9.81168632939829,0.021827442265693345,1,1,9.762438325619362,-0.9171963809532755,0.7291526058456738,0.014178524560812379,-0.02244736592399421,-0.01235450244872622
327,9.811150808744678,0.022134965993169987,1,1,9.763688415607188,-0.895102544233957,0.6667194565533944,0.020662354257563048,-0.009289246533958339,-0.011193163442507014
328,9.81096492886964,0.02228090440457932,1,1,9.728664484664371,-0.890610587173472,0.713014194366796,0.021068446817400038,-0.0074588704794912985,-0.015105145994495018
329,9.811198189433918,0.022242129943426784,1,1,9.740369453600614,-0.8996337168203649,0.7477499159356217,0.022201885281351814,-0.0003983601051493443,-0.012180888780806476
330,9.811866250435783,0.022011569484038835,1,1,9.743168400712843,-0.8795451189509903,0.7556871401804388,0.02042545957885072,-0.002703222318217874,-0.009851018435462046
331,9.812922215468324,0.021597838492950237,1,1,9.729962755755523,-0.8674533038798413,0.7554817300163369,0.009928212938436367,-0.00420219316142481,-0.007932346163408108
332,9.8142571526229,0.02102231136810087,1,1,9.724186837800191,-0.8610929163883497,0.7838080791844593,0.00879600653232381,-0.012708133112854236,-0.006478461208454581
333,9.815711830268857,0.020315159033669178,1,1,9.75749292547058,-0.87176113555374,0.7136745713386794,0.0025936486630678277,-0.02407069876241936,-0.006871676514423363
334,9.817098701976246,0.019511636527390568,1,1,9.781362429163872,-0.8867183951968083,0.6646194857113509,0.0005758658384466955,-0.02265875109762459,-0.007472332366914834
335,9.818229773780397,0.018649074652420147,1,1,9.761599202774418,-0.8813699682088475,0.6850643213207902,0.00018903998187191096,-0.013799198672190531,-0.007680533789877708
336,9.818943984381232,0.017764437860101994,1,1,9.749170828889365,-0.8725453479774267,0.7027819542062796,0.006361907956962787,-0.010641611572325507,-0.009108121657268748
337,9.819128659793236,0.01689235087611332,1,1,9.743684525984978,-0.887546127351205,0.7598663443020415,0.008308392391429883,-0.008252718987024977,-0.008599531802304
338,9.818732670065613,0.01606375732108774,1,1,9.759468998274029,-0.9091598603956453,0.716927263150159,0.011180146909408665,-0.01195820285697155,-0.007508768875948145
339,9.817771679120138,0.015305295738388375,1,1,9.733352814174678,-0.8624195397400889,0.6817676925023941,0.013933098450198389,-0.005296310973538933,-0.008829049520161305
340,9.816326846456429,0.014639077274065715,1,1,9.760054099715262,-0.8685167111721336,0.7181597188982871,0.015943565917925766,-0.003673043614178642,-0.006457304091949239
341,9.814537771181817,0.014082287078675865,1,1,9.767048838308845,-0.8907796007186561,0.6750972274728003,0.010820954875625136,-0.007685347776554475,-0.005606311032672611
342,9.812589383603822,0.013646235492768242,1,1,9.771514859755998,-0.8712183436582529,0.6701695287298592,0.0114646094919821,-0.003865887998966821,-0.004527757221318541
343,9.810692192697491,0.013335058939323923,1,1,9.737142975695301,-0.8579365346041347,0.7109832955543891,0.007878477315348367,0.0013738595421905202,-0.005693929428550984
344,9.809056907951136,0.013144828076108535,1,1,9.709402423229307,-0.8547366937703874,0.7639848069931405,0.0021581328665539416,-0.0034169614823789662,-0.007633962998997682
345,9.80786737386617,0.013063966648150826,1,1,9.741083460130476,-0.8434043403812361,0.7315754762610427,0.003556841419900389,-0.01188102746760395,-0.006111332796922182
346,9.807257400136479,0.013075452955090062,1,1,9.753429774994414,-0.8347941155938392,0.6908180882552483,0.0003174105942615138,-0.014313891383260557,-0.0073404766328155685
347,9.80729552790339,0.013160469786108997,1,1,9.75609255165703,-0.814649206336446,0.6890281094031483,-0.005075351912754921,-0.010824198711798107,-0.004246036875585753
348,9.807978220018379,0.013302470546762878,1,1,9.761382340599798,-0.8617922613560757,0.6762138290735882,-0.013226669098280864,-0.012428261150242656,-0.006288095691969381
349,9.809229450234112,0.013490450854356375,1,1,9.77170680613608,-0.8764755627710127,0.6350446978700248,-0.009882142125553224,-0.0016493948830513963,-0.006625512128397606
350,9.810905078080427,0.013720602803892272,1,1,9.700838966962714,-0.8767088317416195,0.6819962338588124,0.0017317969312097233,0.0037106032511099465,-0.008435467685258942
351,9.812803070394033,0.013996182300709663,1,1,9.717901136171978,-0.890210626082723,0.7203723869293038,0.008376218467003227,-0.004966990545821509,-0.010853200663102898
352,9.81468284266822,0.014325899531584236,1,1,9.764206888239313,-0.8621082699669179,0.6725462178819617,0.006961034130142501,-0.0089317965539238,-0.009551713178149105
353,9.816295794797721,0.014721175314175685,1,1,9.754711445967311,-0.9060274579752183,0.632983913571478,0.012200510245834286,-0.006795626521235916,-0.01057405446696325
354,9.817424252649015,0.015192345884933312,1,1,9.780732696523014,-0.8662068675687982,0.6509561991530908,0.01682788021992194,-0.0021523304758963263,-0.011137275265006947
355,9.817920785377167,0.015743814147544007,1,1,9.772889072409527,-0.8505226838751969,0.6719427107912525,0.01581268612991312,-0.004232821968547355,-0.007461546664920765
356,9.817737941323472,0.01636858366211334,1,1,9.769802344685816,-0.8403032365334446,0.6860944426922945,0.0048668225181967345,-0.006622514661317513,-0.004750409955690204
357,9.81694076629505,0.017043476408404475,1,1,9.747180846320369,-0.8375785337705095,0.6870557070500656,-0.0119030327084598,-0.004237906372443605,-0.004471836296970274
358,9.81569935382272,0.017727084613335192,1,1,9.746226713044004,-0.8566723900965458,0.753164714774838,-0.010451996431437913,0.008047040618425117,0.0003612601026423948
359,9.814263541702442,0.018362493261298966,1,1,9.720149186515748,-0.8840460243974883,0.7392588781356478,-0.00642415210164274,0.0024147274976310793,-0.004327593549060494
360,9.81292458201426,0.018885766857460233,1,1,9.789596371578517,-0.8677143936783495,0.6535037297598172,0.003601053162518294,-0.026107895268197377,-0.0037353987558541384
361,9.811968671372597,0.019239404634851125,1,1,9.796706371245872,-0.8338162675754652,0.5421224153695556,-0.00044784457685831847,-0.00978224700849664,-0.005062064506812269
362,9.811626526870693,0.01938803632826032,1,1,9.77690708306985,-0.8424183531222895,0.5872109917587575,0.002359571789494982,0.030023395007478876,-0.008207692476516282
363,9.812024888606999,0.01933220350504595,1,1,9.66202719522082,-0.9062974290611493,0.763980703565813,0.0042845793314689115,0.03218596118591612,-0.009131032934898415
364,9.813150695195402,0.01911570240628457,1,1,9.667642445359752,-0.8967421890767192,0.814887876308504,0.008529232067845841,-0.012901058984210238,-0.009137356155967542
365,9.814842295536097,0.01882302309857018,1,1,9.728194415200715,-0.8399177412146166,0.6866026493693668,0.004888072479135957,-0.03438850763760778,-0.007062125545224814
366,9.816817915909526,0.018565875574130888,1,1,9.787813213597369,-0.8489192138000209,0.6596044655672224,0.005663790165658452,-0.011947370587635776,-0.005757482034374407
367,9.81873850277402,0.018461037872501973,1,1,9.805163641655307,-0.894407438763576,0.7110535548629374,-0.00796394255798903,0.0037373575857917035,-0.003264961916914725
368,9.820287047010726,0.018604786942761898,1,1,9.792557948693675,-0.8956447814989226,0.6935721822642432,-0.0022124920145883404,-0.0014271500821286059,-0.0019106037631725647
369,9.8212390215183,0.0190508696483253,1,1,9.789222037781347,-0.8654744257236909,0.662643085559394,-0.0034630756557516938,-0.0057516607621412,-0.0027285146527708335
370,9.821502585207366,0.019798435239141116,1,1,9.766057555024492,-0.8305954234519171,0.6448766953115281,-0.0073436572750631346,0.008418248253608804,-0.001531238158469229
371,9.821119315325818,0.020793445702342973,1,1,9.763381617623438,-0.8654044683306904,0.6759294593519435,-0.005029588426574346,0.01865621532484519,-0.0024085222392176892
372,9.820229863487254,0.02194275667038967,1,1,9.736476421001102,-0.903359176033088,0.6613187453727872,0.00923097671338669,0.031478233693719285,-0.007115693611332944
373,9.81901905160066,0.023135926791128494,1,1,9.729281926744573,-0.9062346279061549,0.6988136871571415,0.020736978349554402,0.03699839882447975,-0.007458336730185183
374,9.81765947944929,0.024267474130437727,1,1,9.694850730901278,-0.8898668923803061,0.7233293124293557,0.019473677401782952,0.037835785754151724,-0.009015948184111782
375,9.81627144585993,0.025252863323028354,1,1,9.728345460008214,-0.8349709172783696,0.7330347900400522,0.012660106808065424,0.006787333429074597,-0.009018435477011422
376,9.814910228300615,0.02603494553646433,1,1,9.783063761779271,-0.8531504769241193,0.6048463297574354,0.0007635644129547236,-0.000633829239335881,-0.0074880386584253
377,9.813581070997493,0.02658216762253175,1,1,9.787107535518219,-0.8868665530509537,0.6316807449926163,-0.0059477539203673015,0.019754381054986378,-0.003176820329053997
378,9.812271588983183,0.026882930802016144,1,1,9.766090499808996,-0.9183905731200452,0.7363381280040537,-0.011833053270079767,0.030974263590075192,-0.0024641789012202413
379,9.810985816479315,0.02694047701843443,1,1,9.74023214576329,-0.9130776901286859,0.7373865044574365,-0.0030754871006466638,0.02318322490225616,-0.0012007126719248394
380,9.809766124711468,0.02677053473109235,1,1,9.760460852513358,-0.8567800698629358,0.697297130495083,0.006893685504556702,0.01969606434512596,0.0005648881531561638
381,9.80869630622836,0.02640172267781062,1,1,9.759559768201445,-0.8233379299655559,0.6814735420834126,-0.0028995677218390916,0.03495239554744675,0.0007417120619735625
382,9.807886861184743,0.02587742069853234,1,1,9.70971556002674,-0.8409452449383369,0.675688953235806,-0.006877014828524108,0.021008086240965205,-0.00029986370022897933
383,9.807449044513719,0.025257247727315555,1,1,9.74835971056112,-0.9021517424593309,0.6468833993755229,0.00368722827195973,0.02384201371473101,-0.0016950842850909696
384,9.807466579859488,0.024616101457041763,1,1,9.737302633807714,-0.8830121939087817,0.6630455285391118,0.01733822353401917,0.03875866853666793,-0.005312320344709308
385,9.807973078791008,0.024038958364691533,1,1,9.751540317984215,-0.8607002039058447,0.8107452169562173,0.017726746129503746,0.030268950601327758,-0.0018724422917622678
386,9.808940267542908,0.0236106147913931,1,1,9.72772979420782,-0.8641302332774919,0.8171730384693808,-0.0018251908674708549,0.010197542717430352,-0.003378567154797944
387,9.81027926015313,0.023401509439811726,1,1,9.713547689253348,-0.8554886075606251,0.7264347586748592,-0.006463529076709719,0.0027882937342110035,-0.004411417335882446
388,9.811855355027031,0.02345307479195803,1,1,9.717488789256082,-0.87483838791114,0.7139203428400129,-0.003546968011925517,0.023360617864894163,-0.007598708640522888
389,9.813514788856363,0.02376715241566834,1,1,9.774485612453631,-0.8699736904570964,0.7794074840742957,-0.009341700353178821,0.021173340388366223,-0.00979578701514903
390,9.815117816938926,0.024302988771231163,1,1,9.793306402300486,-0.8863914818906998,0.7441439402167778,-0.010025285703758956,0.005684211462200651,-0.003670030429058494
391,9.8165676732321,0.024983043974954555,1,1,9.785182670371846,-0.8752562301198623,0.6486333983686827,-1.6258209131114815e-06,0.01846626375488992,-0.004676201825989239
392,9.817823722785606,0.025706580900290772,1,1,9.768492038087494,-0.8550797948993554,0.71634899182383,0.006655699253075678,0.04509168809735113,-0.001100265694725457
393,9.818892452452841,0.026368211071511768,1,1,9.705946823322108,-0.8569316971629072,0.8380293268499759,-5.6145901566645645e-05,0.036882187878124646,-0.002993781041334335
394,9.819799673152666,0.02687754997161698,1,1,9.711455769926708,-0.8861261642035223,0.7623651711902292,0.00149046723609807,0.0039037094988127454,-0.005355137842116536
395,9.820555413909872,0.027176442084700377,1,1,9.772472622714497,-0.8484167907501257,0.7140140948863578,0.011429190802441197,0.011374614450741206,-0.005037044892892183
396,9.821124765259809,0.027251446651099544,1,1,9.78664496527342,-0.8443993170187657,0.7760571522117057,0.002799740880172314,0.047232533437898114,-0.007610666615778471
397,9.82141398645914,0.02713992473964331,1,1,9.706258251133077,-0.9011590891978037,0.820499299809933,-0.006268719049466845,0.04830632238274923,-0.007218534722035796
398,9.821276238740976,0.026927814511800083,1,1,9.710750284558124,-0.8539083489751127,0.7622802583416817,-0.004352885406916618,0.012194057508701995,-0.008813058177302834
399,9.820538324874555,0.026737687124778413,1,1,9.745109632385278,-0.8640222448133584,0.7349343660912708,-0.00835129850509241,0.017593409575011695,-0.010838513908428892
400,9.819046805008755,0.026707956125846928,1,1,9.778454562603084,-0.881001366611924,0.7862891254939639,-0.0038989160817965466,0.025989497993928787,-0.004525734365394263
401,9.816726119358758,0.02696676815025872,1,1,9.76295747869404,-0.8788858925147304,0.8177793106208607,-0.00985778950947209,0.02815916164587302,-0.0026362375547108545
402,9.813634737181536,0.027605308495186723,1,1,9.724414203898196,-0.8952870034052504,0.7618095392932702,-0.0053549359044505074,0.014204860746308407,-0.00511235023075962
403,9.810002341707595,0.028654912465548143,1,1,9.83354643922658,-0.8376309882209352,0.7446041856479638,-0.0011813530612712231,0.012900571677704309,-0.001225039912580038
404,9.806233537480187,0.030071248209520497,1,1,9.770305302611678,-0.8209517180525364,0.6986739268206608,-0.014061546084245147,0.038281895012433495,-0.0018663569498928087
405,9.802870555000165,0.03172714307645096,1,1,9.684113345960322,-0.8928494783405373,0.7986923834938565,-0.014940116144700862,0.05039601025846003,-0.0031496645665999466
406,9.800517404675947,0.03341370822480286,1,1,9.672389399432046,-0.9598371862149405,0.917371498976247,0.0070101719058716086,0.03850622772495132,-0.004334476748950519
407,9.799737773441102,0.03484864444800028,1,1,9.719099191139161,-0.9133908415092331,0.8837201780414735,0.023081007413343287,0.00448550812620065,-0.0034368158762386625
408,9.800943643481407,0.03569203905849018,1,1,9.758303935730506,-0.8593770623672572,0.8130978398780868,0.01432770270536764,0.017330332404112928,-0.003499122338406901
409,9.804289271977089,0.035572503011242484,1,1,9.725574395791797,-0.8554401478730822,0.8429306048039259,0.004215216926986167,0.022392114326628416,-0.007223018204293082
410,9.809580054625636,0.03412766949742374,1,1,9.729550984456706,-0.9078529831146934,0.8546167386470783,0.009789633798201443,0.020880310875277575,-0.009238048529927828
411,9.816203268850249,0.031061452380566925,1,1,9.747637482721904,-0.938422405280576,0.8960738241636105,0.006726890765665197,0.014048346643348572,-0.005442844497043379
412,9.82308876333482,0.02621657130010304,1,1,9.74934825336737,-0.9301730917651507,0.8200723450365434,0.010195269691026573,0.014042612787940358,-0.0045550587042572
413,9.828710229401194,0.019655997234372894,1,1,9.729197142762747,-0.881464008293544,0.834878663274775,0.01945425228264939,0.02138108051504166,-0.00040553683589440135
414,9.831140038187383,0.011742220239509688,1,1,9.69515058276438,-0.8332227219589643,0.8820853994402198,0.009192357971041816,0.021262202180204446,0.0005667926469114323
415,9.828171224554831,0.003199583892530886,1,1,9.693506595491346,-0.821101720381005,0.8573526401639926,0.0012927777587498598,0.010945595131561814,-3.889933771434418e-05
416,9.817516212702229,-0.004856549213932498,1,1,9.713789334310228,-0.9115396891999715,0.8164924407067818,0.006147027554057103,0.009382159627259305,1.6613858046517598e-05
417,9.797080876348561,-0.010938775631436038,1,1,9.717859228656078,-0.9109374798386423,0.8387076777196389,0.016595927052588482,0.024782200631011057,-0.0017205191367516473
418,9.765295787451256,-0.013265876327860629,1,1,9.682937090896138,-0.8628870868367141,0.9003007367738302,0.014783598868454026,0.011556744914198575,-0.0036904179729896434
419,9.721469236264836,-0.009904910633673693,1,1,9.704443237460879,-0.8433748453894604,0.785899298830026,0.004694507630310477,-0.018140278468605598,-0.000519498274912468
420,9.666114543143564,0.0010276411667910922,1,1,9.664796598474105,-0.8741841400519935,0.7088985323081506,-0.007102978984440385,0.011140935717601143,0.0067940789159269075
421,9.60120072756313,0.02112243355151446,1,1,9.558420180098903,-0.8204235457681016,0.75453554515124,-0.007616576951627744,0.013883431866969416,0.011360149258051669
422,9.530281424122514,0.05142060137316741,1,1,9.47548798434419,-0.7564014739448037,0.7220697982676134,-0.02495028420145859,-0.0182520100483457,0.018393531527461055
