id,ASVM,GSVM,walking_nonwalking,normal_abnormal,ax,ay,az,gx,gy,gz
1,0.9833691034039712,0.17395341031927605,0,1,0.9699137507568125,-0.017151592526703976,0.12393665208734554,0.09501470550324834,0.1700901691925864,0.05722315990913881
2,0.9761779398941316,0.17285072947433958,0,1,0.960994431614935,-0.03026493347465604,0.11587182831122086,0.10077560680677083,0.137052501371223,0.05685371194497718
3,0.9707370304892174,0.16867160851317248,0,1,0.9352008064446636,-0.0371344478284398,0.1160354981712875,0.13316112077605768,0.09910367932039622,0.06676191372112941
4,0.967942278092645,0.16273880112663955,0,1,0.9337487772070685,-0.03748460731902939,0.1039283453238118,0.10595804164792613,0.03405981985039898,0.06614539896240579
5,0.9684338572081116,0.1567370131300888,0,1,0.9503018639674435,-0.02705638199257436,0.08100734301018983,0.12233147319935249,-0.04680987382920265,0.06253354494760618
6,0.972495317840212,0.1525194435555327,0,1,0.989320389523811,-0.01932591483348174,0.07373171056195797,0.16884668575829975,-0.070003047910698,0.06616279568957174
7,0.9799977376214283,0.15189120417933338,0,1,0.9846005262784081,-0.012730741202400923,0.07994084982172696,0.13216742637329193,-0.04034126613156895,0.04935965720378573
8,0.9903945152920653,0.1563937126193433,0,1,0.9448988373992984,-0.009083268526766409,0.06578693812544481,0.09822091302253311,-0.0398227802850125,0.004176644950633675
9,1.002768073846488,0.16711322327152278,0,1,0.9413644489955155,-0.05207907767600596,0.07486381730611005,0.09617700019662481,-0.10450311784661742,-0.02938884396163703
10,1.0159267827596214,0.18453583062581363,0,1,0.9635768685633539,-0.05277839610375306,0.10816348791337752,0.09932963279088673,-0.08239030830907845,-0.07059621058092853
11,1.0285445289099275,0.20846714925408966,0,1,1.0248058370161819,-0.09192977522931596,0.11893201048627164,0.042471970989281155,-0.15223226651073082,-0.09708572337058753
12,1.0393242522703534,0.23802564472021162,0,1,1.240789356157855,-0.09104715747465898,0.18728124687744385,0.19344630692065723,-0.07523301749337344,-0.008462696051441997
13,1.0471553051051774,0.2717064263405628,0,1,1.0974845887002471,0.021178138625374293,0.18916282207039614,0.22006797446229165,0.4423179833068333,0.0893710158160406
14,1.0512335549815532,0.3075024885226004,0,1,0.9043357215659422,-0.013173138247279274,0.08460703994418006,0.03693382407614198,0.23318158534593708,0.11528791124388257
15,1.0511287769848758,0.343069420567368,0,1,0.91757626977875,-0.0973107751787257,0.007148118804497355,0.017669218278861275,0.030994536462232068,0.12253199840476597
16,1.0468061227197687,0.3759284945488407,0,1,1.0419810840224777,-0.16395349722328567,-0.04230507966485558,0.14425168226051552,-0.061016172373283585,0.13352783189728287
17,1.0386177557286833,0.403709391335078,0,1,1.140979610923916,-0.19095258903871817,-0.015314118774268875,0.43290596353974053,0.026836623851825753,0.16111488364465285
18,1.0272701581045798,0.42442075756511477,0,1,1.099656163271288,-0.14641305589258516,-0.02723220859832394,0.5132936116489091,0.2695857517363919,0.2521126156776742
19,1.0137570984437554,0.4367061504560949,0,1,1.0542543103564435,-0.09516152016673338,-0.007123614016229143,0.4281867330828856,0.2356386051262084,0.3148529745920128
20,0.9992473069659646,0.440020068821164,0,1,0.981125699672028,-0.08991442663592772,0.01716604808747864,0.3016107567182838,0.26910975945256016,0.3562855496625645
21,0.9849331163914662,0.4346675106223696,0,1,0.9303746460588849,-0.06857534526429387,0.04671898248976412,0.20643532936472767,0.25096358929720985,0.37933127206099154
22,0.9718692760726214,0.4216902327444147,0,1,0.8695989403717189,-0.03392655088524615,0.04211329279455255,0.09885556210594121,0.18211368198496355,0.315926528029676
23,0.9608449881885501,0.4026332037923744,0,1,0.8509765924646818,-0.032973492981601876,0.00942433809538626,-0.00501453043326924,0.1309253662845592,0.2253585568171545
24,0.9523290211839914,0.37926365874022533,0,1,0.8668030781019257,-0.004939658892999259,0.022325081757461524,-0.0845623780070874,0.1136568094475976,0.09366962561796702
25,0.9465073005892177,0.3533284459240452,0,1,0.955872492488855,-0.05244581404853692,0.015123231359000976,-0.17235807160049474,0.07506485125751809,-0.03910316319921816
26,0.943400598530527,0.3264170871104383,0,1,1.0618999518758314,-0.12459395956301285,0.04268569247300548,-0.25733348065429057,0.15087256604547097,-0.11760829145129251
27,0.9430182262762518,0.2999527335797432,0,1,1.0539994878947805,-0.18565978733346689,0.09614358165361034,-0.2513988549778962,0.3331558496599998,-0.12517504330601453
28,0.9454860902618543,0.27527852742695014,0,1,1.016278105444066,-0.22115245383474477,0.12639733098740993,-0.13680257471599894,0.39461974961891116,-0.07685290502650255
29,0.9510939971673219,0.2537674628580759,0,1,0.969463462547734,-0.21135863642011923,0.13199427435589692,-0.05870209888245987,0.37790565811189664,-0.019307010996451702
30,0.9602364111043807,0.23687752178161556,0,1,0.90993555921807,-0.18342285646838222,0.13128964055253328,-0.003885632842844055,0.2918402578088052,0.028587175873895875
31,0.9732606136534548,0.22610065466003823,0,1,0.8599089901579321,-0.19049323810390076,0.12031464070111453,0.074611462881664,0.20882755462572342,0.04913681971216853
32,0.9902703039090202,0.2227983563099281,0,1,0.8602049869818371,-0.16617292992332064,0.0709708494325701,0.18400746975663193,0.04967596998714442,0.053616052959832655
33,1.0109490402206762,0.22795855862982722,0,1,0.9362984689912853,-0.13465734789452444,0.028724443113915466,0.16379630377033466,-0.04719975422742278,0.039417469510536006
34,1.0344623828265291,0.24193541666812693,0,1,0.9780624181234123,-0.13307545015031952,0.013491997671428177,0.17418001133046931,0.002621597796151892,-0.0003320933348846651
35,1.059474277231147,0.26424179815768384,0,1,0.9964615624775917,-0.16914979759445428,-0.012979336161290232,0.18616274476801573,-0.04699723161193584,-0.046454150156077026
36,1.0842816607585246,0.29345663731688465,0,1,1.055240291858224,-0.14667553943764267,-0.03995771737923758,0.2197684645409874,-0.08832559206728342,-0.06745706869157754
37,1.1070407821285617,0.3272904998556912,0,1,1.113973555158682,-0.09430515506638708,0.07244478319364253,0.10372036139983964,-0.06399675986515173,-0.031815766542856436
38,1.126034708359618,0.36282608733191996,0,1,1.2847545369134326,0.015911396903984142,0.18950276138335892,0.03380340682428678,-0.17056011268975102,0.07301505963033489
39,1.1399176993874771,0.3969156034766929,0,1,1.3441421301225285,0.10699362166899794,0.27048695592698496,-0.24262504292167786,-0.16603398747425324,0.21558664664369984
40,1.1478747858824492,0.42667220725645383,0,1,1.1301456689687037,-0.03148116829602404,0.20426304456903707,-0.7041069892521697,-0.03400224839528026,0.19448990573631356
41,1.1496597395972674,0.44994557019053594,0,1,0.9237252005689178,-0.20257267917750846,0.06004418051261462,-0.9501852657255574,-0.038832565849613386,-0.05041746403552011
42,1.1455157195648973,0.46564629822879483,0,1,1.0456356782492293,-0.21240765966778177,0.2767925858004934,-0.6189193896628142,-0.23228778773524408,-0.28337359986634864
43,1.1360187933615533,0.4738102430819056,0,1,1.1701890496208287,-0.16616621466097822,0.3826996784727665,-0.1712890407213752,-0.09647322387618362,-0.351795149543371
44,1.1218959346765744,0.47537697181000776,0,1,1.064308221394843,-0.10489736347465856,0.35261196466798467,0.06955276730090468,-0.00767045604521008,-0.30006140830921657
45,1.1038593312278484,0.4717625010948979,0,1,0.9811591425542864,0.009543278825706632,0.3651571786458408,0.1384163766955699,-0.04039270956963499,-0.17558138407100876
46,1.082486976797176,0.46438172756383544,0,1,0.8831227967286234,0.13668989575177054,0.34902991491360463,-0.0034493932743902647,-0.043645677564136856,-0.016067470811714033
47,1.058174554103663,0.45428648898260204,0,1,0.9040783905352476,0.18377544494373388,0.2668785973078979,-0.23633572105661602,-0.15515446414180514,0.03828957851854643
48,1.0311765254538234,0.4420309068355057,0,1,0.9595005306497859,0.09217002308233499,0.18466060959349107,-0.45250809957439375,-0.12092900296040765,-0.09554722556162853
49,1.0017345890130511,0.42778184347454357,0,1,1.0639926802058566,-0.02921566677841271,0.19501386347668087,-0.6209012506604312,-0.09190197081133925,-0.3091725314752852
50,0.9702619474487416,0.41159767267599123,0,1,1.0937808068034514,-0.14665096997347965,0.24678024077221658,-0.46186405368996253,-0.07776950209361094,-0.4600580482399066
51,0.9375266496335374,0.393742789316496,0,1,0.9974641842054538,-0.11865258627881557,0.15338802684835176,-0.06871171804224022,-0.0825413607989491,-0.46556341492889836
52,0.9047716393196769,0.374908869698634,0,1,0.9184028323910444,-0.042397412419549176,0.102335589304006,0.13432066249851224,-0.039437148714157384,-0.4036455170866718
53,0.8737274254725577,0.35626524743009397,0,1,0.8727970721743615,0.04284151988459658,0.12214764620479909,0.2618490539134809,0.04713051543320341,-0.3305347623069268
54,0.8465056737489227,0.33932796465861603,0,1,0.8153717252761491,0.09555230192823311,0.14322836694444915,0.18059815381048544,0.15382144911487705,-0.23606116071202618
55,0.8253926861184449,0.3256931939299162,0,1,0.7832832021759883,0.08174665895936385,0.09614785854511881,0.05736395087639382,0.12119835569856933,-0.16168667915902296
56,0.8125805931213825,0.3167158754398356,0,1,0.7817642507818495,0.10253981606018656,0.11796828579870376,0.04155215036185888,0.11418603569925388,-0.11747594511556107
57,0.8098803058462256,0.3132274065103127,0,1,0.7863817905634319,0.13951460160452284,0.12817273993303516,-0.010001159093996586,0.0918281426681609,-0.08454301203577179
58,0.8184579778201567,0.31537505711786723,0,1,0.7964619727880423,0.1614982182316964,0.10445122101425552,-0.16046733931510748,0.09904005792603017,-0.06102513222015995
59,0.8386307557669926,0.32262996949841766,0,1,0.7953593504826325,0.13440121718187475,0.05215819220805837,-0.31308471987623226,0.04744167242047455,-0.029740609429565724
60,0.8697514469233333,0.33395782205746116,0,1,0.7749098785166239,0.09300682427884807,0.01603602564887817,-0.4070216931316182,-0.1345411759769467,0.03369381533754695
61,0.9102054867962678,0.34809299674065797,0,1,0.7822846065910126,0.014713501604114327,-0.024534309802715194,-0.4775115932730168,-0.24518257779744643,0.09891093852257561
62,0.9575331554700628,0.3638228951594744,0,1,0.9073051838187246,-0.06744927422117843,0.012090746668154016,-0.5720445732381554,-0.27689091568017843,0.10898408519653871
63,1.0086705034179728,0.3801888543203419,0,1,1.0803427638554945,-0.1072143335660035,0.07581212502416484,-0.5084960071399587,-0.1701202029804888,0.12402938279722364
64,1.0602751149072673,0.39654795352380434,0,1,1.235896640148464,-0.019499249791712202,0.06139929958143469,-0.09524490261367774,-0.045651969972620124,0.09365998427524863
65,1.1090788154808224,0.4125034489260701,0,1,1.1735328946008925,0.08457204135521085,0.09980537435061412,0.16738278141693186,-2.5016382171081847e-06,0.040075753091607796
66,1.1522036770929838,0.42777045819975124,0,1,1.0755068268147208,0.1036298761056453,0.0028491988257781102,0.22808969109197452,-0.1565820404288432,-0.018304251930480662
67,1.187394939971961,0.4420639792675144,0,1,1.0680964898641703,0.12411571157779364,-0.004545020682076716,0.03330530869287978,-0.3953068833090378,-0.05378238745957388
68,1.2131519631468652,0.45506728767866,0,1,1.3522242698618927,0.009341994055196909,-0.0409755145133468,-0.013413419889479763,-0.6733431858013987,-0.21065398186707238
69,1.2287571810154696,0.46648359371515213,0,1,1.3530949446172194,0.04629413372538854,-0.03032929609004485,0.3033821578583284,-0.2221766480422385,-0.3552279554891014
70,1.23420862067771,0.4761308192664237,0,1,1.208991428029927,0.016257725047917677,0.20404267297093318,0.07669807977811241,-0.22194163881731344,-0.27385739417615024
71,1.2300666955276887,0.4840298657751402,0,1,1.21865537841633,-0.1472300549491439,0.2673501333982233,0.20613963214339562,-0.3944313854489801,-0.2124662467000311
72,1.217242070037056,0.4904518460978729,0,1,1.0842245413141869,-0.1125478090527832,0.294997919686674,0.4391805568608793,-0.36023701219793886,-0.20382631541187432
73,1.1967730707602822,0.49590694527449314,0,1,0.9407011194707922,-0.08045096627765226,0.3651861696457192,0.578652598403109,-0.19575758769271098,-0.1337704852869589
74,1.1696529556060198,0.5010682114203306,0,1,0.9344084782305137,-0.042659641769801686,0.2973589364270518,0.4832495719013341,-0.2659438841055319,-0.05542174989237862
75,1.136757410372876,0.5066371213396539,0,1,1.1388816269894746,-0.04629568327630898,0.20156379490962048,0.24825506101323191,-0.13099653207564907,-0.05600500468081406
76,1.098889154992392,0.5131799905584034,0,1,1.188004413247303,-0.03800864711776377,0.19783706626872744,0.3562013316128779,-0.04977647017680033,0.01683597341673449
77,1.0569110646559656,0.520982439097126,0,1,1.2637232372036482,0.002715362836741203,0.14671608933217498,0.4735682454984247,-0.012663571056618913,0.1733190283356816
78,1.011904420546701,0.5299647386899357,0,1,1.0698536842655733,0.0009510152645118908,0.1384881258045166,0.507149659931771,0.3048482947105124,0.353222832287704
79,0.9652845539668378,0.5396734967410104,0,1,0.8981475707500387,0.007672392423836874,0.12380157994894725,0.34742763574338653,0.22102459198296356,0.43784377141035563
80,0.9188327459957825,0.5493362718483925,0,1,0.8568721895970169,-0.09947423365557484,0.12477343094973706,0.20279743692474256,0.1781118750331626,0.4080413055118493
81,0.8746410972317811,0.5579565150002769,0,1,0.8018116884615207,-0.16538884262486495,0.15221397335775017,0.1438196160693684,0.25943988135461515,0.41212615533471236
82,0.8349928969999973,0.5644359213871433,0,1,0.7742169364495061,-0.1742214435083686,0.16624843778973267,0.1022248887413668,0.28670057877127436,0.42156796777628
83,0.8022055656369936,0.5677220233492024,0,1,0.8340919700783961,-0.16390517722435083,0.16437439263864959,0.2030414668995838,0.31323680188859454,0.36332013602766333
84,0.7784538932719923,0.5669772149815067,0,1,0.8200188514210768,-0.1436922319319648,0.16903780091990053,0.41882736040018254,0.38945904385214,0.329333480310791
85,0.7655817132616788,0.5617532299538308,0,1,0.7567180162881899,-0.10634761701801326,0.12933144715707906,0.44176529746675725,0.23649412016548868,0.29544158724017877
86,0.7649098481152146,0.5521430626737921,0,1,0.7182169463104244,-0.12348177024143299,0.08050733167413848,0.40035973575124234,0.19568034256341665,0.2362892200219953
87,0.7770576999126346,0.5388785105818517,0,1,0.726421025818483,-0.11911136991920544,0.06459682464756315,0.5184708401088288,0.21129467845035926,0.11968532278537644
88,0.8018076988747534,0.523345566762934,0,1,0.7366103846353446,-0.07012855145614397,0.08881821002396847,0.5442264894186658,0.2614462278333132,0.009212572929959643
89,0.8380466575755808,0.5074967648858143,0,1,0.6965828066430151,-0.0757305012207883,0.08819662617995548,0.5495677530131484,0.29886090877558097,-0.05910877698236144
90,0.8838109101742315,0.49364863024335665,0,1,0.7839449184381703,-0.05405962048560286,0.023240773524275643,0.5832111683382579,0.009191947295302962,-0.10130592392267143
91,0.9364426368256444,0.4841693129923813,0,1,1.012262197370169,-0.04656496120141071,0.05548261348452201,0.48790074282185947,-0.14628090958383988,-0.10243375723671948
92,0.9928364504583822,0.48108985219066525,0,1,1.1589552238295173,-0.047859100441442565,0.10508717880906461,0.4208422500429506,0.009209185844306002,-0.028253586078616496
93,1.0497281564690724,0.4857064392035378,0,1,1.1600679419583728,-0.010494116633188465,0.06726438681466665,0.23313957957501769,0.030305379485688233,0.10185417714736573
94,1.1039669440975126,0.4982661368482842,0,1,1.0647283316378107,0.06454980641444781,-0.0004546822356052593,-0.08879425303536075,0.01681799133064736,0.16517325376239186
95,1.1527266584275186,0.5178281489581446,0,1,1.0483306604396665,0.059721733654565706,-0.030331633783463794,-0.4191466629998702,-0.22402787807274646,0.09672394323185418
96,1.1936415142846908,0.5423573737225259,0,1,1.1312052536563875,-0.07653477903327165,0.03840437922114156,-0.5175182218395472,-0.09605128309604653,0.06524277165539868
97,1.2248750652017177,0.5690440992808249,0,1,1.2202646450679542,-0.19286609370898625,0.21651837763478898,-0.43935881326524395,-0.3077781669776315,0.1834639371938328
98,1.2451352504495188,0.5947775462771054,0,1,1.6156133067506797,-0.09787703450653543,0.36167444704409296,-0.3207810049088944,-0.63886482621212,0.5210864121393248
99,1.253641636802055,0.6166576097329237,0,1,1.2352368728798393,-0.037095448113596864,0.25797647368372856,-0.40736181072133826,-0.0056819129045843336,0.7168535841073055
100,1.2500559846196724,0.6324229711201554,0,1,0.5860637541038938,-0.07040716786538664,0.3038008443003622,-0.5553757771668927,-0.20141312952227228,0.36975180490283666
101,1.2344122145282543,0.6407057555122284,0,1,0.9847610763891674,-0.07721480141990177,0.3990757197335568,-0.2665683360769278,-0.7193611674753229,0.06380702496667282
102,1.2071008953492535,0.6410818825247148,0,1,1.2454848012591704,0.02861123738159339,0.27012041689479954,0.35380858194223486,-0.3779965683194588,-0.10651048583322326
103,1.1689410165726253,0.6339503068155659,0,1,1.3971223608689693,0.03274632891631179,0.2920571650490447,-0.03860825567706714,-0.22562042255722836,-0.05606858058860627
104,1.1213119939666567,0.6203184678984982,0,1,1.2626221036872411,-0.04677601243545298,0.31913745603454496,-0.6403831306031192,0.07111348250577951,-0.03974278498065284
105,1.0662687646724762,0.601577655221699,0,1,1.0578836418682303,-0.055392553887322823,0.2488469833706819,-0.6885381549646291,0.09188582379451202,-0.12399292112903333
106,1.0065613176461767,0.5793211018789456,0,1,1.022074401749635,-0.11159151129259674,0.20382553385713825,-0.5418506841864353,0.033386413910841295,-0.2823366757366133
107,0.9455213391255304,0.5552133136390938,0,1,0.8794491639663565,-0.11201334330481519,0.1567419468652205,-0.2844560340885037,0.05549103924634895,-0.4572097925143189
108,0.8868297268698813,0.5308912466331432,0,1,0.7912334943438875,-0.03664399618001462,0.16172790526464062,-0.11861871042036355,0.06169582298258536,-0.5707802880082742
109,0.8342132558808341,0.5078757397498123,0,1,0.7382151267902916,-0.007928479872484547,0.15991039323807532,-0.050762561642276924,0.033573043341500484,-0.59426878687071
110,0.7911291488617902,0.48748386113964787,0,1,0.7344303394220959,0.05679181594550958,0.15539015448918667,0.028264338836748764,-0.006810683906731789,-0.47159696739432533
111,0.7604868157293154,0.47074841621739094,0,1,0.7319707719434113,0.13846000908038594,0.1629851080539819,-0.05629289229747168,0.0644829962382489,-0.29352461021951193
112,0.7444351053626325,0.45836483500452485,0,1,0.7572873632782243,0.1503786147445325,0.12736019968768633,-0.19480378447608154,0.09096182955845104,-0.190283442060051
113,0.7442214214104507,0.4506900530917816,0,1,0.7916038717090255,0.11942362074881199,0.08337157634046788,-0.392686577671222,0.1493167624557644,-0.15388455355258113
114,0.7601152100452229,0.44780313079680445,0,1,0.80472037030293,0.011717723917505309,0.0692890707341361,-0.531230871031744,0.2533505269448577,-0.08961318837911478
115,0.7913869813070104,0.44960606969778155,0,1,0.6873429522938126,-0.055276702740633045,0.020186191732581682,-0.4542793810667228,0.334349620529851,-0.012600229493204688
116,0.8363424304999663,0.455915361081091,0,1,0.7021412281103802,-0.03609300349553851,-0.09202353537189877,-0.5190214126083801,0.15772756077921482,0.02221164424730314
117,0.8924196570879298,0.4664910335936048,0,1,0.8375797896429371,-0.03506568257295316,-0.0541844971147392,-0.619581841469765,-0.042088655877171297,0.0341258056385184
118,0.9563543409642015,0.48097485944066276,0,1,1.0541038221229686,-0.06873299953152272,0.024898902292651702,-0.5605220533286711,-0.07816748096249491,0.026134427318419043
119,1.0244001049042897,0.4987520285698069,0,1,1.1924712655345548,0.017464643913065195,0.033333623016347645,-0.25161834994669746,0.048282035986709854,-0.004872462404476786
120,1.0925712327435846,0.5187949147912725,0,1,1.163353556178279,-0.006050217999745125,-0.05454391948770823,0.10341368991709314,-0.04382228012722797,-0.15210076308641807
121,1.1568707697553249,0.5395747328821289,0,1,1.0711354400138757,-0.04049734484745438,0.03455040059716682,0.5028484945226341,-0.04113401801422238,-0.17356940749870284
122,1.21348529075995,0.5591185207526854,0,1,1.0697506649234985,-0.041177770405663686,0.1353396322351151,0.1432471756109645,-0.4293917088777795,-0.014798898013869542
123,1.2589546890547434,0.5752421397362455,0,1,1.2575585762870383,-0.07275622177156102,0.06850092960620484,0.05187403576706639,-0.4174275325766047,0.02264936426576193
124,1.290339763944045,0.5859245901474304,0,1,1.154501438327473,-0.03731695089082842,0.43626761774052486,0.34155864640180644,-0.6735371149869862,-0.14054591872355468
125,1.30540302607213,0.589731031260763,0,1,1.3629033085229905,-0.13984008233939269,0.3310298209428518,0.09787632725302564,-1.1175202618776987,-0.4359315188124371
126,1.3027982888675764,0.5861612172444907,0,1,1.1769642767823736,-0.0924964494248715,0.34901784023833965,0.18692512279349602,-0.352938522987585,-0.39424702409716517
127,1.2822474112759867,0.5758129483778744,0,1,1.1933416360221065,0.0895911860533997,0.18026698869387583,0.017575868512347933,-0.4586673356017195,-0.22469719471114052
128,1.244674118596444,0.560309475047948,0,1,1.29062631355086,0.12221559595787979,0.12662827013332748,-0.1575322694177549,-0.37549650845775456,-0.22392398591836812
129,1.1922607173015758,0.542017016705993,0,1,1.318332685316347,0.05120072973831162,0.186965849558796,-0.3735008461962608,-0.38504407869878093,-0.14670268682397572
130,1.1283902033208153,0.5236313286880668,0,1,1.3815181428455172,-0.09124834326064785,0.11572018958684421,-0.4150228361639085,0.05350527564439765,0.035332366928470534
131,1.0574409779498917,0.5077242418972173,0,1,1.0471112270191483,-0.1775586942810532,0.16963632026225964,-0.20122185221564856,0.5013129240190612,0.19991402752318954
132,0.9844259427915103,0.49632787932321754,0,1,0.8428880939807127,-0.2601753369658145,0.15716574795288107,-0.0874505666777548,0.3546487798257455,0.25959327123938236
133,0.9145113503843947,0.49061648150081605,0,1,0.7365165342263948,-0.26757418248829545,0.14256600402536126,0.0777092525549775,0.26824834107503726,0.28717852686064643
134,0.8524938167776436,0.490731644040099,0,1,0.647172778760249,-0.24832542788099288,0.12642440679690128,0.0621757993317847,0.1701368955739072,0.31948144513872956
135,0.8023325219194645,0.49578317002810357,0,1,0.6019734172466686,-0.24071001789691082,0.1333872110427397,-0.0191488883222238,0.217053656299178,0.3468226448669212
136,0.7668185872379119,0.5040372580226782,0,1,0.7058321153936482,-0.21943980999173024,0.15178979706003642,0.02107210157660324,0.23394836280145295,0.38263098281027097
137,0.7474237786911728,0.5132727012807663,0,1,0.7830561229815124,-0.17314452425313553,0.15356328450150666,0.19601871957384465,0.1865624081060698,0.3992871510866675
138,0.7443239766393923,0.5212487628788953,0,1,0.7713898598356016,-0.17338778238744598,0.06210342185278545,0.49342052893160326,0.13019561144930727,0.3556533104804883
139,0.7565570762183808,0.5261955666579944,0,1,0.8033262038223616,-0.15684487054764207,0.02282361086593769,0.6720551588183045,0.14832170329194358,0.2597105825242045
140,0.7822607551369904,0.5272203558247315,0,1,0.8230011251099925,-0.09041781461975792,0.054536585925216124,0.6641253848314177,0.18728809898115079,0.08654526648839948
141,0.8189420779738791,0.5245303829242823,0,1,0.7696698220182875,-0.03408931851511004,0.0448769629016038,0.5322586656487707,0.3474280452932656,-0.06227985533766133
142,0.8637483716921914,0.5194089361542842,0,1,0.7164020866907941,0.002485360513110292,0.034089507950331145,0.5044862827947676,0.24360886899831402,-0.17002134445038977
143,0.913724472975958,0.5139373536321631,0,1,0.8962921617509957,0.05303356210503094,-0.02187852074320926,0.5237684203605474,-0.15667460734738456,-0.23571912024196978
144,0.9660450140147275,0.5105168055243672,0,1,1.1520203758914913,0.057312160357272414,0.06459834025712048,0.25746393528600164,-0.08541365402570712,-0.21319540317002464
145,1.0182009625398845,0.5112935902629039,0,1,1.1974995264770396,-0.06310846798265893,0.059530815598525806,-0.05606986449011992,0.2898947164820635,-0.07642338731403155
146,1.0681106002028553,0.5176192328441991,0,1,1.044773370585968,-0.16703033300674386,-0.019488436667225172,-0.3427861285018302,0.27956289630356945,0.07840334748714024
147,1.1141345073662836,0.5296738782334958,0,1,1.0004492257903133,-0.18725812110169163,-0.03484662309792218,-0.35841197837588107,0.03820439797460284,0.11679887321252012
148,1.155003930512997,0.5463481479038864,0,1,1.0194477009314544,-0.20786114232358996,-0.06712726200080811,-0.1968638795830246,-0.12991984867415785,0.20194969932121673
149,1.1897026624830536,0.5654245291811515,0,1,1.1346554844765078,-0.19713829553046014,-0.009130199458017104,-0.04857016765172985,-0.27834514573583785,0.335645823399312
150,1.2173525680917023,0.5840357169020607,0,1,1.154446002016553,-0.1692055238452144,0.1939558476402724,0.09529333895176524,-0.30646123101762873,0.5094184139920904
151,1.2371387135355325,0.599311234580318,0,1,1.3769596517697136,0.04147971240386783,0.4109019314695942,0.2957109657836186,-0.5956612414804453,0.6362102879170332
152,1.2482867980852859,0.6090665976224923,0,1,1.254857073108996,0.20420358712619094,0.40358803050558256,0.08357238790282151,-0.2837351063324905,0.7100850479656796
153,1.2500922019546368,0.6123620816619364,0,1,0.6954038910069891,0.10563678503669659,0.35698003581636306,-0.7094411974359652,-0.03868326666774689,0.5018332481918768
154,1.242002283985038,0.6097778188448608,0,1,1.0554482280599764,-0.09668851178598839,0.317411425798416,-0.5838004503043276,-0.7965614808470165,0.20479682168689223
155,1.2237554120136918,0.6033173455601406,0,1,1.4211408183916734,-0.1496851277056074,0.2565743252793953,-0.2321332147611815,-0.5891507803142617,-0.021577825053036633
156,1.1955597085079857,0.5959464892286644,0,1,1.4338822587365863,-0.19356683295191554,0.30731002120067347,-0.19120365093229938,-0.2774177330476246,-0.14242693165722073
157,1.158257581865433,0.590874598162479,0,1,1.217592335233585,-0.14392527264302232,0.2315881816331039,-0.27495035162425474,-0.14946777498677138,-0.14782853979530625
158,1.11340469594064,0.59075960911674,0,1,1.101612886642903,-0.01412437549189443,0.14572744128237597,-0.27833727589033813,-0.14053666099002649,-0.2011322263743375
159,1.0632177739521993,0.597038703923562,0,1,1.0176847173874792,0.044956073686748074,0.174083130465019,-0.25239983162857155,-0.04345871542849701,-0.2849290972365872
160,1.0103979045456037,0.6095464388506665,0,1,0.8696515332445992,0.0713221833079746,0.1334759858587478,-0.3295014072193965,0.01203062016514879,-0.3365649656571127
161,0.9578796670199965,0.6265030887710986,0,1,0.8199666631337824,0.11228563963540082,0.12475929694058058,-0.43253709109007243,-0.09716344085067445,-0.43279044814204787
162,0.9085708688579056,0.6448669622142351,0,1,0.864074890827327,0.10976173667781171,0.12152440045972764,-0.48602800160049164,-0.07139129695661688,-0.49411246228679057
163,0.8651337948774909,0.660968165789584,0,1,0.891985638883289,0.13054204917329412,0.11805558387896828,-0.4663630828680764,0.05513334020483651,-0.4236979532932287
164,0.829829314814452,0.6712903196572613,0,1,0.8595975917132446,0.12673174778206409,0.09536914967689691,-0.680214435535279,0.13262769294198912,-0.3377739315481485
165,0.8044165025431467,0.6732437928383675,0,1,0.854625565710697,0.0504208037121591,0.058280819620095035,-0.8430678837082665,0.19356562657495793,-0.306885469429876
166,0.7900856455053554,0.6657755188410533,0,1,0.8502772977679411,-0.0176620932700732,0.05841883252985648,-0.8252710226596084,0.3249158561749131,-0.2690796803613251
167,0.7874051583213995,0.6496852391272108,0,1,0.7867854295448493,-0.09243305105221901,0.017205597812447338,-0.7572782685878837,0.3823681231981614,-0.194403057026048
168,0.7962776180203975,0.627569656331721,0,1,0.7281709163741001,-0.08477973820285738,-0.0009289797391083623,-0.5717105991177028,0.3238793670452184,-0.07444463954878307
169,0.8159179559558296,0.6033920340881347,0,1,0.730460240016517,-0.05861899156282602,-0.03241224194720489,-0.5503163034204525,0.22851530708164905,0.015170320781725012
170,0.8448786046128144,0.5817586040200967,0,1,0.7551353579210385,-0.09686979457068458,-0.09649480126401555,-0.5052205832206892,0.2326899690006827,0.04420160385967769
171,0.8811449858558472,0.567051452313124,0,1,0.7827053475598696,-0.12114733147673198,-0.10050834981918273,-0.2876598589097945,0.18942419752963716,0.06250369293288281
172,0.9223083430526234,0.5626040739511431,0,1,0.935349291052114,-0.1509491029491321,0.02405612993777894,-0.003401314926956566,0.0156324705591961,0.1158479524623891
173,0.9657968230541059,0.5701035462887346,0,1,1.1301544713585323,-0.17084878992649466,0.11734993973189299,0.29324575159360033,-0.015409897057785109,0.24275355487319572
174,1.009121131215208,0.5893590227325552,0,1,1.13458340294952,-0.14320142437076738,0.1220626100195247,0.2796690283127732,0.43872419898779424,0.30046318290272933
175,1.0500818589747787,0.61849462672669,0,1,1.0267456051000605,-0.2015133593081303,0.023468186130223678,0.2754196888179914,0.2883043671639216,0.24323301794958885
176,1.086900182218529,0.6545274187630764,0,1,0.9698210747892572,-0.12889951362652943,0.03017930702943568,0.595560964179067,0.018220247789882744,0.18219853793822463
177,1.1182652560766444,0.694206743207217,0,1,0.9840652737701545,-0.02456185789788009,0.1359023486746118,0.7514059640304186,-0.48048276197681783,0.11571142344812389
178,1.1433195869108592,0.7349362630831391,0,1,1.204109483732553,-0.011238046962277813,0.011351939108372719,0.8320279519624078,-0.743148665427039,0.040216208377868816
179,1.1616105894329294,0.7755791384344884,0,1,1.2586983369683138,0.05835852517281757,0.11099155727793227,0.6311022046216036,-0.621845031479218,-0.02441278184672072
180,1.1730247706837547,0.8169658337965847,0,1,1.199280309503824,-0.03936187575587395,0.2681480475021867,0.6652717080299096,-0.6372550976998858,-0.1676140116808187
181,1.1777089867350001,0.8619837491685386,0,1,1.1068865142014135,0.020199138679760375,0.271584972002608,1.084593563832528,-0.516165537695976,-0.30042296058420714
182,1.175985465588095,0.9152133107435036,0,1,0.9908437731582379,0.01848668954627283,0.23390716984000387,0.8467369345912082,-0.4427108125984878,-0.23070349038293217
183,1.1682796400743372,0.9821661642113233,0,1,1.0719462771469102,-0.04846675076856583,0.13599072622212963,0.5543778139631941,-0.327319074607302,-0.18793626475989042
184,1.1550853559412122,1.0682636622257213,0,1,1.1820409807354761,-0.09281061769779743,0.10212323021203311,0.7418228743206986,-0.3049897113481912,-0.20196956795104917
185,1.13697941430693,1.1777506920309724,0,1,1.1394272698055699,-0.12414685124971564,0.14404677293225168,1.0251831291634723,-0.30288477580132245,-0.1823023609699154
186,1.1146722576936323,1.3127493636381025,0,1,1.1736346370182345,-0.14067329690047214,0.13006255130360508,1.2058340351043217,-0.27772836811582785,-0.10291264748922464
187,1.0890602458752237,1.472616369217905,0,1,1.2242511309290143,-0.14650808570770146,0.16333203641937646,1.354745862752573,-0.045638854035236126,0.031768228921830025
188,1.0612402971896284,1.6537018867074578,0,1,1.090186353266638,-0.19614408738087408,0.17274884178476088,1.4775499613052063,0.2145095443877773,0.14085247065423442
189,1.0324624694717182,1.8495439721673503,0,1,0.9333609086153315,-0.28430327054405957,0.11411564828108668,1.6798802862956916,0.2484259687643714,0.23179368630538688
190,1.0040244790889234,2.0514772657952127,0,1,0.8350706855396592,-0.34050778439111995,0.1460726198873686,1.8911087069568604,0.20962703229511323,0.3243369609813896
191,0.9771416494686159,2.2495814847500792,0,1,0.7915033347191572,-0.33990201891254784,0.11256510588595207,2.184190544704435,0.1208556387101211,0.39675893165758763
192,0.9528411827156541,2.433840324115238,0,1,0.7844580296946131,-0.2476256341816387,0.05233940063386258,2.6132224356741274,0.11076664330606614,0.4492872919054412
193,0.9319219519535541,2.5953332237534688,0,1,0.8702808441034664,-0.14791254834816966,0.028034121285166115,2.913997623914307,-0.12910434248295835,0.4563041438943607
194,0.9149927848228505,2.7272587034146363,0,1,1.0258499635493106,-0.06636720987029682,-0.00265976222360535,3.0099495860921928,-0.2193357897551953,0.41835616138800075
195,0.9025655763273509,2.825607607110456,0,1,1.093927482958114,0.003191328760876846,0.04769425315746404,2.9109710456156193,0.10022079577554227,0.388886228918983
196,0.8951517543188074,2.8893732890210577,0,1,0.9977488753803903,0.0017670993333108724,0.08817799500268264,2.8903022529981985,0.346641016680849,0.34692775150288546
197,0.8933073044352655,2.9202855748270724,0,1,0.8522872683540218,0.001194419258384326,0.045140676665126146,2.9346392057203197,0.3393216005208699,0.3523866258286442
198,0.8975960730176548,2.92215364486729,0,1,0.8121654862314109,0.03294329760947425,0.043308300767538006,2.8208760186907704,0.19431197321948543,0.39708804707392065
199,0.9084786320245894,2.899974312060083,0,1,0.8560802334067732,0.024871642812420162,0.023216897733328204,2.661270663498918,0.004283758529663762,0.3282127736337847
200,0.9261618035260895,2.8589981056019025,0,1,0.89724810482314,0.01818965673161255,-0.040826984492375616,2.588233724467774,-0.13763792393670476,0.18637687395151362
201,0.9504494245978785,2.803945644900885,0,1,1.0070732933672533,-0.09550934835964137,-0.029572571425956366,2.497019871189471,-0.26188934486580057,0.05333331871734134
202,0.9806233893327745,2.738529551059393,0,1,1.0162193100480723,-0.15175264248300932,0.04240993542470479,2.5629848606281334,-0.2489007337013058,0.04674376615385914
203,1.0153703275804733,2.665364731000627,0,1,1.0311736334353199,-0.12717278945351584,0.040714349115625666,2.488487109756592,-0.25254156175296183,0.1528779507987276
204,1.052764973229513,2.5862551729227827,0,1,0.9987436095609581,-0.15314040712056237,-0.0595106537818729,2.648963069533867,-0.21352389699233565,0.2548620703770148
205,1.0903273287014543,2.5027501174639184,0,1,0.8977574776823711,-0.06707781613274132,-0.1589647005111193,2.727828452914254,-0.263735199792852,0.36496921053514136
206,1.1251780372465308,2.416790180388501,0,1,0.9441576955484243,-0.02888032196362977,-0.14555950724402153,2.5498803137849126,-0.3373012486384048,0.3494446550822564
207,1.1543113867825479,2.3312342713875704,0,1,1.0338894715534395,0.0320378620304835,-0.09074203945854961,2.6938667523916666,-0.28898951906372927,0.25000374132283276
208,1.1749786703450376,2.2500809321185775,0,1,1.1380534079925169,0.19291285799969798,0.0882545235618273,2.670993762643287,-0.2874426144281331,0.18812447379996608
209,1.1851288860141718,2.178270603842482,0,1,1.37530181509782,0.3609112957370499,0.27514962086648403,2.3091963283012733,-0.1268323812268848,0.17236814064281947
210,1.1838063827820877,2.121066323105935,0,1,1.5178039922422342,0.5410403834844961,0.3838637980177508,1.9317813575938088,0.39778721996436506,0.10071631774229328
211,1.1713833524706554,2.0831373257410513,0,1,1.2967934306937932,0.3928519441461311,0.5192606631322052,1.5209264072877242,0.930362004152125,0.11764099652423922
212,1.1495334043866576,2.0675768475705296,0,1,0.946408250530339,0.08857343290124588,0.3209632611689039,1.403620544193811,0.643431171788938,0.08395944876371311
213,1.1209323179783537,2.075131117414087,0,1,0.8167181332692984,-0.2568715728767577,0.1203638228086504,1.5186996554369618,0.2051482151629286,-0.010235930501668801
214,1.0887695041734822,2.1038771809024337,0,1,0.805981828521025,-0.40250816458047195,0.030389738264569484,1.8345155713392078,0.12616085866077653,-0.008077508030322832
215,1.0562169086018265,2.1494686872758972,0,1,0.7766244596207277,-0.22347978093635743,-0.015157238983721516,2.0827334193407396,0.36068828972914785,0.19069856607937613
216,1.0260003608668522,2.2059051070156155,0,1,0.8745114563018822,-0.07321239700983442,-0.050531569485369576,2.4563002470106428,0.06823372577942491,0.44592004155535353
217,1.0001608965328699,2.2666234427824863,0,1,1.0870388295375004,0.05081412719620979,-0.07528967415578523,2.7498343356993282,-0.33831592045226627,0.6054264493548909
218,0.9800131198634755,2.32561605551326,0,1,1.2165311362492313,0.14230179762455844,-0.03584228099801578,2.670792958941153,-0.12531860942765694,0.6380385862787247
219,0.9662384689768346,2.3782774701318696,0,1,1.1291403325650187,0.17736035667597036,-0.03290360400564596,2.644630913828655,0.01422202966189689,0.5300546524742775
220,0.9590194014668,2.4217759348737586,0,1,1.03158001475433,0.19498648329086551,-0.02533767542704583,2.491372597743137,0.06425827243922226,0.3966347422459355
221,0.9581359815900794,2.454896519333381,0,1,0.9091325013244159,0.1848112614396218,0.020272771792593014,2.3508164530747018,0.1908907067680882,0.30762606548587484
222,0.9629955449644447,2.4774586381109054,0,1,0.7937313564913399,0.20054399955276128,0.029575534570590294,2.1976380912200564,-0.050511111610016944,0.26612694061901787
223,0.9726191717977988,2.48952542466807,0,1,0.8399208431541302,0.1916692293839111,0.04123194593416119,2.0487540602114107,-0.23186336689884102,0.2720047301234072
224,0.9856386576825229,2.4906686297444094,0,1,0.8981245028698388,0.15793850715787905,0.09276496844509392,2.073469225437617,-0.20796894607301789,0.3114910058121206
225,1.0003547860811852,2.4795242109419693,0,1,1.0339634006388132,0.051789007132811156,0.059746312907512984,2.218262359547884,-0.24998970202079926,0.3749620618330274
226,1.0148808156961682,2.4537821266805233,0,1,1.0258266591406249,0.018178452822617992,0.03119643225495724,2.4389533694442798,-0.03851513404829566,0.4422231402016196
227,1.027362624604402,2.4106279637497448,0,1,0.9558438376693554,-0.00532876030378695,0.015248751073200707,2.316455045917644,-0.15972959359849476,0.5229752811543262
228,1.0362434808590717,2.3475325683623867,0,1,1.0207271989678863,0.0030632956774529685,-0.018941907132922403,2.309982441165635,-0.31508381977884775,0.5463479473200663
229,1.040529205160908,2.263199759625471,0,1,1.1100145981270746,0.14028100226165557,-0.011771536313193621,2.4270912732757526,-0.2585366299956021,0.48461111881269453
230,1.0400028771968517,2.15844226371821,0,1,1.1413995715245295,0.22326337363924,0.03566415257752802,2.5457711338122575,-0.09619666574386948,0.4142771596410441
231,1.0353355006926794,2.0367604538449027,0,1,1.0894657465630952,0.29953625149565194,0.11138586816942189,2.466071611993676,0.08660621239255936,0.40097482919324573
232,1.0280464443420532,1.9044482081163008,0,1,1.0675510245840594,0.3286289666967405,0.11265736408732478,1.9104328756623523,-0.051806926925430645,0.2879729188631078
233,1.0202909002199412,1.7701455074553558,0,1,1.1020991221366783,0.29476015266558636,0.07028864719811202,1.7240986060463983,-0.1124385625234684,0.09660395476780474
234,1.0144889117266285,1.6438797716618045,0,1,0.9585025712336165,0.28527372111035576,0.1367543377413208,1.718071801179539,0.15742776268605282,0.06061315885477157
235,1.012853390583376,1.5357498289863147,0,1,0.7934452291349399,0.2641791162230055,0.11377697461723514,1.4621278339374375,0.18042952898471729,0.08914808236510541
236,1.01691208395482,1.4544781863152467,0,1,0.7211109062115623,0.19250132963881203,0.10199001960199466,1.1777748291611223,0.01265100223784279,0.029141489562998033
237,1.0271366938452835,1.4060847756592427,0,1,0.7774272174435563,0.03431952089090188,0.18129289959374223,0.9307665449853416,-0.30885365414930227,-0.0496599598180197
238,1.0427772586962893,1.3929241099643899,0,1,0.9843777369245625,-0.18662739155381003,0.15315312954787078,0.8644247320422872,-0.4767697533910489,-0.09987530972598306
239,1.0619488752890867,1.413273728631391,0,1,1.106387202894471,-0.34093954647929403,0.033429344148447365,1.0468307860946795,-0.41701817262357727,-0.1260210810666982
240,1.0819481962341468,1.461560294078506,0,1,1.1043057452480747,-0.37109097160519355,0.024734708859929577,1.4375733875991445,-0.12928466192168891,-0.04833069258544478
241,1.0997182150104607,1.5291757887991215,0,1,1.1193124505184557,-0.24849280699138993,0.06403008648481695,1.7604825331556284,-0.13002125970456094,0.22569848300591125
242,1.1123530296651178,1.6057070570749374,0,1,1.2594614836584623,-0.0789113910989149,0.012010371898187187,1.8946743276156226,-0.36476934141695283,0.4630808266801308
243,1.1175409438249113,1.6803200006254992,0,1,1.2584171890605034,-0.026976342677883684,0.04714396558905443,1.943865806171653,-0.11539990641045032,0.5709256225434615
244,1.113872950661105,1.7430325111474385,0,1,1.1033474697946861,-0.05548950660725296,0.10023878784319427,1.857648136263617,0.0681518959405799,0.6118709400724673
245,1.1009831632246894,1.7856763922219807,0,1,1.0063026793697196,-0.10991555966930829,0.07235816545585401,1.6154263061882894,0.1493941067965567,0.612088199071981
246,1.0795286828222639,1.8024579923435473,0,1,1.0019904610902783,-0.12095563049127844,0.0769079582957472,1.5810160896939225,0.15375600732101952,0.6366361462919055
247,1.051046730073413,1.7901359623771922,0,1,1.104422201283432,-0.013423603104606729,0.10461960542077953,1.6166194286624083,0.19883087980789527,0.6443548785710169
248,1.01773746051623,1.7479068511542768,0,1,1.0029403219815909,0.02869338968873022,0.0793367476758302,1.495145974125271,0.30431034240365074,0.5811768588515985
249,0.9822149559239155,1.6771140789520576,0,1,0.8851997083632115,-0.017630350598208226,0.06482238295552005,1.434104050702189,0.25914366242178144,0.4618041279443485
250,0.947258029831988,1.5808839000834887,0,1,0.9338607169719106,-0.04407318360085071,0.06362457719705675,1.4238541923835932,0.15773553961939496,0.29558221874513774
251,0.9155831360705387,1.4637591541387067,0,1,0.9243033923490374,-0.05817955578824589,0.07585641725983822,1.4373130410983233,0.3060441002098938,0.23706804059052333
252,0.889651951322349,1.3313590514351825,0,1,0.8994589159657234,-0.0680202367469601,0.12478798240881768,1.3819862500307396,0.3433553875743391,0.28437369349512565
253,0.8715152876956932,1.1900520075460568,0,1,0.8952736769617872,0.016059207518793892,0.09562591935006902,1.263636807507418,0.1937678499212271,0.35618677998297427
254,0.8626874184260538,1.0466035915171827,0,1,0.8732287098690329,0.07790340605508565,0.07318383058210291,1.083679509840627,0.10131495505268533,0.3868361618896632
255,0.8640446175921447,0.907764428649146,0,1,0.8670755079155847,0.08985219594619204,0.04476475401914003,0.9631838577788147,-0.014905032855874403,0.3325345231436564
256,0.8757475515632743,0.7797923406176269,0,1,0.8491471041536965,0.06706729139807212,0.04482299041017796,0.6783504649996267,-0.038361839310420205,0.28461409514665537
257,0.8971949027467767,0.6679462062994438,0,1,0.88160270377074,0.008466537793003702,0.04727446432419431,0.4421309615512237,-0.11138277889516868,0.2081440004133972
258,0.9270213018976002,0.5760280350918412,0,1,0.9261471423806354,-0.04108945316313434,0.06562105835140651,0.3665022314776103,-0.1186423411570313,0.10653065137555108
259,0.9631541799350666,0.5060672102528398,0,1,0.9181353606632706,-0.12923860479024796,0.05731046359468025,0.26076247827311444,-0.03711007883071438,0.03919961652738311
260,1.0029415604032696,0.45822541498232366,0,1,0.8882669841211975,-0.1496497232370638,0.06804613634340276,0.3675740811347081,-0.06709039288736099,0.03390129589061132
261,1.0433565160815255,0.4309532507442924,0,1,0.9348213458814345,-0.058875846859014105,0.030225565268827678,0.5010534964653541,-0.24801382458087606,0.029192094310136998
262,1.0812722297009787,0.4213657704275037,0,1,1.093089500462709,0.01940613736699219,0.1171073858013285,0.5169164013910155,-0.39706762768575565,0.07706758900107673
263,1.113782266722282,0.42575033790547084,0,1,1.3032220122601275,0.13635240596816245,0.22035512943703883,0.20061461215246634,-0.3311140106707876,0.2513400781201064
264,1.138518530933673,0.440099903565121,0,1,1.1769154749146213,0.1370643901514704,0.08365364479212428,-0.13676196014870198,-0.13531142646214703,0.2581182869211703
265,1.1539077230205392,0.46058120870217084,0,1,1.0330987041762478,0.07703803060849972,0.0744382861914721,-0.4520021610494476,-0.2529900441024709,0.10815697389933665
266,1.159315658955748,0.4838803200162409,0,1,1.2391560022498518,-0.10827840716399459,0.2117241612973305,-0.6908467756049104,-0.2674998684305181,-0.09236522631790446
267,1.1550513573756815,0.5073955610452304,0,1,1.3255309706282468,-0.347003556647027,0.2855347168567615,-0.43590702905870105,-0.01651062759214571,-0.26185179113292956
268,1.1422265211080767,0.5292695050320405,0,1,1.1428307164404967,-0.4195635064272695,0.27005317356316033,0.20829241913204788,0.22169010355815333,-0.22377041101372447
269,1.1224906356969442,0.5482776758478107,0,1,0.9119918909634364,-0.20335027209658119,0.2823202032117713,0.5460490047914756,0.3155451730436867,-0.07506485534329099
270,1.097695136173533,0.5636194903129145,0,1,0.7079769572848029,0.029135553492777334,0.25597768440800855,0.48499509616293146,0.11752671220335238,0.03271079315458052
271,1.0695734355849027,0.5746732096407613,0,1,0.8097284756954913,0.06663898995049296,0.16971103989730782,0.514305881753305,-0.26358802018532773,0.08314640154896856
272,1.0395295705995438,0.5807773807360687,0,1,1.163178821906014,0.048452351098916935,0.08033036549562587,0.5439843788990651,-0.1963946661625671,-0.056288791516695864
273,1.0085901889919027,0.5810946657377608,0,1,1.1069531971960678,-0.004988735787970395,0.14152687590955132,0.2793987079617708,0.11964873052177327,-0.12476255855955627
274,0.9775109246539523,0.5746046324293664,0,1,0.9332175816199116,-0.13653829343948107,0.1578450846155098,0.26425913732263706,-0.08201096760367467,-0.1361083328626686
275,0.9469772580554855,0.5602529888335782,0,1,0.9706462407172439,-0.11186983371802282,0.1314044172022245,0.46168573535094926,-0.21148062524352684,-0.21468280762124686
276,0.9178234820870579,0.5372457710140375,0,1,0.9836144061389491,-0.0045801512484092395,0.13956974606671818,0.6291165510571674,-0.037335408369403585,-0.25081372063350904
277,0.8912032266858323,0.5054216864347824,0,1,0.927370155706506,0.1416436661506043,0.15254312327664427,0.7811028295753237,0.03392968050899622,-0.2487402283631195
278,0.8686636813687764,0.4655892415472607,0,1,0.8856866806084709,0.21605292725764416,0.13142441565266363,0.6607334780560916,0.0041344512023629805,-0.21874565393947187
279,0.8520961469392985,0.41970837057033156,0,1,0.8689227544071813,0.2182834547475311,0.1230403322146911,0.4610736036961528,-0.026619636802802615,-0.2132816409969105
280,0.8435585183421725,0.3708394545875416,0,1,0.8529071174260718,0.17556386113761926,0.08515841634941988,0.18348085271965484,0.012114384374794892,-0.22005416683347623
281,0.844989948904057,0.32285615673571105,0,1,0.8387573627018173,0.07902426635928535,0.015257209488599315,-0.0204703533282379,-0.02272334544591629,-0.21594614224757983
282,0.857861003428767,0.2799870251705335,0,1,0.8268700715113824,0.02673852247640518,0.0006906134078504364,-0.04105833550407232,-0.017170310793204104,-0.17887901610659843
283,0.8828205835713632,0.2462869109412006,0,1,0.7922386423196975,0.03848014742906178,0.007631053479333573,-0.09163958888795726,0.11983552886070757,-0.06250316164014413
284,0.9194101966845418,0.22513750778654884,0,1,0.7803656079448629,0.051921500833136965,0.028967382666407342,-0.1257313571869084,0.18430280453792577,0.05161540607922765
285,0.9659127797296605,0.21884990041234853,0,1,0.828387775360082,0.03312915507023941,0.07606883660463583,-0.06146559025972953,0.1471529088155735,0.10585810355371458
286,1.01938422645782,0.22840916753438348,0,1,0.9764886125216972,-0.023014863977817962,0.13600930039615877,-0.14736063527966617,0.157734228123706,0.08648777091735214
287,1.0758819033920386,0.253374342688521,0,1,1.1670364837708207,-0.05613879037822779,0.08852441299360882,-0.09864708616331427,0.17465047807407647,-0.03615431034983579
288,1.1308639946353096,0.29192982759520225,0,1,1.1285131715435364,0.030172100865428104,0.10189491123509194,0.19902110032288897,0.1649640488124524,-0.08902871234285137
289,1.1797002707744135,0.34107342893577547,0,1,1.1209446157699035,0.11627619022298853,-0.018292713450130622,0.2807860990404531,-0.11319992094345188,-0.08353773113660837
290,1.2182184747717415,0.3969167281847975,0,1,1.2048931001594436,0.1441402680774753,-0.02714033333980443,0.15994611307667664,-0.3725420174166541,-0.06280743164042885
291,1.2432083183517106,0.4550636822017745,0,1,1.416554273038793,0.03297520886551133,0.020273494804140396,0.29172539047400753,-0.5174014540183914,-0.11302277582028654
292,1.252808407018005,0.5110261238235378,0,1,1.4054970086299776,0.0802606213428606,-0.012864001480744576,0.4471414975490322,-0.13092642649087713,-0.19050550652217635
293,1.246709689563105,0.5606355357873936,0,1,1.3309550852597063,-0.050163806974483034,0.2514889425153825,0.19268721182150725,-0.30987076176254713,-0.1606967515698374
294,1.2261312305507956,0.6004197401392085,0,1,1.3462681588393586,-0.18738598297219344,0.2813245478063768,0.42249163828568653,-0.25657363180727505,-0.1263874688824798
295,1.1935653623109646,0.6279214145742266,0,1,1.1045561707662985,-0.04361320032814792,0.2505701899619833,0.7644418365451232,0.03751902791773416,-0.02422736549011869
296,1.1523417970507623,0.6419314196207062,0,1,0.8695023922891535,0.026918345469539598,0.2912390013259235,0.8970304614243824,-0.13310013797308137,0.12289457146396879
297,1.1061065122676537,0.6425987269856731,0,1,0.8409648697029976,0.007195242490622716,0.3028598235972509,0.6948313874340094,-0.25187393445479644,0.18910647794664948
298,1.0583312119197739,0.6313818177904161,0,1,0.921464841891101,-0.0702133900215079,0.22041256084966387,0.39015862021822684,-0.1655293820715189,0.1344123104600876
299,1.0119505502626278,0.6108365651121527,0,1,1.0331018524378979,-0.07991797933584112,0.12582496498474363,0.459172619986002,-0.11658039555604054,0.07316188344580604
300,0.9691737391736589,0.5842767808339346,0,1,1.0381837505941014,-0.04324369388799182,0.14239279560564633,0.5602535664201569,-0.07497330622290145,0.176707648934315
301,0.9314597418818932,0.5553659709325319,0,1,1.0078877308325884,-0.001807838927278854,0.11753575346322431,0.6111340393232988,-0.0817031500015076,0.3112195499066597
302,0.8996072735765958,0.5276924534001436,0,1,0.9137376524985361,0.031109399340522374,0.11919845395173785,0.5006379730392398,-0.035576017720639744,0.3576728304826477
303,0.8739024585265547,0.5043640103952209,0,1,0.8342571967685783,-0.04364643806296486,0.14118539238808928,0.2623371776492459,-0.0192929725485256,0.3245139567079797
304,0.8542800954152187,0.4876554557353105,0,1,0.8331588742809577,-0.11030119366176536,0.16963702169248673,0.14225143479727917,0.030489749063381623,0.29794249204162576
305,0.8404731836921685,0.4787530536537909,0,1,0.842442316321279,-0.1336567019725905,0.1841283148302646,0.16104515423873017,0.07415096160659769,0.30086369323470685
306,0.8321384632992902,0.4776440782967344,0,1,0.814337713372496,-0.1552663339880955,0.16526247685456064,0.3075269378466312,0.11207927260565492,0.31581703201173783
307,0.8289519163808778,0.4831824302037487,0,1,0.7709240905260485,-0.13136537973146928,0.1436872053315479,0.3860425498829317,0.04647436918061115,0.32553478316003354
308,0.8306716374746945,0.4933262720456335,0,1,0.7851095011447297,-0.13556859480824346,0.12716934721988532,0.3419343456607352,-0.06043356152099074,0.3117310144551685
309,0.8371682237672321,0.5055082271076735,0,1,0.8391784246919363,-0.1657983867880906,0.10880250916083718,0.4031587697330218,-0.048710586679286474,0.3204140260866771
310,0.8484233595819246,0.5170757365403122,0,1,0.8719611408348672,-0.14668036125554718,0.08792162500939431,0.4659285182134666,0.0334656982872515,0.32510494599178014
311,0.8644954996982088,0.5257299641645055,0,1,0.891467560366256,-0.10164040651781973,0.03490193694791533,0.5368302629601859,0.031533905341968316,0.23886523889703193
312,0.8854513983988107,0.5298922305210059,0,1,0.9276173740646058,-0.05225794391942125,0.07201898995134264,0.5919003001097694,0.09623733847352463,0.10949677765994746
313,0.9112677053153377,0.5289359053688438,0,1,0.8500728268011373,-0.05813820885517318,0.14526137606823597,0.550787718992011,0.31999898721016734,0.005989733498269751
314,0.9417173611940735,0.523239970315394,0,1,0.8405010244465629,-0.07610004072142386,0.08601556986292326,0.5994376152187,0.15433156912863524,-0.012796801188752226
315,0.9762653201876677,0.5140481308710784,0,1,0.9478651646283891,-0.07647780300243122,0.0940707542119141,0.5794096676530468,-0.12574956179954763,-0.021276396910105768
316,1.0139999272367406,0.5031524672857712,0,1,1.0223899396485092,-0.028780183847936597,0.09122458110164681,0.5280942956358982,-0.10797714622889645,0.04053401144302811
317,1.0536173761097507,0.4924590999338854,0,1,1.0851503163759355,-0.008196910084798167,-0.01568289827732877,0.27564357965606945,-0.1492010141907335,0.13545302692384648
318,1.0934624275911586,0.4835277378155676,0,1,1.068518735031805,-0.029251245084343146,-0.08018695148335368,0.042834077878447785,-0.2373523496735708,0.1259605205000905
319,1.131617681865753,0.4771956820104402,0,1,1.0673906766929004,-0.04928965296691533,-0.12861637343384938,-0.1563138929703272,-0.27780650925976375,0.07394657866916339
320,1.166029331593586,0.473388000419075,0,1,1.1459199797136577,-0.09482011617544066,-0.0054342654032892785,-0.19489310001299706,-0.23197837028199395,0.09052301092797779
321,1.1946551382929795,0.47117561647816564,0,1,1.266929176769898,-0.05821165377918222,0.08771056922800968,-0.19439462535446325,-0.20652807263843379,0.21233687583897784
322,1.2156161354709536,0.46908132383659845,0,1,1.3400988536479537,0.027153030772064973,0.29207345177118355,-0.1299442368069578,-0.29987253988426116,0.34954488187226
323,1.2273308030043373,0.4655668716688495,0,1,1.2065769188171231,0.05715725637751131,0.41705406721622523,-0.1901965170940378,-0.2680560223434791,0.4002622780221395
324,1.2286179451415833,0.45957824348091475,0,1,0.9421633417355362,0.029597996188462882,0.3313093297024744,-0.7620315305348534,-0.18140405071415638,0.3629353828826278
325,1.2187736943590952,0.45099579977841736,0,1,1.0073135500400412,-0.12198780730661922,0.33017808929762194,-0.7588632773473418,-0.39015552017831956,0.22976326661230198
326,1.1976446893552186,0.4408465530489879,0,1,1.1394644679500383,-0.15961995928646236,0.24912394249750378,-0.2676840747078855,-0.4009107776389252,0.021334579863301
327,1.165714407109179,0.431196311895578,0,1,1.258059023681605,-0.13439670176729343,0.2410474277886363,-0.1414212649123613,-0.2898622214153281,-0.11933191519128085
328,1.124191210025595,0.4247357897123116,0,1,1.2350698749756512,-0.1712305520982665,0.22241606890521806,-0.2118754508984969,-0.16190276029613102,-0.1626998105160637
329,1.0750564654810773,0.42416804868648583,0,1,1.140194694376038,-0.11231040536103155,0.17254365540176497,-0.23377551275960035,-0.06753107285827013,-0.18494289656612328
330,1.021023729230097,0.4315566923821116,0,1,1.0824081462405821,-0.08653127499017438,0.21703416860607985,-0.004727804263204398,0.07242648581533084,-0.2005642553842529
331,0.9653816326721694,0.44779447374811465,0,1,0.901024351237949,0.0011034915964959107,0.2102787607294991,0.11732618425329129,0.20818099509460658,-0.22669848814615914
332,0.9117307550381225,0.4723141395874058,0,1,0.7829633796600862,0.08622612652400437,0.16029767868905084,0.005897890410980207,0.10278121063309582,-0.28996007741060215
333,0.8636592621875403,0.5031050884588385,0,1,0.7326132827905576,0.14462571050995218,0.14659591477155295,-0.08211754632437276,0.01999877912547494,-0.4011227438216075
334,0.8244187768540021,0.5370332892562125,0,1,0.7323488670249655,0.172001719910929,0.12429301136459706,-0.1639524926021401,-0.020799482804857532,-0.5017734351361561
335,0.7966552936364193,0.5703976682781163,0,1,0.7604147437883056,0.1871742829740612,0.10474214824831513,-0.34461128127481516,0.06397789276370368,-0.5460926281449142
336,0.7822252989286085,0.5996036652935965,0,1,0.8078762720615182,0.1597536566218773,0.1101834898672027,-0.6017726807813868,0.15823868920845444,-0.5276102217350891
337,0.7820979339441686,0.6218045067691214,0,1,0.8953234037463753,0.06467308227407358,0.07965875640798883,-0.7625402253192283,0.21975552635133508,-0.4436463619584015
338,0.7963241608467401,0.6353632437473388,0,1,0.8536814926728545,-0.008774774919779085,0.014050121161762649,-0.7806394391686933,0.3812178809680571,-0.29320113602158515
339,0.8240516933043088,0.6400296828241498,0,1,0.7515338087103491,-0.0697759840755042,-0.07439396501904323,-0.6135635164191809,0.3172646748628439,-0.12182371338131832
340,0.8635784484528449,0.6368012041649092,0,1,0.7092193807867466,-0.09755403813513264,-0.05534401642278016,-0.3923160258064302,0.29368637770562,0.02418056351130758
341,0.9124554267941358,0.6275247919616799,0,1,0.7567249312673875,-0.12283237675977635,0.0020421156604327187,-0.3749325065208062,0.1757270304180575,0.11571594522659062
342,0.9676552876726677,0.6143679197782891,0,1,0.9805357083002952,-0.1772878735905044,0.08192494383333489,-0.44794465629892377,-0.08864874332066802,0.14624676203260098
343,1.0258063882673567,0.5993121131153037,0,1,1.2319868730636074,-0.20021385695296529,0.03574834382690304,-0.37514984673116386,0.09021595491900007,0.13670967584496788
344,1.0834627882190495,0.5838002745089935,0,1,1.123592327189651,-0.1000022089303084,0.020197345211705204,0.19231028999488486,0.3202839903772201,-0.01612280692408784
345,1.137360933589654,0.5686122943289327,0,1,1.0672631330478881,-0.0362832906423414,0.07949463861845658,0.5292357536049264,-0.29764481749825245,-0.1278330268237559
346,1.1846186444057476,0.5539735824989672,0,1,1.2411773993009394,0.01748926346464177,0.07151222602784685,0.3748407082371853,-0.48806916042186826,-0.09810199570639135
347,1.2228553357134513,0.5398357329019372,0,1,1.3123918400066368,0.06207206061374623,-0.012986944804936302,0.3316349037672013,-0.29599644961124366,-0.1427666017340368
348,1.2502366332920813,0.5262226258652409,0,1,1.2167185653353454,0.09876909314923438,-0.026861205324026593,0.678797266973359,-0.562392564330406,-0.25944249845617284
349,1.2654634774105191,0.513518698300264,0,1,1.0951803167851089,0.07901085193535595,0.1978853984002279,0.5096208881817167,-0.5502798646625189,-0.28622221117945457
350,1.2677372018027009,0.5025928779469068,0,1,1.1993541161251575,0.03737882255314619,0.25879457839678055,0.13552628646019102,-0.5435266881513859,-0.2717070049963097
351,1.2567360110830976,0.4947029950120504,0,1,1.2382019119014578,-0.02383042876493812,0.28171790561165416,-0.08508584241601565,-0.2085374108884312,-0.2803098169968042
352,1.232629051364225,0.4912023644423597,0,1,1.120185910257351,-0.10834485781161599,0.2939497235124956,-0.002646141363556037,-0.14921136902987067,-0.27633194417243506
353,1.1961338175728287,0.4931441221083233,0,1,1.104330026004152,-0.14700426459154503,0.20316351205633895,0.046348103516820026,-0.05116529597400549,-0.30527503759842417
354,1.1486000535793717,0.5009155066306032,0,1,1.1911866212599949,-0.10066543920438603,0.1622736758178252,0.18335673607216343,-0.09888145164933858,-0.16931742840836528
355,1.0920846713315668,0.5140194600521525,0,1,1.3235491453592325,0.07256730314716252,0.13455492536510572,0.44366968431348364,0.06053556076280094,0.0997499391576884
356,1.029370958114838,0.531066817017093,0,1,1.0919295551630936,0.0685955253059411,0.1504544725163225,0.3112315125954972,0.4249336573891123,0.32089421802835155
357,0.9638890318550318,0.549974178761726,0,1,0.9411481775125394,-0.01582068975625064,0.1342034142327438,-0.022583925761334462,0.4901037377967949,0.37345638331106806
358,0.8995190414085723,0.568305810090022,0,1,0.818824335401724,-0.1772453073448607,0.08224844301311583,-0.17266350530637023,0.4720573260255922,0.4030345670954032
359,0.8402955134375828,0.5836696442847752,0,1,0.748549895530185,-0.21933947140799895,0.0883716454238717,-0.22853003789378337,0.39983565045702885,0.5029223877443576
360,0.7900609064728098,0.594080196341001,0,1,0.7033365963837319,-0.22281178604860394,0.13841897888957586,-0.1251396113520888,0.4873599533364968,0.5177910124611558
361,0.7521257042150025,0.5982255416407063,0,1,0.6805508926217736,-0.2089182517393754,0.13064624033424657,0.14933614680530582,0.37439531437386014,0.42359272447945867
362,0.7289833433505654,0.5956100342998076,0,1,0.6641136308517972,-0.17853369045636486,0.08764924608898653,0.37219341244557724,0.2037676157781089,0.319135205033655
363,0.7221108505171843,0.5865791172802944,0,1,0.6744157568467137,-0.15242415012765964,0.11209616694410506,0.36460378881472144,0.18479751805676775,0.22592850257070315
364,0.7318681514533726,0.5722562986822761,0,1,0.7524694735522123,-0.16284336675230196,0.10570463053670964,0.388991956171423,0.08573784020581092,0.13720648872934507
365,0.7574943193032594,0.5544251583669778,0,1,0.8282682377019737,-0.07890085503203405,0.06638745599132762,0.6445830493553001,0.2002336052543996,0.057530829963797575
366,0.7971900936729865,0.5353707253463257,0,1,0.7164870323142455,0.005811114052890154,0.08313848233776337,0.6725951822197848,0.3190483176475676,-0.06732463859842831
367,0.8482747115608532,0.5176692719058333,0,1,0.6944618625810804,0.03075524557284464,0.12213593548537521,0.6192203384973329,0.08447669368627032,-0.18250568195855138
368,0.9074081465884155,0.5039066928066848,0,1,0.8982237566566669,0.04323780668880903,0.1018904579333143,0.518544141910771,-0.18260078292945478,-0.2398208054112987
369,0.9708678774710489,0.4963276820981373,0,1,1.084077207088532,0.03030527954571473,0.0735578377000302,0.3662067233568701,-0.06777138948520599,-0.17346073694853142
370,1.0348570213654884,0.4964626652224976,0,1,1.076860935377594,-0.034513248440759786,0.015503632140479392,0.02947353721485807,-0.0490473813721525,0.002113018611901132
371,1.0958061661883156,0.5048193164084346,0,1,1.0790496560978569,-0.11750271960462803,-0.08116199702623642,-0.30289022627249135,-0.3187422317458277,0.09756735639199389
372,1.1506277169393246,0.5207316394523571,0,1,1.0924536728426113,-0.19406578454505471,-0.08874895000031927,-0.4647781698271779,-0.36203909199556733,0.07674520148232511
373,1.1968910318722068,0.542423438536796,0,1,1.2011328571962034,-0.2680463000372646,-0.08110153181602804,-0.2496835876516483,-0.4461273430607061,0.0811901755739824
374,1.2328993428098807,0.567285263583147,0,1,1.42717834449338,-0.2190906340235973,0.1286962120000624,0.09603666376016622,-0.29634225270059744,0.24413762150265667
375,1.2576595889467461,0.5923150975949628,0,1,1.3727981530130524,0.015540595018944463,0.36107577819433073,0.3028848921206778,0.18470484787471375,0.4914249069783636
376,1.2707511770235187,0.6146436932950391,0,1,1.1804062105797402,0.23160701442573406,0.4093699540370024,0.17159793254691882,-0.3541532727251174,0.6334029588020834
377,1.27212946910218,0.6320466369391154,0,1,0.8390925399615053,0.16219949193157637,0.24366074142226096,-0.5587078707856162,-0.1579404826182548,0.5655821540429092
378,1.2619378024794932,0.6433345243665632,0,1,0.7160278887580598,-0.07473390797229225,0.3314036350859015,-0.8112206897926715,-0.19235664729140942,0.3053475410987649
379,1.2404187373222388,0.6485229890873064,0,1,1.1546573433433587,-0.11198061285487626,0.2479289434849312,-0.062205804841235536,-1.0538476378050257,0.10150671198765128
380,1.2079814487323621,0.6487280098667068,0,1,1.5879280282375352,-0.014892617384951757,0.26700239908067047,-0.028796332255433925,-0.40408168584941556,0.01377412737577855
381,1.1654034897007268,0.6458052889513728,0,1,1.378461580082891,-0.10713574404044905,0.3039390309650556,-0.3700838823518376,0.06812321899358927,-0.031308666379011536
382,1.1140704856709942,0.6418309202076482,0,1,1.1007054726861523,-0.05128464871157044,0.20234214020150115,-0.5313247823502646,-0.013002150576998859,-0.050157017241563316
383,1.0561379949790017,0.6385670227404019,0,1,1.0771412764461799,-0.07025966716286089,0.21699676561100348,-0.49062864654388993,-0.05934017410095321,-0.21584860620238802
384,0.994540952676178,0.6370480493652665,0,1,0.9973778162161603,-0.0487179937079887,0.18630770923101403,-0.230652382948242,0.10335614010386032,-0.418264903747786
385,0.932839399083116,0.6373730612236934,0,1,0.8386891165185536,0.04972770169709138,0.16230210862028557,-0.26280839997881855,0.2158448756558538,-0.5309666822675077
386,0.874936922632517,0.6387269269119557,0,1,0.7668166768357698,0.1031782724586367,0.1581024949192942,-0.3934841714950988,0.15512042362743408,-0.5719645192998384
387,0.8247292940290205,0.6396009539793841,0,1,0.7952354570745184,0.13020638282252958,0.13056686614507063,-0.42850673148352,0.09155256005085931,-0.5288614550949008
388,0.785740478878999,0.6381495115852288,0,1,0.7868668674706654,0.157588067138847,0.12983043988500356,-0.437243357871684,0.13443838467601738,-0.3961524006555518
389,0.7607901974358944,0.63260592988689,0,1,0.7605827351220553,0.12248087097452873,0.1156007594258764,-0.5478344350457818,0.15463602245311533,-0.28269492386156236
390,0.7517216477347387,0.6216836149807003,0,1,0.7680253186972151,0.032868244243922,0.0531918920073254,-0.6816132795846319,0.20782774582167732,-0.22186514390941342
391,0.7592089801167606,0.6048974713215931,0,1,0.7320742187345189,-0.021106839149536465,0.007628326640129857,-0.6232924372320885,0.2860767532509478,-0.13565456987823624
392,0.7826635448988895,0.582752277933053,0,1,0.6733184779271034,-0.04434574809715097,-0.031946715599192994,-0.5448458868267808,0.24584622585210755,-0.04097913504401233
393,0.8202598834249312,0.5567622132006462,0,1,0.6731939798777388,-0.06770341397319289,-0.06577825243804601,-0.5388802541689403,0.15473359800541067,0.00013915794942712684
394,0.869097573884278,0.5292907658121478,0,1,0.7684066032584764,-0.08229725818986362,-0.040097352453647775,-0.6277112039453396,0.02541326068531794,0.0009417301898205966
395,0.9254962373110628,0.5032273370772146,0,1,0.9833200026721604,-0.15151222602751152,0.05218568148946883,-0.6717049539348979,-0.10747225601291736,0.025114762381312192
396,0.9853893334035169,0.4815417644678811,0,1,1.1721044237918652,-0.1884740088948932,0.027849048204506906,-0.3800783226643223,-0.029954032822860254,0.047012017630607285
397,1.044750748280711,0.4667830641630349,0,1,1.148705394770048,-0.13169710999811188,0.047529695203484025,0.09487922592583194,0.17625472358017608,-0.03802032366294355
398,1.0999754911614743,0.46061241220620625,0,1,1.069772378636322,-0.06306555183833697,0.04973856135136796,0.3904494474749043,-0.053873603264030484,-0.07102663513340682
399,1.1481516343329976,0.46346905716042014,0,1,1.114463959839632,-0.005415422718383789,0.056832508573807845,0.40440244637906536,-0.06729078747968004,-0.03275741553175395
400,1.1871949665305108,0.4744484333321835,0,1,1.2758157767471052,-0.018090777139230737,0.0522383666481264,0.24008162412276676,-0.1108484302845569,-0.11640781043676039
401,1.2158505171653304,0.49142862541197296,0,1,1.290047792200497,-0.020763156089616305,0.1062434411786024,0.1996894428930755,-0.03709989459178052,-0.2413162379184282
402,1.2335857135374233,0.5114294333758307,0,1,1.057052892802753,0.059118777285522325,0.3662836399052727,0.42398010711674516,-0.2972369769013967,-0.27097842090497204
403,1.2404128758313462,0.5311369074156385,0,1,1.2161502779118565,0.03819009660280399,0.217111044848336,0.2254971272146004,-0.8686234551009482,-0.31480578037133405
404,1.2366892565547236,0.5474836305848708,0,1,1.168035544687519,0.1636057941676345,0.2325177984910732,0.20850519431657458,-0.3903973224418207,-0.24620272895172246
405,1.2229473039140857,0.5581585344056259,0,1,0.9476098487148724,0.11127873286564795,0.2501296127295511,-0.21869037069895492,-0.5004043072201176,-0.08514885614065958
406,1.1998001136617302,0.5619413280599077,0,1,1.1989620230747773,0.0456975581749148,0.06851361790019357,-0.6299070025697145,-0.459593480997081,-0.2010656911447958
407,1.1679454779015959,0.5588035063073651,0,1,1.1756729446790137,-0.053956569977571804,0.12577682709417298,-0.7062804203534182,-0.002080600460976649,-0.34393257108622427
408,1.1282601209103822,0.5497694882054597,0,1,1.1529175349179877,-0.17200769183408207,0.10712342193727849,-0.4282348600976956,-0.20054104403984183,-0.2921466496812183
409,1.081943379037713,0.5365824559660364,0,1,1.18155527785469,-0.17162103355671343,0.13874577336236718,-0.010339991778544964,0.04211197736295752,-0.11417064667445707
410,1.0306501632689198,0.5212691067794991,0,1,1.1366724708189462,-0.09921532683525366,0.2056983245627593,0.009450530005733804,0.24517121077847084,0.1112564120068791
411,0.9765549674828512,0.5057259000086056,0,1,0.9829713692605109,-0.12511992395262883,0.19374122822333986,-0.17797756118830194,0.44352102985212105,0.22049854175498093
412,0.9223106444350508,0.4914315071785281,0,1,0.8622187510758627,-0.17219795684023576,0.09580214376823926,-0.16812242491828167,0.4109431420149858,0.31219094434132066
413,0.8708986084606627,0.47933143533989114,0,1,0.8129846207150363,-0.14745160199470297,0.07316786306595709,-0.13906494954854234,0.23733620058052018,0.39480767493526436
414,0.8253977811789818,0.46987778062188873,0,1,0.7735098102540097,-0.15295272984645145,0.13272545113400133,-0.1064117282200244,0.3433705527793541,0.4046474029008671
415,0.7887166509471849,0.46317130990654853,0,1,0.7245738516633259,-0.17550104883613854,0.14027922085538,-0.09386428232512442,0.44066842805668516,0.3407948361404324
416,0.7633336719122894,0.4591481490286911,0,1,0.6880293323363786,-0.19389987282784746,0.10758100072329463,0.019690801821597593,0.2623718073643043,0.23370363559109913
417,0.7510814917211518,0.45776558578665544,0,1,0.7291726499818194,-0.16675123803374248,0.0876964419188505,0.24448204814066554,0.1113242782686144,0.11311015717838897
418,0.7529971833219783,0.4591553458404854,0,1,0.7434519961767184,-0.13283885012096155,0.03232052537240769,0.5247932148303179,0.12959835352296514,-0.019876934742316048
419,0.7692479672641356,0.463715986624607,0,1,0.7003470778300804,-0.017481402433386552,0.009646629140532886,0.7060891214014994,0.10576404211646116,-0.2008272580566092
420,0.7991313766819468,0.4721084724290638,0,1,0.7537768233689893,0.03143739289663717,0.010564543191543567,0.5796856330618536,-0.03622691200901089,-0.3730741817940975
421,0.8411396425775015,0.4851190063135966,0,1,0.9360191671021453,-0.009083355580172618,0.04996859245282078,0.4565484021024699,-0.10295401207268197,-0.38815094459061605
422,0.893068891741681,0.503382785254013,0,1,1.048905689059369,0.03214387716454424,0.1311150893466686,0.36289786908252564,0.017122325625216622,-0.22180559129943705
423,0.9521478548877215,0.5270205741718162,0,1,1.0071069784967228,0.03937128942305849,0.11658826555966521,-0.02645304972566062,0.031470413786674596,-0.05884455124915124
424,1.0151668833117784,0.5552971400588583,0,1,0.9064514734188063,-0.037455775489443795,-0.018075481509670508,-0.34330599096332604,-0.17721465461260624,0.0396484272018642
425,1.0786094858194932,0.5864291864613563,0,1,0.8429851689536588,-0.05628010956140827,-0.08976013433357417,-0.428975424149304,-0.3076212607163147,0.08173196459323018
426,1.1388123577013998,0.6176340020828438,0,1,0.9203301701033006,-0.14747870073561492,-0.002989013101901597,-0.30937236297170234,-0.476476283692111,0.06402463443872643
427,1.19218301931026,0.6454364124956112,0,1,1.2040119923686228,-0.26268992081449416,0.06745520305003393,-0.12671859233352134,-0.5513383622999729,0.16881467877122075
428,1.2354748928731434,0.6661766637085993,0,1,1.4665953376281262,-0.23641518009273527,0.3380765992637622,0.17948742972573556,-0.5509415812994032,0.4325166551993128
429,1.266073094516186,0.6766101540156014,0,1,1.6754707414743049,0.03537276952433311,0.3801158857606598,0.6381980944757947,-0.4352644769273273,0.778025176410398
430,1.2822165798063494,0.6744679686239891,0,1,1.0725629801117815,0.21754392949533038,0.2925708396658378,0.18964242347940224,0.046429203072053955,0.7947309403778053
431,1.2831023293800694,0.6588584209927818,0,1,0.9077121489041869,-0.032452193886601206,0.3252870734376423,-0.24413755752977248,-0.2811903041060967,0.5509153526883657
432,1.2688755604375954,0.6304362712390762,0,1,1.0853089666401425,-0.1785029019650852,0.2528097128455372,0.13625126817776723,-0.3290073744825078,0.37521157429336954
433,1.2405600659267488,0.5913327779401741,0,1,1.117167179326042,-0.06067976713645501,0.19244053409320483,0.39149597199353847,-0.297944929833248,0.2978897571945968
434,1.1999840059659048,0.5448954909118365,0,1,1.4082211967108904,-0.03652969879458097,0.21945925098191432,0.3570060579043073,-0.4254527751635717,0.24797455291403633
435,1.1497136374693717,0.4953115366104985,0,1,1.3425758685363036,0.02256606740189721,0.1849172230217145,0.2378183599631615,0.16977923517703006,0.09400216700577946
436,1.092962115637561,0.447186633668603,0,1,1.0783696185818752,0.027583234075659366,0.10972491527833718,0.1521157691522307,0.32290876003108787,-0.025137233536374187
437,1.0334289963102061,0.40513769234845987,0,1,1.0190744082675423,0.023811436542487085,0.12522106906539135,0.25983494730049855,0.2331819698501659,-0.1280236463622205
438,0.9750514752622147,0.37343466776076345,0,1,0.9499245127731696,0.0697694906602074,0.12833139417955866,0.2842740336993258,0.337978801542708,-0.20494007366207903
439,0.9216866673202376,0.35569945957649207,0,1,0.8605241984717851,0.08059452145546463,0.11170848760543045,0.21259644722883472,0.31980570888273047,-0.28227241946671316
440,0.8767706002133493,0.35464694819751885,0,1,0.8076446322722726,0.08755811204562573,0.09603953881197454,0.13341561670703528,0.21905912905800193,-0.30705341701720223
441,0.8430063240502963,0.37184975114125046,0,1,0.8050637866888932,0.05124307757390777,0.07783562966462591,0.09498915309030302,0.25589323859403956,-0.27622202077729524
442,0.8221257474323916,0.4075264161946136,0,1,0.7981600933106588,0.01867855548309012,0.0970055571643741,0.1879330426569919,0.3221205651942908,-0.23833906889378473
443,0.814754586324542,0.4603811043110421,0,1,0.8084429422185679,-0.008057009647788679,0.10951347693640305,0.25192899604427477,0.17163252030564818,-0.17854433982067544
444,0.8203928274068203,0.5275467596416179,0,1,0.8194812855685175,-0.0595849620756642,0.05904099705084565,0.33730716572811137,0.10426591754970162,-0.08418936396913705
445,0.8375089287499676,0.6046933354832418,0,1,0.7807587202470365,-0.0985266468248698,0.018706521437473915,0.4400411886094111,0.112936947258037,0.052967466152061306
446,0.8637364285900475,0.68635171881427,0,1,0.790339421184902,-0.10693081933645492,-0.008643189602347801,0.4836315532497989,-0.02376280744475421,0.15937430533916697
447,0.8961543950597722,0.7664698672251873,0,1,0.8609515028522448,-0.14702553843294397,-0.007385319056322477,0.5999500363552683,-0.12754726147408427,0.20115473493188443
448,0.9316238229139102,0.8391642956438657,0,1,0.9740331052140059,-0.1567997066813643,0.023222850753348356,0.8733308985422487,-0.18883333908496797,0.22293574319049536
449,0.9671393368733706,0.8995693856708065,0,1,1.0696247171770112,-0.10872373056838182,0.030031024827303503,1.1200197016021447,-0.14733544036603755,0.24499823097872
450,1.000144847597894,0.9446374991614214,0,1,1.1105708111079675,-0.01729956190158735,0.05754108885470016,1.1729615468904453,-0.04031084303045459,0.227703344198157
451,1.0287625033646275,0.9737254809401119,0,1,1.0764043031413708,0.03625755342848028,0.0028310781007280295,1.1775224945080727,0.09190798203849473,0.1802488815895113
452,1.0519016078697574,0.9888312525210439,0,1,0.9849446880685092,0.14731404607740106,0.03012378335916662,1.2011883461535855,0.06294229166565393,0.16205637648935364
453,1.0692432544840627,0.9944137124076715,0,1,0.9901484503856619,0.14853345909729776,0.09200602056758732,0.955076148411035,-0.2884794831114529,0.2260660115376372
454,1.081124051316939,0.9968197257855352,0,1,0.9489228775750422,0.20018544418170883,0.1722569329017385,0.6272467211076475,-0.13972450005371534,0.21917163016435798
455,1.0883554524376022,1.0034259254878286,0,1,1.0903156574342092,0.12470009755098267,0.3126592561341484,0.3860016350245798,-0.678130838713808,-0.10972429179495365
456,1.0920105968528422,1.0216528357502956,0,1,1.399388735628746,-0.1508725237446074,0.24868999482990692,0.8707812737011089,-0.6242640864316461,-0.4495633711647857
457,1.093199065612263,1.0580095471677562,0,1,0.9396952134061193,-0.07046361234044893,0.22524939851247994,1.0855058416313128,0.17889823093470045,-0.26334789492371136
458,1.0928494898791472,1.1172919449116725,0,1,0.7563285612795168,-0.07785750727276784,0.16014371987084347,0.9046633580856982,-0.1035417345137074,-0.07833253323504251
459,1.0915354951847855,1.2020188793518392,0,1,0.9233019949855891,-0.1796345899751482,0.16399545318124395,0.8398736368081802,-0.4551516909933987,-0.131608662138598
460,1.0893917605173873,1.3121652855644528,0,1,1.0741258866105305,-0.3039551337959265,0.12593532504973043,0.9210785042752848,-0.4331889099279271,-0.11981653892545344
461,1.0861489533076716,1.4452233120245037,0,1,1.175107544396005,-0.32782185414491494,0.10935401276257224,1.408816277957814,-0.1444832927887402,-0.030093833027346764
462,1.081272791112973,1.5965707656294057,0,1,1.124073939254513,-0.2383492651278432,0.1859219715903243,1.9139284395971083,0.014917865733967185,0.09848192620856153
463,1.0741548625754158,1.7600576492222813,0,1,1.1376034027987454,-0.16732764945133763,0.14790748074658241,2.06283959824442,-0.05721700535895682,0.2645951639380912
464,1.064295802959432,1.9286719427262031,0,1,1.0556815844408287,-0.11570092445612415,0.04634013063888155,2.0586000598009484,0.09958613429761289,0.41551940927999975
465,1.0514425371286247,2.095149169022621,0,1,0.9461258954917284,-0.10866812192434161,0.020853030325858144,2.004871330784137,0.12553773120316186,0.4287407982351185
466,1.0356710810889844,2.2524480721323537,0,1,0.9623006552045215,-0.14591801847591981,0.02821630460353448,2.053051635663255,0.020904594814326636,0.353221748050654
467,1.0174261611908209,2.3940920277859408,0,1,0.9960612265385776,-0.17305951928204516,0.05943688733383824,2.2154396105126968,0.009184661036915238,0.28717947877050676
468,0.9975304558068768,2.514428602277337,0,1,1.0324629739399207,-0.17919370635352058,0.03322947986843334,2.3755907475370694,0.03404891675346488,0.2366713611767647
469,0.9771641255164754,2.60886570934978,0,1,1.0473753031904305,-0.13377328609600309,0.02202243605745909,2.646937752138788,0.11961113864840045,0.22226348558066186
470,0.9578025145214839,2.674110527359479,0,1,1.0169422273947208,-0.0629471532695557,0.04204464893978277,2.7425999680021063,0.25648426557869924,0.2697425466795673
471,0.9410982567569594,2.708393495235909,0,1,0.9356859193469855,-0.025847559460060843,0.021280519887606958,2.7447152721899655,0.26121760787725345,0.30769140699571573
472,0.9287061024796048,2.711630397588289,0,1,0.9293739407047227,-0.007454445086740631,0.003612400375243451,2.7541323530298487,0.20890543297364203,0.3074911983306259
473,0.9220680036796529,2.6854724462578807,0,1,0.8912581609182668,-0.019967844236294417,0.06535733833128085,2.729070440378346,0.31126589014111133,0.3007693238490582
474,0.9221926944275406,2.6332128536795167,0,1,0.8286868958958679,-0.059625046478549,0.0998243954330871,2.639240361568759,0.30063959182535654,0.34326380125986333
475,0.9294714877785036,2.5595470877643396,0,1,0.8805736149935562,-0.06961555857669584,0.06885791718956277,2.4935659150525105,0.11388594973172973,0.4003200764184463
476,0.9435682842788435,2.4702130462059686,0,1,0.9279737689603071,-0.07430807451239345,0.12157596021838639,2.3286056361354475,-0.03025129909984259,0.4139272645525761
477,0.9634085482174713,2.371559396136011,0,1,0.9358976098617883,-0.10634449038668596,0.06716612632542493,2.2216447154751546,-0.1256784085574135,0.3476018909332638
478,0.9872739161096258,2.2700979377079125,0,1,0.8974374204287963,-0.0851314202042925,0.02539324305099785,2.22201784722477,-0.16457359355637521,0.25792770834068773
479,1.0129914120703927,2.172084840940328,0,1,1.0198951516143848,-0.020178475788630326,-0.027299831706376287,2.1832656845077723,-0.38077725490377673,0.13368641990740557
480,1.038191015837384,2.083150899241824,0,1,1.1346049171999752,0.04043544553118474,-0.037249157073614744,2.1986354043770806,-0.16893145680490326,0.015009692320036653
481,1.0605925413739834,2.007976833136313,0,1,1.0853811740243564,0.07586181558861775,0.08613922521871234,2.1233769111489518,0.07097085895277769,0.06942062089647495
482,1.0782754459625732,1.9500013747590936,0,1,1.0975263768595647,0.09098709552370077,0.12029043896710484,1.8735939975771565,0.1377296319217009,0.17425342743499694
483,1.0898882105854375,1.9111624900871655,0,1,1.0789775905095522,0.06377705494223859,0.2826938563510523,1.8137100466694864,0.2762927413068554,0.2323906913485127
484,1.094767169333055,1.8916964034038182,0,1,1.1170015921742982,0.08160628751947135,0.301365376597775,1.9555253229995095,0.23816304685159745,0.3968523818063404
485,1.0929524977644034,1.8900396931277499,0,1,1.1434443129255578,0.21908659020230933,0.20514262937813588,1.7864040713086096,0.23464698249359417,0.5664851033391947
486,1.0851074745588662,1.9028893160977984,0,1,0.9924719176527718,0.05364654224568028,0.16477844009276876,1.5150586566256892,0.28698033074606477,0.4610262545122143
487,1.0723657451993451,1.9254757871924009,0,1,0.921459210696035,-0.2032855530455846,0.06918429817477974,1.4437003154158168,0.09003409276134253,0.29354657177382154
488,1.0561470524547467,1.952090592702928,0,1,0.9313300794976597,-0.23453938102420413,0.0128641814322116,1.675666249772605,-0.03636979425950639,0.24350949826254656
489,1.0379858309530166,1.9768623544724824,0,1,1.0002579594929255,-0.1019171789329617,0.010690487869846065,2.1055370590622267,-0.005040075018684028,0.2784129926679657
490,1.0194024920972369,1.9946908869277609,0,1,1.0790306483955516,0.08225138206924652,0.04586091701131854,2.3844256720446877,0.061744226457880046,0.3560282360236488
491,1.001819594885669,2.0021542671057406,0,1,1.1204747278976923,0.18628722690919078,0.039433787633962825,2.421405061783885,0.14722384241595907,0.38261440545770703
492,0.9865005234023712,1.9981558679754168,0,1,1.071642341358013,0.17642506632325153,0.05264252457284753,2.3176312189407455,0.24615753290021875,0.3780055872196861
493,0.9744820779693759,1.9841134614038425,0,1,0.9656443238149178,0.14916300309134184,0.07323474564521852,2.1547199982715575,0.17059282792118496,0.3659385724190113
494,0.9664885041592506,1.9636038205937691,0,1,0.860490443993446,0.1289556992252773,0.04718639534535485,1.9034856251793488,0.0235070520849829,0.2560025947127321
495,0.9628427212127051,1.9415205982879387,0,1,0.8259120371205224,0.10097669614927739,0.009942379898889174,1.737515115617896,-0.06842434674085196,0.10710670928365947
496,0.9634124267626747,1.9229294531587593,0,1,0.8356025756888733,0.05717820185938698,0.03802785616065539,1.6111177331735311,-0.19085251228334235,0.07479529171813425
497,0.9676292372030127,1.9118751879099993,0,1,0.9549321614384088,0.034852887379252885,0.06117252434079568,1.5272994414790027,-0.34555784791440375,0.16867442730898197
498,0.9745958553168185,1.910396477182593,0,1,1.0533412504120232,0.05513634715128845,0.05060568814875826,1.7019376731022624,-0.21791770315230824,0.26715698458583775
499,0.98326129588891,1.9179427913166727,0,1,1.0584995754512008,0.05675425319363544,0.063719224496363,1.842056478869568,-0.14353305667735491,0.3172762906016935
500,0.9926158398648669,1.9312909273217715,0,1,1.0608869442989495,0.03613210011791594,0.09371757510188185,1.8058802276053296,-0.04251902187759058,0.3373716164655867
501,1.001849159405853,1.9449571614497596,0,1,1.0796986394899537,0.0478718254366161,0.11327995507659398,1.8309874333268366,0.018545323078682258,0.2799870019419831
502,1.0104285260032964,1.9520189483181123,0,1,1.0652312688894066,0.04748347280048184,0.11034993199257087,1.9591615496057484,0.05457767546337398,0.17228394709743425
503,1.0180813862260896,1.945203401422525,0,1,1.0174970536695391,0.04832079118239451,0.051273685615799876,2.114603508098908,0.07596966500826487,0.12323483004580231
504,1.0246981243161692,1.9180647314142119,0,1,0.9244850783042312,0.09823178906967886,0.0037434802317888663,2.1180633815500296,0.03917465505018599,0.1655793308816964
505,1.0301979513733421,1.8660603716175592,0,1,0.8781918963087595,0.1231883578010172,-0.017570796756763974,2.015084030531572,-0.02326830442003438,0.2621109508851368
506,1.034414900683665,1.7873527611680633,0,1,0.9141724894698944,0.1620503155213219,-0.026850567010652814,1.9397669580725971,-0.07026393604381308,0.4005214049423052
507,1.0370546026171372,1.683212231916866,0,1,0.969131490959743,0.2498462176399978,-0.03302083926185116,1.7914293242828523,-0.09516195706676861,0.46496958715670017
508,1.0377456900635331,1.55796666112873,0,1,1.03165986231607,0.3028455815127626,0.03494476595908893,1.5933344910110816,-0.09628965335006831,0.4185604939784282
509,1.0361724175035596,1.4185216272411088,0,1,1.0663598804469865,0.29065284650940426,0.08936276198256196,1.3825834015059502,0.007863641662166392,0.34588047976752667
510,1.0322430189122929,1.2735486035524968,0,1,1.060506859608219,0.26118387918944,0.12677948651071852,1.0490735771377864,0.0403157556548609,0.2414058103429881
511,1.0262335948243433,1.1324959831598325,0,1,1.0760707057926144,0.17618798704005906,0.15462769262064144,0.6961162709275632,-0.18224423639966944,0.09485332520706084
512,1.018852930261288,1.0046028599765553,0,1,1.1893976589974666,0.07179649083370619,0.13213976046979545,0.7146593443306867,-0.21858403930953202,-0.06647396440556436
513,1.0111956956105517,0.8980739992959166,0,1,1.0403167354943206,0.05708478895696193,0.09339453208954648,0.9175038123862107,0.15665462165963628,-0.1277619624640204
514,1.0045843560190097,0.8195065604932605,0,1,0.7646119650329876,0.10692654670779156,0.05943963409231473,0.884237355900803,0.1992468129513292,-0.010827322010596939
515,1.0003358984676043,0.7735704188633147,0,1,0.8377505021318554,0.1270605474478517,0.17541850793864888,0.9239504423925939,-0.06079724160016272,0.10247426750486167
516,0.9995136470357919,0.762874276328423,0,1,1.0015709359752392,0.16057166855824212,0.2496544764449501,0.8735950206415618,-0.3236121961447894,0.16249747635780967
517,1.002722733039917,0.7879262495985302,0,1,1.0921438669227046,0.11926776007714975,0.16299216077009732,0.8965626858835614,-0.14768081192259605,0.145748278545179
518,1.0099833736900836,0.8471203399145465,0,1,0.9681935421610462,0.03984712662183897,0.1418549628936496,0.9323392487271213,0.04056038826267741,0.0892450710847715
519,1.0206904668889545,0.9367313349118651,0,1,0.9331062929717776,-0.07289190801905174,0.13943360370418692,0.7832933526120481,-0.08088526107390903,0.04837950810929282
520,1.0336577804386808,1.0509579132684947,0,1,0.9680928041926343,-0.16134091069668144,0.1941092979695238,0.7646405571503834,-0.0409917979166967,0.04210279091167553
521,1.0472456263415724,1.182094079341438,0,1,0.9407654600894332,-0.19580389861550207,0.11210486179080083,0.8733454237735657,-0.08204590461084989,0.1212748340051685
522,1.0595675197501624,1.3209116020346607,0,1,0.9759817781627922,-0.24961312218107598,0.04468849969809631,1.1412698182479304,-0.08907542570274177,0.2442779268580068
523,1.06875699613422,1.4572917510050933,0,1,1.0419740624705065,-0.2567168010370287,0.10810573496921821,1.4602772164083169,-0.15986170201369299,0.3934137714494724
524,1.0732546484472791,1.5810666470035883,0,1,1.2790951967757775,-0.20904664644511478,0.05952560973365842,1.710852464979616,-0.18649827504968955,0.565213517624538
525,1.0720574203295872,1.682952577089616,0,1,1.2476428394945323,-0.13550708077365192,0.059726867803069045,1.8223048339002015,0.07850679050161806,0.7470458666349664
526,1.0648698990927514,1.7554160937348997,0,1,1.0569777952316326,-0.10187589102875387,0.06499786510859101,1.7624198237718485,0.023540033148069916,0.8140102005648098
527,1.0521199913750066,1.7933272305994998,0,1,1.0006178478708305,-0.11878053394735141,0.06470620804164329,1.5753983012511543,0.05109432580728898,0.7549252875330932
528,1.0348434307681198,1.7943132605852656,0,1,0.9201154067306101,-0.11441701943485533,0.09737484284610924,1.5764054434698624,0.11451426659475668,0.6383634992528384
529,1.0144820463029904,1.7587996151063217,0,1,0.9104330766798696,-0.09537915038582517,0.0953454261155871,1.63893779216363,0.12561075022253074,0.5481973169540565
530,0.9926591683948414,1.6897785131816858,0,1,0.9515258286837184,-0.027401504882251876,0.07466181158427516,1.6764406491116746,-0.03296020788582843,0.5259056302457569
531,0.9709872705797493,1.5923670080403205,0,1,0.9808378632919595,0.10585275220149377,0.07878900572022342,1.5746322561608705,-0.05085983475786831,0.5696858435018275
532,0.9509382245540708,1.473216161611795,0,1,0.9046792772363497,0.12293453092125241,0.04839374966795457,1.3592546456251506,-0.020177685976567827,0.5610215910993948
533,0.9337798406356235,1.3398324665849244,0,1,0.9303994539158646,0.06787964095115703,0.011688536768429921,1.1792862664729726,-0.10830270917949958,0.4567930785784287
534,0.9205630031829567,1.1998803913753742,0,1,0.9925993635460263,0.033439844655977595,0.0375325262475091,0.9816795647054491,0.0023132879868257394,0.34112117574683326
535,0.91213361883213,1.0605429710800098,0,1,0.9529038913448352,0.0001791176609697405,0.054238201167371616,0.9123529719347494,0.17154529055500822,0.2532484317147377
536,0.9091417395548786,0.9280117378910956,0,1,0.937593762089578,-0.02171860426347573,0.07133291048785798,0.8711070629178796,0.10378297832608177,0.18558082451693841
537,0.912026553938804,0.80715230711812,0,1,0.9620284788573158,-0.02695922966048294,0.08742665348976048,0.7853045847402338,0.12660667386151106,0.13613833563614494
538,0.9209697268949038,0.7013553150615995,0,1,0.9228744484746098,-0.045889968148254856,0.10263806490542395,0.6856252721462217,0.23635008190025808,0.11718067083026526
539,0.9358271395854796,0.6125486908449906,0,1,0.8273821369817099,-0.06101488433284813,0.1114984274966242,0.6343421132519239,0.17954741073449806,0.08782095197597183
540,0.9560648163191872,0.5413273321413048,0,1,0.8459755574592264,-0.06390074603578183,0.10014091220032335,0.5974807555382826,-0.008087716988499036,0.07812664093547526
541,0.9807321819407796,0.48715269543636547,0,1,0.9289116565498029,-0.05287875946869039,0.07011540235471979,0.48692062788489004,-0.0507342218685983,0.12180850882559077
542,1.0084991460288195,0.4485841596160599,0,1,1.0309726720706787,-0.050209578493674654,0.04313653623899424,0.4417796125184894,-0.07797601834508734,0.18666363552846782
543,1.037763501309348,0.4235204383468343,0,1,1.0715194890867896,-0.05645922996749766,0.01154482337800289,0.31127685340761063,0.0003395583037848192,0.22103516025006578
544,1.0668111538880718,0.4094462204799292,0,1,1.034582133905702,-0.10419938695034593,0.02006300391962544,0.1753649503619394,-0.02286796905489523,0.1571438328208391
545,1.093995025790919,0.40368937292753915,0,1,1.0928762557267986,-0.19098994492440305,-0.03178713533878634,0.2233311461993963,-0.15161419607138277,0.05272339898980066
546,1.1178930088474313,0.40368989095500574,0,1,1.2055416411429811,-0.2216979044339239,0.08920386307110778,0.454667648936881,-0.18560508308571938,0.03982190544358745
547,1.1374081771298523,0.4072604572186602,0,1,1.3064821253425813,-0.0654530750287911,0.14814559519043688,0.5411065961533854,-0.2039135135231117,0.22978368055911771
548,1.1517847103485326,0.41279030861086213,0,1,1.2357943149620518,0.0666143798508548,0.20327472272170452,0.3302293937785196,-0.11736748359333754,0.40887718990563776
549,1.1605352788646666,0.419331159642248,0,1,1.056277620985195,0.07175608997133665,0.16989431156957924,-0.11219693186699427,-0.3160776947333223,0.452732805445898
550,1.163310848655582,0.426522556568307,0,1,0.8107832476501828,-0.07440655560614942,0.15516127431820476,-0.3812360655064746,-0.1431445141683672,0.1847050307666246
551,1.1597778571683608,0.4343598499943103,0,1,0.893248234204361,-0.08740794471496408,0.2662264743364826,0.11625054047052359,-0.2818011829078852,-0.07690536349260686
552,1.1495753644732853,0.44286016463732464,0,1,1.1554637229492952,-0.007912582584227347,0.3427750205875425,0.2581068976921574,-0.27010192127267174,-0.10818799407682905
553,1.132391527089543,0.4517185293259679,0,1,1.1947309195230598,0.029405222665341995,0.32668826329865736,0.31174333038001467,-0.11192404607874577,-0.0391796491272973
554,1.1081393070849406,0.46005602978504184,0,1,1.229648000502164,0.09042853517931855,0.3016437525366646,0.2629829212141302,-0.17545288809387588,0.0587892645343468
555,1.0771616454045339,0.46634479882892704,0,1,1.1745454938181077,0.08382262806234984,0.2706178118658664,-0.15682162053076631,-0.055773648620293687,-0.015058695423818283
556,1.0403839878248662,0.4685568449606528,0,1,1.0372486554435743,-0.04625142403466354,0.2467527808867446,-0.37595308822136714,-0.0018379756990059928,-0.20820141544272275
557,0.9993573928180118,0.46452985764692806,0,1,0.9676400621295903,-0.11693329725581429,0.16360510362484568,-0.24802523569850005,-0.11392662552903302,-0.45835982431891115
558,0.9561786798529452,0.45248027699012616,0,1,0.9022578003746905,-0.0828259699118817,0.16712508050581573,-0.06450434850630805,-0.0726397439792986,-0.655121828464609
559,0.9133130897499145,0.431539781613508,0,1,0.8240693317280487,-0.0026638066039327765,0.1722438450388203,0.08617667417807398,-0.018842206162460653,-0.6793685793215918
560,0.873366698913348,0.4021696337927317,0,1,0.8001830096599855,0.04768831881275492,0.15255602086512615,0.19973276236368914,-0.11220269673830141,-0.559475227923233
561,0.8388581927888581,0.3663312028735897,0,1,0.7880095594298637,0.08397222831076967,0.12604721456119575,0.258002574576336,-0.09734232133936553,-0.3809271230337608
562,0.8120273312887757,0.3273534434930088,0,1,0.7859003205076681,0.1393512758252676,0.1254445765834567,0.26339785481130057,-0.007778438654922236,-0.18278892560218
563,0.7946978652378145,0.28951673911833986,0,1,0.7938949228082884,0.12083195457107579,0.1234768608433723,0.11700720857700457,-0.003072003928196953,-0.04683650232379023
564,0.7881933049616517,0.257440755913298,0,1,0.8059781913949637,0.06872164766253426,0.08806287114131427,-0.07841386485325083,0.047393531588321984,-0.01041387921546294
565,0.7932907410310137,0.23540104095562547,0,1,0.8416363804459338,0.020903895358858886,0.056131775703851444,-0.17831078042496215,0.08751022607294781,-0.03842394027044585
566,0.8101937838036822,0.22669770186686783,0,1,0.8743520900736262,-0.06881767934641897,0.028736435350127897,-0.1682930145700883,0.08649336233101738,-0.10087803797368051
567,0.8385107080750085,0.2331690397773547,0,1,0.852668032362217,-0.0704558862217587,0.017331358687635592,0.06181781487022446,0.08048899022995792,-0.1331965563850418
568,0.8772362555362594,0.2549035048282221,0,1,0.7625447873499256,-0.01890032470450839,0.013558161912892103,0.2815810077917882,0.13640353674679698,-0.06894465529377873
569,0.9247505923699118,0.29017156631118396,0,1,0.7743776201291895,0.03967480148705275,0.04322905862010738,0.2466210751795888,0.07226671360102688,0.06848153085487971
570,0.9788576164476541,0.3355802059260455,0,1,0.9622989217528366,0.06077772929435835,0.08934051488378021,0.06341843418071949,-0.18487179943695686,0.1699967396100038
571,1.0368781174266968,0.38644303141647723,0,1,1.2399815158437948,0.06338323508902395,0.07493147163421415,0.06600426068198394,0.0009163862154802144,0.15701660079820817
572,1.0957929720778725,0.4373496470223217,0,1,1.1635458227640654,0.06739525121506657,-0.00925692041669956,0.16248890056021667,0.10881913977734166,0.021579922392369146
573,1.1524138270347182,0.48289643600562077,0,1,0.9778804670564768,0.015185534768796147,-0.007814802990381575,0.36741481580315305,-0.3226708262250232,-0.0707006157447029
574,1.203558861993871,0.5184991100972551,0,1,1.1544534497415888,-0.054104270309539744,0.13714774069562283,0.24918423945906415,-0.8019893557972273,-0.12138888872647204
575,1.2462246763685263,0.5411549020075294,0,1,1.3573689289166886,-0.012183995244185244,-0.012727758359469793,0.3887956693906011,-0.6196116339097769,-0.23337020182395457
576,1.277753898569345,0.5499886654097221,0,1,1.2571587972680225,0.14331854949824405,0.04962758884562111,0.6738296070750341,-0.5743180336419242,-0.23968883479479317
577,1.295994673110591,0.5464324431598276,0,1,1.2485154701254595,0.18215561520697662,0.15792976375726556,0.45892089267915864,-0.7228297784357184,-0.21262005384670835
578,1.299442566844183,0.5339597240886241,0,1,1.2963163441453194,0.17818300505870008,0.2525166274759494,0.2226884605456385,-0.4746152503216554,-0.17327748946527166
579,1.287356117701664,0.5174049204563002,0,1,1.26257350579315,0.05590996946433308,0.26728895593516977,-0.052242781462846916,-0.18710751958473434,-0.10925588592627945
580,1.2598416268286508,0.5020110213526493,0,1,1.140838657654633,-0.06487373754050486,0.24838523890913883,-0.05214537763528615,-0.11272421656681599,-0.1136262535082085
581,1.2179054431502123,0.49242367754895994,0,1,1.160341347964594,-0.17599002416045087,0.2397989193342392,-0.09564678979649086,-0.0065878779046530155,-0.24579321213513103
582,1.1634702566970383,0.4918580147361654,0,1,1.1071967003863543,-0.16267053169659926,0.19536065682789294,0.13596726437189313,0.08780242302839972,-0.1759545335370746
583,1.0993446151259478,0.501604391081905,0,1,1.2694864256452925,-0.05490013387807298,0.14336551821881935,0.3664631357885416,0.05801260949149685,0.07165715383959562
584,1.0291249102064068,0.5209394143032599,0,1,1.1531780968671672,-0.03852895227074168,0.15667726893761952,0.43779741834910835,0.4320471855053976,0.34456930601516333
585,0.9570063791420051,0.5474060657438384,0,1,0.9429087349746584,-0.028245643289460533,0.14204087288442765,0.2023739359046931,0.4911449109707999,0.47265347807967273
586,0.8874941537853813,0.5773521800388509,0,1,0.8312774103198505,-0.13605312541558956,0.11590577471643061,0.0036114454768926556,0.47702573286365635,0.47920321323496246
587,0.8250349533989009,0.6065877238662377,0,1,0.7080663561213207,-0.2169212556421783,0.13384751595948438,0.04973523144090728,0.4613686965648591,0.4959237531328371
588,0.7736192260656288,0.6310374554214574,0,1,0.6762885353655477,-0.2161205289850037,0.16022790468404494,0.1233462976958168,0.35638882868653715,0.4746873442222491
589,0.7364168701364272,0.6473065184173958,0,1,0.6232160089551266,-0.2112200772574912,0.12697313328016685,0.2373013044746675,0.3737284908081832,0.40119371379764157
590,0.7155034744112448,0.6531167140577784,0,1,0.5950273260948712,-0.18629177597118418,0.12014565689541008,0.48230054384949356,0.14442061819224955,0.34147211628407975
591,0.7117146414135213,0.6475947459612229,0,1,0.6875848985496412,-0.13340202086995387,0.09860980515105204,0.6143774761456109,-0.06205864479282682,0.27315985038394136
592,0.7246411515027967,0.6313988121216528,0,1,0.7608530473347878,-0.11929696542500008,0.05750639983318914,0.7403788112165384,0.004757625613512579,0.1819598253217266
593,0.752753607582128,0.606665777855099,0,1,0.7777689268984375,-0.06367476498144886,0.032359437674984996,0.8065583569415913,0.12762119740632835,0.09816085360616038
594,0.7936276822328489,0.5767630526459624,0,1,0.7289305865687804,0.005049254335568975,0.09028893967153398,0.5973193759778982,0.26255783662618204,0.009332926538916722
595,0.8442337319111213,0.545850006176805,0,1,0.7588664954562782,-0.007771846159843301,0.14042203601040756,0.43471801637878066,0.1547174385976331,-0.07175576014137372
596,0.9012539679810527,0.5182933197749426,0,1,0.9558752298074673,0.014300594033096728,0.13280435336524135,0.4461273430363902,0.10254351675412748,-0.06243274738394922
597,0.961388885359608,0.4980233114571823,0,1,1.1169842767561924,0.09323975353191932,0.0909483570956596,0.4199800175692242,0.017672980088476214,0.03833421508393399
598,1.0216108463066136,0.48794334236802756,0,1,1.1436107520007532,0.0970876520334585,0.06971429535446938,0.04717608319395988,-0.019730183522436294,0.1418631282732725
599,1.0793260986936477,0.4895005898526933,0,1,1.046784072573456,0.009898565360329604,-0.02157936566549756,-0.42247295091121057,-0.05180242320968081,0.12715321101368632
600,1.132426582710794,0.5024943314443636,0,1,1.066838965964695,-0.0877053798219075,-0.10794729530908129,-0.5348197337924818,-0.28328319370895977,-0.0003278366458669634
601,1.1792449044302933,0.5251468123267907,0,1,1.058551653641147,-0.2243345157789182,-0.1357653117443117,-0.5239960221420202,-0.2320080151195048,-0.08491461470099912
602,1.2184524031241895,0.5544104710201057,0,1,1.156536521489895,-0.3011083844100572,0.02755374051457236,-0.3288272190204949,-0.38762921249146964,-0.03079703439359281
603,1.2489474241176048,0.5864535948454567,0,1,1.2220438127814637,-0.22096003669355935,0.16328301331642323,-0.197906928460383,-0.16076540729792077,0.16439012601531114
604,1.269769740771278,0.617256075878002,0,1,1.2146472512177644,-0.017389363326531036,0.43708981521360096,0.1949232806079546,-0.48422877534699416,0.3533872873799167
605,1.2800596453277853,0.6432387842040961,0,1,1.2967904531736485,0.20262600450651513,0.625509619970309,0.15660288215612023,-0.5118228334940984,0.6477371990464382
606,1.2790690163232374,0.6618299185196536,0,1,0.8725204415928143,0.2147445734687075,0.4182502750157286,-0.741480827938861,-0.21497947425768485,0.6770782288606545
607,1.2662308020250141,0.6718532798562863,0,1,0.9664001257136815,-0.07744640800820413,0.32515189417241125,-0.8687757457272536,-0.38871937102485904,0.44515927724967624
608,1.2412934693420592,0.6736383776028705,0,1,1.253035323660509,-0.19184720233309807,0.28857662998245953,-0.3968129943234919,-0.40760118797881156,0.13679403350645947
609,1.2045111965449466,0.6688163470408812,0,1,1.4522256420058908,-0.24749115508253788,0.26635609309573843,-0.4316151707222661,-0.30200327622457407,-0.22537894903726619
610,1.15684668155831,0.6598575086082721,0,1,1.262562649448691,-0.21946614427267858,0.1936520563293556,-0.1742316427174432,-0.05156902647575347,-0.38759450091106556
611,1.10011622537525,0.6494811904590869,0,1,1.114458658889827,-0.011105171984923506,0.13962653798272492,-0.05280185790742561,-0.0759583481497562,-0.48940532136772125
612,1.0370142169971017,0.6400923591137914,0,1,0.9984900143701685,0.10477933817205136,0.12147176515942028,-0.08859170350434134,0.08641725907294939,-0.5092136380691235
613,0.9709944639857855,0.6333712358896262,0,1,0.8910975027250146,0.16995877109305058,0.07765470241699897,-0.27184445619230246,0.07350768528691076,-0.4686050472027705
614,0.9060306382493313,0.6300840451929958,0,1,0.8240616646132412,0.1654793317716113,0.09042391470650603,-0.4518348778819895,0.10247234931793894,-0.4313473807252639
615,0.8463030208251517,0.6301208168776379,0,1,0.8236518581581038,0.1543788968594845,0.10367681068175087,-0.4784731234022703,0.11754082571531271,-0.4059509469843496
616,0.7958599692524151,0.6327159383169522,0,1,0.8005529999362487,0.10787752338276033,0.11188534223184182,-0.4735970818837225,0.23669211191161765,-0.36227469175703136
617,0.7582903581242548,0.6367751719719784,0,1,0.7245631327513249,0.05126036415133614,0.10116805957871758,-0.538037557991814,0.2485898871370507,-0.34757036963395466
618,0.7364296329525852,0.6412187202447397,0,1,0.7577272307231352,-0.010163526860844688,0.08910803763362486,-0.68908796134152,0.2213810004971369,-0.35922108030288363
619,0.7321138635845755,0.6452512224495384,0,1,0.8080300470507971,-0.0763957208868779,0.1066738584066737,-0.7638222820694788,0.3901838579736645,-0.3168065911069735
620,0.7459945869608849,0.6484872717263814,0,1,0.7296202176561571,-0.07090057838856074,0.053296116211824014,-0.6085663407068859,0.39219779111578995,-0.1981312060205617
621,0.7774314651280142,0.650899150606801,0,1,0.6125910346728015,-0.024830337689276425,-0.022286392479047536,-0.41583116817696303,0.2916154826423591,-0.032722735737028344
622,0.8244867819116941,0.6526087307671529,0,1,0.6400416291663572,-0.06621321741619769,-0.09437132393952957,-0.5372934533340986,0.12034682743641054,0.0825438103769777
623,0.8840463492770279,0.653599260963339,0,1,0.7771676969993694,-0.16286588501537558,0.005311648996681689,-0.5898461141048257,-0.3303838389632814,0.07452427305507445
624,0.9520739995384548,0.6534519689625296,0,1,1.1368133262354583,-0.2643586272942042,0.07285275255691905,-0.3192460860410233,-0.28407389276888967,0.0033865753836491473
625,1.0239720237971932,0.651208576926431,0,1,1.1569458202236402,-0.2477676339885353,0.013183363648182381,0.15294904820734606,0.12790907522377823,-0.007261194700522168
626,1.0949871725825677,0.6454295331091006,0,1,1.0532549282035364,-0.11647996855252427,-0.0246598712114757,0.707112691119042,-0.1944474932978697,0.011990238302521425
627,1.1605942263864133,0.6344638491121131,0,1,1.106342972450973,0.08823027321305342,0.0844127998529214,0.7709994351339545,-0.42881722361389607,0.11143016977221058
628,1.2168094636974467,0.6168784380209855,0,1,1.2648789882969755,0.09923625184655663,0.047633151373496746,0.4703417218838297,-0.48600991056288645,0.13103917392719294
629,1.2604152229611247,0.5919388798789147,0,1,1.3444114248889252,0.11356013041054705,-0.005514594366893299,0.3749581846156101,-0.29698255638979765,0.02214490889233646
630,1.2890961248996786,0.5600163294667654,0,1,1.1142522179100245,0.100127790809587,0.2562245301114995,0.48137227502434016,-0.5146466550830296,-0.10171099342808493
631,1.3014966220985544,0.5228143921849966,0,1,1.3129853978739916,-0.006656970649432003,0.34160885065658986,0.20891783368448882,-0.9345290855722199,-0.30446277950883605
632,1.2972149360378764,0.48334443655154813,0,1,1.3112722328385282,-0.044731224953967245,0.39077106595721517,0.07646133880115179,-0.3750604560731383,-0.36315118189193357
633,1.2767515942870777,0.4456229211612318,0,1,1.1194084324989821,-0.03068808397491109,0.2555863478271965,0.010259101745535721,-0.18200599511025495,-0.2473595093919908
634,1.2414309753504125,0.41412646015407567,0,1,1.131738894943439,-0.02760992013213898,0.09095058872420769,-0.10667161875725273,-0.18612610111359293,-0.1832192362722208
635,1.19331149604325,0.39310590078067553,0,1,1.2091861871447527,-0.04659059014465732,0.12773570570793985,-0.16695553464837723,-0.2469144772671648,-0.08321632424467501
636,1.135091575953421,0.3858978896828437,0,1,1.3085877036445046,-0.08786059315968751,0.07097963764343013,-0.14066580807517262,-0.0494868969444799,0.13301071600723013
637,1.0700040377096574,0.3943656923283909,0,1,1.0844910938223982,-0.13219609736270618,0.07317357391024201,0.02515808827501866,0.27740064532950137,0.2795586890843461
638,1.001681432134232,0.418562961498545,0,1,0.9301367789528272,-0.20149463701721043,0.09997909733595525,0.06980659174513382,0.2124118764853884,0.25662474467531443
639,0.9339801928491724,0.456666108155181,0,1,0.8776446271126359,-0.28038892630379025,0.0940344143950154,0.16850573724258072,0.21389018765946835,0.26762770535501157
640,0.8707689790369549,0.5051766145685964,0,1,0.8111794333768856,-0.2525711198912872,0.0882477662168981,0.23926615493161357,0.24000072664388628,0.3332814343530308
641,0.8157015003205523,0.5593584129922464,0,1,0.731161931536751,-0.22413952085657457,0.09914220829188397,0.25772215360546835,0.33970258956388383,0.35943233701118366
642,0.7719977102068979,0.6138465507765054,0,1,0.7101374250089267,-0.1562256754943211,0.13063964847789894,0.4244188687866739,0.3349630368250407,0.3488396662511634
643,0.742251456282569,0.6633412397629003,0,1,0.7616278732034926,-0.12532435637451125,0.13801716126822194,0.5807983999971826,0.28364925203681374,0.3029626671915996
644,0.7282730660672909,0.7032883824939407,0,1,0.8005861599009685,-0.11669725341414171,0.10252887423908355,0.6953793803468701,0.3094522494522928,0.2591346276558136
645,0.730967368674608,0.730446820391784,0,1,0.759213902124714,-0.12315749140592978,0.08207707317749156,0.7195065526584119,0.4663083985444695,0.20234375661318957
646,0.7502471106285787,0.7432556605494007,0,1,0.7011471688819406,-0.09200032467770307,0.036947643131744576,0.7822641137928414,0.44243856746253635,0.08846532767916726
647,0.7849910147355609,0.7419431432378187,0,1,0.6624559348727069,-0.021150477740941885,0.008224424846183284,0.7328704287523328,0.33087432736498523,-0.020080072056077047
648,0.8330683827532299,0.7283607202776398,0,1,0.6723207275492528,0.062232152060435655,-0.009089012902420528,0.7101089288011865,0.12086051584430861,-0.1294804000696793
649,0.8914550323436535,0.7055761699591444,0,1,0.8442726083429206,0.14129901771643408,-0.011568339728278913,0.6771190660887036,-0.25603151653390555,-0.2264228001356384
650,0.9564492428174916,0.6773063284157291,0,1,1.1175764612116725,0.12768833201074514,0.10389402263760975,0.34325690827695726,-0.1643423349715517,-0.2507492638684693
651,1.0239660958549621,0.6473016147053112,0,1,1.1672857400395076,0.004722148600535422,0.09674337312211978,-0.23274393699652868,0.2514241030152621,-0.14872523870895268
652,1.08986290086709,0.6188016439217141,0,1,1.0222013115186308,-0.07619768987759831,-0.059635674501040736,-0.571107704685577,0.13854589270913525,-0.03754607590596083
653,1.1502451770677349,0.5941580979359194,0,1,1.0117765979497064,-0.13443985453834556,-0.07902280865942525,-0.6127438563603731,-0.18685021645488073,-0.0502499034888191
654,1.201720489835565,0.574672511211614,0,1,1.1670526396371228,-0.23348404406617446,0.04366013260011113,-0.39156842733416947,-0.2778862728350154,-0.020259655798824834
655,1.2415862015311097,0.5606420719713844,0,1,1.454698045672386,-0.1765841906692018,0.06036744257342353,-0.2605278861744819,-0.319949490801666,0.3190339034227413
656,1.2679421764497871,0.5515655567312715,0,1,1.4155970533522648,-0.017079532503079507,0.31718502365617046,-0.08773278349475518,0.026460664436057,0.6139203589513705
657,1.2797198068566957,0.5464380801591094,0,1,1.1397803800373227,0.0780240936588896,0.4232153211375466,-0.168332681072723,-0.20161399378431685,0.610569028695732
658,1.2766339306089887,0.5440526245759513,0,1,0.9227942937650773,-0.04283487914717137,0.29023883793281563,-0.7346358274809724,-0.004571800452661412,0.4544343513039442
659,1.259094114662285,0.543230881073802,0,1,0.9236749179024353,-0.20399434511003253,0.3486040189149311,-0.3975688604085267,-0.3549442141655609,0.20054211126353255
660,1.228129392850046,0.5429343676568583,0,1,1.3003469123269802,-0.07122368192863891,0.25464653186570474,0.033673768712250945,-0.5820286962648891,0.13658285929442804
661,1.1853608643426579,0.5422576256237267,0,1,1.3937688640833565,0.09388239265459093,0.3210665870537013,-0.020749406496378537,0.013012762796679907,0.09150347052948814
662,1.1330085873510876,0.5403576637876488,0,1,1.1724386847915147,0.022789811571384003,0.20235511678790177,-0.41461165420095214,0.05696125418933258,-0.01499499805312726
663,1.0738807655421563,0.5363972293328578,0,1,1.0720419775786423,-0.006989955818298525,0.16695154468361306,-0.689119198488946,-0.0030104533614076848,-0.08962698898575955
664,1.01129246550822,0.5295587578314553,0,1,1.0631945058588754,-0.0690711487330511,0.20188873742759803,-0.4991848471992928,0.016817940953920082,-0.25520969831433427
665,0.9488916711529763,0.5191385661936073,0,1,0.9382093426824619,-0.07076526327620138,0.1697083686569175,-0.21849865820625022,0.1295729281634821,-0.3821680154549531
666,0.8904072047868338,0.5046919552619739,0,1,0.7742122501067742,-0.00888066644215352,0.09779902958586696,-0.29874843464703765,0.09613217197816698,-0.4247070775601261
667,0.8393589348593398,0.4861868716419846,0,1,0.7291235258212947,0.04295069138626,0.10644891936506887,-0.40155561236321125,-0.03824102776833463,-0.41251251965721286
668,0.7987810004779776,0.4641275898653193,0,1,0.7364632805299156,0.05181552726120708,0.13101805054947027,-0.35210872021100964,-0.05314210582601543,-0.33380806472280417
669,0.7710021634061079,0.43961786174222695,0,1,0.7597863252000091,0.0963865005792304,0.09875674542561458,-0.295801799444284,-0.0693049468707929,-0.2519667169897273
670,0.7575062379588794,0.4143430095158814,0,1,0.8196987446456219,0.04275812940972053,0.10030521794268807,-0.38381054913679385,0.05520178357572022,-0.23268778377119176
671,0.7588700956102237,0.39046234528723645,0,1,0.8412317193379513,-0.05637022217330603,0.0728580290707364,-0.25752387482285843,0.19056915541413993,-0.2514641173306489
672,0.7747604699410912,0.37041330573473996,0,1,0.827515394179899,-0.06103654818698756,0.056562239128041605,-0.1740701489296646,0.3432013399091846,-0.19813939290335203
673,0.8039713625229444,0.3566359225052708,0,1,0.6999576269365292,-0.08439876326801464,0.05473171509395106,-0.17179971436377653,0.48544269565501375,-0.0942018381575396
674,0.8444982017979471,0.3512359378344807,0,1,0.6740551760782204,-0.08487717037324592,-0.02411715316405315,-0.1524524175767912,0.2543194916453219,-0.0036376655170990524
675,0.8936601139841595,0.35562239763635844,0,1,0.8594295190907236,-0.05435792132774863,0.003300035902902867,-0.2727374382735473,-0.07689522062940103,0.08642585943326933
676,0.9482826681970563,0.37017887797354604,0,1,1.0280234198411795,-0.05215304073963772,0.05309808473149823,-0.2627185726975791,-0.08983654553058892,0.10857266776693843
677,1.0049359531948427,0.39404551305935454,0,1,1.0811175519630045,-0.03278676006621181,0.016071390913437865,-0.015616219802216228,-0.04200631430898071,0.045517110838797184
678,1.0601992399557956,0.4250877968354301,0,1,1.084295133542595,-0.02642350231496327,0.040733804365250925,0.25617730046210074,-0.1347520458253532,-0.031475416398413815
679,1.1109117214434392,0.46009961997120175,0,1,1.100848546628251,-0.02462470486771328,0.00696780362802271,0.38604110864012325,-0.43394076351331284,-0.04634606861001365
680,1.1543751244075013,0.49523593102059993,0,1,1.2007376163493406,0.004958328878862576,0.0062692813690126345,0.29086438789557495,-0.4779944191435283,0.01551768548991029
681,1.1884901391394023,0.5266128084654705,0,1,1.2229990559375867,0.04742160095378016,0.011661627384990781,0.08073866116178842,-0.29687120022525365,0.024590065966869856
682,1.2118242220018811,0.5509717550028882,0,1,1.1078254229797828,0.059861770455513524,0.21870921553997805,0.24139422808723102,-0.6085700056857013,-0.13726191325283688
683,1.223619707452755,0.566287885535263,0,1,1.2475863679977302,0.02514924920678012,0.22322029978466032,0.3230544854169594,-1.040643900998031,-0.3357764623131173
684,1.2237584271684274,0.5722024868340679,0,1,1.159412430415152,0.06775007604485488,0.2677842968733555,0.09586017656734085,-0.32886521533363594,-0.2585505873396741
685,1.2127015197123603,0.5701813823036795,0,1,1.06440099661757,0.05642768941672884,0.28751973733372116,-0.3768490228264013,-0.41966412611835796,-0.22067869250255784
686,1.1914201862326175,0.5633485879571261,0,1,1.2521988335267498,-0.034916884221075126,0.11450997218911393,-0.583723652082935,-0.47149136114947565,-0.39091744165000664
687,1.1613254202447398,0.5560089653262367,0,1,1.126218678990371,-0.18802485244375977,0.1629967236571135,-0.46637407874732,-0.18404098872771607,-0.36376518167565025
688,1.12419433215404,0.5529331086099349,0,1,1.1552181298173372,-0.23025905891265044,0.12167769965880612,-0.14484678049307864,-0.2569030236008467,-0.1727057656629538
689,1.0820824518836467,0.5585248571528836,0,1,1.1562039135946738,-0.18595512131216985,0.13741227232349637,0.2422780982038519,0.02660502775620802,0.09270450829931347
690,1.0372113022768428,0.5760227844238072,0,1,1.0047931162802748,-0.1570381465237053,0.15772267813455437,0.32069323256026394,0.21040673587355108,0.30830586279617295
691,0.9918308297791476,0.606886659381887,0,1,0.9042660683428714,-0.22124111989227885,0.10839860797239234,0.3198219206351147,0.22073498761330376,0.37735961226789216
692,0.948072786534058,0.650479857698288,0,1,0.8327602461119878,-0.2565053369143915,0.08664710704874111,0.35100110300059634,0.16631013490447227,0.38383540658695037
693,0.9078246472286243,0.7040954784600205,0,1,0.7604849768743421,-0.25919402260129687,0.08208279851495656,0.44779213245830923,0.13499662153572808,0.38294159961684776
694,0.8726547370734024,0.7633124526093376,0,1,0.7974776550014526,-0.21645200239885934,0.08798327870580218,0.6586601050110549,0.10266196455085558,0.3462314228282311
695,0.8438048230357158,0.8226190704268435,0,1,0.8817492117626861,-0.14465158689829274,0.0730454525027195,0.8761945678674464,0.06512183763697976,0.27196187642168684
696,0.8222422271697584,0.8762046937079498,0,1,0.8885298894347156,-0.11387919384827018,0.03979845242377649,0.9900697560044847,0.003033199094355585,0.21927564974225322
697,0.8087411553888234,0.9187986130771475,0,1,0.8760164546715811,-0.07796146556588582,0.03531805028359567,0.9422013829273089,0.07146502499349251,0.15302006978083293
698,0.8039535164955895,0.9464343841746894,0,1,0.8189391166666751,-0.08002134664470269,0.04663411506761799,0.9173564834741732,0.20467239743965007,0.049477371425888525
699,0.8084369369091939,0.9570377118605253,0,1,0.79455362665128,-0.0678132947568596,0.014741067837238343,1.0086887410655236,0.1898356537776132,-0.08125532148365919
700,0.8226261769901797,0.9507650001530116,0,1,0.7709132869396333,-0.014412265203286931,-0.009979807153057435,1.051455084188082,0.1548971707692667,-0.21143503175443953
701,0.8467527260444061,0.9300475367666658,0,1,0.8097207532426008,-0.021674936103329285,0.0002329684045631453,1.0282394994064774,0.02234785564082778,-0.3253985713704661
702,0.8807272335138785,0.8993234664456091,0,1,0.9781415634031951,-0.04671248945578232,0.03998370957231629,0.9453909775533266,-0.09755841211837073,-0.36579234570814917
703,0.9239995331661301,0.8644741561784777,0,1,1.0737179474383858,-0.03829494822587831,0.10186997399501205,0.8283179828036361,0.04419022085399887,-0.32565277124668673
704,0.9754092434332104,0.8320263437643598,0,1,0.9904030047167983,-0.0365991881189216,0.13527966056367213,0.7905487182051838,0.058293309210609545,-0.2718734937961018
705,1.0330477563405942,0.8082290879028929,0,1,0.9043552608876978,-0.1143604481359778,0.10261339230954042,0.6099568928578275,0.004646407390403918,-0.162648882745155
706,1.0941728684828973,0.7981512513656547,0,1,0.8834527821342607,-0.17910711025808695,-0.007224068743330261,0.4970649755793202,-0.1969632924598529,-0.02033899260260351
707,1.1552371677448676,0.8049572455490308,0,1,0.8494967875406042,-0.2280553462832251,-0.16296834192016332,0.42131440157563665,-0.3228659229538032,0.0915014005870053
708,1.2120892471509954,0.8294960096371711,0,1,1.078455543537741,-0.23824908426556426,-0.2878725024676364,0.3816354580625958,-0.5297664154762249,0.2243563081760614
709,1.2603713542205384,0.8702794156062041,0,1,1.2671963763310028,-0.17237912370941377,-0.22488816355911204,0.710608111239926,-0.3512227171089662,0.31679677842065035
710,1.296077000996262,0.9238444348619022,0,1,1.2246939880418382,-0.11489422692394531,-0.1519776812441471,0.9338577715363476,-0.19529579560404273,0.3326758922301443
711,1.3161702143398528,0.9854128504337504,0,1,1.3075220724742551,-0.04419273552319878,0.1750819106629621,0.8377963172919858,0.05763703946034867,0.21733733884166778
712,1.3191252503550779,1.0497053406086345,0,1,2.059657552958779,0.30842814393937534,0.523092171254862,1.4271153230060927,0.09485079782461744,0.22592336447633538
713,1.3052347884965554,1.1117435341496693,0,1,1.6685880021756052,0.6135883327378038,0.4443093145835151,1.0358865330613578,1.3792646138445677,0.6131274682218067
714,1.276571764060075,1.1674896662424834,0,1,0.8049228009446677,0.28560911688185026,0.3698412565043478,0.0551890316423096,0.983309361427089,0.6386949905915494
715,1.2365871202181187,1.2142377264644948,0,1,0.8298607176483129,-0.29221662747427474,0.2618659930159179,0.1356671524481975,0.46295215381338395,0.4108196854577603
716,1.18945503885556,1.2507727030986369,0,1,0.555918926752864,-0.3238815932604194,0.45772909014415497,0.573429768634134,0.1019599766025519,0.17852887102540393
717,1.1393670899449022,1.2774001530625905,0,1,0.8779439335357707,-0.16446050605253518,0.16151137770913926,1.113897310651669,-0.24192247371790207,-0.05511184436284416
718,1.089972392376815,1.2959480891475657,0,1,0.9973849084437483,-0.016917151528776635,0.22742965620638203,1.7181939141497369,0.16241885509005874,-0.11302993699221887
719,1.0440741256029749,1.309750673989558,0,1,1.2428822088838885,0.16965291320882606,0.1346398845425257,1.883743272507453,-0.36535931454273285,0.03730937314359615
720,1.0035814676021146,1.3235155558137188,0,1,1.0850160163208746,0.26284193330303035,0.15002636854749815,1.5297459997859202,0.5650968753103739,0.1536068748318855
721,0.9696347805062894,1.3429465051256464,0,1,1.0324581538199062,0.1418559757665517,0.24520171257144627,1.1944803109694742,0.22101498957911023,0.13503911689739084
722,0.9427952220050595,1.3740665704927026,0,1,1.0368229634570243,0.0218275877919577,0.22935395625305466,1.2222639538967415,0.16119735119253265,-0.013995492288528515
723,0.9232112283286389,1.422310489025877,0,1,0.887367884131072,0.02322762063789807,0.20121542492144784,1.3022323972596168,0.3110311667869194,-0.12028781684955818
724,0.9107189863240837,1.4915515637479249,0,1,0.8232780682424731,0.031088226656766294,0.15395304475297047,1.255699788465935,0.2412285306791752,-0.19846569887143584
725,0.9048777755361692,1.583259176909462,0,1,0.8258671666702562,0.04606404440544032,0.20994718911696036,1.3185756509915891,0.206894886179547,-0.19293274842750843
726,0.9049689994641716,1.6959576828698377,0,1,0.8604340825556176,0.0463096160916526,0.22767151553091558,1.4909307060548502,0.1213495334544714,-0.12822816478856447
