id,ASVM,GSVM,walking_nonwalking,normal_abnormal,ax,ay,az,gx,gy,gz
1,10.174049053988076,0.22583655503068026,0,1,9.745625534283558,-0.6950864738087666,2.0074617062191438,-0.13855834425411498,0.21112851217840092,0.06955325664941037
2,10.183581790657339,0.27930682425321723,0,1,9.792817799073532,-1.033970843982968,1.9414055124850584,-0.12312730125174101,0.21715660022572134,0.011812557776218528
3,10.16590140637974,0.3396131892937619,0,1,9.983910919056518,-1.3722636123562229,2.305597167491566,-0.13025373776691324,0.2561515824619015,-0.00010698953996596906
4,10.119689985136286,0.4054336324671837,0,1,10.485100323445355,-1.2959929758090754,2.8280828319014946,-0.13956239678897542,0.38363717700559047,0.08040769653045213
5,10.047584317648484,0.47477948950267107,0,1,10.3196506630234,-1.0017773285076454,2.738719997497058,-0.10387152708567815,0.5228905670874959,0.10749303660364004
6,9.956313838184135,0.5449746163926749,0,1,9.580616547987846,-0.9789077220688946,2.4461511622775247,-0.021381999861709685,0.5706331487133842,-0.008989683585700287
7,9.856103832895538,0.6127002229417216,0,1,9.13345729688433,-1.0366011534429722,2.286952456433899,0.08425239746303312,0.5198072968006543,-0.13597478257572504
8,9.75938142910081,0.6741259885247833,0,1,9.492021256644708,-1.2046646032578572,2.483306720421011,0.12248254692258398,0.46216395998216625,-0.11117108466643094
9,9.678972633365497,0.7251509745552508,0,1,9.51595371179517,-1.5020668136094424,2.5736722993909975,0.1489569552090789,0.5185497696978983,0.0321603673779043
10,9.626057715083938,0.7617690301589553,0,1,9.171789741283671,-1.8647850195889941,2.7199692066733463,0.2807858459216957,0.5557481171534532,0.18408445891423914
11,9.608176707262288,0.7805424617529353,0,1,9.015159188034298,-1.9317015498867107,3.0331541063593512,0.4751486391826254,0.6413363741309118,0.3344005043880476
12,9.627599355439777,0.7791187718862255,0,1,8.230467176206957,-1.3354607186657328,3.29757006720537,0.6254645261263794,0.6863222627082032,0.499834824890398
13,9.68040878306607,0.7566792893429409,0,1,7.457925436031689,-0.6305229978291742,3.10716832525017,0.6560115533808565,0.5631274159800836,0.6648604952436868
14,9.756643638501808,0.7141936435168946,0,1,7.221218653542228,-0.03475783810356383,2.2926658362952232,0.554884147183787,0.19935058782573029,0.769830558206301
15,9.841710748074288,0.6543886850428677,0,1,10.217044044014008,0.009150857218428123,1.557950636341224,0.38368831762215233,-0.003110438592463852,0.5372175677036174
16,9.9189661372908,0.5814192170879018,0,1,10.980410525244482,0.3324538107700982,1.573642846554223,0.26419137359817535,-0.005318656319983311,0.2664868964187363
17,9.972941207462618,0.5003201720198793,0,1,11.872505846214928,0.8999522858098041,1.949149808124821,0.1920634656743335,-0.05053624755263706,0.06285225892624387
18,9.992376156973771,0.4163844660138747,0,1,11.47754113753216,0.546716412552142,1.955649255270698,0.1068963164620631,0.10472422046546363,-0.09174260043326986
19,9.972224940622421,0.3346188650678616,0,1,10.066465387894079,-0.07684526369124411,1.7715550104817597,0.08856599872887175,0.11310877270568677,-0.2041686514570087
20,9.91414847132404,0.2593816150988029,0,1,9.172431519497664,-0.5126321968992354,1.715414561785281,0.12264490424183173,0.13004127746026303,-0.2833330163886079
21,9.825541735448816,0.1942273692043019,0,1,8.484689047871758,-0.7432087445193944,1.578627428542351,0.1342879695982962,0.05620563232931491,-0.25386718270608566
22,9.717589812603116,0.14191405040489036,0,1,8.717607356300277,-0.707018943386599,1.4565380904667564,0.12360435573128767,0.012416600777869848,-0.2137418621294802
23,9.603036120002198,0.10448888053123792,0,1,8.997954209713374,-0.5915566999249883,1.4291018393635713,0.0860399986081154,0.006458006059388149,-0.17335584763042655
24,9.49425130209207,0.08337166048729544,0,1,9.354322945428564,-0.36211833669151466,1.5247876085803183,0.0622027308165842,0.02745604862057194,-0.13198459880896807
25,9.401925355063286,0.07938049913469152,0,1,9.50149754391484,-0.3342046120848217,1.7718378170220659,0.04038569455772798,0.03497890535343486,-0.08554110555904049
26,9.334422659055846,0.09268212936879146,0,1,9.389114823364585,-0.2504177302349572,1.8373693437274776,0.01649030603799169,0.054226300953490424,-0.07416807394187949
27,9.297649172661036,0.12268336864214044,0,1,9.299086507303379,-0.027320870170033505,1.7112495882100829,-0.021186605164577793,0.04181536130816909,-0.07194383196910875
28,9.295214748889324,0.1679051840446595,0,1,9.244444539637607,-0.013868333781817666,1.7496754202093736,-0.03793980048206156,0.02214478367737603,-0.06964224525572514
29,9.328700978686118,0.22589277015083628,0,1,9.169318362096629,0.08156182146212639,1.8517988226586568,-0.09088152971336054,-0.030365253716920972,-0.09111964502877647
30,9.397913250205283,0.29321265840071137,0,1,9.264769902660998,0.27870668527535114,1.769360540642109,-0.18419835136583107,-0.05906131253588995,-0.1537378351211
31,9.50106332663865,0.36557189278400987,0,1,9.177517448255625,0.9975003958197682,1.9523169585703395,-0.2690685508985987,-0.1021144885059712,-0.21957727804426475
32,9.634877559188952,0.43806912617492727,0,1,9.64442794578541,1.2800248507884213,2.0531828710436826,-0.3321614067184907,-0.16022800686609978,-0.23806668121135105
33,9.794656382697575,0.5055610896422222,0,1,9.407991493407566,0.9558537022923208,2.023950595428218,-0.37481107731748076,-0.17092148165478144,-0.24046696615891397
34,9.974332416664518,0.5631076198938116,0,1,9.328108587810261,0.4398188428531329,1.8940374699966545,-0.4564498996844849,-0.22639630769959826,-0.2614542316975496
35,10.166591096097399,0.6064464621182424,0,1,9.914910615150017,0.20214999659890015,1.491422360923317,-0.5274815771099123,-0.2404719479063337,-0.2529080545685715
36,10.363115735657948,0.6324431968233458,0,1,10.363316847770937,0.40992837709868046,0.9427109939027499,-0.5923218908559141,-0.2582651603363673,-0.1919174619731316
37,10.554982186061261,0.6394601748164459,0,1,10.909143321668372,-0.17785289026400194,0.6051438571665966,-0.6745901137563702,-0.21659329005944933,-0.1258272010710377
38,10.733170331193731,0.627592461916351,0,1,11.01600514546648,-0.4783792438881468,0.22639025621296668,-0.6764516729423472,-0.12084298370160039,-0.0745276572747257
39,10.889124120320062,0.5987306095624578,0,1,10.651592189297325,-0.45020570926730863,0.10771584518885259,-0.6831183759891615,-0.09612954922939365,-0.03823207803498654
40,11.015307769587515,0.556430238976517,0,1,10.106519191557785,-0.5265760454421389,-0.09244739603333915,-0.641942523895518,0.012356133876597172,0.007947651901340445
41,11.105747508972302,0.5055955684767685,0,1,9.829740449114551,-0.8349773180622495,3.647391289974502,-0.42626984451447025,-0.08848797672362772,0.055354032301955465
42,11.156549754736504,0.4520139657024139,0,1,11.727079481458668,-4.114859189635307,4.098862365746083,-0.12052084220313516,-0.13757167132944634,0.014604365996857624
43,11.166316738906614,0.40180212266591386,0,1,9.324795240874487,-3.0596996785064614,5.2531426310931,0.32416656565962565,-0.041055556717217424,0.25561703367020455
44,11.13630397776325,0.3608291870910882,0,1,8.98088763707376,-2.0617365977395616,5.334069397052927,0.25475828809403883,-0.33805832579092104,0.41106436072730956
45,11.07018005976455,0.3341655909419232,0,1,11.300225838188238,-1.0710953765360893,3.7416085390410014,0.11018570254291647,-0.3346417234915087,0.21636735615153496
46,10.97336734822233,0.3255857111717968,0,1,10.56660198692551,1.342764624439637,3.8750303776966115,-0.07658133497524543,-0.09166169625028617,0.03651237204435595
47,10.85208429390906,0.33714934886306785,0,1,8.51412720138684,1.6805779428252212,4.822118250789075,-0.2848706775309592,0.015334004814222762,-0.10871445363061424
48,10.712320738611254,0.3689000891090764,0,1,8.198275420899513,0.1091394296456402,4.822720225414709,-0.33912138852495316,-0.1781298243592677,-0.23748689241113755
49,10.559035444249346,0.41872750876132947,0,1,9.76638379729531,-1.7334993190239463,3.7910032636275495,-0.29931045029019615,-0.1990575014293558,-0.24692177963682693
50,10.395826670498495,0.48243500851052906,0,1,9.902143411515024,-2.555549957578381,3.346705650189206,-0.20937346356007067,-0.07958585122517815,-0.05503720393636003
51,10.225172986532304,0.5540432470247804,0,1,7.103311455622219,-4.382667212321757,3.2112838120642606,-0.06493156884928676,-0.15908437239250706,0.02532587455077606
52,10.049139167500858,0.6263418245906407,0,1,8.895162612450232,-4.577194634913491,2.9810821169192514,0.3728869769138318,-0.5570493858694737,0.09069133004535168
53,9.870275450694507,0.6916652966883128,0,1,11.611764287794934,-3.3121169861188764,2.6970527911085793,0.5910503887677726,-0.38799550894768836,0.39151099597474587
54,9.692346320475417,0.7428106438430695,0,1,9.148701055983489,-2.6027280916403437,2.453825446040564,0.7259196122398418,-0.19598526058441962,0.5021087996608476
55,9.52055068114677,0.7739571247923739,0,1,9.051904805904266,-1.3653612427030237,2.3716793717390865,0.7947719242953373,-0.24722152320272436,0.5197919875749497
56,9.361083866758273,0.7814288319016768,0,1,8.33466469924835,-1.1334557926772761,2.2518059849502703,0.7946394757745491,-0.14512978388653677,0.4997571702656413
57,9.220179075980122,0.764165953960248,0,1,8.261956153409022,-0.9441024693217519,2.349292911171048,0.7882910970378839,-0.14048099079852183,0.4315717204280823
58,9.102982190387973,0.7238294491793208,0,1,8.347069324460307,-0.507174577290646,2.495319572303589,0.7103128449977995,-0.029115999604829197,0.32119964409489066
59,9.012646899630427,0.6645352602956652,0,1,8.53961834118772,-0.06276948582979133,2.479062047944534,0.5711715568579497,0.043831414882100225,0.21463301747080296
60,8.949915536390872,0.5922809988392589,0,1,8.525717349394698,0.2648500392113438,2.2657663360919402,0.44733563529759784,0.15163403808049394,0.10545096651248059
61,8.913274067949382,0.5141762302402106,0,1,8.533908508885759,-0.11368883946883213,2.106919570927,0.3278929097468366,0.17246610945314497,0.018629414946445915
62,8.8996143915341,0.43760744523276734,0,1,8.753927829936627,-0.6977402834055974,1.7765571085427827,0.27725118542311533,0.17777788909695685,-0.0371507914669318
63,8.905230494406762,0.36945846809221977,0,1,8.811156715037027,-1.17638080226051,1.486453313654529,0.26239868854161563,0.15596154314177477,-0.08833191346591827
64,8.926913648164682,0.31547370961789356,0,1,9.272303765217838,-1.2948460035547618,1.5016237695771222,0.30498828766382935,0.11276329272455804,-0.09267137870836212
65,8.962892359542975,0.2798093814795824,0,1,9.351402543748236,-0.9783928171649121,1.6449637204535161,0.3255574531945521,0.11114012854889029,-0.04397545518946255
66,9.013396117480635,0.26478172656042354,0,1,9.038860637925584,-0.8244848201925328,1.8677356520364867,0.24811854629919258,0.10769971063411128,-0.04683491980313967
67,9.080719329296478,0.27080140651459644,0,1,8.582732002514822,-0.8801891973808489,1.9405977966365802,0.13858910075085484,0.05591296323793074,-0.11013475516279436
68,9.168806699403303,0.29647919117209487,0,1,8.290145574759944,-0.8601383636011372,1.8187884398632823,0.060807932468216065,-0.04893822296350752,-0.1957112932669741
69,9.28251656467124,0.3388897684673176,0,1,8.554759326189345,-1.3911949494384623,1.404673929750829,0.05114849639730207,-0.16246847118177965,-0.2490048155137122
70,9.426774227318441,0.3939753196735792,0,1,9.18512061866838,-2.0834313414302086,1.0490721927498736,0.15213764197715834,-0.2523253539220556,-0.21484811584629745
71,9.605773386212654,0.45705382330691274,0,1,9.455550983039076,-2.542090626036761,0.8256300242776675,0.30981706451140933,-0.2647360726687191,-0.15094571673676244
72,9.822260541598766,0.5233742827536197,0,1,9.77525993886176,-2.7456203147493596,0.5746729460488953,0.49956830323245466,-0.2504210019648097,-0.08462649696515567
73,10.076827926436634,0.5886410485192898,0,1,10.509393590766717,-2.9182880921643686,0.4705323855151311,0.7187520377913609,-0.22362945794259653,-0.02167672509232026
74,10.36711481416936,0.6494193682834298,0,1,10.791597054434767,-2.434365267679201,0.171978391686172,0.8900693008384707,-0.16571543334872912,0.04710745044387599
75,10.686899785668102,0.7033417468105461,0,1,10.425220155789328,-1.1430656603009515,0.3118978460569314,0.960251439750851,-0.1656473173670142,0.07351679573866775
76,11.025236643510057,0.7490683182578117,0,1,9.596162094996746,0.53040365079527,-0.16275735651304124,0.8494140046502339,-0.13358929984788903,0.013356642300285451
77,11.365971491821227,0.7860170953754397,0,1,10.093960481179147,0.9931664221757935,0.004815547962189466,0.5824429291629017,-0.17011939203951032,-0.10429011755219764
78,11.688058361208904,0.8139584770487629,0,1,10.033144647879212,0.3312378359527373,-0.9910373069565314,0.2926594656759796,0.042768850828948796,-0.17295493645903476
79,11.966960804366636,0.8326308187693814,0,1,11.7007754078658,0.020493340622651953,3.083757084194832,0.18573242065925838,-0.06404285078595956,-0.192588242675105
80,12.177093791915198,0.8415411307173455,0,1,16.39015708487731,4.828606415206094,4.58868491909853,-0.3253643490779183,0.18688041733888497,0.3629962733799584
81,12.294893225676033,0.8400449374690276,0,1,6.736760034150912,2.7723280862707544,4.501668754428687,-1.2006335195043465,0.39183814769031927,0.24815893755277887
82,12.301941718909568,0.8276712774451999,0,1,10.27479930427175,0.8471645452443608,3.048304958312732,-1.3311089336475865,-0.31297558854788726,0.013832758219370082
83,12.187697254958836,0.8045366546674614,0,1,13.236790753228261,-2.2417634604392145,1.898179319278287,-1.1892156843435868,-0.0938649166553241,0.24704172822844545
84,11.951542765681634,0.7716485519003492,0,1,11.50556187461837,-6.176656344796427,3.9151589720556803,-0.6392127282751686,0.08008367026174208,0.29091737242499466
85,11.603880151805008,0.7309603307292889,0,1,10.238351028937835,-4.92171471731331,4.960141153011408,-0.19942472425229602,0.17955223062838438,0.41714061347948433
86,11.165933375852855,0.6851591242273894,0,1,9.808933401246485,-2.4778970764572077,4.390646064123066,0.03373933600141853,0.16203756134524036,0.5529487605887591
87,10.668038570876034,0.6372692903195507,0,1,10.497217715811667,-0.7766756813611512,3.7278355907317233,0.05478378420040286,0.2086760728398482,0.6605765136587363
88,10.146500451647013,0.5901913585542857,0,1,10.105874090646566,-0.33736700591915014,3.8056744689061066,0.0571983440181527,0.2881403566718463,0.5418358277285318
89,9.639415851125793,0.5462822293851957,0,1,9.04824547875415,0.08095424736444969,3.3424379675611418,-0.008469076070169229,0.3129165647798187,0.26978259197320215
90,9.182103143441308,0.5070544494667513,0,1,6.63192405968601,1.1915959443092459,2.7285555872642933,-0.026903245377480865,0.3452631128585004,0.09856179854191702
91,8.802922827567874,0.4730507672714067,0,1,5.20752501793257,2.0158794151960078,3.2255422871781914,-0.2553144296227656,0.09331583057250871,0.03999434707689863
92,8.52028449926744,0.44392722834513054,0,1,7.554288873004372,0.06994684524483073,2.8885492174088423,-0.40778493307648894,-0.09542601448020177,-0.022065337215790275
93,8.34141613820105,0.418740680660891,0,1,8.360601127180777,0.16357123321360217,2.758507414480838,-0.3678040035450752,0.05604216163711581,-0.1693983963092406
94,8.263031590229085,0.39638674699213317,0,1,8.443660386117262,-0.33390010788698504,2.3378418855642997,-0.44920970988347886,-0.04377867530812999,-0.24428539964731222
95,8.27355410344112,0.37608861329921206,0,1,8.523722696862162,-1.0579898294951438,1.8347780542056888,-0.45387193010956156,-0.05496493478407834,-0.3848903029910027
96,8.356254689283457,0.3578137633410012,0,1,8.216371556920471,-1.7279099744875803,1.5050056742403293,-0.4374602332891198,-0.06065075902212299,-0.4151673333760913
97,8.492613583616354,0.3425061163330136,0,1,8.312701745125663,-2.1303794474592217,1.5408342912347932,-0.28061366529285436,-0.07434682672718897,-0.31929661791913994
98,8.665325767165402,0.332065236751799,0,1,8.974465729596602,-1.7199099413150638,1.5735161397279145,-0.18458084441975728,-0.002025825097526145,-0.202585324875098
99,8.860533844658399,0.32906953307686465,0,1,9.243492479311461,-1.3357229713411356,1.3564185144472034,-0.1849429386509626,0.11724866066326378,-0.06013175961860201
100,9.069034374993915,0.3363025531752995,0,1,9.456047905681498,-0.8748520341639647,1.0407294401883507,-0.2206637704696242,0.20453032223903098,0.00768852505294616
101,9.286376103733533,0.3561781818418891,0,1,9.159805370053746,-1.0550341414985531,0.8246303025540093,-0.29942658465503363,0.26571096778916053,-0.05582012365511773
102,9.511960654596951,0.3901666489988899,0,1,8.782988753533122,-0.5607889226862398,0.9364437813260811,-0.29371028143158445,0.24778075990085113,-0.16580403744975586
103,9.747436853026494,0.43831249313357984,0,1,9.066096268943989,-0.07261931443764813,1.163611285983312,-0.25514832755387756,0.12201248288523965,-0.27237358619058516
104,9.994785754273389,0.49892518727332164,0,1,10.030531363787867,0.31554130503205624,1.8999123607697066,-0.20159887327451143,0.02329844452878862,-0.18832421201840793
105,10.254483112330396,0.5685168280616277,0,1,10.0013773692035,-0.3561404812317773,2.536401903451925,-0.2865152369407791,0.019019869559443237,-0.010208939215898966
106,10.524026582253693,0.6420463991036959,0,1,10.093496041786073,-0.1828745168095024,1.7771604590035648,-0.36051972929615184,-0.0520765516554666,-0.024765897245408133
107,10.797003701603701,0.7134893362071221,0,1,11.175626554463298,0.7067743308791461,0.36554544465588945,-0.5915099557655087,-0.14223553053907323,-0.1581156145765093
108,11.06280945330482,0.7766794301170207,0,1,10.106706796549524,0.5649045447790592,-0.520703298509322,-0.9939950315750813,0.10277854254002226,-0.25259349137187975
109,11.307091053473588,0.8262848192386066,0,1,9.609149308231427,2.219851933846733,1.9500518675482694,-1.0997182884886325,-0.1473212454633791,-0.3602530112602263
110,11.512948825833748,0.8587162607803148,0,1,10.997667567644703,-0.881280821083334,3.348230173781502,-1.0155051059021836,-0.47170347636988375,-0.47272551496193127
111,11.662801355394324,0.8727581043386068,0,1,11.367661018594971,-4.786667896141616,5.425307646239055,-0.5900057642723068,-0.4770021757521334,-0.6278452870802369
112,11.740642319238672,0.869770033647126,0,1,10.081440205122234,-5.176627276959884,6.1029359665348535,-0.19458658400669657,-0.3488643567627216,-0.917612302999021
113,11.734291503579778,0.8534082957114875,0,1,8.173047571708526,-3.837042572791981,4.7326635058245605,-0.10841858934780295,-0.34621298942818224,-0.8491444351348277
114,11.637290385660272,0.8289214962825499,0,1,9.279266246624136,-2.1847289441074844,3.436397250210989,-0.08192719371133805,-0.45600037513556696,-0.6535885933698579
115,11.450257169982596,0.8021605462141973,0,1,10.75348871995752,-1.0077179179525295,3.732181626261424,-0.009822164738568845,-0.4106024476789229,-0.47442359609976104
116,11.181593532156626,0.7784946649956157,0,1,13.001914050045572,-2.4390137351705414,3.527293797974873,0.15632526059536206,-0.3638554664801875,-0.24065253336129
117,10.847335308689814,0.7618417192932592,0,1,12.755496199098218,-2.726358824257661,3.3082455931415935,0.4832249772190291,-0.11767764784524141,0.01776245450875781
118,10.469843180706286,0.7539967736570048,0,1,10.35416770256117,-2.246014686504796,3.3323555730069825,0.6452951535871115,-0.01948486444579148,0.1298356454388082
119,10.075204587510552,0.7543786938792039,0,1,8.718863549388734,-1.321744348094127,3.2553074858707096,0.6570571378441998,-0.006339835103270026,0.24719842252808577
120,9.689701777577683,0.7602270328406111,0,1,4.777888603011408,-2.122933333796896,2.7565281046462196,0.5987652528285882,-0.06930810555182793,0.06592344050047129
121,9.336214771449866,0.767195391647165,0,1,6.312686048311093,-1.814347884488652,2.1474754307374226,0.7472113865236456,-0.5234496300180607,-0.14712919483507025
122,9.031598252101547,0.7702215016191953,0,1,9.632586966626024,-1.2423614423120661,1.807416994395981,0.7250499474122567,-0.4708043675761909,0.09545032206317865
123,8.78573724661689,0.7645149238057887,0,1,9.205413815438064,-1.5040440441449567,1.7148141375611883,0.7844473929877612,-0.28589045273088276,0.17740573636271745
124,8.602341803041728,0.7464921267099631,0,1,8.435859719368127,-0.7847967492426016,1.6153108705698103,0.8323585516681287,-0.2731058418771372,0.2570949075277784
125,8.480971073707424,0.7145053242099189,0,1,8.860697737786014,-0.2213068653912926,1.4945413823257434,0.8541398912119702,-0.24529705069646413,0.24246298257173696
126,8.419527386693254,0.6692506797080212,0,1,9.095235357017271,0.7457860871870567,1.5834082992439458,0.7708126672918375,-0.062153244377881806,0.22741782293767557
127,8.416496360069731,0.6137960836913717,0,1,8.738069819472393,1.2596024247560371,1.3859358047855763,0.6132151544732423,0.056560393592870364,0.1445245488739886
128,8.47238102161522,0.5532318327545649,0,1,8.954206266979327,1.2517996745030593,1.1706791999994872,0.4300057614292403,0.1886330168638878,0.02190966111753918
129,8.59000230910632,0.4940083315176854,0,1,8.878542033348989,0.9917560138731332,0.8570813092770572,0.26208642348268707,0.30425904003199267,-0.07739884728133127
130,8.773592696625341,0.4430681622213326,0,1,9.103493227158536,0.3575323172914846,0.5452458393781608,0.17793337891677707,0.3688052599222028,-0.13058447888960606
131,9.02686990008226,0.40689584134592216,0,1,9.049543392567193,0.17948504249955125,0.37924101236085683,0.15116982724973224,0.43234349104775166,-0.14491778373667238
132,9.350510517229436,0.39060213164023255,0,1,8.46190761065683,-0.9711385341048008,0.9722897373994361,0.007406354274038738,0.35894938683550737,-0.1189452587830814
133,9.739615929099667,0.3971462674893476,0,1,8.447286470948569,-1.5488166216908383,1.9428287428598825,-0.14801043739677738,0.16973708640612709,-0.13006190805780646
134,10.181834081120337,0.42679024286515577,0,1,8.688714473455127,-0.15585031077050504,2.1792285799976616,-0.1292405719100727,-0.0019232836959891257,-0.1969214524561076
135,10.656726776253661,0.47687084259124485,0,1,9.367747659429343,-0.22465000192535362,1.3494843377667776,-0.16304791801264998,-0.16894881764096034,-0.23915894723584544
136,11.136734595263043,0.5419537909674436,0,1,10.656815718045822,-1.4542405900083102,-0.7322726412693136,-0.056394491723064745,-0.3827439296119796,-0.21412317128390032
137,11.589726271495088,0.6143921675467837,0,1,12.21847073724519,-3.1482482735349993,-1.8125946653810756,0.17853839848822967,-0.36775461105454543,-0.14137667471015558
138,11.982722046127563,0.6852530778018263,0,1,11.083776119745789,-2.942019372484714,-2.867575312493991,0.5293494735746758,-0.040208760286798914,0.073476754879482
139,12.286077380698813,0.7455131588023403,0,1,12.055747823243268,-2.6284243438534887,-0.11218306517908916,0.8286834969779543,-0.28897274376657656,0.3678049440383853
140,12.47729062095853,0.787363952471183,0,1,15.41431549290556,1.8896227418654608,2.895389795381436,0.6518174485873152,0.016596809834188025,0.6592612109020444
141,12.543665133047007,0.8054239596436152,0,1,12.351702863072973,4.538838724013991,6.532142705763686,-0.09673359576185184,0.3204204113061704,0.9544076629933507
142,12.483311656876136,0.7976415018716058,0,1,8.865128766013308,4.497264418278076,6.986420875831547,-0.8209138643112026,0.12415984469332302,0.8837095037605083
143,12.304436271943294,0.7657029394728553,0,1,6.827110522035741,2.0675399998594917,3.667851267975878,-1.0536486673975536,-0.00576459616692164,0.4949799023227509
144,12.023409855339246,0.7148345782081597,0,1,8.713641305986279,-2.248203463355295,3.14325848642193,-0.7742007888481981,-0.3077071357053199,0.2084583326770764
145,11.66243243644577,0.6529955917955496,0,1,12.501931416177076,-4.227285955848866,3.504886976093073,-0.4033211217173175,-0.404949263950118,0.25397204620707026
146,11.247427734116602,0.5895852204663863,0,1,12.073333957753292,-4.220835594304017,3.1902559099575973,-0.08603829196750937,-0.11807805615029549,0.2535941323643967
147,10.806277787435077,0.5338976407120539,0,1,10.47994182516591,-2.371649693263811,3.11010517034984,0.13835189782530896,0.016060040271413924,0.15947924415796036
148,10.36709736505945,0.49361594961058086,0,1,10.233818782317812,-0.6312510029056844,3.175002733896954,0.17199376843223152,0.008783800037509192,0.1655721091459273
149,9.956251225929162,0.4736242190442966,0,1,10.106463055216766,0.31083028471024854,2.83594202523998,0.1297110276498092,0.13546138438648175,0.12322593905012807
150,9.596128961346594,0.4753428310834727,0,1,8.320461726526744,1.5036402470176142,2.532093193259631,0.04539440308816797,0.2643510254877009,0.08517978804385488
151,9.303032528556198,0.4966846057513974,0,1,6.347369265670377,2.773303922159677,2.3512398191714223,-0.1173606430274126,0.21670429512286557,0.1105381326101753
152,9.085716971435188,0.5326143362392122,0,1,6.038751935444192,3.1659803601230063,2.3550983203178375,-0.4669083102653374,-0.031157134622741684,-0.012758272718416883
153,8.945077618053908,0.5761880860756923,0,1,8.478757008551803,2.1135204867612356,2.135665591270793,-0.7308987545809017,-0.20653570873422925,-0.33253684392334387
154,8.875179206087576,0.61986165593788,0,1,10.274656908234205,1.081792086963362,1.853975052560293,-0.8720158433731102,-0.13868820503946513,-0.5546547865833118
155,8.865378672489046,0.6568070709431163,0,1,9.863904463973295,-0.607499979815623,1.3760076227834994,-0.8905623102835658,0.0621170522041869,-0.513011690246589
156,8.90293896918417,0.6819835021495276,0,1,8.511623669949424,-2.2624172464331873,1.2657401085239282,-0.7974789234657428,0.1729306707935576,-0.3533097708887973
157,8.975460397837248,0.6927821309806378,0,1,8.648787294472571,-3.176019418933168,0.836331564207654,-0.5942131007422636,0.23398725470160905,-0.1297398188357863
158,9.072651620611449,0.6891804667122313,0,1,8.546851420827176,-2.962910599076073,0.7797600216145623,-0.40799763262950733,0.3394227381031514,0.09527884934066431
159,9.187244593315999,0.6734560780875943,0,1,9.182392573105162,-2.194704197130336,0.6114387756940614,-0.30458970337189634,0.42910432212649696,0.22365235228725466
160,9.315074883496434,0.6495831207398886,0,1,9.3882062245191,-1.3282778856730568,0.6274625819725778,-0.29042086704806575,0.5412027801661712,0.21877506062252844
161,9.45447587243718,0.6224554299223669,0,1,9.120747884812227,-0.380054608408682,0.91656851052668,-0.33330644745094634,0.5675132929192831,0.14294530093366997
162,9.60521248924122,0.5970645554527418,0,1,8.86279571463092,0.449916347949158,1.3621209961124363,-0.3912861905681087,0.4901450568945605,0.05022811874946487
163,9.767225822577947,0.5777384697945316,0,1,9.654253352218314,0.837337529958277,1.8524502087590429,-0.3538753271455376,0.32102830324649356,0.00833507729857324
164,9.939457254241624,0.5675342298275625,0,1,9.668947763686235,-0.18009179456109756,2.606091665179038,-0.265294213246461,0.23328176662692995,0.025854667247094204
165,10.118963310394692,0.5678718532280984,0,1,10.000284720566485,-0.9797859760715916,1.812535752693688,-0.21869752627475925,-0.00011083191451478947,0.009031274415145814
166,10.300454952471693,0.5784784182420124,0,1,9.818573407881068,-0.7372441344343619,0.37552978350597505,-0.31208641388160363,-0.05058737698088495,0.0032980904944516116
167,10.476338740454116,0.5976631069789463,0,1,9.37667285344385,0.3026564208427601,-0.5443188559442065,-0.7164946698164865,0.07080779593464182,0.02594579107861493
168,10.637294040493947,0.622865458359269,0,1,10.498842023447574,2.087186868369058,0.973313366131664,-0.9994221922739749,0.04319014853930909,-0.049009972438856214
169,10.773339819811223,0.6513370936557109,0,1,10.718286484608896,-0.3031202045469827,2.5476099731050357,-0.9451831062398105,-0.13376648694691928,-0.1728375215533055
170,10.875207079909574,0.6807740344215726,0,1,10.632499002136008,-2.7718828412798517,3.9548250157987077,-0.5221934168870731,-0.26205384666840587,-0.3688105640830287
171,10.935698903241619,0.7097388206904317,0,1,9.752809378845285,-4.493612606058401,5.770281056199974,-0.0837893486414139,-0.4056070968897858,-0.6423633205134693
172,10.950689707828928,0.7377849282213688,0,1,9.140951460928816,-5.135806685725147,4.9445534726160565,0.2108443856133605,-0.34401297506306106,-0.8350781197214182
173,10.919544027090513,0.7652804689600066,0,1,7.947880678240906,-3.1023888638019352,3.5561205696369718,0.27684030584754865,-0.2556608551918138,-0.7289816246597673
174,10.844975789578175,0.7929957738027565,0,1,8.416805552188793,-1.1562573026194425,3.4605445102092998,0.2526200790692481,-0.38638375656315216,-0.46912539593734964
175,10.732570990232864,0.8215673197004234,0,1,10.145030166834347,-1.4867120097583377,3.156636703294262,0.2513844360883207,-0.46027146813388875,-0.19289508571363506
176,10.59019896850345,0.8509794812193914,0,1,12.264344978827877,-2.660398672292459,2.8412536345419537,0.4617889222380209,-0.4322233506455077,0.011762702617945752
177,10.427339003721757,0.8802049378800132,0,1,11.62677233377644,-2.9268964568080085,2.844856207741383,0.720459786681133,-0.16833685628230405,0.05871765021330356
178,10.25416778364417,0.9071050466806466,0,1,9.546444020708849,-2.2645434562596405,3.2092545246321644,0.8615967204002166,-0.1421205758455715,0.13149095391546767
179,10.080330510196257,0.9286228209094844,0,1,6.457263216681472,-2.095936151239848,3.019681535050597,0.856293055843371,-0.16938560249850892,0.0654813624997635
180,9.91364052248201,0.941227773792394,0,1,6.4893564352825654,-1.8539186271994323,2.4605359320842926,0.9097857583244678,-0.5382639962841271,-0.10880744886060811
181,9.759221671568463,0.9415158195417631,0,1,10.274754579491399,-1.4786230944195853,1.9765243183683827,0.9249237073214203,-0.6004361589223988,-0.03316554561183547
182,9.619529733803711,0.9268393829512332,0,1,10.296646150857029,-1.4588188248372853,1.8918632729402223,0.9270460669847095,-0.3326258534462465,0.05001070600309472
183,9.49528108488765,0.8958445492129283,0,1,9.613151582649671,-1.167956932970297,1.6776779782589066,0.9459382983171782,-0.30147811443766787,0.11762449971543659
184,9.386887379575466,0.8488187260017366,0,1,9.949966040998481,-0.6711108446446531,1.5512149137183167,0.9219976120629123,-0.24187820921141395,0.183225368096184
185,9.295821271271617,0.7877936337042085,0,1,9.998750020194118,0.13000053646445528,1.5926641278916498,0.8401902975689718,-0.053009829706495516,0.1746537819641423
186,9.22544216468618,0.7163940017556337,0,1,9.080948408752514,1.1617348227240611,1.4570414631938877,0.7149288760017007,0.1119099439302985,0.12063170696818658
187,9.181051959753722,0.6394661279562742,0,1,8.605283514633118,1.6381769633381804,1.1382383418111572,0.557243834231822,0.1766610997205201,0.04917973258020425
188,9.169201552878391,0.5625579760624294,0,1,8.775884276490986,1.1505186563318395,0.7301372689783747,0.37957092455201347,0.22810595463107483,-0.025336373874560034
189,9.196454753238703,0.4913467043501989,0,1,9.369355199341086,0.6089041081883628,0.6089607149929751,0.23420159908525678,0.25985290016674967,-0.08764359249398211
190,9.267899068881853,0.431113161321426,0,1,9.315167594585981,0.07936846826104618,0.7931414919783101,0.0640288874284107,0.2598665655342289,-0.14694917345880854
191,9.385689059825461,0.3863434389868296,0,1,9.355962403863076,-0.05282578061134636,0.8590590688658586,-0.14521319678535202,0.150760896568689,-0.16292992859921698
192,9.547877912145259,0.3604991765055794,0,1,9.135872064839079,0.9917312968026278,0.5270144348214312,-0.3145517938201497,0.14717689416801527,-0.15673937802345808
193,9.74777762929172,0.3559504689375201,0,1,8.647944812948976,1.4514082403277184,0.42421664957374405,-0.3620611947487505,0.03187687853893907,-0.2252835032608917
194,9.974068959151518,0.374020982132633,0,1,8.97572797651318,0.28597808579300643,0.7408749510710502,-0.5115924820899432,-0.09274297606193448,-0.35893139367393373
195,10.211802126617602,0.415069139774503,0,1,9.926995251235912,-1.716080587814727,0.25800242555379055,-0.505865823410841,-0.1377946257210457,-0.47244488168860715
196,10.444250260627834,0.47853561556183183,0,1,9.907423220750966,-2.9526132138301215,-0.13904601970613356,-0.2254404660026198,-0.19466303875761531,-0.5031021058114177
197,10.655326394660039,0.5629310075648726,0,1,11.596100826408932,-2.758766908496588,-0.6913591159726279,-0.06486450788757801,-0.18942157002356835,-0.33623765832620606
198,10.832046956732595,0.6658058422363755,0,1,12.005905378951523,-1.7765899148376811,-0.33003385865836765,0.01748542710670531,0.07177383136985355,-0.17016117815851614
199,10.966434433195756,0.7838040206314557,0,1,12.003641115225822,0.7547219958650977,1.83224353849432,-0.1717354430681675,0.21543520444218742,0.06137242011490567
200,11.056371301685278,0.9129084873497423,0,1,10.111270281333685,2.366255304605163,3.4010937013982967,-0.7133298767817313,0.33247449837137205,0.2858152413045956
201,11.105226706561378,1.0489229000990432,0,1,8.890949030891699,2.420334610479341,4.119401907527972,-1.2947503738490531,0.08321549318112015,0.23690813875278335
202,11.120451772155105,1.188118603179348,0,1,9.704377314625516,2.3366973650842437,3.567073201735312,-1.6138780314986827,0.061263903713581654,0.16563220895429992
203,11.111606348825578,1.3278737366747804,0,1,9.971864547815777,0.5590748012403827,4.046767795794517,-1.7428947346581172,0.027916026288318796,0.1685188309718831
204,11.088334069033385,1.4671011790707011,0,1,10.257388555221763,-1.4157758629835875,3.354876525101777,-1.6549665417769264,0.06219504089711512,0.2863615269720041
205,11.058674642520081,1.6063224846696555,0,1,9.871863132654028,-2.787689472046642,3.8938748695281946,-1.5087874260593779,0.16268177972564787,0.24864878898492038
206,11.027908017513843,1.7473640062440186,0,1,10.397113019575897,-1.1857082730001138,4.007313660188526,-1.4871319535367549,0.19539710300127971,0.0845951919206853
207,10.997962543308011,1.8927711950577977,0,1,10.803300534763446,0.8470927226019578,3.9494781608519824,-1.635395687879983,0.2935170870285328,-0.058310652882689905
208,10.967329189780457,2.0451075667932552,0,1,10.070389707180494,2.4344335787518836,3.77353961335418,-1.7936063320701328,0.41204563642527886,-0.2324951603088215
209,10.931410834291578,2.20630658485097,0,1,8.727868006447336,3.7706972385719024,3.431356865701504,-2.036515221026615,0.4204047614867303,-0.47067569580575613
210,10.883275809340272,2.3771921928201984,0,1,8.989617029254433,3.699326116957351,2.571943821843625,-2.3110760233326637,0.29000176299895297,-0.6804294084824408
211,10.814813950002765,2.557210355773877,0,1,10.17743191189581,2.5875214060352123,2.0398334564590694,-2.5705071370914756,0.18014677050803657,-0.7096049185083941
212,10.718239820641278,2.7443522767989545,0,1,12.018779566611205,1.098924475560979,1.803601122759742,-2.7064328354866594,0.22510111585764953,-0.7314802354740948
213,10.587754985523556,2.9352187677278714,0,1,10.433663942647026,0.505444417496495,1.9198914305382937,-2.7874060874890025,0.42497019124171787,-0.7817866702497485
214,10.421070521787904,3.1251755630411235,0,1,9.816171776698225,0.3459590616668624,1.8411458341972644,-2.9560502568114613,0.4228341638859163,-0.87056853923495
215,10.220498394526118,3.3085676845660057,0,1,10.331222588895002,0.24614870302296393,1.3781608298658699,-3.090699264507695,0.5214977973971494,-1.005071747613912
216,9.993424675903523,3.478979838639021,0,1,10.226579138398904,0.6838313691726996,1.368080258780845,-3.2189105853360713,0.6343947900392725,-1.1165028435728725
217,9.752083070034416,3.6295392402137208,0,1,10.520429707356707,0.6459662215907602,1.2180557987607072,-3.388839746111385,0.7622648120677951,-1.2014450440877422
218,9.512617038616968,3.7532580170825343,0,1,9.518353314497638,0.4118450409759132,0.6933035911057831,-3.507559863830757,0.8426497411739006,-1.2202568512261558
219,9.293500120787284,3.843411194949163,0,1,8.773046560227781,-0.29574712541598863,0.36603200483731124,-3.540072060446346,0.7779589676571805,-1.2107562229104603
220,9.113506907188293,3.893948914592337,0,1,8.476884341094642,-0.726420936703593,0.48558870262014486,-3.523014710705859,0.6746681613929951,-1.190947199554082
221,8.989540679879347,3.8999471529215275,0,1,8.5475089383435,-0.5669308105756441,0.8343136057909957,-3.4661577968000783,0.5302573451103837,-1.1842580792906112
222,8.934647728631864,3.858100668860213,0,1,8.800511721016866,-0.16724391138849315,1.3804110498123816,-3.45656031134003,0.42121210156591443,-1.1949216745111857
223,8.956460257182115,3.767243204873537,0,1,8.814005235246348,0.5169274568489908,2.0856396659581438,-3.563933606315056,0.4034394823627724,-1.2536798649455065
224,9.056166086792535,3.6288397847434273,0,1,9.621838864940308,1.1405130315882455,1.7000248525464112,-3.651150065951279,0.3780967327055174,-1.2609362996550522
225,9.227991015100265,3.4473483968132546,0,1,9.954882467821895,-0.09630283406689086,1.2605121733672953,-3.5227885284967186,0.43262978910772676,-1.2327694219903462
226,9.459162013555007,3.2303216136674395,0,1,8.073844530878342,-1.9385677963493448,0.8577328187730108,-3.2839630414433834,0.42090825492947437,-0.9943432218650026
227,9.730401492556613,2.9881373345615723,0,1,7.733747416716127,-2.8244232268143343,1.339468112237996,-3.0647752941118718,0.323014048968183,-0.5695120439788681
228,10.017107203543333,2.7333140693130735,0,1,8.342814971726602,-4.397376061527413,2.5774511801456885,-2.7926398432516084,0.28665284480976416,-0.26156864388737977
229,10.29137231975567,2.4794581470153982,0,1,8.501294065987256,-4.93516569257222,3.5900488378172923,-2.3249697715468187,0.2854998770603647,-0.1681914739691522
230,10.524836592005682,2.2399772311041612,0,1,8.418708864366158,-3.2161002945244417,4.7329959124966905,-1.9085792610568066,0.3613906455572698,-0.2708874523180241
231,10.692109524089835,2.026751309319543,0,1,8.103457999655728,-2.2452267645755835,5.463948510594451,-1.7309578187662091,0.48897882281795507,-0.47682531548072593
232,10.774290826521487,1.8489640992051273,0,1,9.268481031090548,-3.0540360663256028,6.138415462244731,-1.532531844881408,0.5013499800132115,-0.697598595517352
233,10.761977459954373,1.7122641103637855,0,1,11.737274438208495,-3.5121115137685104,5.4816725936080655,-1.2691177984099582,0.44858730272210484,-0.9058842007039235
234,10.65709934905132,1.6183619288316724,0,1,11.246064599212678,-1.7469175228768632,3.5459312088601527,-1.12576421648486,0.37745764405747406,-0.9185642014535282
235,10.473035651302876,1.565102136440008,0,1,10.344660041191162,0.25451021433026577,2.006536517737898,-1.1916923896638896,0.24235206421729394,-0.6071085912200243
236,10.23279953303347,1.5469876769211697,0,1,9.79834988742956,-0.07145820939494862,1.5357710126591466,-1.3681895487081832,0.18513072608598186,-0.42079074093074814
237,9.965564993150897,1.5560791646666585,0,1,9.331747491010885,-0.3164786113449579,1.787912134929322,-1.5336163933758564,0.13014966492382585,-0.4771686929944378
238,9.702235958280633,1.5831369844390006,0,1,8.778527939942272,-0.26409226706308253,1.2532244293112793,-1.6875381275101213,0.10980361531164845,-0.6724023201279303
239,9.470962646090568,1.6188276961312957,0,1,7.937520149760307,-0.7538185624171427,0.978022364688374,-1.7457484610001606,0.05851061608165062,-0.8556901371040294
240,9.29347096331625,1.6547982210750969,0,1,8.037406007410771,-1.1386248831664714,1.2209764484693633,-1.6881627436662927,-0.04044141355490254,-0.885083310674493
241,9.182841271567515,1.6844489893425154,0,1,8.602044361510286,-1.3894720835823315,1.691489109787297,-1.5923050640840417,-0.09953393992876004,-0.8336462858271794
242,9.143015324693648,1.7033095764778643,0,1,9.046821763731094,-1.6172446250071715,2.1753462310034384,-1.5137584994730862,-0.1256181670814948,-0.7990748999064262
243,9.169909097846602,1.7090150213356603,0,1,9.416105799198167,-1.8005719467781098,2.130103068941522,-1.4438071879390253,-0.1164050613650997,-0.7840755817806562
244,9.25368152770174,1.7009670489256263,0,1,9.229298263303072,-1.7053406498381292,1.974291640731187,-1.359792879321827,-0.11536718241966272,-0.7577559495812161
245,9.381548284329835,1.6798187092238195,0,1,9.053171689097736,-1.6457555354800228,1.9550314374525042,-1.277785488582094,-0.14440497607556785,-0.7499665553251523
246,9.540542860417554,1.6469353180327362,0,1,9.395673600374911,-1.7845898996432226,1.9450173635148313,-1.2634940737334353,-0.1704438380155825,-0.7533861885463053
247,9.719742304201826,1.6039624749093768,0,1,9.85443025123317,-2.041061346665225,2.0527549410833994,-1.3322097402974966,-0.1586774567989046,-0.7661855605040593
248,9.911611769105697,1.5525835731025124,0,1,10.624656277318786,-2.368190744532558,1.9484061133333157,-1.3413524144268931,-0.191169357000169,-0.7075950180307323
249,10.112260024902373,1.4944896933880425,0,1,10.63491156520212,-2.1280365021098695,1.5181049337916028,-1.2945013372457714,-0.050136124030783054,-0.602615209038313
250,10.320574713783241,1.4315300043494934,0,1,9.339082953718911,-2.3691584083365598,0.9305411173819133,-1.3098218575975498,0.00015650397289604433,-0.5735544508686029
251,10.53644629573924,1.3659702315329267,0,1,9.688488819552111,-2.5284431617442342,0.24219208478233398,-1.2606791970708564,0.021678433334456137,-0.5971469035594543
252,10.758537582879246,1.300761082423919,0,1,8.897550676204991,-2.8035194983291936,1.6559133682424747,-1.2621269127023338,0.12287305526442593,-0.7117530578101081
253,10.982192879572713,1.2397065350074168,0,1,9.419834117947731,-0.8844494527194278,2.324092091667225,-1.2699848631036303,0.08300146367959844,-0.9239812222530149
254,11.198022857859703,1.1874284000614899,0,1,13.26296652194191,-0.37562865422862624,5.409704498741384,-1.2899845096311244,0.04077345215354879,-0.5639550573192995
255,11.391488870202107,1.1490580750040373,0,1,10.084252399712517,-0.37756117141904466,4.152147627503031,-1.24336320125765,0.1884756808086959,-0.26887690584512275
256,11.543603302302952,1.1296524135676238,0,1,7.465122150178977,-0.8188722443317407,3.1418555144190714,-1.0158672328082785,0.2225414774706895,-0.21551193528326112
257,11.632784856953593,1.1334148433579352,0,1,9.225084703418284,-1.1044705483158732,4.158764895079659,-0.8232487838687912,-0.18268573310955216,0.0382467083629612
258,11.63786589787223,1.162876376956108,0,1,12.07975491601551,-0.011771669725386145,3.593431225140866,-0.928376984497289,-0.17675392888742866,0.24593694650656417
259,11.542025139787839,1.2182243314147863,0,1,10.697231955828617,0.8351909832177568,3.0975863034002393,-0.9551353282453092,-0.03915400541433625,0.13828877825379185
260,11.336992884828069,1.2969460039918992,0,1,13.450634179978813,3.0576390154030246,3.7878064395425723,-1.0438624566287869,-0.17487645210129849,-0.06789694023505628
261,11.026504848296605,1.3938886604566092,0,1,13.205452115730257,3.094663725859927,3.3839254715169975,-1.2598371493619624,0.14548495047746168,-0.31781950612146037
262,10.627939635122335,1.501747360229371,0,1,10.620271925038045,2.937374563445044,2.6268324385477,-1.3968595720922377,0.30693605054858875,-0.5481329387716586
263,10.171449222077035,1.6119011593185164,0,1,9.170517816882127,2.4034237613925242,2.1848740794936545,-1.5803832638217299,0.2987565087436794,-0.6777514780034767
264,9.696556762152106,1.7154463093113055,0,1,8.462768216838949,1.365669340893313,1.827152834965443,-1.7548276533308758,0.21900366253919779,-0.7263256291461003
265,9.246875125426724,1.8042384179499344,0,1,8.357980680344912,0.09157447578467906,1.7914814733092135,-1.8857895290692164,0.2418437875788198,-0.7806296191137635
266,8.864017658038001,1.8717618920926258,0,1,8.075401822820748,-1.2341055528815275,1.802697473697673,-1.9085930902304493,0.27120830209884833,-0.8109200736848001
267,8.581839021774535,1.9136911375686523,0,1,7.313077997379514,-2.466912214997465,1.8032664741136923,-1.8137821480203937,0.342369582278553,-0.7817175887997879
268,8.421961844647372,1.9280816328924668,0,1,6.078108879000507,-2.2105484527484314,1.7668515068139687,-1.7066029253095452,0.23048291621201028,-0.7235425742599312
269,8.39125373020826,1.9152109289628103,0,1,6.978574533538614,-1.2454783348155047,1.5993687912472767,-1.680658760713371,0.0555877422455245,-0.7130000806420952
270,8.481574186144625,1.8771573316621355,0,1,8.347280087652582,-0.2746429833841678,1.5133559893885309,-1.6448161780531012,-0.09395279996875149,-0.6505218629298337
271,8.671711766614116,1.8172401004897178,0,1,9.739745962577322,-0.13576170129913812,1.5163860089803918,-1.5693718300667063,-0.1729844421596128,-0.6355907346885667
272,8.931028695377762,1.7394454713139902,0,1,9.686790747435971,-0.4497549310720925,1.4504051652273549,-1.4877356845642689,-0.13791931688153083,-0.6664251303169534
273,9.224054860868618,1.6479364676842732,0,1,9.383697707821792,-0.9191357489835084,1.474130640526017,-1.4865437622345135,-0.16540099660585802,-0.6622462954489482
274,9.51523362291098,1.5467048902839717,0,1,9.709516094271159,-1.4290839422132102,1.3754631474686374,-1.396099516589432,-0.1968157602551985,-0.6252415048260032
275,9.773194843771352,1.4393833808284464,0,1,9.673878347525976,-1.265205696964397,1.4324048879089886,-1.225373439469672,-0.24421407567701373,-0.5978047735415425
276,9.97418683337364,1.3292026360273401,0,1,9.270019763058231,-0.8734768925015252,1.43688087826438,-1.0766805802609365,-0.31021798616458945,-0.6160969379673571
277,10.1045145419146,1.2190561420189527,0,1,9.421637634847569,-0.4200460937038442,1.2812292367466902,-1.0108285171362013,-0.409450568374717,-0.6031293688382483
278,10.161943705487785,1.1116189844501527,0,1,9.964428290151112,-0.4011040262754469,1.1453524036127605,-1.0155971728736568,-0.4796874304707557,-0.5257433512914368
279,10.156026558937446,1.0094564457290012,0,1,10.794672881728667,-0.5109987291345659,0.964732631122737,-0.9984213091828325,-0.48198539271714064,-0.4361992484013549
280,10.107219740617811,0.9150577661877782,0,1,11.698156091575942,-0.5375147469059965,0.7589331732447391,-0.9184049629072538,-0.3606187451636174,-0.341970625887319
281,10.044596609605934,0.8307494949513197,0,1,11.559737430708894,-0.9272527023233234,0.9675912627162023,-0.8138751626695129,-0.13518748398577277,-0.24156729761300536
282,10.002029846019282,0.758482624630161,0,1,10.594004236313761,-1.537235807343544,1.0752810140648552,-0.7020589278726229,0.04511000074500208,-0.20660941163760116
283,10.013004402684906,0.6995367363567373,0,1,9.248071109886494,-1.6044275353435498,0.9034231553467144,-0.55733127739094,0.08558745441859776,-0.15042972329604187
284,10.104655918425205,0.6542244042792115,0,1,8.26145580468679,-1.5871250705612039,0.3365436594790987,-0.4811834407506956,-0.0007926677136752725,-0.12346663007814565
285,10.292034933840304,0.6216954310912468,0,1,8.254172184993207,-0.9939775782180289,0.7281805734083477,-0.4098585045399726,-0.10471820939729126,-0.1309733649617047
286,10.573767612948366,0.5999274723400275,0,1,9.487566739889369,-0.6227781109908125,3.0954693771086563,-0.3107619749239369,-0.21643849794499967,-0.2591270235058144
287,10.930118405812648,0.5859501446321037,0,1,9.132562810167752,-1.772375043148962,4.438179707365541,-0.2758859399649166,-0.2004988299951443,-0.4197097889101568
288,11.324027328239204,0.576293286329791,0,1,8.171161988038504,-1.3800378902372787,5.010418361230338,-0.20419945160400532,-0.38804241723541133,-0.38762699577643006
289,11.705162817314203,0.5675910393233274,0,1,9.759696598027286,0.11430659811965257,3.936058494631287,-0.14899389443153074,-0.5254336521767428,-0.5413425032517728
290,12.01652298627502,0.5572282510443108,0,1,11.472400931759534,1.1884167585205112,5.545278079059873,-0.13289858367917906,-0.3546913549497648,-0.6062310775131602
291,12.202660859279213,0.5438981913366016,0,1,12.404077762566429,-1.0769767531053607,7.322357476314208,-0.15077082383808868,-0.044747251969401776,-0.5812561317911
292,12.218246520813173,0.5279560164406635,0,1,12.860245912649749,-1.8971661759112461,7.010550255757394,0.049984519353734325,0.18897711884070623,-0.5815088599980999
293,12.035555773685306,0.5114932472796928,0,1,11.596729024589283,0.6799004780013521,6.4409773435295286,0.10042366050846982,0.3985623433173152,-0.4775497363801312
294,11.649722816910517,0.4981088835204354,0,1,6.649617841802593,-0.338070407578691,6.114081725962981,0.07337766832148945,0.1819753618708129,-0.5137901708872961
295,11.081138602736278,0.4924006542430383,0,1,9.418404346190902,-0.6431622753468096,4.953576129430112,0.20755898060176914,-0.34146676320788877,-0.5789680078822879
296,10.374920859099806,0.4992434390357472,0,1,11.861006220811896,-0.7500823058493685,3.9102795880893506,0.05098596521839506,0.06220188287815879,-0.2491925275799766
297,9.597656530463295,0.5229617565988445,0,1,8.422147838242438,-2.1419121542686064,2.8116717980681805,0.1425637363185974,0.034536707811300124,0.05647238418933481
298,8.831637609902051,0.566530229137135,0,1,9.890479586798037,-2.9814640224573075,1.8688077223216568,0.33996717831738843,-0.1157245835029051,0.2430710022363113
299,8.166817852137987,0.6309311913279211,0,1,9.456537889086121,-2.6121047172074516,1.325169965030666,0.644141694080383,0.04009510350057936,0.4447412856625958
300,7.69089535321827,0.7147547551373525,0,1,8.86087746503487,0.8136181343001728,0.2357563482036979,0.8135932832749008,0.2583233995512889,0.5112900926653056
301,7.478288465723858,0.8140681988065929,0,1,5.857687778027914,3.67227012742027,-0.0053592174206244965,0.5749748650855642,0.4294703920851637,0.47087950087521085
302,7.579242675335883,0.9225496723753536,0,1,3.5196636550092735,3.239959562483336,-0.07148086004058554,0.4159220038082015,0.17654454642343057,0.49979798983881574
303,8.010733949638212,1.0318914944029216,0,1,4.028720465948949,-0.33717744441348735,0.8234470932512749,0.4092424110179004,-0.3053335882438536,0.3552952679423896
304,8.750981642041543,1.1325014054129507,0,1,6.695200198595007,-1.991769926401316,0.6795301015978507,0.5489602466509957,-0.49391987666653503,0.2219396278089439
305,9.739046489814235,1.2145182681341862,0,1,6.724926203812133,-0.57452805925222,0.07613164489825033,0.8631959932879125,-0.6514860700713627,0.16964778288336188
306,10.880166628299671,1.269088775448236,0,1,9.242122779985065,0.27795785999387673,-2.4911812416109274,1.1042509035630559,-0.8357467851059264,0.2961211447414914
307,12.056393807109556,1.289744653998431,0,1,13.272877526963022,-3.9651992395501794,2.2642029045958862,1.3184175741197135,-0.5000060671235186,0.8200546896516965
308,13.14102997563521,1.2736255489445298,0,1,10.341829218231474,-5.207073567833142,10.99389934233156,1.3558739113031362,-0.236482516022189,1.3628637795688139
309,14.014607074792455,1.2222606047601647,0,1,11.577866390479617,8.427269065299159,4.747497708155972,0.9788912087523362,-0.6822918648986036,1.37762101011176
310,14.579907414573535,1.1416788825918325,0,1,15.125679381619898,7.855283764700822,1.4696639595117325,0.23214672720187673,-0.6273627189726732,1.100726803536753
311,14.773824110704734,1.0417595801460542,0,1,14.089722438333878,0.8772898259004984,3.1859447408302284,0.13127973560597453,-0.5738354801794523,0.4651245213764602
312,14.574525948875255,0.934914305963205,0,1,18.465336928418022,-0.6056347865460728,3.8792005446973423,0.2653946381342447,-0.29782609991157044,0.4351784241881377
313,14.003169179337766,0.83434628106297,0,1,14.54230749250877,0.8095148128677505,3.508923470738093,0.411852357228954,0.18094791071621358,0.6793742067659464
314,13.1201709229938,0.7521999665505195,0,1,10.907474917328555,2.028135832748688,2.938411565031236,0.32829419721230707,0.16143153342768746,0.6038835293239282
315,12.01681080562936,0.697896641888981,0,1,10.013399215942805,2.393899253049864,2.496446220272032,0.1669478649826424,0.09841237856027751,0.36518459455183977
316,10.803565400743048,0.6768883630868657,0,1,9.992125029820942,2.9322060472840197,2.543920374463684,-0.04507368012688614,0.2058862438737605,0.10742415450380793
317,9.596913046431503,0.6899903353369008,0,1,9.0014803413858,2.421178494629866,2.685019145636396,-0.265473905308059,0.4582151488460766,0.028387294969156696
318,8.506308662467934,0.7333716630056466,0,1,7.212092528465445,1.2014066424879386,2.3961024645034534,-0.3916003279353983,0.6517017497733186,0.07616761471686213
319,7.6227818332156545,0.7991881533452599,0,1,5.215204088113657,0.041715958953615115,1.814872704791138,-0.5095298186598949,0.6777316820422896,0.16266336401611534
320,7.010339144490517,0.8767424906936293,0,1,4.638118809740726,-0.005879233921406446,1.6282623582134217,-0.6753822242066464,0.5710719459801877,0.14787368698435116
321,6.701050565518294,0.9539862135575454,0,1,5.25645121239977,-0.020000481267634505,1.4420979669451812,-0.927728140737459,0.4662661940818055,0.05661640873545626
322,6.694255220343126,1.019149027650595,0,1,5.75764193483765,0.3516605245320992,1.4784462338446236,-1.0922351030193826,0.31904836378949525,-0.022638708867066232
323,6.959710599633385,1.0622854093065666,0,1,8.024489186553298,1.0625664971230102,1.827389657696832,-1.1617453546078207,0.1467560974499708,-0.05516020982059578
324,7.44387152310482,1.076551786375774,0,1,9.88674166358564,0.33488014417067236,1.6189573041994227,-1.2115217137982766,0.19680614290699497,-0.018651587448841257
325,8.078042330596743,1.0590629645363656,0,1,8.767174277501615,-0.30068587578959305,1.2573886698717194,-1.250245271747054,0.24520334873928878,0.0013217611188581075
326,8.787066896737505,1.0112230547895222,0,1,8.22524579132045,-0.8432580732059907,1.3360302803630162,-1.218159647548062,0.15771145960650568,-0.11203114136875625
327,9.49750291897834,0.9384846945870121,0,1,8.421798282524042,-1.170318414634735,1.6914151265875483,-1.0504449677910603,0.005115341640714829,-0.24694776087528134
328,10.144661879872018,0.8495607318444439,0,1,9.414256385642222,-0.4699652019643854,2.1743779428257586,-0.731726600225209,-0.18955467567690182,-0.3469283506518842
329,10.67821147659904,0.7551892706576855,0,1,10.597672729891968,0.1645388784569308,2.3990832747751365,-0.46870152946219423,-0.3418529400963493,-0.30007246316062897
330,11.06610816047125,0.6666219653119209,0,1,12.147779353287335,-0.26275121560155096,1.2908203881237692,-0.420187156037648,-0.3923692217786373,-0.26141647569707344
331,11.296545596138285,0.5940499085641817,0,1,13.571475456997163,-0.4520969306405629,0.39167883774130596,-0.34760015898547847,-0.22976740100819298,-0.20331424471294496
332,11.377571019796923,0.5451932911956228,0,1,12.930082348917121,-0.6429959781394337,-0.29112954619051096,-0.2489242262327931,-0.09827108591415,-0.16929014121305563
333,11.334200817691118,0.5242634093113806,0,1,11.19021927955372,-1.285294498226698,-0.34526758603363483,-0.013747261211488865,-0.03646833283046406,-0.1401976351438825
334,11.203289665470203,0.5314627135222807,0,1,9.615894609388706,-1.5064106284144556,-0.9165237078667414,0.08653645478561516,-0.02349998659981074,-0.09615203302866243
335,11.026930664250992,0.56311706664293,0,1,8.90749137539529,-0.6383505172391639,1.9725473268161142,0.2838039895854603,-0.05763388155219581,-0.15181060558740636
336,10.845536010026617,0.6124302498389882,0,1,8.983139307100956,-2.8070536175312926,4.00719299266001,0.4706381790171671,-0.3001161168454546,-0.32298102439429044
337,10.691782497633962,0.6707250124042253,0,1,9.080967143403726,-4.519442727489466,4.515098731950353,0.8159891518749116,-0.2566730586386212,-0.61758253024801
338,10.586325718639888,0.7289203040057078,0,1,7.278292721584334,-3.2955282882636263,6.100985467212301,0.9922822638017778,-0.22719690179713461,-0.7555951911249468
339,10.535786817577593,0.7789344349748054,0,1,6.513020200414536,-1.9008942474688901,4.729175145415496,0.87581023613048,-0.3892046027950025,-0.7637178670405426
340,10.533166753665531,0.8147301979713106,0,1,8.18994934172669,0.1355377772373898,3.737594310674324,0.6629385081054477,-0.453865610715266,-0.6520548094155243
341,10.56053564727475,0.832828274637863,0,1,9.936666363904028,1.2747089744779072,3.8323162339047756,0.4037120552241906,-0.3555498822958365,-0.5419149288675643
342,10.593469644508517,0.8322700690096635,0,1,12.356672008856954,0.8708422863024858,4.24098032631766,0.2922492165020205,-0.34833598062367566,-0.4677173955585297
343,10.606284438515877,0.8141530494919883,0,1,13.477465240168636,-0.315877428097766,3.7800259489928663,0.312504882585271,-0.18145993982487751,-0.48362905810815804
344,10.576874226070721,0.7809452989492452,0,1,12.769207412656712,0.12965333307754456,3.690363055047309,0.28262723715223004,0.035044631898853644,-0.37035251840912603
345,10.490161159605686,0.7357962242175055,0,1,6.249303537393487,-1.576880491217104,2.804485194292864,0.17221552963729062,0.08927313921027875,-0.33948927900848375
346,10.339786226893969,0.6820088618569704,0,1,5.179236911892752,-2.606109692515172,1.7376409032621656,0.3059277751627876,-0.6572831238070371,-0.413616384862257
347,10.12835831814724,0.6227507349093463,0,1,12.259624153646156,-2.7580172013737485,1.356451126620496,0.31327539056940507,-0.625854307312165,0.08622967902168106
348,9.866855589013616,0.5609865093617978,0,1,11.508908379790773,-2.40319734546291,1.3597697266857094,0.44644867413884687,-0.25111498703821994,0.34054356560280585
349,9.573546528708647,0.4995496942410113,0,1,9.22436522230644,0.12137449214891677,1.291631355451897,0.47726191683796876,-0.20102461142754519,0.431469172656192
350,9.272455657948393,0.44125024887001835,0,1,8.287872009674263,1.804462171490497,0.9371986069993035,0.37978639297834815,-0.11109004720331607,0.3986045671334117
351,8.991329553712257,0.38893386740959157,0,1,8.100203420936584,2.5212643057755715,0.9448623786535102,0.16695852724761065,-0.015597809977834146,0.3037488289448572
352,8.759224386493491,0.34544784703954756,0,1,8.306179170279444,1.9251155122203267,0.5540939991555781,-0.0935201401103871,0.10140461371063836,0.2086422173768993
353,8.603957324716013,0.3135091817255648,0,1,8.833019824595153,0.5470372463920471,0.016665613709429327,-0.17992846242283256,0.21076958638990634,0.1371674621495056
354,8.549621361896088,0.29549775077860063,0,1,8.949916512820083,0.0401573012947918,-0.33535898570737255,-0.1297712513053553,0.2952291450830761,0.13210135925478206
355,8.614252170287289,0.2932049240064997,0,1,9.450220328805937,-0.14688398783735393,-0.25088209670585176,-0.108873682343996,0.2998164288931867,0.19028719408386027
356,8.807684620255241,0.307564073855619,0,1,9.174085250453784,-0.12432530125620601,-0.40429193751321507,-0.05073912506833754,0.3783167353028827,0.24765393834050417
357,9.129697895152434,0.33839064302211685,0,1,8.349495714796518,-1.0464956156462624,1.2064221676089986,-0.0018242969569151747,0.29178724847554566,0.16991671791808838
358,9.56869371335443,0.38417483451081663,0,1,7.844234143354149,-0.8167058341339262,2.1815062791021926,0.012759436478295836,0.08860723915317667,0.005021660058208329
359,10.101289017916232,0.4419930612801312,0,1,9.238271069279472,0.04761355882754653,2.0262383918271976,0.005394446665682599,-0.16135736439814094,-0.11853115182099097
360,10.693216092109006,0.5076140523934737,0,1,9.884912317043545,-0.9845426408482832,0.3298783472707756,0.13885622575598905,-0.15489022593441013,-0.11792155646570211
361,11.301751049525198,0.5758500430388921,0,1,10.539258608139473,-2.005533006504159,-1.0849365055762064,0.5249763832393821,-0.3430380582647851,-0.14567076364501888
362,11.879583093864131,0.6411397323239018,0,1,11.33899416390902,-1.6305408659664173,-2.6733482871284493,0.6321582111753962,-0.14224265168677,0.01348978379276535
363,12.379695928230287,0.6982708671245194,0,1,11.336369908868955,-3.841561176348576,-0.2234983626821293,0.9369563199294311,-0.1353821620286068,0.3111218709237557
364,12.760545126138533,0.7430913599675697,0,1,16.206311563463867,0.349121354667483,3.496737767702458,0.9766356772698219,-0.19306118145165682,0.619214544127954
365,12.990651792167204,0.7730453158993963,0,1,13.327692155697466,4.87844493960351,5.875843660359481,0.19447015236752802,0.3005633846613546,0.7749386545084439
366,13.051797753319011,0.7874122210145257,0,1,8.843964871429273,4.6711103723465675,6.1681505275722825,-0.4925573473703592,0.02293618213046748,0.5736847835117813
367,12.940376869578774,0.7872096957883702,0,1,8.99946492766365,2.6572058564644774,2.9363076473446776,-0.7208347816982538,-0.17690489360677827,0.3183434491679472
368,12.666997002164011,0.7748094436010384,0,1,12.116942615767648,-2.387268213157105,2.5146512806907615,-0.4790793044139463,-0.24073365730360127,0.3272883193719089
369,12.254793056088534,0.7533784297628444,0,1,12.797847303114025,-5.039377667755832,3.6079046809874256,-0.05151473715999605,0.0005791098094276361,0.5179923769051228
370,11.73688728780539,0.7262781614470085,0,1,10.991116530035054,-4.6925707645736,4.418112193088085,0.2938220057238237,0.13968748472522846,0.5902422726598221
371,11.153196663811316,0.696538436235829,0,1,10.049959181815874,-1.1197257671752856,3.624709075391947,0.37337459862716144,0.2690489155308771,0.5925962963995434
372,10.546685278415978,0.6664817070397965,0,1,9.25138412661593,0.5790421363584997,3.16522134557233,0.2530906050039954,0.33869282046962945,0.5795184165492877
373,9.959296254355648,0.6375299735471701,0,1,9.720816688098475,0.9726723515648247,2.639347061289674,0.09725139590969835,0.3373573689387186,0.3996363128503862
374,9.427990671121966,0.6101958917405147,0,1,9.621712745872092,1.304046248576452,2.161444837309476,-0.02575034489825139,0.45105299315013175,0.08446095119096307
375,8.981398824241458,0.5842454023209813,0,1,7.206082892036429,2.640828774708032,1.8614232478754638,-0.16047676676474146,0.49079959113898736,-0.10114806019416352
376,8.637555392752633,0.5590059531286488,0,1,5.253376499966588,3.0893704164061604,1.9895345776111013,-0.4064594363078084,0.24746654315856453,-0.1848365972768285
377,8.403098013882921,0.533769852608104,0,1,6.643062133382769,2.3086974506407945,2.1586380232284212,-0.6040499825257807,-0.11579352972079802,-0.2727222543299375
378,8.274118456404434,0.5082109191314662,0,1,8.894095158283776,0.8286101155421719,2.074274941418275,-0.6660741291249186,-0.16283820213429337,-0.3380961171018645
379,8.238514480825458,0.4827123323793013,0,1,9.089855150801572,-0.5748122174500276,1.7416741569814336,-0.6182529686872581,-0.12564779451070615,-0.290214491132806
380,8.279295556870585,0.4585125653875458,0,1,9.506213373280195,-1.9440960381542065,1.3390764808858753,-0.5229366085717307,-0.02184996683551477,-0.2406234045129491
381,8.378063610029924,0.4376205568445564,0,1,8.314934118539508,-2.4837855833120046,1.3111314208803944,-0.328962242367743,0.12079936284458578,-0.16884816653489618
382,8.517954225903804,0.42251847468484083,0,1,7.535760342346818,-2.1703837576404297,1.4406665597471071,-0.16163449092746968,0.11608822694280603,-0.11238158701341887
383,8.685614601662547,0.4157336711741197,0,1,8.289057496919337,-0.9635564900998613,1.5241950413319325,-0.08206047289322012,0.1731241201368844,-0.043245169465894726
384,8.872117557114205,0.4193935138623507,0,1,8.998933649368592,0.09686415596382267,1.526514140205485,-0.10036311426635063,0.2816248110957469,0.03142226419436776
385,9.072911122998608,0.4348651466171303,0,1,9.375356520301107,0.7067760514174907,1.5110382773711457,-0.22989599120708862,0.39257884009088506,0.0655797837477939
386,9.286965730467626,0.46253610439049764,0,1,9.585203578043988,0.8191574951243537,1.4288662148202396,-0.4099539975546594,0.4618209378775612,0.09103959988072213
387,9.515298814248121,0.5017374597672217,0,1,9.460449848772969,0.22782937110822807,1.6264162258016273,-0.44493672056031125,0.46790328130264486,0.10959057693411252
388,9.759115957906408,0.5507776462307434,0,1,9.198436442768493,-0.45636780158435875,1.9399024302622823,-0.374394928271573,0.4441267915818681,0.08189918387484382
389,10.017911715760023,0.6070565375740352,0,1,8.613504062121722,-0.7874232236900247,2.2675933921694438,-0.3294401346749968,0.31149788474004564,0.03232117700686037
390,10.28795469481278,0.6672565079633729,0,1,9.206172834649966,-0.12547475466634306,1.4935728892011184,-0.34343619630836647,-0.08963417992454485,-0.03328695780047968
391,10.56155836932903,0.7276322648745241,0,1,9.574819704532018,0.2285401757156878,0.11313965906895562,-0.44276661882510787,-0.14594653226391505,-0.07858570777541148
392,10.8273670316214,0.7844151294695069,0,1,10.748888722845926,2.5118727937113765,-0.42772210382798265,-0.8617421506205445,-0.1639818323769303,-0.10402100282739274
393,11.07159559944208,0.834301257371919,0,1,12.945457527392675,2.685378939134394,-1.0477673209323,-1.2944887075980396,-0.05558782758657493,-0.16327305406736328
394,11.279867627333376,0.8749313210515256,0,1,10.809863394886248,0.16405845297311109,1.3573218817579862,-1.1468102525997805,0.11711707372978276,-0.16698932810063558
395,11.439146544885883,0.9052373723563535,0,1,9.933930870770528,-3.6105986724005388,3.614052321101502,-0.6968405391061074,-0.1537299365340073,-0.30553064630349763
396,11.539317974081055,0.9255607358545822,0,1,10.074611668273588,-6.362485445075653,5.537412781990395,-0.05055822103536374,-0.36682505832138596,-0.6001527605721094
397,11.574180679286696,0.9375145715515195,0,1,8.541305695496296,-5.864339408861688,6.676878200587867,0.506357961152272,-0.4010878623014127,-0.8887148383466414
398,11.541825748964511,0.9436265613421378,0,1,7.302724589129232,-3.022986477532409,4.839264091265979,0.6536516265932265,-0.41034345563982344,-0.8896604661178543
399,11.444579474428851,0.946823518301493,0,1,8.193842869697844,-0.9592502900471639,3.2804308865694947,0.48534187657790534,-0.5164691691196435,-0.6762459985706455
400,11.288793869968865,0.949828509915979,0,1,10.68939013845716,-0.0729642204752187,3.725285802347637,0.44805114491646686,-0.5097657266586048,-0.3865476332127754
401,11.084659157052165,0.9545595309186623,0,1,13.114626140434865,-1.4016005083797012,3.8115885952114335,0.5551937337679468,-0.3552157077608621,-0.1427009030021235
402,10.8458740570475,0.9616419714552102,0,1,13.742095118878385,-2.1057188423872035,3.5517768174842184,0.8233208154692698,-0.08583894835585085,-0.00904780497402851
403,10.588713578570903,0.9701465016304877,0,1,10.655332060859065,-1.5739350302850816,3.441028807140013,0.9495168471987739,0.063297550804765,0.08016566283261033
404,10.330129064624645,0.9776254574871093,0,1,9.697706902480755,-0.1840662295374725,3.2444459708710833,0.8774451831096696,0.011970292179966613,0.2551289526857411
405,10.08505690396822,0.9804597548894967,0,1,5.054110094677158,-1.319778801254715,2.8372967728590415,0.6808065246382701,0.05366258313558239,0.15278308072241645
406,9.863762548760363,0.9744686148988116,0,1,3.724490747589793,-2.7202811211102533,2.0994905919864792,0.8024010252506403,-0.6370192030890359,-0.30614436019004493
407,9.670325318164158,0.9556850702696748,0,1,10.231743131947983,-1.88639660902564,1.6396651732535263,0.8864622357874556,-0.8291753375512732,-0.11850398851512706
408,9.50301059990058,0.9211612000734962,0,1,11.516611067650475,-1.9845850861904353,1.430140097457104,0.955341977888928,-0.5027552973847964,0.1237385046015158
409,9.356452666718411,0.8696481236141571,0,1,10.732065458285739,-0.6802858202709661,1.4799674602203636,1.0032888183533009,-0.27830278522737706,0.14630420648978415
410,9.224805520884807,0.8020131613683296,0,1,9.666326628734698,1.2939843255668924,1.535783135963221,0.9393890318153305,-0.10317532529630438,0.20329165544378436
411,9.104757496266727,0.7213111593241186,0,1,9.414989823410444,2.466844575763237,1.497895865473513,0.7515122361135521,0.05962949578885441,0.20675339448612298
412,8.997564230406185,0.63250048397625,0,1,8.529670811080617,2.3705261961893767,1.2103254545458677,0.5272436873072326,0.18984218682807308,0.13822702300535944
413,8.909727929830373,0.5418647127838624,0,1,8.379314485105608,1.6898888245446857,0.7091833545264884,0.33748356159953247,0.24881478496437578,0.10846539791709796
414,8.852357968537934,0.4562525783884461,0,1,8.844738535928025,0.9326008307854406,0.09783659358563107,0.17813209858384904,0.2818890921246322,0.06654130890780098
415,8.839488096522777,0.3822714459119973,0,1,9.033422132861473,0.5161842836863473,-0.08451140598097219,0.04788937696197066,0.28338970875851965,0.027283570589183636
416,8.885719414562754,0.3255617777238888,0,1,8.555879642412915,-0.19388652411630697,0.12453255959305455,-0.11001933011611252,0.1880480756080471,-0.0031680364856864307
417,9.003569693144609,0.2902491542529759,0,1,9.184144030907861,-0.4374810736631362,0.39929199912329216,-0.17660292111954376,0.05628802863203743,-0.03298707082777897
418,9.20089847066533,0.27862790502362084,0,1,9.478052229284586,0.1464125183731865,0.8707488633747584,-0.1978413702097565,0.035382466767587765,-0.1153316647367473
419,9.47877184132686,0.291085431307493,0,1,8.512562781031578,0.32325306198796044,0.9064601720459666,-0.31317408531885443,0.0012784769225166737,-0.2325077305036605
420,9.83012821341497,0.32623595399028066,0,1,8.204880903108439,-0.7739732933609147,0.29564322940059806,-0.37535458908448927,-0.15128504923475872,-0.30291799678064546
421,10.23957184038599,0.3812058680814855,0,1,9.27623864205105,-1.177526230594866,-1.1903548003974247,-0.19387445199808856,-0.312890452487979,-0.3189964403462851
422,10.684488057861529,0.4520104398992275,0,1,10.521885089739829,-1.7634069149786418,-1.7247977622108457,-0.048271170028341984,-0.4537844890615523,-0.2550407605286162
423,11.137406448503128,0.5339857199284566,0,1,11.331082948464456,-1.6071618794842673,-2.7494589647703314,0.054409095387158865,-0.2115061432668786,-0.09699390095872351
424,11.569206603745437,0.6222763719063035,0,1,11.056148193107564,-2.2308453204269636,0.1748130739029123,0.220220867181704,0.006314818721925366,0.00702428810780728
425,11.952509261313287,0.712400946595538,0,1,13.686474002789,0.156517163042344,4.584469336387384,0.1753501241499712,0.017271634650536976,0.3125507839754028
426,12.264529465857093,0.8008920939709101,0,1,12.545026548230508,3.9168322987193793,8.461327001167552,-0.6342423010257776,0.17326559650041246,0.8174754943146576
427,12.488833133383302,0.885935675267288,0,1,7.929374701823464,5.220120233707574,6.273215894104416,-1.38492500402245,0.10923428867543811,0.7127536643641603
428,12.615840708737212,0.9678475026450761,0,1,6.139204350317267,2.716877017777711,2.3805153121631584,-1.4379660072193505,-0.1442857716013217,0.14233269348749464
429,12.642427023443844,1.0491950672987607,0,1,11.115673488482814,-2.159430825712708,3.796665453708807,-1.2346742373187836,-0.4543968056369186,-0.10756095593872457
430,12.571235808311554,1.1344374292313737,0,1,15.28214775123477,-2.3169688719864583,4.1757401640788565,-1.066195315462698,-0.17652982076675944,0.0789028888137406
431,12.410115809365806,1.2290999518371046,0,1,12.103137035640035,-1.5638253298732838,3.9631438905818643,-0.9837081550866944,0.19611594519614137,0.008853887911458564
432,12.171607640245911,1.3386531132823802,0,1,11.191330414792375,0.4810001767320509,4.307522696999829,-0.9089643946762278,0.26846578115515435,-0.10846630932983803
433,11.872139789984969,1.4673593168666648,0,1,11.77603359913862,1.8565902564853747,4.262283126186174,-1.050908375904258,0.30680718930797884,-0.05084543271996486
434,11.53071086209494,1.617358872086312,0,1,10.95660312640641,2.17492613610121,3.75366663942003,-1.2519857271723418,0.42474153747083626,-0.14180206184853775
435,11.167134590272626,1.7881945060344295,0,1,8.880532910881348,2.975555467216622,3.291350134811754,-1.51636776925679,0.4862700120383633,-0.24625629894578507
436,10.800163954160757,1.9768533953048881,0,1,7.869007060971705,4.0617003454074405,2.9522583556549407,-1.8934552943906724,0.31205912271591957,-0.38052899052490285
437,10.445902133515657,2.1782742128916905,0,1,9.62116026915899,3.5768919504061363,2.5059447913375577,-2.3219713589748996,0.16401796691902792,-0.6555427627329379
438,10.1168294395615,2.3861583535032356,0,1,10.362139003577218,2.6253655451054527,1.9454652840701696,-2.5865161552642255,0.27337805761861295,-0.8291085518769278
439,9.82155728854635,2.5938656541595217,0,1,9.372793300080211,1.7444207834396592,1.4225445696555736,-2.7550066301277805,0.34329705276400607,-0.8509031801616751
440,9.565188046682783,2.7951801134526,0,1,9.622793132672333,0.36219413474238815,1.0790849693706803,-2.802000881356393,0.3799574092507129,-0.8643769555387365
441,9.350041162571062,2.984796475043986,0,1,9.506352421782001,-0.5028411660647594,1.1148128305018175,-2.8488981906553406,0.4636701789983783,-0.858771709897285
442,9.176512376800614,3.1584789006116614,0,1,9.186204269000088,-0.39260455307088116,0.9469504032099261,-2.9023716326128555,0.5112676886788995,-0.8712174953480218
443,9.043891892770802,3.3129416238984843,0,1,9.053958383203891,0.4870763872138291,0.9129624041251335,-2.960412927182075,0.5144629196544388,-0.9289141552574129
444,8.951027907314574,3.445567738906022,0,1,8.81184235412098,1.0428591819016875,1.021815878132973,-3.0857084967136648,0.5099666987550338,-0.9939448007187216
445,8.896774401915556,3.55410271930514,0,1,8.792034968259673,0.9613836397299798,1.0881575097518856,-3.2098477967936656,0.46366403969337194,-1.0857676110967576
446,8.880204239719538,3.636437691453803,0,1,8.742429448491283,1.0634627491756279,1.1140142933179993,-3.320003631421323,0.3988812227435681,-1.1194200868128938
447,8.900595110699083,3.6905483902233605,0,1,8.583900769498241,1.1817187903802175,1.2171129441484154,-3.465337641044907,0.3374031813409588,-1.2010716747638592
448,8.957206769974452,3.7145971439219037,0,1,9.179775033256506,0.6609729516017339,1.0563322350169138,-3.609847199134258,0.32483552730632936,-1.2662516837493236
449,9.048869864648113,3.707154117654259,0,1,9.345095440737698,0.5543678132607268,0.9220312146711326,-3.6269353604611982,0.349486764178328,-1.2432248339130698
450,9.17341340052713,3.6674643304976224,0,1,9.291759093948917,0.13762459243107936,0.9631130917951652,-3.5436870258985036,0.345088407602728,-1.144797741773145
451,9.326989625718717,3.595686348388539,0,1,9.207235027081836,-0.5863735733349157,0.9111234787121767,-3.4516872692183242,0.3577774972485422,-0.9923005830615231
452,9.503420070929243,3.4930532706539683,0,1,9.04620345351738,-1.2429453091474607,0.9158733227642097,-3.331487773953086,0.3866747833898013,-0.8669592225597051
453,9.693760966146202,3.36194148047613,0,1,8.685895815534641,-1.3241119193118045,1.26928303657233,-3.160992630611848,0.3906735449762501,-0.7601822438796838
454,9.886320729543991,3.2058598704616332,0,1,8.716658480920158,-0.6506020452101958,2.5325615703279185,-2.9877207141753956,0.4200690509527815,-0.6964344140876104
455,10.067310206347322,3.0293811064962903,0,1,9.227879644819637,-0.15634208257829468,3.7508597985298215,-2.9332976805743467,0.4389440742059534,-0.5837534275143981
456,10.222155155589586,2.8380262439422355,0,1,9.813843771690491,-0.8592919467932131,4.060548174535908,-2.8883964616541578,0.4819786011905623,-0.5223790203328177
457,10.337293563321527,2.6380934860308405,0,1,9.874955383078857,-2.5950368466842773,4.3607047832058425,-2.6900949761868045,0.5291648456856554,-0.518417688888191
458,10.402109872278096,2.436407096263435,0,1,9.462960347414908,-3.436588546661896,4.306739282026671,-2.4191223386883465,0.606584993310011,-0.3553925831882143
459,10.410610278785253,2.23996833398529,0,1,8.298093074871389,-3.372388083184429,4.185142036709823,-2.1694167855759385,0.6118112268652893,-0.19510740220840678
460,10.362529994456121,2.055518946892495,0,1,8.881861383275437,-3.127253033526589,4.038293882064644,-1.9089973277962569,0.5002543178680735,-0.2104385351020692
461,10.263709707199322,1.88906582090074,0,1,9.865511858574507,-2.7044993952349214,3.6226603775723967,-1.6519552768218242,0.45305664038131055,-0.3502081977448892
462,10.125691255027744,1.7454434140442927,0,1,9.93468332719404,-1.941131372503248,3.23937609409104,-1.4860465553536815,0.4573748871459571,-0.3845963652391415
463,9.964540537570507,1.6279948193315872,0,1,9.747192851351576,-1.677671224895451,2.852672778405599,-1.4170183533525482,0.45914770664087146,-0.36844366106082205
464,9.798965473065355,1.5384299650703794,0,1,9.369098283240222,-1.7110491456808032,2.5451280585591713,-1.3593951529472834,0.38984934850331476,-0.4390539507903098
465,9.6479071981848,1.4768782678013976,0,1,9.182530764080216,-1.6087208599015934,2.4861144211423083,-1.3620915353696332,0.2739659237733689,-0.5298905328526555
466,9.527924552772326,1.4421068453649735,0,1,8.734487397228964,-1.5540630395779162,2.0954987784628822,-1.4104155711865536,0.17105233501167802,-0.5524531132611058
467,9.450806502624092,1.4318381037033465,0,1,8.307297628286056,-1.5448866941238515,1.5091397434074967,-1.416703802637011,0.09058232730362688,-0.5773388726786083
468,9.42188435566559,1.4430817551617174,0,1,7.669577278636696,-0.9380016348405203,1.422588738285516,-1.4009455766100491,0.00040610691378318805,-0.7027554581089643
469,9.439439219773604,1.4724001395157436,0,1,8.417359981140487,-0.7316344785171316,1.5387147232878988,-1.4283575906568222,-0.19850838629399334,-0.8183474866230869
470,9.495385651914308,1.5160512065609835,0,1,10.241579071492197,-1.0644197469286336,1.5861166860652545,-1.4111797429902704,-0.2636364930009226,-0.7733535382633677
471,9.577086633960683,1.5699962715198175,0,1,10.596759214801525,-1.4575061161491394,1.9022410680890438,-1.3094013352332614,-0.1734918371828478,-0.6999189376010228
472,9.669838739138177,1.6298113335202977,0,1,10.108944933250438,-1.3859883426543642,2.32234199402921,-1.274817258784098,-0.0789200506910126,-0.6515304718827678
473,9.759424941447296,1.6905862820455766,0,1,9.535701491673857,-0.8777238796488167,2.3978790713190685,-1.3235485398756763,-0.026636580955972437,-0.6388237979262174
474,9.834238491558759,1.7469159305081914,0,1,8.97356177454118,-0.7872739694916978,2.2891483404543758,-1.4332062731027064,-0.020156532875729927,-0.7277242592391251
475,9.886739419626231,1.7930677652802685,0,1,8.781512098882848,-0.7963726477409102,2.6949624596535684,-1.5529223805176773,-0.018877193615582585,-0.8021184291522769
476,9.914234911901012,1.8233592097371303,0,1,9.380969639093736,-1.1880238194992747,2.910430240719882,-1.6499695287307563,-0.03768535693685722,-0.835893877867012
477,9.91905718331005,1.8327137069822397,0,1,10.595882061722765,-1.343488377272632,2.7478697222891078,-1.7356842297503774,-0.014623437294962044,-0.7829331475717725
478,9.908166540047391,1.8173136705222688,0,1,10.45419349292472,-1.676631861532838,2.0215942534548774,-1.7564664522350601,0.06813986530819979,-0.6892235079870999
479,9.892156078869748,1.775242564746408,0,1,9.55917166315507,-2.1735571463481373,1.314973972151161,-1.6720512154432425,0.06624853777351895,-0.6575028352355802
480,9.883693018151833,1.7070077750501818,0,1,8.62284801932331,-2.195489249775527,1.0390344664673863,-1.5874351559551123,0.06067396054003107,-0.6764025686212541
481,9.895596473423351,1.6158513097873772,0,1,8.465634669035532,-2.5313154191039335,1.1801663969317178,-1.5682368231037607,-0.04996483309725118,-0.7528743554031759
482,9.938896683527016,1.5077767253206436,0,1,9.509106236001783,-2.450480206091105,1.408959037363666,-1.491688784135596,-0.08276841058832152,-0.745476572190938
483,10.021220132012367,1.3912447961205143,0,1,9.656643191245264,-2.5202922373500196,2.1829804654780087,-1.3798508223228256,-0.024223753884236237,-0.7234814058862874
484,10.145695426439433,1.2765224049262685,0,1,9.382189967615737,-3.4445278932346426,2.6545229491684483,-1.254254531340457,-0.14516111146287003,-0.6948249330719006
485,10.310389093287407,1.1747149708624338,0,1,9.251482162553927,-4.764877619183248,3.167079818393865,-0.9885391128295303,-0.22421813685107012,-0.6044805204732872
486,10.508175519456948,1.096570452265091,0,1,9.61027598601204,-3.540292136961641,4.121876724446118,-0.7526861767504871,-0.19104578830360242,-0.47006738689047095
487,10.726959404780738,1.0511992892156787,0,1,9.255655934498701,-0.8172767891018808,3.656638905466422,-0.803015885444258,-0.06297895561710827,-0.38914236886018055
488,10.950265232322106,1.0448899056329692,0,1,9.150807181554752,-0.8060378075172461,3.305656661170871,-0.8311400036531129,-0.06235545861277932,-0.475986265837402
489,11.158304490373048,1.0801991959991126,0,1,11.115752076436538,-0.9596985939005745,2.9661244363872,-0.8013722266842643,-0.2226982470802645,-0.37054345536457756
490,11.329638908872248,1.1554632128078657,0,1,10.842050762942465,-0.7055950638131477,3.1317131576659234,-0.9356677981730867,-0.11384483071626937,-0.18263687384379695
491,11.44344992647266,1.2648184998460084,0,1,9.628329021402662,0.3299457890939874,3.264996291259979,-0.9996666417279818,-0.0673894124540969,-0.11087069929273694
492,11.482257332172809,1.3987596387797911,0,1,9.514960155994475,1.8570457097709516,3.395716016057379,-1.1953064455880549,-0.17772402305188822,-0.230269130277621
493,11.434753653194146,1.545185063098253,0,1,12.17795976220728,2.5919954631388618,2.8404296096778348,-1.4937786326525662,-0.3394062247572381,-0.5583519471777604
494,11.298229497856369,1.690803873621948,0,1,14.784671907481046,2.3385451180342316,2.2026103775169634,-1.669242689181744,-0.0791638683737712,-0.8442393164154006
495,11.079910666028143,1.8227064179482264,0,1,12.060773673838627,2.183263689240307,1.9233817247042289,-1.6925377998915614,0.2871028516090605,-1.0664887593628378
496,10.796593364314754,1.929863856544186,0,1,9.69023766285857,2.0485474374506447,1.9221978978870953,-1.8007401158769496,0.26460890695059336,-1.1835084121306079
497,10.472377098681902,2.0043316219937446,0,1,9.55083184553681,1.0055052359089207,1.5835893155328749,-1.9287176889079127,0.2855188334088788,-1.176678619234713
498,10.134902923703669,2.0419855837339056,0,1,9.256800353203149,-1.0716875431866126,1.360795134338104,-1.907160567814879,0.3895960246516413,-1.098919042228684
499,9.810972885900984,2.0427031757612837,0,1,8.658572641689469,-1.636785281243164,1.5795256663378556,-1.7730497868296808,0.46437549941949313,-1.046630069783856
500,9.522552561291844,2.009997761386809,0,1,7.986502236079828,-0.9538790921865397,1.67358629613213,-1.6319811166796176,0.4634427684037278,-0.9482975869568533
501,9.28398661538011,1.9502052147361222,0,1,7.885609116402053,-0.49830814718481237,1.7480475577649905,-1.5168107011628158,0.29108787255460267,-0.8837303684703087
502,9.10092158398309,1.8713879180195043,0,1,8.570518044830814,0.4200380412120907,2.028080435010546,-1.4569583515242728,0.12195872529279671,-0.902406236512496
503,8.971020973427294,1.7821485443206149,0,1,9.545368120960136,1.0636099723129409,1.9332135440826763,-1.4119305626387368,-0.022101496187989313,-0.8590992682774701
504,8.886148319486677,1.6905319500539686,0,1,9.47596462019229,1.1552129625306502,1.8343990499667264,-1.3898011856986194,-0.012813274571828405,-0.7447617766190796
505,8.835390698568958,1.6031494761937706,0,1,8.961763089852347,0.5359085079949284,1.8117379639032933,-1.4383397884087763,-0.051567413461948854,-0.6007715348693841
506,8.808193605987405,1.5246035064679155,0,1,9.297997566924732,-0.38015517539364835,1.5544788635589863,-1.440578369807253,-0.04855692507723675,-0.468589534044992
507,8.796980354141589,1.457236562419496,0,1,8.858706887349399,-0.9240724174214914,1.54893256530483,-1.3884234326647764,-0.02096431792702892,-0.3839446947957577
508,8.798845755934993,1.401187552343371,0,1,8.682110249835475,-0.5132582081604526,1.5463382493758657,-1.33863140629949,-0.04973156077999049,-0.3444880391423957
509,8.816144501355994,1.3547105111148876,0,1,9.004673906997539,0.145099992996664,1.4804055150365294,-1.298858081522656,-0.04714206980557045,-0.3125853013787825
510,8.855985753461566,1.3146953299614537,0,1,9.009308836074426,0.22946120682829851,1.2386770112505243,-1.27044452591062,-0.023194801307112257,-0.242101869438516
511,8.92878774775979,1.277320194283303,0,1,8.752010296132017,0.2805975815039503,0.8625141943649418,-1.2887235557366317,-0.05788960915967664,-0.15500723978591688
512,9.046151244718693,1.238757926069243,0,1,8.807760907701754,-0.3208528084871436,0.5237198753552038,-1.261034135029059,-0.12868268451417694,-0.12448923635879475
513,9.218387559326503,1.1958529585102662,0,1,9.09219684211377,-0.25940635892083386,0.062054641106570975,-1.185497224947287,-0.21977857427143638,-0.1323470852239923
514,9.452077449587254,1.1466844255636106,0,1,9.098879473794153,-0.08657155924926792,-0.22785165168853402,-1.1800653288232552,-0.31796748031253413,-0.08290077184334729
515,9.74802779460552,1.0909360274406392,0,1,9.124437856358346,-0.37150255226331497,-0.8513522862583126,-1.2216666938783618,-0.42716801183448366,-0.0023148185226837745
516,10.099932507606013,1.0300073594098786,0,1,10.0142929567039,-0.07345399062116778,-0.9664623622805419,-1.250505569010214,-0.45004099508119716,0.1084714841917927
517,10.493941383148043,0.9668299296908224,0,1,9.986694564490273,-0.8069522317564217,-0.8631768839930323,-1.100926101592491,-0.28814156349168224,0.22418619659751565
518,10.909208745503898,0.9054014687217045,0,1,9.330649605110274,-2.4597024427788696,4.877292359689823,-0.5396534899107611,-0.1874348483584718,0.294649420422288
519,11.319356602248257,0.8501208223299763,0,1,9.281514179129347,-6.056668006897355,7.774688216393387,0.030536506816219087,-0.3311079270000227,0.042539424382286445
520,11.694685140271282,0.8050655776600497,0,1,6.626327553480901,-3.0752335026196347,5.37859542220901,0.31307166938636266,-0.52778738965968,-0.051198584499333934
521,12.004932953585458,0.773365818588409,0,1,9.915030185140903,1.0984487571762598,4.183357027561638,0.19037729177665916,-0.9156158336132247,-0.30976818600378425
522,12.222398592115804,0.7567753815012953,0,1,12.439665876326103,2.29477862692233,4.8125305946876225,0.15529517220665012,-0.5019955761326739,-0.7282608534893875
523,12.325176920995265,0.7554608723124225,0,1,10.085802653406596,-0.4449913033471465,6.714951292924324,0.1357925619975508,-0.29201673076588214,-0.6785370349382701
524,12.300097399080371,0.7679730586124897,0,1,13.15200289090239,-3.2038729036969205,4.997366525637938,0.2918509356828262,-0.3647497136865768,-0.6989606777302894
525,12.14480499361464,0.791358522348582,0,1,12.187037239344038,-1.8007444058454767,3.8067447309455624,0.4188126296219851,-0.1726045460460048,-0.5105554050438528
526,11.868467700878572,0.8213919611210775,0,1,12.116608420502128,-0.8947489416849002,3.3880412333966956,0.5471037545989704,-0.3532706772086531,-0.13988211625630972
527,11.490863323480523,0.852929230078398,0,1,10.52235749020832,-1.3549584287243943,3.3087803022970332,0.7682321241299022,-0.22341656270764415,-0.03849365779324209
528,11.03998610151661,0.8803803048592638,0,1,9.367156799931815,-1.6989693425661323,3.192330228028564,0.8289152863892327,-0.3805781967697601,0.006590661179787013
529,10.54866150393126,0.8982799634854604,0,1,9.730054253076863,-2.029295503397112,2.730809085841013,0.790288325765821,-0.31687329697145183,0.364537429785763
530,10.050836273034776,0.9019048874179422,0,1,9.230416544002258,-0.8908576490848207,2.6142469108286726,0.806997889508652,-0.2867842999837639,0.35183652926920506
531,9.578187740425841,0.887864789599436,0,1,9.085890359406504,0.26820390596482563,2.207853089740705,0.7831469913136663,-0.2542662853498303,0.3853615871112607
532,9.157538150095297,0.8545893086621014,0,1,7.57133362484295,0.46701727885098515,2.3053604375273635,0.7311854801562577,-0.24353947767285627,0.528877563148336
533,8.809355258642892,0.8026387554029363,0,1,8.010016911905884,0.6688291260684196,2.023401641038133,0.6212781979370338,-0.29756913585239275,0.6039914379774288
534,8.547403948924835,0.7347808673789668,0,1,8.938197000944742,0.6367579615830771,1.3191408812734575,0.5500057619591234,-0.1592337670068478,0.6375449270482012
535,8.379381228921853,0.6557977390157879,0,1,9.207468758845607,0.8605945404233647,0.9868333476800891,0.5331713954347385,0.050288948905911283,0.5294358926536019
536,8.30815592558462,0.5720192641676906,0,1,8.495118214340541,1.270458507153618,0.7688205577085508,0.4732129257858102,0.15897622376139428,0.39918180508271783
537,8.333133086277059,0.49062033942116956,0,1,8.740880749918087,1.1614061698345688,0.3747238719958294,0.3514153730539878,0.17679239592491494,0.2653238386753376
538,8.45132354695905,0.41876197392100734,0,1,8.55381668153074,1.3705065662129952,0.22540679111341796,0.2282056018122794,0.2183791625914035,0.12722221408836223
539,8.657876930543578,0.36269144687436256,0,1,8.327461678724887,1.5305451862198793,0.6734212560580177,-0.0028949701705650553,0.14435090873585082,0.030261432760770805
540,8.946038622582856,0.3269336596247171,0,1,9.452051307861277,0.14369144132975634,0.7370244723201641,-0.26092057864180007,0.11195722262376742,0.009177674226957635
541,9.30665410795687,0.3136981473316868,0,1,8.95294347816179,-0.522601966123329,0.11485533627040788,-0.18626804805171143,0.11998665773142356,-0.08107750212948989
542,9.727452522328878,0.32259528751499156,0,1,9.106887619545187,-0.12610528992260606,1.0319775989121622,-0.08096567737608962,0.06841930027763884,-0.11442361630490908
543,10.192399382708349,0.35071078011810536,0,1,9.396453912480085,-1.1544886015996851,0.9875232100856804,-0.1394828861702482,-0.0884891490506782,0.002876111796274248
544,10.681406491629525,0.39303857275707926,0,1,10.556871629550825,-3.121860644724871,0.02187486501626462,-0.03665684216679643,-0.28202594147650834,0.12746375042022776
545,11.170611603646885,0.44322045121939474,0,1,11.559092237749722,-2.5366865903599902,-1.0727687329640572,0.39480063122653036,-0.2584943266769948,0.1666701552661893
546,11.633318417466844,0.49448589116002295,0,1,9.071990746554768,-1.3082082627664358,-1.0665087960499398,0.5485119223844228,-0.0586161376304081,0.13984071927347685
547,12.04157276143135,0.5406383659205071,0,1,11.361628116574574,-0.8793478538307228,1.8936216408210036,0.7694584846967952,-0.4126595974260652,0.28013044145351934
548,12.368244754497567,0.5769118091515898,0,1,15.154629004290616,2.8972569687931706,4.1395966557007196,0.5580759235381612,-0.17042455184115962,0.6282862541259939
549,12.589355463994,0.6005383168096392,0,1,10.20969209065223,3.3179385429273753,7.020275968026953,-0.05429868852221152,0.07085355555754973,0.7059124712773813
550,12.686296497137137,0.6109284116389313,0,1,8.569750464175469,2.247951385898671,6.780595590854896,-0.38543007397103796,-0.19972960428566805,0.481913225568725
551,12.647672790772141,0.6094535010823035,0,1,9.296876769303129,-0.047494404584879274,3.803505580824798,-0.3450845056142701,-0.3483461249978083,0.2787577186633833
552,12.470699234332798,0.5989077443394034,0,1,12.450432082535668,-3.719234990208271,3.2264537568868206,-0.0399132492246821,-0.43140498817077344,0.16177453356186874
553,12.162147798795344,0.5827865106049015,0,1,13.669765476782635,-3.793065442618265,3.7160853434188983,0.26277296062459965,-0.13966280277206722,0.2077470386498108
554,11.738669372477487,0.5645389417815821,0,1,11.938362290143768,-1.4753008675262087,3.4688198465873445,0.3555643710204112,0.1286604398615852,0.30909872959961715
555,11.226130331700151,0.5469350360305023,0,1,10.693867132732814,0.5187626179611099,3.6251744499761043,0.3310929932398633,0.18317772684631978,0.39040305138451387
556,10.65768228494233,0.5316449190653583,0,1,10.949469742984359,1.1347567834351155,3.538398792885453,0.1921763450550922,0.16990614523290343,0.4215852373628575
557,10.070625027793454,0.5190777914882255,0,1,9.609561339516924,1.0506622547654416,2.693387848717243,0.07009157288044217,0.3025365559640139,0.3309573343039024
558,9.502518512798785,0.5084864030398305,0,1,7.070010619975693,1.4513656924101392,2.5672827773751528,-0.0852605526090341,0.26094407369791284,0.17255209214408226
559,8.987274996942613,0.4983124143665544,0,1,6.448673497783121,1.7727162856260452,2.427088340441392,-0.31351176674713377,0.10239662082012066,-0.04033849610090793
560,8.552033349237409,0.48671829490505947,0,1,6.217016998471747,2.096453310198394,2.4378449950804217,-0.5173653754646821,-0.09146897776786188,-0.20187883937895593
561,8.215427452779537,0.47221341848071635,0,1,8.329196484104921,1.5168773198449423,2.1367399718189803,-0.6585311420670988,-0.1864768510520445,-0.393278906076784
562,7.987427414096751,0.4542433200868835,0,1,9.095456959287302,0.780174853293059,1.9365747904345807,-0.6218331500201011,-0.058014455549500354,-0.3879961309665565
563,7.870426811483103,0.4335961591396228,0,1,9.062480640776702,-0.49385750410998613,1.8286275449534646,-0.5515505782042619,0.043394025003292806,-0.25765861630411974
564,7.860922874816249,0.41251098563108435,0,1,8.29051475643684,-1.7624493121595082,1.5077369858609153,-0.4105633602166577,0.21952117204439944,-0.1242362853226704
565,7.951139787494805,0.3944451090016243,0,1,7.264985229668341,-2.2242205767462226,1.340188554966764,-0.2556308801313508,0.2266235764935658,0.024629512827853636
566,8.130223990497512,0.3835444109474821,0,1,7.126394179147885,-2.2439965707487377,1.1554333689167045,-0.13013898405690372,0.21388255848181578,0.0888458912432712
567,8.384995773194921,0.38392850007964835,0,1,7.587782431678681,-1.2177682444376512,0.9766345137399899,-0.07343277277670644,0.2430818380184451,0.11969971340549011
568,8.70047898899591,0.3989343805493577,0,1,8.080928921448029,-0.27847243417609185,1.0905490313274127,-0.114181204957392,0.28047983698986345,0.11145312777821396
569,9.060468092231444,0.4304580671391792,0,1,8.841918092254152,0.47056614151630993,1.598133450828866,-0.19815605057183439,0.2831829464268111,0.07016201729202953
570,9.448267077948266,0.4785052447572974,0,1,9.185951144321283,1.0593320854637425,2.284435972356886,-0.33398636764534584,0.17532433226778876,0.04329428600420643
571,9.847548536734898,0.5410237151333589,0,1,10.587553846564413,0.8872652383964149,2.348423101471967,-0.448755505605719,0.05412693709861698,0.03930859953412494
572,10.243135476119296,0.614050654366146,0,1,10.877050854523937,-0.78142998675881,2.069445619566532,-0.5184157624499328,0.12117136553783885,0.12531304365600446
573,10.621478199607944,0.6921686172964937,0,1,10.521883504639794,-1.1439382087751415,0.9897505268224406,-0.4921559745493325,-0.03909560507592914,0.1476603857028519
574,10.97070764897611,0.7692243916007607,0,1,10.25635789180822,0.3486162391466804,-0.43960217338358965,-0.5657747371121596,-0.15874741643687415,0.0007051348123107668
575,11.2803425799172,0.8392217473323841,0,1,10.350030761642408,1.6265771396781186,-0.922265716716894,-0.9699899883294183,-0.13391535442598188,-0.09479713578934916
576,11.54089351736775,0.8972528646936697,0,1,11.90972613147427,2.5481687375884894,-1.037276118189264,-1.38755155850545,-0.07242433447033768,-0.1616353671270197
577,11.743644140040068,0.9402960903373926,0,1,9.986957524549801,0.8271176609415929,2.0551128170630375,-1.3196547733894077,-0.009852647894020353,-0.11686557256462213
578,11.880799495329734,0.9677075440964569,0,1,10.013962929056504,-4.4274008562942715,4.069456627670646,-0.8987536694321002,-0.28563633627850393,-0.2356503409198496
579,11.946036318041171,0.9812919400889839,0,1,10.201579801428455,-7.399607267609755,6.611150881437808,-0.041911693204024006,-0.2886636902844828,-0.6429436128373017
580,11.935341032169028,0.9849366130735572,0,1,7.854900569898352,-6.563223598624782,6.731456652172141,0.603602107934029,-0.32690931609878837,-0.9096180640355898
581,11.847946793320633,0.9838829309799153,0,1,7.2133361603089945,-3.515612197022655,3.847992907547487,0.7405906647059817,-0.4361227250426881,-0.8688815134507665
582,11.687224022666669,0.983757858445954,0,1,8.81615430211125,0.25350846671322996,3.529948224713614,0.5620561386541726,-0.5827496457731166,-0.6087245075604681
583,11.461432809103975,0.9895081426145642,0,1,12.943484641100053,0.8161451854093829,3.7761574178806123,0.4106963237848973,-0.6190130349306384,-0.18464453029809183
584,11.18411954923263,1.004399016980262,0,1,15.85266350339947,-1.0111300109743635,3.4880932116652397,0.5044942139114987,-0.30052538738233825,0.15170211310030696
585,10.873677609222655,1.0292568171728174,0,1,12.831585334957868,-2.4613157660331666,3.4871070745732986,0.7401719615309026,0.19337511245194894,0.1588028824245982
586,10.551566540063993,1.0621203373776218,0,1,8.502768949519998,-2.5013798752387193,3.2803523708971305,0.8647930509553323,0.2583744538738584,0.1112081488612316
587,10.239191313027199,1.098400740719351,0,1,5.324284399907352,-2.706133111570594,2.636299725251446,0.8681510809447287,0.12624730602363396,0.09425413719518898
588,9.954264472078242,1.1315491087511056,0,1,3.1656822066365407,-3.0960155314995492,2.2003287268654614,1.0210562567497117,-0.3463260695246532,-0.20480495689498077
589,9.708000221385593,1.1541254507123901,0,1,8.17800010843472,-2.3778770561399134,1.5217073895045685,1.171869593540398,-0.8267043861659327,-0.09034030535714818
590,9.504267981903883,1.1590787591795242,0,1,11.65198473950179,-2.688415227672036,1.2766558753515456,1.2365482169378224,-0.601034972972836,0.2172847009413893
591,9.340968792506668,1.1410022915295783,0,1,10.809518947446717,-1.663674957521896,1.288856520460303,1.3149410420798204,-0.3233493426326899,0.34955458979705134
592,9.21295533083801,1.0971344661658329,0,1,9.786025990829831,0.5673842619211128,1.127537166003053,1.3096938314138897,-0.2034142816985933,0.3138840279889446
593,9.115341659925758,1.0279334174942987,0,1,9.386709890190112,2.2056593572753886,1.1682325809413843,1.1431984878198251,-0.04103569262976771,0.23269807407864854
594,9.046159937090257,0.9371448302966972,0,1,9.041923860810883,2.410015107832562,1.050593609566337,0.8847579348353315,0.09687938304939382,0.16376477517913218
595,9.007745097228437,0.8313823363109928,0,1,9.255046773418087,1.9940465045663405,0.808232921689448,0.6441282629547718,0.22785498736914098,0.08982008799442247
596,9.00665750611297,0.7193227941523602,0,1,9.225911437702548,1.363250956469982,0.19859842041444692,0.45860364093241707,0.3699491690562362,0.06160299639634247
597,9.052271999177027,0.610666362437252,0,1,9.090159779141246,0.7958898672099878,0.01736739407884609,0.3717535879948661,0.46577443342615804,0.0496371767509415
598,9.154390654712827,0.5150176867125499,0,1,8.851392463308043,0.4213950737170099,0.40572792428591026,0.19623804818683463,0.48454675044408296,0.039690789702499965
599,9.320405188085104,0.44082188934052424,0,1,8.60564791304341,-0.8290038125328635,1.0405708732185444,-0.03597617829666209,0.3961356400269174,0.030184158541282837
600,9.55263347135299,0.3944587593794535,0,1,8.35968175904409,-0.40951661755961904,1.9231030057359213,-0.06640786594339043,0.2613469078348539,-0.0439036617025671
601,9.846451629035066,0.37957423401683027,0,1,7.994948614792421,1.051871764881742,2.251606972048803,-0.14144956058968228,0.05296514925788428,-0.1820855004019887
602,10.189708814000161,0.39670785356090227,0,1,9.083568248710158,0.6026777248502113,0.8637546696275817,-0.33373772965597726,-0.1162762644786344,-0.24027826425556795
603,10.563636267014033,0.44324963136568357,0,1,10.65185514881215,-1.4731608564051701,-0.7407429603201307,-0.20339073499985544,-0.3800941025428508,-0.29932004244669125
604,10.945081650392796,0.5137290899514317,0,1,12.575321114487263,-2.24659820630184,-1.5157685057489065,0.045154376878832087,-0.1694856157900932,-0.25846094342196135
605,11.309525399072793,0.6004116489343676,0,1,11.047031054437245,-3.2730102564386967,-1.4275898147259765,0.40061885020122756,0.027606403268207763,0.03318378577664812
606,11.634127856980406,0.6941561763192559,0,1,12.040754905019222,-3.8771076357975764,-1.7569080452261483,0.6933037041900458,-0.13031888193181435,0.2194483320902469
607,11.900111069791857,0.7854630450625815,0,1,11.356308107581853,-1.2780584077884463,-0.6759868026041688,0.7799864335013236,0.35179502226264175,0.15484163151735217
608,12.094044111847781,0.8656082267455755,0,1,12.931598770445678,3.2365763835593184,3.7529123989981423,0.38418811617296994,0.3109068734307539,0.4306318428795328
609,12.207936381750796,0.9277251330798205,0,1,11.474516538486755,5.4108865709641965,5.592679371024276,-0.5269741807943011,0.5028704131720171,0.9291224144739729
610,12.238367171877082,0.9676754284281581,0,1,5.049318867765287,3.295767436918007,6.782260935988043,-1.0966084979698008,0.3972242727597499,0.6261483800506396
611,12.185180955020924,0.98454986072346,0,1,6.852786764706617,1.6950287866687777,4.910298288447921,-1.3150535844502933,-0.11513537049645467,0.44376778656151156
612,12.05046712093764,0.9806703683242889,0,1,9.841443252996719,-2.616083360196037,3.7271766956453924,-1.1850308971024326,-0.3142479968010169,0.5415946526726599
613,11.838411697522785,0.9610396358865797,0,1,11.464042838813654,-5.487593658057701,3.8504804680557894,-0.7757993053003813,-0.2396156755706273,0.5611882095036549
614,11.556078436410132,0.9323013522017661,0,1,12.441455116132042,-5.679648064454883,4.191213732394615,-0.4511328232364852,-0.08671877203734955,0.45366354398833064
615,11.214527040972229,0.9014009329814854,0,1,13.222745655935352,-3.5499121383463725,3.6464474911704885,-0.20905300327527498,0.17898742704710288,0.3945738887042053
616,10.82936644901404,0.8742234204352185,0,1,11.004497006496546,-0.7151709192004084,3.724736956962066,-0.14340852515513944,0.4178652863881651,0.37914440056269344
617,10.420105477762165,0.8544960109032003,0,1,8.224453516104921,1.2906325266419088,2.895293492305307,-0.2359366454244651,0.5232668576955232,0.30719244025670334
618,10.008328270557724,0.8431750327101896,0,1,5.328877554431109,3.0149571796966166,2.4415149025813614,-0.44237169511158225,0.24147935433486437,0.19166203727801942
619,9.61535209522161,0.8384214057236726,0,1,7.4240074532591285,2.181866469510105,2.3415585080098826,-0.7330344299769783,-0.1021839170362881,-0.12703600839727497
620,9.260223189430407,0.8361424362027945,0,1,10.3347408666547,1.3795437281128935,2.3758418512589987,-0.8021370859958921,-0.02945912665699588,-0.4573528424225998
621,8.958586875736671,0.8309669850991229,0,1,10.214453155990425,0.5511475183300596,1.8916694760147632,-0.9083785037356715,0.08197247420448571,-0.4952228212059866
622,8.72241765413798,0.8174421070075197,0,1,8.563770360017196,-1.7715865213395248,1.3223417911324944,-0.9348495809280988,0.292489790871026,-0.4669288325652554
623,8.560221793422821,0.7912067631158669,0,1,7.593059097260542,-2.551453748747105,1.0418639649458628,-0.8590153999369654,0.3169589621724584,-0.4382782167318732
624,8.477303215415061,0.7499189931211239,0,1,8.212199137040848,-2.896643215013221,0.837774579199325,-0.8037073656874327,0.319245109027178,-0.31775660116368376
625,8.47586843861008,0.6937778623412529,0,1,8.60639515195753,-2.157940619667966,0.793643915438297,-0.7060744279490567,0.3157921957107769,-0.1336770397695077
626,8.554918772741622,0.6255691580655338,0,1,8.645707804592622,-2.360387193851734,0.30962305958035524,-0.6909427710134493,0.34796595182795464,-0.01596475664461909
627,8.709971735655369,0.5502523069482146,0,1,7.939867768883812,-1.916270881540555,0.2934312270613924,-0.5247124937304761,0.3137116167114292,-0.03206731241601501
628,8.932723011400581,0.474182055785185,0,1,8.514510114514007,-1.112753307236761,1.0947632912719552,-0.2666244353921574,0.14641826445826073,-0.13046088006335868
629,9.210830457938233,0.40411666871594265,0,1,8.871408612764684,-0.5681602570787094,1.566742188778674,-0.07063735334689807,0.025973246180260694,-0.08707267839735368
630,9.528031889972771,0.34619820471995955,0,1,8.822719790731268,-0.7697827782512126,2.066995012687657,0.019997119244016284,-0.14181893572682924,0.013228756181950267
631,9.864764335862224,0.30508860572574065,0,1,9.30097376759752,-1.1587471991031302,1.8014067072722209,0.10332282313478247,-0.1801878901385172,0.006115630584368856
632,10.199348102691255,0.2834028788086525,0,1,9.720833385598953,-0.25484941426138663,1.4448216244143497,0.06674402481517118,-0.19934959213183545,0.026049967075982304
633,10.509667548130459,0.28151066683495257,0,1,11.390485402014443,0.5905682227524023,0.7558351308801309,-0.11062266111052044,-0.1911529212860078,0.08519427708177417
634,10.775152659710331,0.2977046235927556,0,1,11.018396552358759,0.8484427779241828,0.8003928164567056,-0.24422033174817634,0.0010568195445121182,0.09855742361523707
635,10.978781652977096,0.3286762155843455,0,1,9.832137959849634,-0.2144452233911447,2.555091395524875,-0.19050689009946106,-0.11725368844065073,-0.02671878952036116
636,11.108817727198709,0.3701996050978753,0,1,10.465315483121534,-2.49042218103328,2.8349847161857364,-0.06288453047477287,-0.36097268378764175,-0.2678836922823569
637,11.160039818065751,0.4178967451820995,0,1,10.758933820125186,-3.755056615820051,4.551844446953964,0.1601396874757859,-0.4278632917875792,-0.45569634879752763
638,11.134269878463332,0.4679406657156142,0,1,10.57708887891178,-3.968940807631796,4.952439423055886,0.3016868680837708,-0.47030165102513327,-0.5463170952000286
639,11.040041642536957,0.5175586059612324,0,1,10.235828412976515,-2.5800670361061875,3.976300737766871,0.3346511919178041,-0.3740658939411637,-0.49885031140415403
640,10.89137520669504,0.5652347236747212,0,1,9.68084021531961,-1.2569456239475179,3.4762643016449255,0.2333355677408323,-0.194185045225543,-0.4824939658543657
641,10.705844927160722,0.610582716810179,0,1,8.22642584871,-0.4505437024131632,3.919546797573656,0.18449670098221083,-0.09295734574008746,-0.5321516125133371
642,10.502347222283902,0.6539404424770373,0,1,8.198025876849957,-0.9021219801741479,3.5926416251706557,0.17035378597929166,-0.26407422471378017,-0.5716951965018991
643,10.299025973122497,0.6958032599389965,0,1,10.26422181742971,-1.9384478318919258,3.2849614790522628,0.2181062530814042,-0.37510603724143826,-0.44434133170170353
644,10.111630639032688,0.7362452712529798,0,1,11.921760105391131,-2.849841727437722,2.9773277183284654,0.277398417973352,-0.28758128425586477,-0.19509179034308818
645,9.952288374049783,0.7744788813060103,0,1,10.788687221243123,-2.7680463961908415,2.530521142971999,0.44894172679728567,-0.052612435447979056,0.03940539721088422
646,9.828516197704552,0.8086759152238164,0,1,7.952084115926451,-2.6445790760936796,2.5302044313673124,0.5563783324487801,0.01629531161761163,0.1903684017292084
647,9.742442520589075,0.8361150671486802,0,1,4.079480171120346,-3.396694483802335,2.392831549917113,0.6828379043023557,-0.35869333505077083,-0.03286429276460594
648,9.690516620062045,0.8536341333616381,0,1,8.428422074358942,-2.490072106600282,1.7487270397296837,0.8618068054943827,-0.8708316638239076,-0.04073919773555721
649,9.664113973527293,0.8582745083759203,0,1,11.330135078258962,-1.8293586643653246,1.4208099630770026,0.8558084815808623,-0.6024859607546317,0.18563823436008564
650,9.651194088961626,0.8479466323745047,0,1,10.079645148749945,-1.2803927959010524,1.1908643008758344,0.8823839015306801,-0.4188318826696815,0.23608017371335915
651,9.63871923057018,0.8219446608393896,0,1,9.696990557921623,-0.41662999360261793,0.996101949955329,0.8624967138134262,-0.35322055374635813,0.2739074845815961
652,9.615257213248785,0.7811922895947,0,1,9.74649618755409,0.0320638869866428,0.8020432362261062,0.8215238825037202,-0.2690381410507833,0.2361625780102707
653,9.573213959343349,0.7281808764472749,0,1,10.03945555661136,0.528316161222222,0.7427295977950945,0.6919584609609242,-0.08944502252555724,0.15340091775589332
654,9.510333552645724,0.6666372287366518,0,1,9.593949380634575,0.9482092534911396,0.6723869613156637,0.5101600983859911,0.10739461816939322,0.05650548212710199
655,9.43029425275171,0.6010155746882789,0,1,9.31140989402236,1.0876364084279155,0.8354824573371522,0.3008948362760101,0.237404904341352,-0.015335602885981733
656,9.342371927670722,0.5359365897890895,0,1,9.43622248333388,0.8967534555300563,0.7736766454103301,0.12166185182016274,0.35643366361063095,-0.049813062475760006
657,9.260255000745463,0.4756890156895889,0,1,9.456110848634609,0.5793356228843891,0.5829910102657296,0.04095558010630617,0.47223080018717056,-0.06799222572358712
658,9.200184195808296,0.4238697799925748,0,1,9.227365313459773,0.11837896879577817,0.28788912436354774,0.02998779364663871,0.4947761518637228,-0.08051457991194486
659,9.178658440997799,0.38318507545996877,0,1,8.842804935401487,-0.8845250394126548,0.34948250291711275,-0.004762970555074739,0.41192689382346975,-0.11311851472419235
660,9.210002236376608,0.355392123827823,0,1,9.028113734239048,-0.9549806886535377,0.9677335120591113,-0.11580756428242679,0.2905492023209089,-0.1321753411221004
661,9.304124428181707,0.3413433602790679,0,1,8.961529588849281,-0.32359637610024167,1.054994576191406,-0.16583250338949732,0.23512843620365567,-0.19412574053705972
662,9.464796417659816,0.3410973889851053,0,1,8.751575326667435,-0.22670180002270082,1.1107373042375295,-0.18170422606531655,0.06493824735826154,-0.29911962337548975
663,9.688728695930813,0.354070757658901,0,1,9.214444580356025,-1.003262724559327,0.5747938143956574,-0.2502119454266226,-0.08485467897332674,-0.3026808856415029
664,9.965627420949765,0.3792125805580573,0,1,9.56597831316497,-1.669987286120638,-0.11170772360730302,-0.18382054533338155,-0.1620789293666033,-0.30703206667720584
665,10.279271034303116,0.41519034372705005,0,1,9.651213197090543,-1.234588298661143,-1.243264585698622,-0.07673889650009061,-0.14671930781491657,-0.3150281725486245
666,10.609474072476974,0.46058205608197317,0,1,9.772197424729887,-2.2576268913667383,-1.3960988431118189,0.1245543294233658,-0.2015635568792089,-0.3561421126469705
667,10.934625174765452,0.5140752760165112,0,1,11.68401461965073,-2.4837162052449435,-1.8128497659865481,0.3814652850386611,-0.08639192357304797,-0.28538254446054495
668,11.234328307863574,0.574672632207989,0,1,12.209027664853258,-1.2043819173237211,1.3753868640558773,0.390573263217795,0.18587515215547887,-0.1629058308230923
669,11.491594177937094,0.6418936702950793,0,1,13.566343763331648,1.7309331767132365,5.008518391177461,-0.009309713070658233,0.37526069746013696,0.4191247861278918
670,11.694112386859773,0.7159452118514483,0,1,7.312053588402227,3.28662318988701,6.885202235758615,-0.6743752256898503,0.4605722144733542,0.4866522216058651
671,11.83443994310902,0.7978116441641417,0,1,6.662425067558565,3.3304127464967146,4.914550645207188,-1.0237800691030159,-0.07418967425519023,0.05943748616741479
672,11.909363864754468,0.8892047773777814,0,1,10.468808193799353,0.6652394320164174,3.069102884503317,-1.0882320246820547,-0.2637402335972835,-0.023390506722723997
673,11.918966658917473,0.9923277708536564,0,1,12.790821902645693,-3.17451788902384,4.149058730139805,-1.0061770177356826,-0.13676167981261142,0.19571066851681654
674,11.86585005701385,1.1094569028406065,0,1,11.354384595841177,-2.4982240309713344,3.786031976487138,-0.893088956882386,0.10589842973904492,0.27873682358955276
675,11.754672781737787,1.2424126773252269,0,1,9.888784546474795,-0.5433341294661015,3.4698713717333027,-0.975433251893375,0.17537219997645095,-0.007340088061612705
676,11.591928011911092,1.3920448514872115,0,1,10.850610277209038,1.9130374132748849,3.2951349768181357,-1.1391755659201985,0.13351122342414104,-0.1722567768788803
677,11.385842916975141,1.5578659208746235,0,1,11.071541951439118,3.1328195383230497,3.339564392451617,-1.4034170081771316,0.19522691157444738,-0.22111245541156227
678,11.146302935640437,1.7379281867976708,0,1,10.513580019232318,3.2859671378139828,3.0774508975643036,-1.669000465278219,0.16714952792641075,-0.2810508516299775
679,10.884683468801681,1.9289685604041433,0,1,10.612977236784914,2.3947316121815283,2.9414291801744423,-1.9354781101708702,0.1892970115672307,-0.318166711542361
680,10.613456936104898,2.1267716100649654,0,1,9.770375111290713,2.0339290198201683,2.8366160553530797,-2.194323384871966,0.2088340960715512,-0.34538518605113494
681,10.345498467933403,2.3266488664006792,0,1,10.28287585363618,1.8794620698142221,2.3445807434231436,-2.402683255471078,0.2883974281141331,-0.5468275301335381
682,10.093117312098661,2.523912140260538,0,1,9.68054092147993,1.7064486433154058,2.059643539800759,-2.574943424829593,0.40625772451335335,-0.7043649022509241
683,9.866936735711038,2.7142308534659896,0,1,9.812774612553355,0.5526607364533245,1.571438003102785,-2.7241251316995876,0.46273072353416156,-0.7673245654621205
684,9.674810023060447,2.893802374865482,0,1,8.953741080757853,-0.0647670251248656,1.2814155595190253,-2.78063379200017,0.5890982801398327,-0.8026621121615887
685,9.520995434584314,3.059320456064323,0,1,8.85451843583223,-0.1378840252786863,1.307443624868779,-2.831035815176996,0.5801410651859842,-0.8552697044575864
686,9.40580644841518,3.2077864123625432,0,1,9.16345898297889,0.35361049997418253,1.1348957168467468,-2.865848108224308,0.6022837294954548,-0.8982764283097648
687,9.325882506384897,3.336254271122999,0,1,9.197647775975843,0.7690505445125941,1.0867853879959593,-2.966122196620345,0.6207476745555812,-0.9328251977603444
688,9.27509431490336,3.441620380375222,0,1,9.116580692196088,0.734609876722982,0.8934790775465272,-3.08534131634123,0.6194491376416693,-1.012320298760068
689,9.245950946074458,3.520554137550691,0,1,9.05321826400248,0.5524625858504021,0.949145917932249,-3.217530373758629,0.5351055365506546,-1.0850157389354254
690,9.231261253064243,3.5696254597955677,0,1,9.435438284168718,0.2427118217371296,0.9105308187292036,-3.3033173521285217,0.4227423589866376,-1.1001937712133407
691,9.225734842168398,3.5856305916646303,0,1,9.487213366839764,0.49691053537503765,1.4255004222424494,-3.3347240774383784,0.32890278464653455,-1.1550633323394135
692,9.22718359037479,3.5660656291147323,0,1,9.856080217074563,0.47264473571797455,1.6695888124230807,-3.411411905101301,0.2866900398825365,-1.27896372678544
693,9.23701200142653,3.509656785194535,0,1,10.142944162332288,0.4358109961116247,1.5411261837039618,-3.440815375096652,0.3293441967288008,-1.3181084526332605
694,9.259789354082491,3.4168346754304237,0,1,9.735640723020769,-0.23485714702765326,1.3309312623047063,-3.3763298570307887,0.36696600186573247,-1.2541147383098405
695,9.30189496766655,3.290043478487921,0,1,8.67065015128768,-1.2309567564926789,1.0448883989772284,-3.1889281289332376,0.35184913574284477,-1.1056963080641806
696,9.369492115392088,3.1338082117202175,0,1,8.094255287117274,-1.5310181688721891,1.0076683490416807,-2.9654470193216538,0.2859098188276403,-0.9129957588492105
697,9.466326905216249,2.954536946139432,0,1,8.283623096548775,-1.4254130231438396,1.3327731700399323,-2.753345102159937,0.2587588766272155,-0.7558011277087927
698,9.591948964275783,2.7600899636863674,0,1,8.419489373299278,-0.8095803031643227,2.314797572582241,-2.604766535417762,0.25634537053011336,-0.5879602310163512
699,9.740846226525468,2.559183928151222,0,1,9.299790827133709,-0.8895411137945224,2.884765802700616,-2.542518246015528,0.2673468106482415,-0.39772492627556194
700,9.90271821350172,2.3607080972259102,0,1,9.482433816446756,-2.270312513269803,3.447498909406873,-2.423490324894418,0.3605595423537783,-0.3475132055317512
701,10.063803127787478,2.173020784443986,0,1,8.506885801458845,-3.5342427972770407,4.138912115996298,-2.154887821399577,0.40149396494526374,-0.25202800498932576
702,10.208945790502836,2.003285774810855,0,1,7.5751794573123705,-4.000340069277064,4.673067918834846,-1.878345467186989,0.39706820439056467,-0.11469422268938098
703,10.323992647401823,1.8569112236707286,0,1,8.03596530326319,-3.5144060159694077,5.149414315515705,-1.615350799950759,0.32323523743045063,-0.18253622390673632
704,10.398083346589862,1.7371613985679386,0,1,10.007745232520934,-2.599318172263026,5.456621077402958,-1.4119457240903845,0.21305846420719773,-0.47731848861245507
705,10.425414017386032,1.6450060492714413,0,1,11.569551990625987,-0.9056969800968405,3.989084978593035,-1.3426987741731105,0.1679491270658156,-0.8237278424895329
706,10.406091021232601,1.5792398125717197,0,1,10.501182802145573,0.6940217697901686,1.9829151421795337,-1.4402734431965403,0.200022505047973,-0.7711944924779013
707,10.345859063266584,1.5368503819062946,0,1,9.333700182853123,0.012022665360787907,1.1900340375074827,-1.5635865959927493,0.13244492180645254,-0.4431104018469556
708,10.254791409494668,1.5135616798760378,0,1,8.910152232687015,-1.5794831456288658,1.1798260069211979,-1.5750953046109815,0.035207585085767844,-0.310576161784647
709,10.145336824939655,1.5044497579145655,0,1,9.289759174479093,-2.1691341570669587,1.4729777938642017,-1.515160875658998,-0.08111450641949011,-0.3802115762427837
710,10.030243509793808,1.5045317004563505,0,1,10.296628803555858,-1.8864774243822118,1.456095528860845,-1.475420098746729,-0.056205888190991926,-0.4696467920528807
711,9.92077643005408,1.509251973000717,0,1,9.83200559023921,-1.7417613622974755,1.511684538254851,-1.4636476337039386,0.028804475460834457,-0.5121898702251144
712,9.825437309708455,1.5148218853692497,0,1,9.422608254992765,-1.8393000889498825,1.5415588926971848,-1.4431641952361358,0.04387905126615529,-0.5194869936482938
713,9.74924625554941,1.518396404007094,0,1,9.065094233065215,-1.7360784243387857,1.6532485925444307,-1.4221027553070815,0.007299880028389928,-0.5467277756248328
714,9.693599863295372,1.5180950452472943,0,1,8.824640108910181,-1.3466732430155148,1.706405021144686,-1.4066629709422838,-0.06612668094716115,-0.6120916616324273
715,9.656716174335251,1.5128900023034815,0,1,9.021251985745335,-0.9731772374827903,1.6604921377058175,-1.3950969391211516,-0.14693992422352398,-0.6776763291936917
716,9.634627591841664,1.50239643142526,0,1,9.771630889690172,-0.9925062242951239,1.680902200343781,-1.370656647355947,-0.15839574486992103,-0.6907812448735597
717,9.622567940879883,1.4866096012599368,0,1,10.206451795178152,-1.346139851809088,1.643990781316443,-1.3086340948921324,-0.10235536546690172,-0.6261689539791983
718,9.61647329353766,1.4656436112803406,0,1,9.817781134064818,-1.6944676433107038,1.6967598969434954,-1.215669671052047,-0.06429338842001366,-0.5388633348044264
719,9.614263110653164,1.439534413564068,0,1,9.43887170974095,-1.4941986281756026,1.6522341470723105,-1.1417927218426902,-0.09683391447468098,-0.49887625461618607
720,9.616635411821253,1.4081675633279838,0,1,9.571987522517338,-0.9692851212496433,1.3481866593137806,-1.1461316437043607,-0.10465694939106088,-0.5210018899287613
721,9.627263051177561,1.3713689918621161,0,1,9.09430941524337,-0.6710201047604448,0.9410302424098121,-1.1862531936143803,-0.05161441081224147,-0.5831684756544244
722,9.6524320278117,1.3291538883744771,0,1,9.087875548597024,-0.8077056778172066,1.1495467210703696,-1.3215275032645433,-0.05126610382556034,-0.604347012852829
723,9.700245307718081,1.2820768491815402,0,1,9.641873729931644,-1.5869820233620733,0.812269446375987,-1.3548718333673726,-0.02093854886066123,-0.5886607988915518
724,9.779507183110594,1.2315872478131928,0,1,10.31924708947872,-2.3924488793870857,0.4619944672346177,-1.1521867460037585,-0.048012414807411835,-0.5418263134599345
725,9.898341391726337,1.180284798082087,0,1,9.962068179030714,-2.539366140652275,0.6584852114862001,-1.0417098497364763,0.06253959878052766,-0.5537283081842715
726,10.062559108682432,1.1319922655498307,0,1,10.179934382416395,-2.577002235810678,0.7476554727852646,-1.03224981942854,0.11209508156086906,-0.6270624211824237
727,10.273845997061517,1.0915993157225858,0,1,9.24621409732098,-2.1457670890677774,1.6230188237378032,-0.9472283480334942,0.26028957969220595,-0.6730316306594128
728,10.527974377348778,1.0646668445074672,0,1,9.474510203108684,-1.3755890271175422,5.346132087143407,-1.0575499920222189,0.09844660347335786,-0.6127316562826275
729,10.813395314609048,1.056812060119052,0,1,10.16161966331756,-0.37305707831889695,4.064597612726332,-1.1944550254774133,-0.013558040192866955,-0.18484825599609533
730,11.110658641571748,1.072929468278045,0,1,8.005425036290951,-1.844761402803792,1.8202966830694975,-1.0597744191330358,0.014902359501930008,-0.09743355058594477
731,11.3931160624501,1.1163467300170218,0,1,8.750246287817369,-2.5100814413746186,3.4809772563087864,-0.8248959800194654,-0.05205134600171322,0.07087656723768933
732,11.629239627471794,1.1880579949307013,0,1,10.017488849891501,-1.915252762312047,3.9197850663878304,-0.8235846703291,-0.21027666963761543,0.3467554627492139
733,11.786568179774557,1.286198656717153,0,1,11.473070804079473,0.6224742910012617,3.4724769389748977,-0.96125947463399,-0.11041747421128324,0.3293817623244337
734,11.83679953088822,1.4059033931243337,0,1,12.666641716757058,2.0121290731082344,3.525347155657874,-1.2327143095448105,-0.06900685155760818,0.11188225323869078
735,11.76105729096663,1.5396212212963645,0,1,13.442268813381054,2.9477281612445494,3.313552530002918,-1.4331242525417858,0.07911221954207606,-0.12714933876935178
736,11.554113715670658,1.6778666373008253,0,1,12.556527352070384,3.762651405942966,3.1857937651761694,-1.6757754476209556,0.2823372631693672,-0.4214443494291078
737,11.22647938536169,1.8102932650098638,0,1,11.807088113706515,2.621117618703056,2.176433773327931,-1.8740312837328235,0.3330892510529806,-0.6712257127713429
738,10.803754243840432,1.926909967664445,0,1,10.508334642342485,1.7877597888232246,1.89257341414004,-1.9364237948702314,0.4315664293953296,-0.7597609643456104
739,10.323311319743176,2.0192341665081885,0,1,9.429976051628223,1.0329489362246018,1.499044920798175,-2.0298223411739107,0.4440967336737064,-0.7465836788044053
740,9.82902345917962,2.081197094678067,0,1,8.217286828148854,0.16717027155960743,1.1856358394804334,-2.1118503232037122,0.4521753765397017,-0.6056354040919305
741,9.365145626530301,2.1096719073492447,0,1,7.964671118005975,-1.1050446224436843,1.1636753174485523,-2.1187232030954593,0.3771458210458098,-0.5720938865776655
742,8.97054021953573,2.1045703384106913,0,1,8.383683719706173,-2.153556695114791,1.0158301668732475,-2.023241221945651,0.4132486542467848,-0.5957211495689437
