id,ASVM,GSVM,walking_nonwalking,normal_abnormal,ax,ay,az,gx,gy,gz
1,1.0534016229595764,0.49058991827073045,0,1,1.1555794301691011,-0.16867237748851419,-0.020387872556481498,0.4688141973256099,-0.1516545934690498,-0.013046713352023722
2,1.058062869201384,0.5202022555581416,0,1,1.194428566707835,-0.12262774587281676,-0.030516392966748445,0.6361551811675955,-0.040978093458892424,0.07199476059416868
3,1.0577054666528547,0.5458018963154243,0,1,1.1459709803869917,-0.12014684513460651,0.013839041373818115,0.6035246730042524,0.10793182380168166,0.22910648814938125
4,1.0519017528285302,0.5654713416479802,0,1,1.0689864404101808,-0.11634620949161356,0.0013696177995394282,0.54137789384131,0.2737483741457648,0.37658915880214483
5,1.0408677116063072,0.5777097850536629,0,1,1.0310972085865526,-0.13345856481334345,0.024028107961251367,0.41651115928078375,0.23768507077728887,0.44766601690969177
6,1.0254239823165243,0.5816162838905992,0,1,0.989441368056296,-0.07642138687865827,0.01316363742704224,0.387807109172766,0.22843763247444596,0.45144189905353665
7,1.0068654541769633,0.5769388415912337,0,1,0.9492996693168585,0.009677395285301484,0.031119035613778708,0.33247682541308254,0.24665971948225493,0.3986593245342161
8,0.9867819433480015,0.5640060030683184,0,1,0.9100945544786369,0.05538293380332342,0.0646782886188629,0.15262546609608083,0.2699065585676021,0.3092952364915696
9,0.9668743370641436,0.543592098651315,0,1,0.9087011876591772,0.014790755629283222,0.04100393311022014,-0.04817395685071146,0.29801151577115903,0.19706646209526232
10,0.948799265155577,0.5167816689661205,0,1,0.9720231390729129,-0.08622947214071901,0.05108471276545451,-0.19933842982634367,0.32594417169018863,0.11126449127043532
11,0.9340561557123961,0.48488705940473864,0,1,0.9868844452055436,-0.18243436423451054,0.06348485161432608,-0.2098248499211673,0.5239699547225622,0.10207239788469226
12,0.9239112743586603,0.4494391561429679,0,1,0.9260311088744162,-0.2444038099879913,0.09402678997983407,-0.09782108337767524,0.5036430535115128,0.12733640263584103
13,0.9193427622141269,0.41223100057642764,0,1,0.8731781117161672,-0.2549460374826931,0.09472459818992265,0.021230409204964506,0.40149078209896083,0.10721040097260968
14,0.9209928984711038,0.37536798311683905,0,1,0.84193489638854,-0.22516833711057482,0.07369757021914604,0.22009247850923483,0.29710986820923335,0.06520226069163529
15,0.9291243769481051,0.3412748535388012,0,1,0.9261245026973705,-0.1819926449779516,0.06880276397445288,0.3784515864455882,0.14862620331977477,0.0015213698112578747
16,0.9435871443928286,0.31262113080667714,0,1,0.9639009365945793,-0.13037379813844918,0.06571804635364653,0.3836917075330088,0.22234570350253594,-0.078508798348408
17,0.963806031754452,0.29214245614896006,0,1,0.9325010510172358,-0.08521004519553003,0.04361057057075828,0.25965512973147675,0.2917137352099463,-0.10476934094778446
18,0.9887989408034488,0.2823555319190947,0,1,0.9221653419296822,-0.09277760927538867,0.048815532561583684,0.12613593011397783,0.2532891619167907,-0.1055912838592056
19,1.0172341425187745,0.28519297206179045,0,1,0.9385074172466651,-0.12087580667701589,0.037573466659083975,0.022880246771272192,0.21444645844457472,-0.05806783928380618
20,1.0475319121582427,0.30161874434873903,0,1,1.0167972030344579,-0.15781925992415516,0.038426162995599415,0.023195157982375075,0.1282453146213859,-0.058267470619034895
21,1.0780060677925662,0.33131180529534976,0,1,1.0442176977607611,-0.2175901543809544,0.00949165468251571,0.08838379942207761,0.14896004479107464,-0.06438450807089027
22,1.1070247740260173,0.37251036971994794,0,1,1.1200154108357545,-0.24892216758343338,-0.02234599339795776,0.16721507040505595,0.060529976126930514,0.011751433967564206
23,1.1331533384742523,0.422085389026701,0,1,1.4007777781162356,-0.03456865250074896,0.25988968485795366,0.13729424198077275,-0.18559745772289685,0.16373669769047633
24,1.1552345749213173,0.4758632459170587,0,1,1.2786654787550118,0.11151190103294244,0.20539167908215777,-0.32572357603006896,0.3333108765291507,0.2618989802922153
25,1.1723748959709765,0.5291563677864993,0,1,0.9954169523567731,0.06231963577226145,0.21343115581422148,-0.46464187171843896,-0.10248783897915242,0.10020342469217494
26,1.1838396023564983,0.5774027285592573,0,1,1.0475712355089513,0.011163175590107249,0.14101801609624612,-0.7823614042364402,-0.3568991301718514,-0.11779155886511174
27,1.1889045207267255,0.6167779640862506,0,1,1.084264666433202,-0.1287727080948378,0.1942795130340215,-0.967583823586082,-0.14932124498299487,-0.2658275098152536
28,1.1867369638931453,0.6446414482871468,0,1,1.0711144394364087,-0.14730850808698262,0.35638900896768927,-0.7346489017073874,-0.2651862551256391,-0.2562063593193483
29,1.1763721257465278,0.6597188851488626,0,1,1.0090182478802578,-0.10705576952193667,0.33546642565342855,-0.5116378291306487,-0.318298514053163,-0.22842596039130708
30,1.1568199317566006,0.6620032118627381,0,1,1.0471301758317888,0.0057734014972886305,0.32557088224466746,-0.2418093526207798,-0.3487216629160852,-0.18765505874600705
31,1.127299211836072,0.652444738592015,0,1,1.0316840103044422,0.08178091590051355,0.30661687183682323,-0.2091772899955579,-0.20338065044082498,-0.1412053521544141
32,1.0875601174670966,0.6325600119257746,0,1,1.1315309717868531,0.019231583861830746,0.28473832961168893,-0.40291980647873005,-0.26268403258213147,-0.19929549063205926
33,1.038225028192462,0.6040908403729451,0,1,1.2212934664865578,-0.10411652316221431,0.32643492891331677,-0.5368714539289537,-0.0748206935882781,-0.2927376240077121
34,0.9810591423075908,0.5687964046734995,0,1,1.0482769069163966,-0.15260193949894568,0.2934861953648877,-0.48270275680510494,0.0839398636899867,-0.35358311906113676
35,0.9190848713110006,0.5283940862188414,0,1,0.9173042729687886,-0.09470927047663372,0.25503209481785843,-0.2289164380159641,0.05258571902843321,-0.42507664714770327
36,0.8564836241380113,0.4846114544340699,0,1,0.8534349871411424,0.031306927230444745,0.2081239738952026,-0.007570119228223023,0.07726698158284186,-0.5336188678792503
37,0.7982750973630892,0.4392858237081508,0,1,0.8361904172686127,0.06930448246054255,0.13161488162858123,0.2095482277752851,0.16535719582941588,-0.5298966397939305
38,0.7498099712866099,0.39444374880879274,0,1,0.7461759452882529,0.13228348451271946,0.10498276062933543,0.2614066419732414,0.19329591639757707,-0.41928156832767943
39,0.7161453410669806,0.35230445041098074,0,1,0.6569496503368928,0.14393118548715705,0.08219553142290138,0.10217111736543447,0.2603634765358142,-0.3090652803487041
40,0.7013928722041648,0.315178062822127,0,1,0.5699711129971462,0.11950606315495649,0.09078927595610792,0.050893459819701926,0.22431994162755672,-0.18723121365575485
41,0.7081398307104313,0.2852681970297181,0,1,0.5528299299156646,0.06701293160614025,0.06791916116608143,-0.012874470390446795,-0.058476140320225266,-0.04960674385781493
42,0.7370402771060085,0.26442465165979007,0,1,0.6032720162674764,0.042677828880532946,0.011685097986932753,-0.09535529223030959,-0.14703276364592094,0.030051237628717052
43,0.7866531134092362,0.2539085469505488,0,1,0.6828262626440015,-0.036656547907727065,-0.0887250451495525,-0.22704597895177858,-0.23655616220025436,-0.013864669661401832
44,0.8535651321842059,0.25422157089802705,0,1,0.7246687496136187,-0.09316079500488293,-0.0821965971005822,-0.16510830466441476,-0.19311476822535126,-0.04713623364590535
45,0.9327870837663442,0.2650242787009519,0,1,0.8853795491640918,-0.04805156564539547,0.04105100289664519,-0.17291023485773702,-0.19978468004901728,-0.026573607526730127
46,1.018358381593341,0.28514523725319163,0,1,1.163599440775019,0.040952103831827534,0.106526566507832,-0.12133368713633219,-0.3323658166460038,-0.027150240825159527
47,1.1040511870729053,0.31267440852885137,0,1,1.4382008111155644,0.14559695457932056,0.05230225441575763,0.015098778187055682,-0.2559599948698581,-0.05725821613780747
48,1.18403998466067,0.3451371115329819,0,1,1.4071510743722089,0.1147121522609879,0.06754870503305645,-0.0034919181135757513,-0.06996853190390097,-0.06401549071596398
49,1.2534135195138143,0.37974819732228265,0,1,1.2304640475020732,-0.01581113592726062,-0.04261226958557445,0.0003423315620688133,-0.27231652381349386,-0.13674247552152635
50,1.3084569523171377,0.4137374676124641,0,1,1.1508477235634649,0.050387918063808004,-0.05259450477902098,0.08044842712859945,-0.35435216714628776,-0.0996976861882741
51,1.3467041978719196,0.4447102587695826,0,1,1.3739754966729327,0.07266204405777998,0.07103536216807944,0.27268433234063805,-0.8068736974265879,-0.14868318460163846
52,1.3668194468299857,0.47097216497869,0,1,1.3771783929891839,0.20847979348928172,0.03253836609500234,0.579450211784344,-0.45115986286570997,-0.23434492943431012
53,1.3683918936523665,0.4917324697799862,0,1,1.1618666072804786,0.11778048687063407,0.3089750067088694,0.06396731520275144,-0.2703471307017303,-0.10091675077400672
54,1.35172476442488,0.5071294303885049,0,1,1.2197415687348,-0.1178857391496386,0.3801741685284322,-0.059880355137763935,-0.5703674022791254,-0.12326389349361266
55,1.3176844841686912,0.5180817559997448,0,1,1.0867002398584802,-0.1430314988537901,0.33361279871949734,0.19869714694531146,-0.18196328622062818,-0.15545101057103725
56,1.2676527323867377,0.5260269956090904,0,1,1.0412177630807147,-0.10884268716609236,0.29746540076020395,0.3601944285315488,-0.3039988217764068,0.008855211788057924
57,1.2035887823765252,0.5326295293679267,0,1,1.2602042351414016,-0.045866574823017064,0.22373194321258924,0.3311284070178403,-0.21179775855536975,0.08196430159722859
58,1.128162772622386,0.5395270537637186,0,1,1.4428169814334886,0.042443424958782505,0.21270913393280919,0.5097445744999656,-0.008167593680257225,0.18338631532993432
59,1.0448766579487396,0.5481504136632624,0,1,1.3570764678865832,0.1047684417855529,0.20077103448383904,0.2696507128839248,0.3541926354195635,0.34448340893563756
60,0.9580735761482655,0.5596141000718479,0,1,0.9487368007619795,0.03862426588994484,0.11786062296981917,-0.04151616293707464,0.6853942809838901,0.35966779385740466
61,0.8727670382380919,0.5746479752206748,0,1,0.7380648145897184,-0.05639701218343323,0.09557865857110652,-0.15215139672737796,0.54658568207861,0.30548992717709833
62,0.7942886949685509,0.5935356431491087,0,1,0.6833115090021289,-0.07371351500282523,0.1195178826863267,-0.3028107032556244,0.32983660223825806,0.28719866363366864
63,0.7278197178284254,0.6160430897962289,0,1,0.6402679469141416,-0.0739889401852567,0.16016174737440356,-0.37051222020689395,0.4026493452322079,0.3044147437502029
64,0.6779020233895802,0.6413512423127814,0,1,0.5913859787368541,-0.10544982996193644,0.1258184981951236,-0.23268038129519517,0.49354528715000745,0.31734181427915975
65,0.6480173372712253,0.6680305415760487,0,1,0.5594887640094043,-0.1619035217480721,0.10987288811986015,-0.14944419156303634,0.5157789126493261,0.27764623730939697
66,0.6402927259901222,0.6941049340770424,0,1,0.5400850183486977,-0.2436364703619124,0.10427968160586547,-0.10820782089357908,0.41428054921245,0.2193974847446071
67,0.655358720335656,0.7172466204429432,0,1,0.5529353225004477,-0.34139170741459957,0.11875269177586348,0.06987256238930252,0.2787822155135014,0.208608136680287
68,0.6923583249734151,0.735119002513122,0,1,0.6292257528523539,-0.3639682575094511,0.12404119954461772,0.5689234917936383,0.13404810582877813,0.2032745794633442
69,0.7490844242551824,0.7458366689035629,0,1,0.6773965113970559,-0.1663974075027715,0.08101900879800723,1.1632565910580255,-0.11809772263079207,0.14431761754946026
70,0.8222106550733759,0.7484440527888029,0,1,0.7536261853872084,-0.006615623493901456,0.0582576832771419,1.2169013857229094,-0.1529141264132907,0.04602802752380968
71,0.9075753507950485,0.7432629617684252,0,1,1.0134436670700795,0.16725306871082934,0.12337180859765545,1.108907281269399,-0.06505191869236264,0.057540550785641804
72,1.0004757165804907,0.731969079734094,0,1,1.180528473351997,0.2366862047648881,0.15853137347132049,0.669889816303443,-0.04283317172109228,0.2287837917459703
73,1.0959304549802824,0.717342455703182,0,1,1.115153913010966,0.1198886009464632,0.0019208614005157382,0.09565411802909725,-0.045463672979846916,0.317078850493482
74,1.188881828469708,0.7027564569660406,0,1,1.1622287568775715,-0.010893007942738508,-0.09160163184975721,-0.24713508439683368,-0.38437415001904923,0.2119824037602442
75,1.2743372633072263,0.6915568539865877,0,1,1.1162968443864154,-0.16300728648898957,-0.14667385359882068,-0.4562961942812294,-0.3021886412383762,-5.0340191603930885e-05
76,1.3474847225766344,0.6864962275463455,0,1,1.1819862939127364,-0.2544681205484761,-0.0485202937649479,-0.3110837121384339,-0.6776321387533468,-0.11282812695035381
77,1.403834354587585,0.68933917300041,0,1,1.2159577881577153,-0.270396372400743,0.33302217117578,-0.11263857141730135,-0.45963152795880596,0.008048628063650413
78,1.4394293706743873,0.7006828550735825,0,1,1.4482682225983083,-0.005243780917323561,0.7802773489037538,0.2693642904875967,-0.599996673956604,0.3753479974178658
79,1.451138069946556,0.7199788007560999,0,1,1.140513147823002,0.32650384878484845,0.5494181439944598,0.0312267072610272,-0.5537334477204587,0.6511126829166335
80,1.4370044863730707,0.7457044815791968,0,1,0.9521583119993898,0.2521525526666606,0.4798168188281939,-0.43826919235127026,-0.5902110558512736,0.5015007743382667
81,1.396609551885737,0.7756168599133083,0,1,1.6778678472141653,0.0142193397216958,0.4581205886952946,-0.42503222468127555,-0.38821353347448995,0.3544794691084288
82,1.3313744755085637,0.8070258777508365,0,1,1.5913131330895591,-0.2548241304248167,0.3917855392639147,-0.8946090582156209,0.026687250940686507,0.03178592536403562
83,1.2447209281047478,0.837048872168378,0,1,1.3154737567955317,-0.3110062105175904,0.2570728557355353,-0.9204577163005305,-0.12664153880241527,-0.29000086236249156
84,1.1420064414562385,0.8628339301028987,0,1,1.1341175514888913,-0.11183948166509819,0.20286157106525252,-0.3612146683433721,0.1767348675677914,-0.5589260102510899
85,1.0301962570608207,0.8817618163870644,0,1,0.9427882223903749,0.1019591337691139,0.10598493197277187,-0.19496455731448642,0.19136801710639603,-0.6466761982051906
86,0.9173006325274532,0.8916484857949803,0,1,0.7608081150359919,0.23815539603495398,0.06830453785352214,-0.4700569274952185,0.1472897811598716,-0.6774711579573635
87,0.8116626814863868,0.890966391919615,0,1,0.7151434431015192,0.2243448005070771,0.07647884796559322,-0.5870468347045114,0.023257936519896143,-0.7473589695318054
88,0.7212028217465832,0.8790786284693609,0,1,0.6770061754220971,0.15645451545531602,0.10332834351225485,-0.537971407297773,0.13249386247607364,-0.7504659606223347
89,0.6527150712270589,0.856447003353038,0,1,0.6151069628256635,0.09960875813436824,0.10618982376436288,-0.5933938806229094,0.266224142965322,-0.6442591476834253
90,0.6112847372541387,0.8247537390652443,0,1,0.5481811138685546,0.050221905759995154,0.07887156354931861,-0.6301383933044763,0.2143216075871999,-0.523040447101682
91,0.5998715069188556,0.7868761800316548,0,1,0.6101917386994455,0.01845031755334918,0.07387293914554682,-0.7943790260822787,0.10611187873974917,-0.4341896701008557
92,0.6190826683193191,0.7466699867106878,0,1,0.6397341257249652,-0.0798400716325932,0.08289715858598154,-0.9227336201722448,0.3155071322902096,-0.3561868315933058
93,0.6671477600484045,0.7085434345517597,0,1,0.548012149646003,-0.12726700422195608,0.03634433861784338,-0.755118906964187,0.5030084727809929,-0.26787813494357504
94,0.7400964060642461,0.6768469187908795,0,1,0.5269269380891181,-0.09997280297824952,-0.07945469405202311,-0.45812384147954666,0.2569215533651032,-0.11292348027720113
95,0.8321312118946428,0.6551607952243939,0,1,0.7437178963667598,-0.13599910683320024,-0.11743859618820164,-0.3652022928495271,-0.09390187245580488,0.009114907869361434
96,0.9361691547865147,0.6456264911393619,0,1,0.989848643919136,-0.15893639919173053,0.08813813143491675,-0.1967675392329027,0.030620384267623632,0.04717716902604604
97,1.0444939432514608,0.648495912562207,0,1,1.303397417039848,-0.2552928942945828,0.11667272120552968,-0.09368456415440247,0.20892664050124943,0.1353511782956925
98,1.1494302772660385,0.6620421163403178,0,1,1.3394224084315565,-0.15421334486656332,0.026152585329813374,0.5084344224185059,0.3622329474656527,0.15999728024461743
99,1.243942407498021,0.6828804411827024,0,1,1.1659143714003324,0.08044102080790345,-0.09874678954309604,0.9047734481420874,0.10726075155673663,0.11721114975321593
100,1.3220872121667804,0.7066300574725352,0,1,1.152353584741506,0.2736006255171681,-0.028238838612045757,0.7878512447537794,-0.34567207329184607,0.2181380957324985
101,1.379302243458508,0.7287531748454564,0,1,1.3414679435133523,0.325156049377086,0.08240444147062481,0.3291545846351608,-0.8204926120422609,0.2574583164745093
102,1.4125505289512645,0.7453782813217431,0,1,1.4001713037977443,0.15774764609944117,0.31361975680497384,0.16786548409176222,-0.6752580066014692,0.0941257667432176
103,1.420357187465853,0.7539427782121755,0,1,1.4927638239778045,-0.13709220795178068,0.5127563672952515,-0.3114560908393204,-1.0396818961973946,-0.2883903544237162
104,1.4027671046406947,0.7535504969117922,0,1,1.2523530825092488,-0.2780148633902818,0.4382809344596544,0.16766661246708134,-0.3993591325174525,-0.5133067765506977
105,1.3612493148797664,0.7450045005055862,0,1,0.8464148285550479,-0.09762316757527079,0.3468928448979539,0.5955473297321602,-0.4590324154874844,-0.4121730767702103
106,1.298577806631094,0.7305351797610942,0,1,1.1329044268608979,0.022532318572809067,0.14614009359819108,0.3835042366065974,-0.622592965969176,-0.2962612879358534
107,1.2187118427926573,0.7132950218971905,0,1,1.513582344314844,0.17404957350498054,0.26619786801840484,0.4317947096876659,-0.24793435266348682,-0.09463830356746603
108,1.1266649494575482,0.6967288975268257,0,1,1.5503673664069437,0.2272214888785818,0.2776292865051385,0.2104991034333007,0.19912335039209908,0.1815883645567462
109,1.0283088306643269,0.6839432992341141,0,1,1.072051135912634,0.11806712682584979,0.18589323519389106,-0.13731985275759956,0.8112407680103907,0.3266239959044951
110,0.930051769925834,0.6771825328706169,0,1,0.8105986135010151,-0.028706215911084024,0.13412492701306125,-0.22176084760748835,0.6606132703768707,0.2967417585820911
111,0.8383809970525069,0.6774812516784336,0,1,0.6207192731773513,-0.127727548583225,0.14943200020695252,-0.2979248360953368,0.40628617769725794,0.25502804788914807
112,0.7593319830751307,0.6845250422389094,0,1,0.4747890890222757,-0.2254139021471601,0.12722754401520314,-0.3778793162219311,0.17345417069827035,0.3145268027560433
113,0.6979914665758261,0.6967312971258385,0,1,0.5454169289833188,-0.2271918383450689,0.05960790291282665,-0.2860033711039765,0.2558332843535615,0.3804098613353987
114,0.6581308420711548,0.7115506401085947,0,1,0.6206899949831408,-0.23505678022110682,0.10080908357999864,-0.1538877279409806,0.4653464585456736,0.445034279563691
115,0.6420169796600782,0.7259631001532032,0,1,0.6156028003166487,-0.2865783375808048,0.08817794222503351,0.23575339694804906,0.20167016550513822,0.4949755776477145
116,0.6503899501232768,0.7370986193540516,0,1,0.6702353322372349,-0.3169822828481345,0.005963506992455301,0.6298384440213323,-0.03174792604116659,0.5120651390199411
117,0.6825571482023929,0.7428622938965364,0,1,0.7739478389322544,-0.15398991762381467,-0.029270211822448808,1.143357670272267,0.006184009969349728,0.4663434381577258
118,0.7365414995738038,0.7424115222728878,0,1,0.8372061784001225,0.05272101595417658,0.03410954253015793,1.278398520219044,-0.025471019589116826,0.2759389521024224
119,0.8092350232486816,0.7363395181455246,0,1,0.7494706603499208,0.11648383417247143,0.00402440128632755,0.8268974847466534,0.2623037325289811,0.08498412470691549
120,0.896537976633758,0.7264878412560446,0,1,0.823593535314114,0.20875540562778475,0.027638412622473976,0.61930351574748,0.007818959426647756,-0.04284742239825999
121,0.9934949713038581,0.7154303759192815,0,1,0.9727935540970377,0.17195841196984488,0.11546104407265148,0.22113933599586696,-0.10705983722334864,-0.11899785037350004
122,1.0944602502209084,0.7057914905219091,0,1,0.9781900295306668,0.03178240141706609,0.020069694374903253,-0.1282280466718703,0.10223996012265033,0.00604670753486021
123,1.1933283567554085,0.6996183598621912,0,1,0.9903809262661067,-0.10756962359087015,-0.13819522774792697,-0.4551044793505267,-0.3841040969099894,0.08260678887212618
124,1.283854170454335,0.6979909974387685,0,1,1.188556514636774,-0.3079362020305792,-0.07916322452725291,-0.22100258888436847,-0.575001678390215,0.054905519898277924
125,1.3600597725980281,0.7009453684958309,0,1,1.3208252990977045,-0.3764139897179855,0.298190820304043,0.22792783476953904,-0.7755820953447212,0.10493008093764823
126,1.416689294351178,0.7076616322869015,0,1,1.8032551964156471,-0.10601153388178579,0.8092812281653929,0.6541525750525082,-0.9143854929236801,0.4340659498395444
127,1.449642656158268,0.7167864401043251,0,1,1.333095517601043,0.21399794336230574,0.4383949990544611,0.5997566471709519,0.050408650304923176,0.6804007854477934
128,1.4563190817852458,0.7267440060122831,0,1,0.7646578759209626,0.21812518811397535,0.44421995197666064,0.014237612220971542,-0.3632945714593616,0.5429592274649392
129,1.4358369325859957,0.7359412331261569,0,1,1.410216481898394,0.0657117680228658,0.39981104644556864,0.2732018886515542,-0.8200158379608892,0.32612001323487183
130,1.3891357085527822,0.74285496854634,0,1,1.6417500612079228,0.21297925745565288,0.37056070026727234,0.06718996208825312,-0.05950931515241737,0.06494648200997226
131,1.318971179997954,0.746059369486838,0,1,1.354685314772934,0.06533825994456154,0.29460587200891847,-0.7713847385511325,0.02784221865661048,-0.1059277221760878
132,1.2297919214157198,0.7442749531042642,0,1,1.1664331240653614,0.06414070262965571,0.13961851744496467,-0.6313131975741543,-0.2507941252839113,-0.3094017579579852
133,1.1274752547700766,0.7364930040384965,0,1,1.1871390766618855,0.07184078005124969,0.17715520242761174,-0.631053606570877,-0.0914178769412736,-0.43780301777650665
134,1.0189203939448352,0.7221737323432452,0,1,1.004486011718148,0.012737090699244318,0.12851089234222257,-0.591439474029261,0.03444074146001434,-0.43277361485658766
135,0.911527360998643,0.7014694045692936,0,1,0.8668748614179134,0.07217368239973959,0.1172301754288309,-0.6111060867602804,-0.0791669128863964,-0.45790635323073176
136,0.8126115784973099,0.6754040642982223,0,1,0.7786997526773316,0.03525991786622376,0.07857923993948784,-0.662384950469536,0.0014907222195428426,-0.5098178182260991
137,0.7288130156610256,0.6459460556904102,0,1,0.6818659405069586,-7.851246603679154e-05,0.09235899944428397,-0.45274045667219576,0.30816697227177403,-0.4638644449320348
138,0.6655588776678225,0.6159295123379936,0,1,0.6196616003738641,-0.03725484855849387,0.11348418965762855,-0.49488255621053684,0.2471619055147992,-0.334112429809355
139,0.6266317667024736,0.5888118107312856,0,1,0.6146017915208203,-0.04197198492340085,0.0531821439467123,-0.509213334714579,0.1534912241001356,-0.20392210637151
140,0.613883171239517,0.5682894568007298,0,1,0.6011912254301702,-0.024534056768256936,-0.006579867279966563,-0.40461393244161165,0.31180667240211535,-0.09569636993809677
141,0.6271186153126949,0.5578243056210742,0,1,0.5775625488183878,-0.04265939404537453,0.01873180676461082,-0.28085391901387785,0.5052488897489004,0.007712249847737007
142,0.6641683683518119,0.560147635079581,0,1,0.5473303929996808,-0.01059326512439276,0.047659607064424,-0.2307181208649804,0.506682470480958,0.10906304274133158
143,0.7211453887450875,0.5768123838697196,0,1,0.5960300103600785,0.07180144686845075,0.033059457549885485,-0.24443529655554852,0.4744395023897079,0.1368625961598391
144,0.792875410910867,0.6078606711530187,0,1,0.7083024270036814,0.03137704903780371,0.025686952955751168,-0.4601267022096739,0.28494808102966224,0.0984786108611243
145,0.8734580361181609,0.651669570842673,0,1,1.0165096672412173,-0.16938478528532624,0.02294241457206995,-0.5615665240217054,-0.17229033868564236,0.1021659248669525
146,0.9568851043810369,0.7050316480091916,0,1,1.274252036111723,-0.2643380218539194,0.08558569432465213,-0.29353285061224915,0.16829925624537007,0.15244038273874658
147,1.0376186388956368,0.76351106766514,0,1,1.0419293664660363,-0.35538972456614737,-0.001065921206059993,0.2563033829243801,0.40486625347543276,0.193535191323195
148,1.1110355899983178,0.8220817450560983,0,1,0.9950918736688713,-0.27617939573864336,-0.14138587818720375,0.6939872823146482,-0.29811286777716817,0.37192519057976375
149,1.1736862577785916,0.8759957606590363,0,1,1.0957854125676343,-0.04935420946112215,0.0049466138143266095,0.6628119860710964,-0.34156723805155387,0.4479198605002471
150,1.2233670300813606,0.9217577348039239,0,1,1.1574286428978504,0.03781596997186662,0.11998307594056809,0.7725009933654704,-0.8282784698483495,0.27926587543264353
151,1.259045035286818,0.9580197644781335,0,1,1.300570307891608,0.09960106772005851,0.15453768524898534,0.9287250768593428,-0.8078201829796852,0.05531122162214965
152,1.280679824982692,0.986188294172995,0,1,1.4066013163889988,0.07442960572659751,0.35625478835644175,0.8428004467438158,-0.9384971635995467,-0.37446338169443777
153,1.2889786685811142,1.0105616112049416,0,1,1.2965935724812567,0.07171263921073198,0.3515462068428669,1.2554534248865787,-0.5597599521331573,-0.6635364377454582
154,1.2851193646714885,1.0378937287654801,0,1,0.8835385596813875,0.15106101114295448,0.29451503178246335,1.1600978166311091,-0.27056769789421775,-0.3761345230825876
155,1.2704853246509324,1.0763981070802084,0,1,1.0995830763199947,0.018429034208654042,0.08977550983822961,0.522749807577422,-0.7949212661087278,-0.17152309774258107
156,1.2464665719411785,1.1343424661294648,0,1,1.2861740890997726,-0.06358772148266828,0.12503030119915218,0.485290566150023,-0.2517281986838552,-0.0697050403541943
157,1.214364965993386,1.218504907875712,0,1,1.3200361036161934,-0.10483123960603749,0.17214528008382646,0.7148832655049584,-0.2981034998676209,-0.01953728919517966
158,1.1754024968934387,1.3328126605291954,0,1,1.2719658848872235,-0.1688417725464558,0.15428554618278803,1.1445179218411459,-0.10451133463016102,-0.010707472616870538
159,1.1307948879938379,1.4774405851460735,0,1,1.062751415286294,-0.18389256725229905,0.19804746932147976,1.3267060114318914,-0.037276175376464105,0.04277120968909407
160,1.0818435922989083,1.6485275425291794,0,1,1.0068408117470387,-0.3106798748839109,0.20315273851176274,1.5284515015780673,-0.1346719635584804,0.0370074615245028
161,1.0300155212486408,1.8385285960108044,0,1,0.9308686835396962,-0.3614715787046749,0.17415546332079124,1.8761317045388162,-0.0762094970897703,0.1476047474331542
162,0.9770014344886774,2.037105622019058,0,1,0.9217012004572019,-0.2946323077682721,0.10218044663324113,2.079164063203437,0.02816318315271586,0.34982926472467507
163,0.9247556989917893,2.2323845491654235,0,1,0.8399481228272784,-0.21836836423362768,0.04886892580280344,2.231663646013283,0.23800842687513887,0.5422296063096685
164,0.8755204716563215,2.412371798079415,0,1,0.7727001186539798,-0.12569853561997277,0.00628378606142545,2.477687943455524,0.041912559157290155,0.6242856645026588
165,0.8318302395887064,2.5663192817867704,0,1,0.8213233389971654,-0.0805222219569349,-0.03127362144786441,2.689965543980904,-0.2148762709129076,0.6014335346539741
166,0.7964801004586982,2.685850281349144,0,1,0.9809536081270935,-0.03056607120582121,-0.07801234862065264,2.8923307582846314,-0.2298074468476488,0.4867071471114862
167,0.7724265905281934,2.76570296192491,0,1,0.9774003911768517,0.06649462429994907,-0.06431972876386666,2.921698273687052,0.12032888159661949,0.30319918881660285
168,0.7625842988854775,2.804012036124642,0,1,0.8200636563602521,0.0657300960027274,0.0672394326925582,2.9059951731340186,0.33418615516681766,0.17503643554654527
169,0.7694984493173648,2.802127907401876,0,1,0.7403011721856511,0.04615513641095316,0.07516722708990907,2.8585432718526738,0.019886832821010253,0.16139693498337584
170,0.7949139457666237,2.7640556336139035,0,1,0.7073097449062639,-0.025447949730379872,-0.021556650274933534,2.5833953989429594,-0.0849411242656061,0.195493289215664
171,0.8393075396612653,2.695666943375943,0,1,0.7861255599085519,0.08260900748930046,-0.011215164894179546,2.389468193277161,-0.09799723004281193,0.23937361130641388
172,0.9014796508165986,2.603879624405254,0,1,0.8495361915729078,0.05776228293002086,0.055816809578282923,2.252078156961429,-0.03515430967312506,0.26116150046681036
173,0.978306551873654,2.4959944842317423,0,1,0.7649556395392689,-0.09341482985302536,0.034823392633502176,2.1485608485548813,-0.18677109331951808,0.27237271392960816
174,1.0647366882006435,2.3793235925783605,0,1,0.9195120256274872,-0.14567703082291825,-0.09928430540240651,1.836686830192585,-0.6424833299141405,0.15737644990736707
175,1.154083458502019,2.2611407575265696,0,1,0.9446852697054234,-0.1241475440914543,0.1931019518720085,2.125006783639969,-0.07143633782241457,0.049797203652507366
176,1.2386221313173509,2.1488546556175536,0,1,0.9942469157787578,-0.11832935913724005,0.3910269498939703,2.8903052432485405,-0.10161000507961088,0.21034486868067656
177,1.310441215415869,2.0501803260782503,0,1,1.4353577634335053,0.23642048662908152,0.1287951590329287,3.3822762461569478,-0.6761662922486535,0.5672768633501515
178,1.3624359903496335,1.9730248819142262,0,1,1.4650027559141467,0.6789262026260929,0.22727572919895264,2.4639404798164084,0.18294198566257128,0.9495708916721279
179,1.3892815600977853,1.9248775632232304,0,1,1.5544700128490685,0.5203096161121241,0.24704878543960504,1.4388925597116422,0.026176107748699114,0.9091197389064782
180,1.3882075221116152,1.9117170835446406,0,1,1.541037597491397,0.31765103946310663,0.008609946994221315,0.6092143829053133,0.19811120780463737,0.472905939156753
181,1.3594294935804232,1.9367250259509117,0,1,1.2431310414348247,-0.11018120368924762,0.020241929482403304,0.8982909962153708,0.06407100300053736,-0.2058163365588233
182,1.3061635989895568,1.999260915327335,0,1,1.3505082855391117,-0.23488960573212148,0.2114084423818442,1.1586438490959083,-0.12205493719961391,-0.648341663693938
183,1.234228240205521,2.0945057515885166,0,1,1.3828443181948307,-0.19311738931962913,0.253981337474927,1.7829914209896833,0.19734670620394484,-0.6274132679323785
184,1.1512973103573623,2.213943085183568,0,1,1.205547487513691,0.05716100036474906,0.17518672188078974,2.8231765391596317,0.73206863776783,-0.40460508821051216
185,1.065908507826152,2.3465503779070245,0,1,0.9014125251224309,0.18523177667962548,0.19541493940730942,2.817636413410647,1.026224360693373,0.009480466877024285
186,0.9863622076735866,2.480361713242691,0,1,0.8102491407425958,0.10313348384781923,0.11711438412948613,2.470142766071636,0.882079402905152,0.2856811284167931
187,0.9196724447048736,2.6040139935653595,0,1,0.6612996677937356,0.01522098475549286,0.08077746030439785,2.5282195359429505,0.7357871298548964,0.3257349905092412
188,0.8707366340933061,2.7079832736221836,0,1,0.6157974723128506,-0.025011937292978383,0.052086929942729086,2.824996338569987,0.42212440792929634,0.1995290361578203
189,0.8418598786540207,2.785369218622148,0,1,0.6451810428022624,-0.01806535088979488,0.09372113831728227,2.8192946870548674,0.28039892006510486,0.09646554453950705
190,0.8327037483080091,2.832214008077358,0,1,0.7922211840743315,0.03953257085761561,0.10313351985576381,2.693434384140342,0.04849994972576758,0.1594902131852091
191,0.840643363585904,2.84742109390783,0,1,0.9858744321859562,0.12857194467917496,-0.003786072135219185,2.709377778008077,-0.25178183156130357,0.23202764305002055
192,0.8614335907209185,2.8323780179845253,0,1,1.0794552658954708,0.24023707971309258,-0.11409661154198043,2.843692621851768,-0.04794947385477211,0.3003692866385096
193,0.8900302766051476,2.790396249281077,0,1,0.994147597162231,0.29090763599734,0.0029699161041740483,2.7968711430225106,0.3641817627179036,0.42452208837351535
194,0.9214030696564148,2.7260686327484884,0,1,0.9204745143581031,0.28325465694276536,0.01876672217556317,2.56263446163845,0.19519942198472753,0.47045304373309177
195,0.9512110331179716,2.6446263274642123,0,1,0.9124416701151833,0.2706668490010144,0.013972553094415101,2.5260948050753496,0.11346207728285751,0.4292125578916719
196,0.9762696661158135,2.5513627913108214,0,1,0.907638798893088,0.23755187882704504,0.06265793747179375,2.4849800724402225,0.0961115342953067,0.3975175283912747
197,0.9947908414276573,2.4511795296353105,0,1,0.990860198839037,0.20203309988227086,0.07735096861633482,2.3467125672270535,-0.01362967379860521,0.407832117811717
198,1.006409714414517,2.3482893071036206,0,1,1.0652541647336022,0.18576144193788235,0.07658502636657863,2.15243322231856,0.02951203462860053,0.504420758183958
199,1.012026371554151,2.2460863074852258,0,1,1.0418365875719935,0.1733078335965901,-0.0003435174306983833,2.1929858938937645,0.003506172521809818,0.6090571545100137
200,1.0134964922537264,2.147163290449226,0,1,0.9830677005812414,0.19669114476786403,0.04586841990432246,2.1661921779263356,0.0686242850529816,0.6800046318773905
201,1.013214535220135,2.053428608769925,0,1,0.9181684898324103,0.1709399940525066,0.044082297324049675,2.0546658897549235,0.14860251540883304,0.718468758844655
202,1.0136454077164585,1.9662603332373438,0,1,0.9542031049555821,0.20286520011841355,0.12242074069369996,1.9246196898194883,0.01298890561083303,0.6938867615865107
203,1.0168687788794875,1.8866403729359325,0,1,0.9264578285579896,0.2090319365783042,0.28219270513661654,1.6765852582667466,-0.02273569551917771,0.636757335025885
204,1.0241979955555054,1.8152370660962038,0,1,1.122427783768202,0.1678089001753283,0.09972325792411171,1.7126510588840034,-0.3962620229078551,0.3592475477174147
205,1.0359254696693208,1.7524351277876349,0,1,0.9166808318594503,0.2569277255657303,-0.008923636082054511,1.791300982865219,-0.12080614157526745,0.09175683673917126
206,1.051236450386779,1.6983311828209597,0,1,0.5921816152022727,0.23723238755393508,0.08062515679327364,1.818694784361233,-0.0968862977347131,0.08646980321935324
207,1.0683238061647637,1.6527191625857787,0,1,0.6757261196790328,0.09478927704067638,0.15118005321634836,1.2517937949078082,-0.7140046450371188,0.14754291268059455
208,1.0847124418746095,1.6150914906238933,0,1,1.3546161360168287,-0.2321513164204065,0.03757115642281878,0.7685756175638503,-1.2051228280284343,0.2553770737646403
209,1.0977479896337607,1.5846820678992681,0,1,1.6463155531926847,-0.2798165117374003,0.09635062878532215,1.4514742524431963,-0.14670300715783918,0.3507825859378353
210,1.1051373314071786,1.5605657411885638,0,1,1.0834018915090753,-0.12406119171335249,0.17074903259189217,1.640793901606631,0.24853022788118562,0.5159794488229278
211,1.105397194463491,1.541800367617171,0,1,1.0735440581179718,-0.14311901336843003,0.03880413019484017,1.464184246459034,-0.23877612571624335,0.604024935584373
212,1.0981015403264043,1.5275658549919444,0,1,1.1368817677210927,0.009436802156227614,0.06393187723403247,1.5973760440166735,-0.11210529050753928,0.5941244095951478
213,1.0838930893558498,1.5172430507583148,0,1,1.1884432878024145,0.11079365750023937,0.07417054803521847,1.4870520056645764,0.17155125116465578,0.5722832648519957
214,1.0642902942467865,1.5103941865746329,0,1,0.9999229433683109,0.07651973299342658,0.0522596511174322,1.4139821721628976,0.3054147272253483,0.5245880123683606
215,1.0413582554124443,1.5066466566099626,0,1,0.851566997288968,-0.03600627960062665,0.08843510492568149,1.2703531789958062,0.21377453461458595,0.4936304034219575
216,1.0173286516007418,1.5055247131118328,0,1,0.8462244457593642,-0.20002700238790644,0.11442155565104373,1.1436536498738015,-0.06914280777770776,0.4890333837348445
217,0.9942544903812618,1.5062997963454663,0,1,0.9761952828285065,-0.16827221443092577,0.00569521062593065,1.2565217010118521,0.019372439527385984,0.5405444592164763
218,0.9737657221350917,1.5079250080960158,0,1,0.956292708554037,-0.10084343872070704,0.021672977234590475,1.4347493373645541,0.16219945849379697,0.5951232640497889
219,0.9569550961789907,1.5090819983469674,0,1,0.9375179507955851,-0.007777531361520958,-0.025791008209631268,1.5605902941233532,-0.08282217901506274,0.606249396307728
220,0.9443857995414536,1.5083186020347008,0,1,0.9448929425645635,0.008121544691229802,-0.11120812432845519,1.4704827986180835,-0.09141342653228969,0.5638523700620592
221,0.9361866542920767,1.5042218974432753,0,1,1.0301322198168883,-0.04297093378018547,-0.05271570609365285,1.4696388943648635,-0.06222244554249327,0.43171316262366244
222,0.9321892231820218,1.4955700306814586,0,1,1.01346242143856,-0.06014880497246994,0.07882586450059993,1.3691691515084219,0.2896795180753673,0.379336167800911
223,0.9320618454383701,1.4814287650960318,0,1,0.9332579831113447,-0.14000167831210245,0.0887896002016015,1.3550556387743893,0.20648516366351008,0.3862340698764261
224,0.9354076479421077,1.4611838689948846,0,1,0.9326596714157687,-0.13494460904291156,0.05347215532645626,1.546252427541357,-0.036320832308152175,0.3399283609641801
225,0.9418143228015904,1.4345140736639432,0,1,0.929444776311458,-0.027131805727689855,0.16298003997706095,1.4725629171325958,0.1462744586851325,0.3365282017414522
226,0.9508654011850654,1.4013139435222621,0,1,0.8592313860905131,-0.015838752394541408,0.16130473293404848,1.3336538598270435,0.22284023732915828,0.36605925925245925
227,0.9621375984176899,1.3615831989398446,0,1,0.8404580935198128,-0.051983848493606905,0.058370137440861655,1.2679206810065702,-0.059855341143273705,0.400822510391044
228,0.9752117058947607,1.3153142156732662,0,1,0.9250176829580646,-0.028943096262420826,-0.007823286810560704,1.1347460615908993,-0.1471168894861182,0.36116092636125385
229,0.9897137930245061,1.2624246681055775,0,1,1.0054727129741283,-0.09251613271631828,0.02180672899215018,0.9941791373022978,0.06508949990870791,0.2664073566390339
230,1.0053815181911019,1.2027833811264927,0,1,1.0941069703152224,-0.10237599963145536,0.06056706435519187,1.055325330221166,-0.014651543137834476,0.20526585450498533
231,1.022126280984458,1.1363548849016076,0,1,1.1493928023519242,-0.09230408681163178,0.04238299766979559,1.120033461666868,0.019338550753445094,0.168378767997301
232,1.0400492467312763,1.0634436887653806,0,1,1.145041681977413,-0.08389267409446084,0.06941721540588927,1.2289583735241474,0.21193729036654316,0.1333124261474266
233,1.0593773828346247,0.9849684614957973,0,1,1.0578344531239652,-0.07072512784079911,0.10757172224846545,1.094932775964744,0.20013637354208447,0.2057270071812175
234,1.0803133569635242,0.9026633315622553,0,1,0.985404310485365,-0.05299440354701541,-0.053373236003523054,1.0843157683640305,-0.03393808778145157,0.31722922483380195
235,1.1028283338454374,0.819107176510787,0,1,0.9390801856511328,0.07455552238014158,-0.17849733399413928,1.0009538913487181,-0.2824071872588684,0.37359226686560687
236,1.126452071051654,0.7375248006033638,0,1,1.0676488029452502,0.14346377671241345,-0.24176265776688868,0.5814652847729106,-0.42997958336343867,0.2638612822462695
237,1.1501177537259941,0.6613746136516212,0,1,1.154399475321296,0.09013098279484415,0.18389910034058202,0.324208474457901,-0.13992754218847753,0.0634889378601759
238,1.1721012992551632,0.5938137753463328,0,1,1.3453528545560731,0.21546413161519096,0.4854600758550678,0.11490464027076197,-0.2397944243131186,0.1162488516667289
239,1.19007256563137,0.5371827288654865,0,1,0.9374617392324799,0.05530787130831177,0.19157694142798098,-0.27000737200502173,0.06633701030064129,0.08178713127000424
240,1.2012664841392808,0.49264848466354494,0,1,0.7322662049866158,-0.021554259906459004,0.34114646656530534,-0.33132842779017346,-0.23143693781586205,-0.17802167384298687
241,1.2027841788993676,0.4600871662261887,0,1,0.9900596944900045,-0.02530231430555783,0.4650680040485251,-0.31701385762145223,-0.47253338686141344,-0.2790061132210613
242,1.1920233516510093,0.438201521489154,0,1,1.2710882001461787,-0.049593883246935366,0.3239378430538702,-0.3505932659034308,-0.6226109302649062,-0.20468576666434876
243,1.1671945065569769,0.4248028817029775,0,1,1.4148588761467502,-0.24077117792579122,0.2651855549931015,-0.28171770295003107,-0.34275780213232243,-0.11947515397359833
244,1.1278220791723357,0.41716955788057347,0,1,1.2923081776366983,-0.21925360324736828,0.3370888554674814,-0.12959075694502084,-0.07041450129802022,-0.15131629046278985
245,1.0750996454757156,0.41242151418404177,0,1,1.1338616895984757,-0.13200069332636444,0.2820857555945473,-0.09877352018796945,-0.04207835200120423,-0.22093762799197939
246,1.011991767420233,0.4078900650366919,0,1,1.042014471847225,-0.15142153903522493,0.24368010428289189,0.21101915303025306,-0.03669735520902465,-0.31929847931151756
247,0.943039502664508,0.4014745047888991,0,1,0.889100148523977,-0.061741073841244914,0.1720507508392097,0.4331392119484954,0.033155748376291115,-0.37679349343036933
248,0.87389936450452,0.39195811195523933,0,1,0.7863057543494414,0.04356339185682601,0.16769489737880697,0.2480412526358813,0.0949969023678856,-0.4059595829894432
249,0.8106998308157569,0.37922921903623785,0,1,0.7324669284175798,0.020673478799633483,0.12997525596670104,0.174867066426377,0.08824555175801224,-0.4012780909290147
250,0.7593253184010589,0.3643474575806958,0,1,0.6752510627082635,0.08197303723393431,0.07715503024116371,0.3199861914565566,0.06997428386603301,-0.3423135806094268
251,0.7247373874864012,0.34941742173808593,0,1,0.629108138641155,0.1406967416880622,0.08651942358729083,0.35369309779342023,0.008172436861932872,-0.2566264583317803
252,0.7104248692694562,0.3372698859912155,0,1,0.6157493687712501,0.1685477628208702,0.1134702042514542,0.31265442897135104,0.00026563506705761636,-0.1904847206954984
253,0.7180471596829964,0.3309912185050698,0,1,0.6398348120636134,0.13804021741524464,0.13996293890950065,0.022715764125842523,0.08181532762041903,-0.16249615137009357
254,0.7473043308612749,0.3333763747232268,0,1,0.6618923845502663,0.09381362622693305,0.1440936386098817,-0.06627153643905448,0.12694103169512402,-0.15308489390689659
255,0.7960374741427154,0.34640098731391183,0,1,0.7255973543354435,0.05576551303894901,0.06752646797370737,-0.2040510398952972,0.010330380015527808,-0.1760223514205252
256,0.8605342397334382,0.3708051654498636,0,1,0.8552239251412026,-0.023725775043693283,-0.058727280537701244,-0.3829567354778926,-0.14330108227445962,-0.16190328813878335
257,0.935988318837801,0.4058573888897939,0,1,1.0083285263962236,-0.07528865162384855,-0.02921591795267023,-0.39239595023565843,-0.1631551760610107,-0.11116808615007302
258,1.0170395269257835,0.4493358300155062,0,1,1.1193658847543833,-0.08863383397996441,-0.003871829564037315,-0.09847089341373158,-0.09328377060578634,-0.06717908870775445
259,1.098308632627372,0.4977401545536365,0,1,1.2139045096241001,0.00947606718867399,-0.01801084838349729,0.24014837097082425,-0.2553197462340271,-0.033950384025654555
260,1.174844883583445,0.5467263272148041,0,1,1.3054159622661794,-0.021053724079468854,-0.10674630118494827,0.3723764892996312,-0.4140885460588127,-0.09365277314556965
261,1.2424269210220797,0.591725796958444,0,1,1.214119065245942,0.11379652995481791,0.015247896516789547,0.5119141273279425,-0.09704365640284568,-0.09776857667914397
262,1.2976947468504687,0.6286650814197001,0,1,1.3166627624384988,0.12444339055646857,0.11540467696728374,0.5640576726594044,-0.3947762926891176,-0.11727633959377864
263,1.338131253343981,0.6546576387239734,0,1,1.3986972807707145,0.16612306110851002,0.09246252315659372,0.9231185056562025,-0.5619608993512695,-0.2678188031272424
264,1.3619460427315677,0.6685183005486621,0,1,1.1921860208000483,0.11001698578880874,0.27925381212884354,0.7438701408818098,-0.7294376136446518,-0.24212414275481467
265,1.3679362529552308,0.6709686468045568,0,1,1.0593835230167015,-0.0327064464946995,0.3414713522160894,0.4681279228930003,-0.5804394598410222,-0.1903103792827051
266,1.3554055865147854,0.6644682961896029,0,1,0.9766941072848113,-0.06836340819769135,0.41402345754145176,0.10834007078498438,-0.4054138226760807,-0.189278087498788
267,1.3242059615776585,0.6527084568916265,0,1,1.2384278776965267,-0.11755185960337063,0.27333384733853666,-0.1206954247869269,-0.5083560590038438,-0.25868558865691743
268,1.2749187540924742,0.6398990419065529,0,1,1.3967969533832885,-0.08234951508448828,0.29798790264865677,0.11075721878023274,-0.011715507851653439,-0.2800173928648308
269,1.2091238156382604,0.6300269884504105,0,1,1.4676447540428355,0.025802536700619237,0.21971837847516829,0.4236755432073876,-0.11334085526184359,-0.02325474116775469
270,1.1296452885059685,0.6262480156893205,0,1,1.4562153768305712,0.12130209802503839,0.12734850794074296,0.4421887152650527,0.09812430302007179,0.30215529716160466
271,1.0406477237450167,0.6305130831154713,0,1,1.0874338458312462,0.06369870598777631,0.11148025914745542,0.09402080398805766,0.505380476995599,0.4672674087835131
272,0.9474962385928298,0.6434528020450713,0,1,0.8844367825031964,-0.11276974319451243,0.09679051151882512,-0.2382445809710543,0.5618830931383683,0.42546242824414443
273,0.8563713658132499,0.664476975475299,0,1,0.7124658488118782,-0.2522347455675033,0.05079312323528529,-0.322269411254447,0.5532429663813854,0.41305722399203965
274,0.7737052973280869,0.692012310873669,0,1,0.5885307147745744,-0.2404758598219309,0.08969960780164934,-0.16227505453182622,0.4458951798892642,0.5027508697429026
275,0.705549770071526,0.7238016707515978,0,1,0.5470471736114989,-0.23582179866302058,0.15551520831948118,-0.011340823669988565,0.5349368370555201,0.5434189749026906
276,0.6569880796582088,0.7572097725703298,0,1,0.5154184995584608,-0.2225471730253738,0.15057172894173929,0.3439923813561196,0.5378798969055822,0.516406318805307
277,0.6316759933458894,0.7895062882619989,0,1,0.5166112087679636,-0.2439211215534406,0.12538446569099,0.4654911474852519,0.20697863609921202,0.4452077369472283
278,0.6315562198649202,0.8181175856604863,0,1,0.6236465269567343,-0.25799935763158904,0.0904755394062959,0.509711551114228,-0.06863720017039136,0.43601444123984423
279,0.6567527936066438,0.8408480089075454,0,1,0.7324256967668336,-0.1552017656062834,0.07840213419472185,0.7061139670214434,0.029548640306926114,0.3813166362525677
280,0.7056248219233262,0.8560664203160507,0,1,0.6801085806663434,-0.11422537639776072,0.02823491826572362,1.0200200560631576,0.0976542128426286,0.2237531143550019
281,0.7749485243007397,0.8628355324771908,0,1,0.6251451708180883,0.021989366023598446,0.058928180180264626,1.2038397299154573,-0.057334660787426606,0.022464796727114027
282,0.8601992406790568,0.8609471833720648,0,1,0.7659069538103002,0.12983643426944302,0.13426190394203735,0.9206266907317603,-0.0820327206694916,-0.1481747906482478
283,0.9559087021753524,0.8508398986065684,0,1,1.0539353413202406,0.15552731247685828,0.17630283613257097,0.6927267929412745,-0.035219592980411885,-0.09808282733571358
284,1.0560661718043978,0.8334210335504723,0,1,1.2248346278036202,0.16985615348309632,0.13752669182985963,0.38472134101065925,-0.12913224364884432,0.17939149520662337
285,1.1545197495683013,0.8098669127155449,0,1,1.2642418021135369,0.12199998126756624,-0.07291806462937928,-0.11076735438784235,-0.47340541767597166,0.40466829937142335
286,1.2453344354078804,0.7814894392196879,0,1,1.0950872769074536,0.037347382655484214,-0.24476648276781315,-0.6449860211921453,-0.1810150453689307,0.2681889692252579
287,1.323086544018889,0.7497186022560067,0,1,1.0593615752097139,-0.14091195354049232,-0.09778527493630945,-0.9054921307799163,-0.34522235865080864,-0.02499186048309226
288,1.3831055761925741,0.7161797132378471,0,1,1.2277626071606562,-0.3494119599295417,0.16883358333158824,-0.769060705932863,-0.5815657933917,-0.043065976627983935
289,1.4216874496666063,0.6827871528604382,0,1,1.663344875142505,-0.33319690015247044,0.6787821713908422,-0.42604440483986633,-0.7319146456111268,0.15483544867034765
290,1.4362870052662497,0.6517664951105623,0,1,1.4694964652188254,-0.16832836260278158,0.46229282967133134,-0.20795687066010293,-0.08998476046998391,0.40004475010751017
291,1.4256750073662843,0.6255539104683118,0,1,0.8912483853533616,-0.02472916689463059,0.46447620471867773,-0.1807972138857641,-0.21363347542441516,0.48757568997873996
292,1.3900439548775025,0.6065755371607392,0,1,1.252653806798076,0.13182534063503776,0.45716969249637324,0.21806570746187998,-0.8088459486963703,0.4337710356647957
293,1.331063550925116,0.5969476764425655,0,1,1.3466701866379176,0.22189983571979915,0.33588991588064576,0.1713251866865698,-0.006304097512355822,0.23275636983647496
294,1.2518894984554647,0.5981536765627153,0,1,1.3285372428729127,-0.0070520724804091295,0.281996490824421,-0.5337430189131271,-0.018089487468392985,-0.02712379749471291
295,1.157107465545321,0.6107567120462797,0,1,1.2940083952564003,-0.1902835047267492,0.14250505553714882,-0.7417649382238183,0.08436811194192669,-0.19873049975466206
296,1.052572653573753,0.634204888360921,0,1,1.109763017676933,-0.23571043328465993,0.1808573842827478,-0.2676027698536484,0.07037447863562284,-0.3520331664959151
297,0.94511080602457,0.6667737411872664,0,1,0.903551890933948,0.020389506665217837,0.1350052363920033,0.005276936461146088,0.22657124223347067,-0.4713260286462491
298,0.8420783576110749,0.7056731320854215,0,1,0.7051746319392961,0.18115795244910485,0.04990031092294111,-0.27874387299805686,0.12251459762298876,-0.58658902791313
299,0.7508178347129719,0.7473227528741054,0,1,0.6933073588148294,0.20899464404223672,0.04451793260190727,-0.3638300635747619,-0.0024801545796550987,-0.7024664265980657
300,0.6780692391636262,0.7877708987316264,0,1,0.6458471477651514,0.170298611141044,0.1256429244090672,-0.3596137583947016,0.09265248392459338,-0.6887775873097045
301,0.6294009770043156,0.8231993535574739,0,1,0.6343601646552111,0.14510464911101426,0.13241756306948463,-0.5300929852383819,0.15391113638167148,-0.5695979877131441
302,0.6087123121215829,0.8504343594358335,0,1,0.6310393996165743,0.08335632434664539,0.09903036494602536,-0.7684638949317045,0.23965855303072786,-0.442395424597758
303,0.6178476463692814,0.8673746181198381,0,1,0.6222979045204202,0.009825750830682241,0.05251981849684752,-1.0174596476945035,0.24259207224988974,-0.37234558206398805
304,0.6563598665325868,0.8732507570652842,0,1,0.5276915670289064,-0.03172855872351347,-0.0003771633604787603,-1.0762847013714851,0.4291583325790006,-0.30891352889901624
305,0.7214630683078532,0.8686510259132627,0,1,0.431862884296884,-0.06973823792769256,-0.06713445040583964,-0.8090861111253923,0.3772355175347657,-0.20278085926956194
306,0.8082123289209422,0.8552937923981244,0,1,0.5741900224838319,-0.028241215596823865,-0.07284926509272646,-0.6154493740610097,-0.07445577953048212,-0.11662828697821
307,0.9099248992922849,0.8355937253927894,0,1,0.9712674781950079,-0.2039196457917195,0.08665092314351805,-0.7132138017310518,-0.5529866637132099,-0.14334611311238898
308,1.0188077309283028,0.8121295767286888,0,1,1.3685217204517082,-0.4295061791982827,0.08353401047131016,-0.5606242684097605,-0.04602390169212363,-0.12066612846261338
309,1.1266982787846547,0.7871498358988533,0,1,1.2577250948121845,-0.2389905534684958,-0.021714935380567645,0.14396444772443107,0.36792478602296147,0.0036029464323984943
310,1.2257949156450387,0.7622394590541094,0,1,1.115367894859751,0.05533094731932241,-0.10640620529889115,0.6462223332518053,0.08168224156868309,-0.008450301825876305
311,1.3092729286363494,0.7382219837561562,0,1,1.1932306238459314,0.22248125161558804,0.1343390752933524,0.5561662451204072,-0.7259031433330205,0.09196122587918101
312,1.3717354129303045,0.7152988195628832,0,1,1.4569377754235737,0.23247753734521076,-0.023089685413600933,0.27680977856642325,-0.6707901420160747,0.19413005314279633
313,1.409495599931892,0.6933549941200357,0,1,1.2694488430568345,0.15390472793603516,0.3499955653772501,0.08416670791170952,-0.43663216613464473,0.12070421068202032
314,1.4207064752941845,0.6723152718204213,0,1,1.5791225650491392,-0.10660152816353365,0.427915167028336,-0.09302824173339166,-1.402303511937325,-0.4383610207201418
315,1.4053551112348737,0.6524268915549555,0,1,1.2631733077086489,-0.1509872840325078,0.4033394220497762,0.257007001711051,-0.06680072790016518,-0.6712505028061024
316,1.3651419476214497,0.6343732156206239,0,1,1.0026504149739297,-0.0901833397929278,0.18592572534649288,0.01844429401951757,-0.29566574296047704,-0.4500755733193021
317,1.30327307414318,0.6191845718757185,0,1,1.4033462159233416,-0.08531731439310186,0.11884633239766199,0.09372463938519267,-0.3855313747458184,-0.28228626688917946
318,1.2241940387772365,0.6079918246348008,0,1,1.4117908254685152,0.06569801073100885,0.199517545478912,0.34269676311727604,-0.02525706736973926,0.03626760308146647
319,1.133278564497938,0.6017248439004363,0,1,1.274640379064982,0.012951157897236594,0.09231367325125142,0.1674302487522281,0.29165102877186505,0.2925714167934289
320,1.0364689172113304,0.6008614213181165,0,1,0.958087625976229,-0.12805927783606486,0.11113849640296261,0.09260239824653782,0.620836588654218,0.4277776112171731
321,0.9398698216785014,0.6052896936573926,0,1,0.8132583208933456,-0.23464616219459536,0.11832936748603454,-0.001856887194974477,0.5301047879544061,0.40635564831619253
322,0.8493256595617321,0.6142930080577396,0,1,0.6757815161786095,-0.25104254764192224,0.1423026007638813,0.1478441280219129,0.5111203813435763,0.3430263559169802
323,0.7700364676496385,0.6266324678368984,0,1,0.549111126806146,-0.21399437097481191,0.15611110923759022,0.24739003364633408,0.43919420169034135,0.37819036361421965
324,0.7062692640820937,0.6406985882140049,0,1,0.6437987507730116,-0.14162849869324562,0.13413503300714824,0.22754281463978726,0.1696129570108416,0.4484830183210244
325,0.6611953089058894,0.6547155202372312,0,1,0.7740359871158337,-0.0492532484770012,0.11302118354468393,0.29870494583532664,0.08745299655406212,0.47531253129638107
326,0.6368452632455626,0.6669885149666718,0,1,0.7365053248788913,-0.050328763896589045,0.08840049737827874,0.3224914574619628,0.31131913860178134,0.3945604014236919
327,0.6341427563952958,0.6761766582583827,0,1,0.6533690814345544,-0.1670531031344498,0.06186977897281403,0.3738313413416086,0.522166198621845,0.3276366686332214
328,0.652967989309217,0.681550742251083,0,1,0.6448485397192419,-0.19639078173423724,-0.007047459061083125,0.6656546250329803,0.3356574432656427,0.2893451632551449
329,0.6922179505699153,0.6831727430127473,0,1,0.654361827195605,-0.07398744433171987,0.004194795826597491,0.9244288428364968,0.17565636684459002,0.17871598242702802
330,0.7498555361324768,0.6819255201490104,0,1,0.6794173906111786,0.07021719019210708,-0.06365065314571414,0.9570384620092358,-0.04617605332833309,-0.05005034116021992
331,0.8229604315786645,0.6793433638702037,0,1,0.8139089654602581,0.16018893707218138,0.002064584696004273,0.7425761930772393,-0.07712416215233817,-0.23866028635267267
332,0.9078020686905027,0.6772496674530931,0,1,0.94257138590809,0.11858386153369956,0.06968046567078522,0.3269672696880268,0.01741376866229637,-0.2509772569102032
333,0.9999513407780468,0.6772822248738593,0,1,0.955224039478958,0.013418617534937562,0.031139679334659456,-0.15567498582875117,-0.08969313157921814,-0.10919870817642262
334,1.0944404916170656,0.680444496645119,0,1,0.9870151066348504,-0.0893290648490014,-0.0642478355551008,-0.43428186848944117,-0.360841136308704,0.023559381124505476
335,1.185974578625725,0.6868258877396508,0,1,1.1355421917666197,-0.13091190674857026,-0.012029622496625628,-0.43630789632559835,-0.4876591017068233,0.07005038815519594
336,1.269190757434758,0.6955775030403437,0,1,1.3459474181874393,-0.2015807662905677,0.20425022771447252,-0.055146657163106,-0.6074282644929906,0.1800490571473174
337,1.338949972390366,0.7051424371180671,0,1,1.568007928267134,-0.02185811221020471,0.5079215684952113,0.0722859050545424,-0.4066366897317688,0.5557669672407974
338,1.3906364313263653,0.7136630050913265,0,1,1.3354652274314345,0.08428980147935597,0.3739397545853247,-0.08244290929946207,-0.37302203593623834,0.8217874191357566
339,1.4204480714682783,0.7194426010706588,0,1,0.7385074634327614,0.0010402218499876875,0.25864148622677086,-0.6276186910540992,-0.21710129688529067,0.6513461539351662
340,1.4256856172046075,0.721328931082693,0,1,1.1074582200172174,-0.17024966042285897,0.4361968124343777,-0.3765599065777779,-0.9353845880927264,0.5091613876528134
341,1.4050587530698235,0.7189093931095304,0,1,1.7215311846805612,-0.021000878744394654,0.3453094084728307,0.3526240271554099,-0.6568552066303418,0.48996769836001747
342,1.3589945323406232,0.712470754204736,0,1,1.6476517976034164,-0.039299996969504446,0.367044419195483,-0.1078128561942155,0.08489803021612756,0.3129697211766874
343,1.289871455960335,0.7027614775740861,0,1,1.382893360296626,-0.10835035495670672,0.22514675172870274,-0.43257267976622316,0.02478513177916246,0.07912581635237285
344,1.2020693528361293,0.6906699085081158,0,1,1.2027551124845623,-0.07883099792727512,0.1873543825871828,-0.5006857458685683,0.021549933581806634,-0.22062285444432422
345,1.10175409421999,0.6769543402417496,0,1,1.2480586543074539,-0.10119425580703402,0.1791632189028359,-0.14097138682705346,0.025348166468248796,-0.5006389557604138
346,0.9963856273612567,0.6621210088553375,0,1,0.9708941128909437,-0.004153718354608287,0.14792406789558005,-0.10344029644943589,0.46048760761871443,-0.5889067460449462
347,0.8940066355734076,0.6464718544509743,0,1,0.7506526091007951,0.1019176307534827,0.09616430196225961,-0.25324848662813904,0.3487862915451204,-0.6361360925458145
348,0.8024165958741107,0.6302766514380282,0,1,0.6455099564846185,0.12031925138798112,0.08642325736362307,-0.37537857935327074,0.205815897096748,-0.6305169931028337
349,0.7283587190610005,0.6139900504761721,0,1,0.5964986336965884,0.15375448083361606,0.07565569877107851,-0.31665822400794275,0.10750715374168245,-0.5270360271588655
350,0.676843295883374,0.5984371851747088,0,1,0.5877930199756015,0.17816737795020837,0.07102673796729962,-0.33179364296400954,0.07971006926110843,-0.38687798139071694
351,0.6507020431785605,0.5849176138465635,0,1,0.5670719259409158,0.1063092601374338,0.09886341235829367,-0.4266440051615729,0.1249424491415158,-0.2950472304077256
352,0.6504250867704242,0.5752039771165144,0,1,0.5331625302102584,0.04016858341634939,0.014731144803657293,-0.6078788135449668,0.10358202037050586,-0.19582867185469888
353,0.6742881550312081,0.5714238743484189,0,1,0.553970330119984,-0.06130891449745462,-0.11240574893649452,-0.8459969321689345,0.20603573996950933,-0.11000996642782604
354,0.7187374896658862,0.5758159668069697,0,1,0.6873591265589608,-0.19670637937390922,-0.09502439649013457,-0.8672149816273447,-0.04440215000906172,-0.062400340250851366
355,0.7789625339302052,0.5903656777702572,0,1,0.9068992454447886,-0.2978000900572423,0.025046537505339254,-0.5320844317147183,-0.2311643106187836,-0.08124934416713939
356,0.8495538475217604,0.6163694188593146,0,1,1.0432983040133612,-0.28165740365075376,0.07605089188488616,-0.004375937542068445,-0.012690196113154854,0.039679450606311596
357,0.9251275808965876,0.6540373593036731,0,1,1.0610270051030575,-0.163407209477646,0.05069782102386052,0.27009724039451005,0.05425715332446182,0.20115948433037592
358,1.000812000654739,0.7022802228553655,0,1,1.030348220851225,-0.16468128255539846,0.028801682671038106,0.43564230699886236,0.11568766360963026,0.1502743493816404
359,1.0725373132941465,0.7587950425497032,0,1,1.0308311233123124,-0.1214836843161277,-0.03807857623048409,0.7918787461485297,0.033219425939359976,0.10331213838945329
360,1.1371306257486065,0.8204718620910237,0,1,1.0505733112722289,0.03342068433468537,-0.11324153380165541,1.0301729770375143,-0.20589803953366634,0.2081112082021249
361,1.1922687946086314,0.884036277197122,0,1,0.9621804064624188,0.27205669949702654,-0.09232049313783403,0.716688955498712,-0.4813876230823968,0.345774755399159
362,1.2363657137057567,0.946773531470881,0,1,1.0453915799882858,0.34281749644601517,-0.09654819836279423,0.49717392199455607,-0.9405097331120817,0.2677287128571827
363,1.2684624472713653,1.007167742375298,0,1,1.125749440857706,0.1728998359470706,0.1742028654531996,0.3184639864850017,-0.7497479778627526,0.04863899775581136
364,1.2881541547605024,1.065318087230437,0,1,1.553540725300288,-0.3806681089805688,0.4168824239548345,-0.13759802060207765,-1.481059438073775,-0.4787037061808333
365,1.2955431676332883,1.12303513484015,0,1,1.57950837721196,-0.48362593364883366,0.3830061005841224,0.8969881876262054,-0.425313646628961,-1.0138361629403
366,1.2911800258545867,1.1835662362100823,0,1,0.8778264048880818,-0.061106098879238374,0.24214999562806191,1.3340797672586984,0.2249830278989601,-0.5839177800068611
367,1.2759664445939112,1.2509632505877137,0,1,1.0671580558265228,0.12528023982214723,0.0842423319010852,1.0363006424270769,-0.469629937203319,-0.07703646820930828
368,1.2510361587934802,1.3291974477453923,0,1,1.2130704353894077,0.03188340009703816,0.13896158921942198,0.6875487062432344,-0.39521697227415,0.18624302467429868
369,1.21765946423597,1.4212192674833122,0,1,1.2631135293534486,-0.2634403383362864,0.12143507165904602,0.8484608673279015,-0.16765116796300142,0.19941495609361348
370,1.1772063662136283,1.5282031568517833,0,1,1.1170536108221947,-0.3710789850820649,0.19290993186419464,1.238158602026486,0.044728299170476105,0.1417748698622221
371,1.1311674880046334,1.6491731244702625,0,1,1.0659112858505784,-0.35678079242948607,0.20093651589506478,1.6568343062027495,-0.1351182299940092,0.09145609434571601
372,1.081205098173119,1.781084290870192,0,1,1.059864899660403,-0.224248549974651,0.17057358032637,1.995137618119001,-0.16426961385003286,0.06549787438018373
373,1.0292012933839165,1.919295591665878,0,1,1.04543573617161,-0.07704882001371419,0.07440153900020668,2.1856038657679853,-0.13569685837108386,0.12164112220656995
374,0.9772773238739956,2.058272146657063,0,1,1.0499130378197055,0.009499364812125941,0.06607408463288776,2.2231526523504916,0.046158388974032856,0.1722633961250729
375,0.9277676294751287,2.1923341221627557,0,1,0.93710900578352,-0.04154795425956501,0.07318646547283508,2.1289814313769537,0.35061676088987226,0.247605247693552
376,0.8831428016979094,2.3163103344179663,0,1,0.8144292223404788,-0.14435363451183375,0.010398261965945397,2.140833199826203,0.34659588095644916,0.3363027582646102
377,0.8458878854580276,2.426020272011768,0,1,0.7774678772005329,-0.2212338882307452,-0.01744105853233854,2.3435111267749633,0.3158985992571753,0.41817509999172187
378,0.8183526121166199,2.5185587856063596,0,1,0.7543966166235524,-0.16071776380143257,0.014741568481599247,2.610880312979575,0.34877983676151425,0.46588912215501194
379,0.8025924226873178,2.592378054618421,0,1,0.800716765321567,-0.05896734978513389,0.04062913335194798,2.7725757897269494,0.04186884942219428,0.3877146668858132
380,0.8002117674758917,2.647165727519364,0,1,0.888423664981512,0.020576335216284956,-0.06014727636873753,2.8566691041633026,-0.07423203055631127,0.2518519644485192
381,0.8122096204792256,2.683533756552418,0,1,0.8475866528425117,0.09839335562129531,0.020240534173990198,2.7056604224084766,0.1407324791750636,0.18550845308949204
382,0.8388205489278037,2.7025744977623503,0,1,0.8945360004253258,0.03637806826720066,0.08971243144475184,2.428912366634029,0.07543481664980138,0.1383816229844153
383,0.8793495897843544,2.705397409276747,0,1,0.9781301034518712,0.00805270262182901,0.09809084973550573,2.3154140160740644,0.1105447590402645,0.08653575823518246
384,0.9320160060175028,2.692798346825169,0,1,0.929611200779773,-0.09153027912081836,0.05115441663246444,2.357943708480436,0.120736473143238,0.06849023199391412
385,0.9938450997888572,2.6652011893777177,0,1,0.7533743443485882,-0.30432282446799636,-0.004422989426558771,2.4601403153219037,0.0041462749901835065,0.13686861075559048
386,1.0606705283894555,2.622938635162603,0,1,0.7451911869703853,-0.2777988289886581,-0.07621735263520313,2.4841268892128183,-0.20595884594147962,0.2534226877658616
387,1.127318906786776,2.566826546167329,0,1,0.8509100769481522,-0.18813752064583955,-0.05591806734257117,2.666306761885171,-0.09260470468956589,0.33716234556429897
388,1.188028217347714,2.498872275179779,0,1,0.9598978628300626,-0.09434352931797768,-0.07000747623797904,2.8356351677521445,-0.39397420553799634,0.41904632618450405
389,1.2370946434003014,2.422878753008215,0,1,1.385919762337091,0.06614850688499524,0.031735556311925386,3.0155138095315186,-0.5050425145905157,0.44232963066054753
390,1.2696612551434225,2.344691526795263,0,1,1.5972125633480776,0.3400107664495724,0.32128809278858594,2.8620238187503957,0.235086503764607,0.443746099031848
391,1.2824882469174355,2.2719037858650504,0,1,1.485711125722514,0.4863207002767494,0.4168087221304001,2.2631948479284922,0.6969160921015666,0.4133500777626378
392,1.2745163197541058,2.212980211546993,0,1,1.421719742859632,0.44838319147342776,0.3916903760480598,1.8941222191910903,0.7194008275495052,0.22591818371992675
393,1.2470741443466138,2.1759434573434646,0,1,1.2151606148565757,0.2475843922409378,0.2575060063137251,1.6460985453634418,0.6599530140800995,-0.028036518693950806
394,1.2036753228926025,2.166919887940383,0,1,1.084494445457592,-0.050340126310120865,0.09789846634930804,1.4368672035657015,0.46043727009298496,-0.22170770465794126
395,1.1494594201666501,2.188904052279788,0,1,1.0145010201244693,-0.2180836958502579,0.06919803596379057,1.4827321082073974,0.5053724850955053,-0.28364970608766416
396,1.0904128287250667,2.2410507280165155,0,1,0.8425453933291827,-0.1685468374346979,0.08558612114624907,1.9340313745577513,0.5240034707138641,-0.17293783364064058
397,1.0325361350708948,2.3186573083358812,0,1,0.8901743438720019,-0.018979889902488823,0.04030015959519546,2.5706689377450527,0.24672300626945332,0.09933604152716727
398,0.9811072290852593,2.4138097825799703,0,1,0.9622957578327591,0.10487204137093067,0.05781837183692759,2.7624903758299917,0.2162708552294341,0.33977004324449334
399,0.9401407427109817,2.5165033475734306,0,1,0.9497932363554877,0.09494338447410358,0.023643582264037066,2.6186740401088313,0.2987592540261097,0.4313963242444782
400,0.9120867227138774,2.6159713716559785,0,1,0.9012407403120182,-0.008050226203634983,-0.02982087591611141,2.656011319232273,0.26945067446524634,0.46906390687126265
401,0.897764233996436,2.701973611031678,0,1,0.8336719921834794,-0.03020452443153642,-0.0038546671042781876,2.7367528134668078,0.14027611005757365,0.48490400121006016
402,0.8964973889158308,2.7658671998373063,0,1,0.8388490485133089,-0.002718753758539771,0.022303599426526044,2.7306415669318187,-0.0056400346946897375,0.45938981204983986
403,0.906406774269957,2.8013622678028,0,1,0.9255721370601055,0.08175042771595027,-0.0010623404426711122,2.879566428761011,-0.1934010451355344,0.4681727956246263
404,0.924798010110291,2.8049227940625427,0,1,1.0525158461924566,0.21217846493557907,-0.001034430497435302,2.916937114327578,-0.30493055847509676,0.5190574774358707
405,0.9485784979352594,2.775814813000384,0,1,1.0294995875631439,0.3555184256889657,0.010523399629416648,2.8266500281820575,-0.26030827410746976,0.520319771847954
406,0.9746316355451241,2.7158416852723133,0,1,1.0952815430932341,0.331674857691488,0.04915627075677097,2.4979627016363244,-0.09513711743309937,0.5054328581749519
407,1.0000956072415785,2.628846957210113,0,1,0.9539720845933128,0.2540570195663036,0.09246029843654847,2.4240759227858684,0.3275414135617007,0.5426406695825876
408,1.0225322670162071,2.5201005657768336,0,1,0.734334343254565,0.20844037040884558,0.027583075872752508,2.1605759130117375,-0.08135639447930253,0.5800607938407045
409,1.0400161034491566,2.39569426760164,0,1,0.8397455783775785,0.11198764515282761,0.010238300300642674,2.089062074513908,-0.13568222750043368,0.6203466787181974
410,1.051199263416562,2.262044293202193,0,1,0.9905957284637649,0.16759758588457785,0.10394447942305224,2.3472350370235286,-0.1232832234683997,0.6039805496140278
411,1.0553980191121244,2.1255403529329295,0,1,1.0762469304114477,0.25238924826945025,0.09172346721026628,2.1620257769956583,-0.32089692949627296,0.5082893907729079
412,1.0527040733203672,1.9923163414211407,0,1,1.1286606458741573,0.2342447053672492,0.05049182939891822,2.0773018895434383,-0.11528453873765729,0.4727112644120583
413,1.0440775179342239,1.8680803205600478,0,1,1.156929548302973,0.22347128735521007,0.08712541652322535,1.877656562392424,0.10321250664581004,0.49125328755494446
414,1.031354133521042,1.757944353946277,0,1,1.0932121014230813,0.19080908646425496,0.27511644874710045,1.6109352417365552,-0.029348267729245914,0.38630100751469565
415,1.0171077662826782,1.6662268991063163,0,1,1.2075470529235393,0.0951563808302565,0.03981070429387906,1.543494433993512,-0.2307051877337582,0.20603239050765215
416,1.0043428072036165,1.5962353411510715,0,1,1.0131481500518427,0.16761438568665785,-0.03298883326260973,1.6123401248555238,0.4209031270476991,0.0992950335282944
417,0.9960409278052058,1.5500539479234836,0,1,0.7206977390739177,0.3797812704447916,0.1763493917354248,1.6669798548995483,0.17010597197404062,0.07435473580482058
418,0.994636895732336,1.5283628023435782,0,1,0.7908531821275401,0.35582926715100166,0.1265795300890177,1.5320414552296444,-0.26827347674708757,0.02212785343501507
419,1.0015336686224043,1.530311494414477,0,1,0.7204498105359899,0.19362670998795906,0.13255756912602973,1.3864196737597863,-0.040836735734582144,0.00036536059383634757
420,1.0167709782876577,1.5534789696318256,0,1,0.7846921677926968,-0.0703855404653182,0.16109683428711769,1.1871358505355307,-0.47790319962017286,0.02089647997034875
421,1.0389290887503904,1.5939596954951374,0,1,1.198533261249053,-0.267783288873585,0.09827782394129458,1.3306482819507663,-0.8594270090493639,0.0038111675417270004
422,1.0652914829414324,1.6466066966688027,0,1,1.1361396513537605,-0.17622387705424722,0.08459764800985002,1.6815829546900847,0.2102565138409688,0.02778515476788298
423,1.0922308943036543,1.7054276059252407,0,1,0.9025893629303531,-0.12795904599493954,0.047334279018714405,1.742932737048401,0.09908084835542733,0.14799381511353196
424,1.1157457289192212,1.7640876486793053,0,1,1.0979350112320028,-0.08095119974686626,0.019907382688727812,1.7756008227634408,-0.39830995580836626,0.23362577743771482
425,1.1320624999247233,1.816446970800923,0,1,1.1754211440758404,-0.12062047845996055,0.03047721992322195,1.7558983137066926,-0.2176787481216248,0.3669658149011926
426,1.1382181019820714,1.8570573126696672,0,1,1.2406819508715279,-0.17885145889600415,-0.01935500897870418,1.8358352205494266,-0.11035007097837381,0.5803623825758811
427,1.1325315381888037,1.881556645000387,0,1,1.4169765374392835,-0.10655432141582821,-0.003961074152102775,1.8888416966003925,-0.03423292796793808,0.7402883925850929
428,1.1148769015858446,1.8869201489999183,0,1,1.3147583519316026,-0.01626435424689268,0.0577969705176943,1.782103062642178,0.23737927129779743,0.7793519001553707
429,1.0866951767353468,1.8715498672447601,0,1,1.082581548502145,0.020453699361079658,0.03415662387714889,1.63030218796696,0.38798640363191944,0.7653340685752232
430,1.0507363821371114,1.835214849912921,0,1,0.9354178779661825,-0.07688019549116207,0.06923735907010341,1.5107816152276832,0.42205107586265456,0.7288272914823866
431,1.0105900536634818,1.7788833761642622,0,1,0.8605073479742894,-0.07555813682965705,0.07878821395191421,1.5118733266560467,0.2580808667415568,0.6709910310150701
432,0.9701134814451713,1.7045060011872848,0,1,0.8327419188004795,-0.057181861122945814,0.051821759317764664,1.440726139734372,0.3575738540947418,0.5751711738513858
433,0.932882488068294,1.6148029216487683,0,1,0.8322402930518136,-0.05931973705001807,0.05212368068028844,1.5436921571432136,0.291506494130193,0.5077408350311825
434,0.9017677917566108,1.5130839298167877,0,1,0.8452676659762526,-0.018114132381708534,0.018007373078670227,1.4938077541927548,0.21495810289151016,0.5301305851692161
435,0.8786960367707213,1.4030977424988187,0,1,0.8194443564793238,-0.04516202997303665,0.001165036958000373,1.2450909084178567,0.13347758503372473,0.5804301085623743
436,0.8646059657819771,1.2888854316570588,0,1,0.8844669263248826,-0.03654936289640442,-0.028696864563785767,1.184574853570906,-0.19292353971435686,0.5123061104442298
437,0.8595686689606762,1.1746072231602578,0,1,0.9332968525582191,-0.0021438082345466057,-0.010695984759202623,1.2341566582309376,-0.12615528537998597,0.404764498588712
438,0.8630122186835019,1.0643195463975976,0,1,0.9589772427178402,0.03452702929344229,0.0673430166567702,1.1743212836768053,-0.04968670775134914,0.2867609077400709
439,0.8739787181311393,0.9616949811864846,0,1,0.956340015536344,0.05028476021034042,0.0912101494756778,0.9706824737871838,-0.07026606595690897,0.16955162629691456
440,0.891347817672078,0.8697022419805344,0,1,0.9703153414143767,0.04253578824789775,0.06944532083917597,0.8071233194686771,0.032926097488360784,0.0914872527009491
441,0.9139833254612201,0.7902955246663215,0,1,0.9409766845119888,-0.007553036346839524,0.10189982588392305,0.5819832973664412,0.15639320457326278,0.06036474601003508
442,0.9407920670672447,0.7241906292982682,0,1,0.8564162148903223,-0.0585136079863394,0.12234256947455523,0.4415883733598932,0.22707707882258643,0.07961568927026391
443,0.9707168246748249,0.6708111871079323,0,1,0.7811235385020641,-0.11453272954991699,0.06593770546515769,0.37095205757286087,0.17675536675989983,0.10637077818711516
444,1.002706700472187,0.6284604205754917,0,1,0.8529219649351016,-0.1335000726640273,0.05339109122375248,0.5817384500133785,-0.02328418187145055,0.13238878789569178
445,1.0357083342764346,0.5947151359624845,0,1,1.082923283956561,-0.12906651319903234,0.053993696369419024,0.6409644462051007,-0.24651623032279882,0.21214769649021958
446,1.0686977294163933,0.5669674667140459,0,1,1.1905579949769336,-0.12769664914221765,-0.020797257293979812,0.6195268737051339,-0.07823100580196252,0.3593193300611794
447,1.100737405421987,0.5429839504360753,0,1,1.192403900128279,0.0060133888338692945,-0.05150132017032416,0.7478258445819143,-0.23378926223287494,0.5114961153793816
448,1.1310194050957982,0.5213355766626669,0,1,1.188383087570302,0.11685598767942668,-0.06046196567863426,0.4843523317589191,-0.2929476057791934,0.515982368430105
449,1.1588563060624866,0.5015866973142116,0,1,1.0816206021468817,0.0017779138053777676,-0.09923874330903693,0.21489350264514412,-0.047675365989795826,0.3544466116342293
450,1.1836056548845457,0.48420553394447785,0,1,1.2143140392413345,-0.10039276259206976,-0.014565764304647974,0.15710690943021416,-0.23674996467460532,0.2546306900069154
451,1.2045412163020324,0.4702455849763189,0,1,1.2807720156313398,-0.12136116950369179,0.08455710553884015,-0.05890061916663434,0.011203369330408037,0.2584077382987995
452,1.2207043757918612,0.4609087111161686,0,1,1.2964295834614545,-0.05730862938287821,0.43780265204694335,0.1028532774770643,-0.15857495108894845,0.3362939371670291
453,1.2307821847083869,0.4571146578906046,0,1,0.9634477919550795,0.014592562496512295,0.24638036755588352,-0.13197265661822485,-0.15912229420284177,0.31817566552034926
454,1.233071791694692,0.4591735327868159,0,1,0.64386662244986,-0.017344938395640257,0.30477263396435705,-0.3032530067802812,-0.06819695690979449,0.09057667629824782
455,1.2255976789866874,0.4666097804758328,0,1,0.933682831748484,0.025370429415906993,0.38898382458081393,0.014493781154858087,-0.6831056779423569,0.01684618965839515
456,1.206424019967598,0.47814004365027873,0,1,1.3140089976254543,-0.04873399256320697,0.29465018016123057,-0.22904499352208446,-0.5597542691723073,0.03354353447296427
457,1.174135732831836,0.49177774460179813,0,1,1.5376382598764025,-0.27150050864794784,0.33890631477069755,-0.30335075471733447,-0.254287547108297,-0.1377504180517655
458,1.1283755708734855,0.5050324493286709,0,1,1.304279162922011,-0.28610088364213243,0.2884857287598199,-0.13953324914350548,-0.06953301235347417,-0.28301553097939386
459,1.0702759906942656,0.5151864323668527,0,1,1.1153647018620767,-0.11451120811182317,0.22126825566565134,0.16348325340404207,-0.10518947812934042,-0.3854629018464453
460,1.0026466627640815,0.5196426994570613,0,1,1.0534021630637842,0.021370973462342978,0.18649363727587243,0.21965927885734288,-0.15155599991313987,-0.44006284030207155
461,0.929854006251279,0.5163288613079148,0,1,0.9299299225634307,0.09221096795827878,0.1332854985959529,0.037916186546797966,0.030429650763352772,-0.4834065664666267
462,0.8574134512356814,0.5041121471389818,0,1,0.7790829933041835,0.1108070303758741,0.13258323928454765,-0.06737520854316915,0.1946928293215827,-0.5586209547634883
463,0.7913761192624128,0.4831509760114806,0,1,0.7008163375768983,0.04935095929140627,0.11256230507572011,-0.018543004469162117,0.26656631029751765,-0.6232920064188656
464,0.7376220219494858,0.45509454870459665,0,1,0.6091049746967772,0.05999169961874727,0.13668553794013327,0.12319620651751695,0.22106395267082543,-0.6078439628888086
465,0.701176376340704,0.42305248333341927,0,1,0.5792661238100834,0.010633360378585937,0.14686453875637448,0.1068389913549152,0.03635845423466193,-0.512676434646784
466,0.6856496401073668,0.3912936508160953,0,1,0.606515378374915,-0.019964584585703615,0.13709532580844327,0.17773624060845047,0.08138303479660321,-0.40025616610433085
467,0.6928711071640841,0.3646902225909441,0,1,0.6413132041083062,0.014383841456475083,0.12440941435400715,0.061653140087619365,0.20076087994057337,-0.2559835688915979
468,0.7227480220812221,0.34798323253764907,0,1,0.6837937087970049,0.0367309355461431,0.13528798789999363,-0.004997497058539692,0.2948501238103792,-0.11465447401642222
469,0.7733453277806412,0.34499224464085015,0,1,0.7362428042842927,0.06640694539801262,0.1241432555666051,0.08160312391621106,0.2044562563193554,-0.04658809881963022
470,0.8411511564808853,0.3579142261764251,0,1,0.8525453828882383,0.056977370279750056,0.014153718489289679,-0.02391464106544712,-0.06088831123638353,-0.041974568789255755
471,0.9214720802282055,0.3868528461397686,0,1,1.013787386217796,0.0262364533621801,-0.013307321450881116,-0.14434568393929448,-0.09535732735990265,-0.0718256944736407
472,1.0088903845836323,0.4296879155718483,0,1,1.1613994752021388,-0.1844608555824403,0.03279826690854969,-0.05720881289123356,-0.1057625339128198,-0.13512978173031198
473,1.0977155506069476,0.48233520445534606,0,1,1.1191770656187172,-0.1490596251046966,-0.021107640363307905,0.37555785235027955,-0.008599035234258715,-0.13919618784980906
474,1.1823771886202306,0.5393662098783609,0,1,1.0875352571312358,-0.0458008189604122,-0.1347532064912092,0.6408387174151319,-0.39081925986464383,-0.14635130336860858
475,1.2577344839536713,0.5948742241635752,0,1,1.1881264709898256,0.13825495211690897,-0.10808956303945462,0.7223865519271331,-0.44567501660029557,-0.09067945287037006
476,1.3193053597760294,0.6434141548975945,0,1,1.338149197158898,0.28215964307343805,0.11626810927694617,0.48329281276814795,-0.47368630645023974,0.03670044491566317
477,1.3634333700195265,0.6808310821636407,0,1,1.4701074777416423,0.2596823578298813,-0.021770553693854833,0.6958620701795744,-0.7581544269603153,-0.08145683840071834
478,1.3874110087138025,0.7048284864230483,0,1,1.1580819589167826,0.08819473840386086,0.29630454155885094,0.25220938359629985,-0.5248212937639121,-0.0648980947370271
479,1.3895757516344796,0.7151925703452136,0,1,1.3085303194401068,-0.20373733827332152,0.40905381928671286,-0.08090882551505503,-0.9261905711091087,-0.359387947319755
480,1.3693957792186153,0.7136608481652285,0,1,1.1244988558632976,-0.13119520562372855,0.4422017958525888,0.3988004805440919,-0.3201942544048626,-0.5180606139530717
481,1.3275583939817013,0.7034876199925006,0,1,1.1347088543033852,-0.018256313893508958,0.30757332015696837,0.29792176291566824,-0.4180602980961606,-0.36013139002690414
482,1.2660557243574337,0.6888112739012062,0,1,1.4673894512009547,0.04610761706716519,0.26043311330577745,0.2510377356979635,-0.09512851093432835,-0.23949697843370799
483,1.1882313529847042,0.6739620030133716,0,1,1.394813054179425,0.14394568587279294,0.2773908868951232,0.37993390092709056,0.1097551762297807,0.0994324236976618
484,1.0987248971335783,0.6628494322693095,0,1,1.3497573284201962,0.1730772842949231,0.11043458808965957,0.19918381492409792,0.2152140662413658,0.4251011823447121
485,1.0032528266310383,0.6585274599019227,0,1,0.9612340438523663,0.022643469814850877,0.0383516297747014,-0.07186800002375955,0.7668787376996163,0.48907037752490684
486,0.9082045008898726,0.6629606989261615,0,1,0.7434197286610296,-0.09772862963165038,0.08494990330592296,-0.3162508832832013,0.6688498253640397,0.37710882987506694
487,0.8200962240972939,0.6769495395744498,0,1,0.613913995310608,-0.2321250251824272,0.12583985501991116,-0.597669511889009,0.46357121025379505,0.3012110244369531
488,0.7449772980445358,0.7001445854078218,0,1,0.5829493372227267,-0.2506849867737516,0.12938435151429695,-0.5261991898429982,0.2622667249441384,0.34727347457768976
489,0.6878939748869919,0.7311030592056232,0,1,0.5973837155439075,-0.23425209194536284,0.15135686550006852,-0.30603697765025195,0.49776068122901856,0.3830376604000775
490,0.6524910859141997,0.7673857100076903,0,1,0.5547650774205448,-0.2552167704929987,0.18447274123087576,0.12998775021606415,0.5143226975599678,0.36700821400630074
491,0.6407883747847827,0.8057305048254648,0,1,0.5808338058119228,-0.22439855753192955,0.11764507659532274,0.38366327017535645,0.06320732093145594,0.37386198891312195
492,0.6531304579914423,0.8423489295846592,0,1,0.6266244532783732,-0.2225341037861189,0.0555610506504839,0.47543584948319567,-0.05079266528252261,0.37912014208622596
493,0.6882850121140938,0.873366182885958,0,1,0.6601895689799513,-0.21185702733773434,0.03544455386866883,0.7683344072283924,-0.03593757469538276,0.35155270038128467
494,0.7436521538673406,0.8953723017490272,0,1,0.7675354867144935,-0.1353578993591338,0.02002575114874927,1.1647364172207995,-0.0639971495444969,0.24936570013902865
495,0.8155448283999471,0.9059855562853886,0,1,0.8057259544002923,-0.08481249481816602,0.10112028002299189,1.225364301795855,0.013426102084328116,0.12961970418617957
496,0.8995020588319655,0.9042852168548389,0,1,0.8436527935848724,-0.057526467776417005,0.11649012167421031,1.131964969023922,0.1819145305812186,0.12191988737750399
497,0.9906014397620619,0.890978953825414,0,1,1.0275210853508479,0.07321542500176059,0.08732878353455771,1.1427795219687524,-0.18568795020693055,0.10517684021032675
498,1.0837416489468619,0.8682366302216861,0,1,1.2934259486311215,0.10276318046890197,0.040256803108649604,0.7867447523095308,-0.30194366696099106,0.19030047715508475
499,1.1738705649536467,0.8392232965692233,0,1,1.1995377604948803,0.16817205452612147,-0.03240319312801063,0.11909217017268858,-0.12474095715180591,0.328870446798354
500,1.2561459945527358,0.8074601164160282,0,1,1.1167357325899194,0.10770730077125878,-0.15964291440309702,-0.5283689744306926,-0.16397923654574584,0.2603549424504752
501,1.3260383996002756,0.7761930991116067,0,1,1.2269295523503387,0.05877679120593022,0.14503671614832905,-0.3860950607492946,-0.1774469639737903,0.0867919808881019
502,1.3794101535557424,0.7479324487087834,0,1,1.4815076563228424,0.0704076546538259,0.5095656623058229,-0.5298597920656664,-0.27614595554716476,0.300890926907801
503,1.4126188857514779,0.7242481188102268,0,1,1.1709687586513107,-0.047065335633602684,0.31882948961517416,-0.8036185517213745,-0.35365709632506126,0.38830962761326343
504,1.4226890671970462,0.7058075192137134,0,1,0.8732993932698346,-0.09998249465088915,0.37351947198728047,-0.9060607175078124,-0.3702727327783516,0.23551742536891884
505,1.4075800126350773,0.6925658940595553,0,1,1.2441943073158117,-0.14039397449170557,0.4006645708687553,-0.3773031064934017,-0.8005951485500333,0.19065316117147527
506,1.3665447743921506,0.6840010655429749,0,1,1.7357476314259985,-0.06386405153804538,0.3754174451572408,-0.0019786126840370434,-0.546864611437016,0.11136646282569089
507,1.3005184037669846,0.679322508404595,0,1,1.542209131368567,-0.04731479885202861,0.4344666505617356,-0.2123202533863534,0.12128651380576286,0.008043640696650135
508,1.2124203405312828,0.677644548594829,0,1,1.2118597571479899,-0.03612227493671998,0.28913778334053386,-0.7579653809800704,0.06415426528615117,-0.040961544829608135
509,1.107246870170962,0.6781467619700904,0,1,1.138147004118888,-0.023319677509667368,0.26132008981917626,-0.8038301211674306,0.09419963788049338,-0.1959800451488321
510,0.9918778173818424,0.6802316681676154,0,1,1.048962924820763,-0.05977285439007554,0.26618498529487095,-0.479838044062082,0.21695867795467152,-0.44736832206954996
511,0.8745951439975165,0.6836552875950023,0,1,0.8180957049318479,-0.013097610800180865,0.17328507913564542,-0.26543522341897674,0.3928218976517146,-0.5735155960013274
512,0.7643727766982117,0.688587866755112,0,1,0.6438988374522099,0.08334561512811833,0.1144528014727928,-0.4013936754660204,0.259209089130928,-0.6506173521904617
513,0.6700338083345624,0.6955724139164743,0,1,0.5980311391361696,0.091668647394023,0.10605745805750687,-0.44917546234807415,0.09583180668323973,-0.6312679183584252
514,0.5993853708580495,0.7053757955164073,0,1,0.5513097702866709,0.14373620003310608,0.11024610799142932,-0.24470640246482567,0.1517200849968129,-0.5452248241608352
515,0.5584364570985195,0.7187579749646045,0,1,0.5094392210645077,0.17568175361522143,0.0889826365449147,-0.34743044157732683,0.10710760169311437,-0.459831660048808
516,0.550786073218816,0.736210357261601,0,1,0.4917079707748334,0.1130491318565996,-0.0027688238931385376,-0.563771974977124,0.005515718984999141,-0.38309390701734164
517,0.5772480791592408,0.7577236056995372,0,1,0.4263946515615862,0.04484461259751518,-0.06432827727096185,-0.644273972567186,0.04019529033774733,-0.29025949307762905
518,0.6357598260196705,0.7826331032052284,0,1,0.38349093550177166,-0.11260892931666772,-0.0702973893567512,-0.7517797426983205,0.24702299817462112,-0.1909760821737366
519,0.7215988996993908,0.8095639138408548,0,1,0.5260132794278275,-0.10948018810169086,-0.049305046161490756,-0.8105105362024295,0.2585118220385325,-0.15126042554916155
520,0.8278955123154755,0.8364721510669058,0,1,0.801281551006813,-0.09585238639756552,0.07762943320531517,-1.0102706383068623,-0.002062168175915754,-0.13986674972121138
521,0.9463739187174439,0.8607691740557053,0,1,1.3332985441888803,-0.3109216806439001,0.0036500113368610775,-0.8714528202643738,-0.5238561061144293,-0.028778661796459947
522,1.068199446315455,0.8795245865301365,0,1,1.4920117559190404,-0.3446937119720573,0.021731687581267548,-0.14819853736391927,0.06610327328854831,-0.008405749700051092
523,1.184780545734408,0.8897656270220929,0,1,1.1123973923479127,-0.195835323907731,-0.04564297284039848,0.649919359274361,0.23485485559068728,-0.04724976126161512
524,1.2884049359061114,0.8888966072233657,0,1,1.0293008121424942,0.025037499497553302,0.04312318555283442,0.901817243814168,-0.19020615354608206,0.07163897182276222
525,1.3726657617038807,0.8752231908392282,0,1,1.2856004972498791,0.10136335391143475,0.08246739627268687,0.7280862407523102,-0.8853969072943579,0.08755274448514631
526,1.4327090693729896,0.8484900115433595,0,1,1.371191016779008,0.16042536785164557,0.24048767209164787,0.7327804109703481,-0.7016623160918335,0.009954460729349647
527,1.4653633625973574,0.8102763447336483,0,1,1.477057782848881,0.10786296025893251,0.4777599397124608,0.5842481432584394,-1.3251329483990841,-0.3085025933335874
528,1.4691956277765645,0.7640915626520324,0,1,1.5075095508753211,0.0801678381573716,0.34613495721665366,0.40333208208185733,-0.6319777327490034,-0.4437610874615619
529,1.4445096805259445,0.7150798402041412,0,1,1.1624646006004313,0.19175952876344665,0.2958040310774902,-0.040832571304140156,-0.15804299822369214,-0.26708750325429365
530,1.3932878915826004,0.669354394095209,0,1,1.3695166799355518,0.05547134595295718,0.11236937586161753,-0.5214443738348006,-0.5674424717814918,-0.3420404849591173
531,1.3190743083910879,0.6330866874344374,0,1,1.4563751776792055,0.05460303202068171,0.232495832864001,-0.22518148720861944,-0.1121495594091147,-0.39110134181254746
532,1.2267917952766967,0.6115332209765512,0,1,1.3821934054467258,0.007259223598231056,0.16775851633920766,-0.2056463744304243,0.13050759705504847,-0.16829164521712076
533,1.1224775453720883,0.6081837191049467,0,1,1.0952084798819002,-0.09839302101330369,0.2035649654028306,-0.2032566663020052,0.5093750195457233,0.07398634393707262
534,1.0129250663387013,0.624178571085037,0,1,0.9294711347617871,-0.25477409309310717,0.15862095631704945,-0.4440685215307904,0.4107144623922546,0.1715041151392198
535,0.9052436595764504,0.658088763641434,0,1,0.7593367385688412,-0.38426847183118706,0.06955155761155846,-0.16064374719627408,0.3292415415103905,0.2323630427182988
536,0.8063750789973184,0.7060907408329028,0,1,0.6136768438903905,-0.34141347893369145,0.10022241625235624,0.22072290512428724,0.18771820899373617,0.4148069744705426
537,0.7226223149000605,0.7625110510136559,0,1,0.5877878878043092,-0.30233381698176814,0.12443577480819557,0.42242637580907666,0.31164883165049484,0.5669318121327085
538,0.6592403740462551,0.8206618002356059,0,1,0.6045771644200735,-0.2194219101481893,0.12313165862355362,0.6254452275147655,0.36201209776246984,0.6178057376797532
539,0.6201195287701731,0.8738363519859468,0,1,0.6672428724916861,-0.14050676537170692,0.06312914329366608,0.8185720429315934,-0.04534245365408282,0.5899303958978712
540,0.6075689642181511,0.9162966462734509,0,1,0.6992952936301455,-0.10372701901797265,-0.012004146437713218,0.9715329897563709,0.019624194959254836,0.5167498678952505
541,0.6221942137724161,0.944076626378596,0,1,0.6343588901023851,-0.045753730444012174,-0.027701148490011117,1.1365170573770742,0.2576558987324409,0.4240666826871208
542,0.6628620354949697,0.9554571804279437,0,1,0.5611278271119053,0.006591847036852412,-0.04365150859474437,1.1071403259151287,0.15514819854234885,0.28131872145086256
543,0.7267587370865183,0.9510303570022953,0,1,0.5441012328642141,0.03022131053385334,-0.02006576971813529,1.0132811532893728,0.24692124911846042,0.07632076938910404
544,0.8095590963807662,0.933352734030906,0,1,0.6339614482132265,0.09827385343803573,0.0173442655408856,0.843078011227596,0.04872986108972864,-0.12962029643870704
545,0.9057168100104622,0.90627353491737,0,1,1.0616117200052568,0.11388246636140308,0.1561702424249526,0.7653384869638205,-0.19482477991046784,-0.18221542446702524
546,1.0088593424614682,0.8740912672057313,0,1,1.3418732484285238,0.17481145262367637,0.23293123485089876,0.5778139185383994,0.316023538363977,0.038333887976321916
547,1.1122372816651849,0.8407247753520839,0,1,1.0671590844015078,0.2311613318302931,-0.00470684066654804,-0.18270450876682828,0.16496420214495408,0.310536418580144
548,1.2091695267223521,0.8090721727222607,0,1,0.932050047675368,0.07289384705227439,-0.1658717747678762,-0.7088759800927755,-0.16132859845902794,0.3134983203451485
549,1.2934509275093147,0.7806761737299739,0,1,1.0918850726346931,-0.04361592609894769,0.06767207119742541,-0.5042726812897929,-0.3521691288969616,0.1649774238055349
550,1.359722357485125,0.7557298845817302,0,1,1.382129699699698,-0.17914198619331437,0.3095570386368597,-0.5017265256604241,-0.45933177265464337,0.29434089981959083
551,1.4038087547629923,0.7333674238867516,0,1,1.737343184679243,-0.14197779432441657,0.5380721776397595,-0.42452487931039545,-0.6288879516494826,0.7092454717832266
552,1.4230064172687507,0.7121159598900269,0,1,1.2701165021777505,-0.017795794585962955,0.4463830185194595,-0.6085520836384412,-0.060085353348055974,0.8280082757087522
553,1.4162810209078804,0.6903596943474081,0,1,0.9760621438813671,-0.07883953351070655,0.44430502012787426,-0.5279940724580637,-0.309860732009422,0.601108659048271
554,1.3843472785829731,0.6666910834016085,0,1,1.4941940817632702,-0.10161638957840302,0.3335269355789664,0.15454780553617356,-0.6710971720782046,0.4072826388190433
555,1.329624180945004,0.6400929892253526,0,1,1.4696630019298558,-0.021412885221416825,0.37672179219360336,0.07128714281534593,-0.09579412849180904,0.13842552309407197
556,1.2560683872397096,0.6099779575607619,0,1,1.2875841138223143,-0.09267403030920393,0.3240325043746228,-0.46899168642199834,0.04981583880758912,0.010958586761801496
557,1.1688850869708776,0.5761658176330804,0,1,1.0826430095988333,-0.013762117519547696,0.203623241147338,-0.5827118346604218,0.05685298213842934,-0.12064276782455145
558,1.0741239923462014,0.5388819346655973,0,1,1.0486297525689279,0.03641054833102494,0.1926904329901715,-0.32485107777920685,0.012613936963399784,-0.3205615553828136
559,0.9781927394891868,0.49881491921220694,0,1,0.9523630792861477,0.06252889250746944,0.13340525686021928,-0.17699866540200332,0.12229075450786701,-0.42163766210600867
560,0.8873427691442494,0.45721811309490246,0,1,0.8171588812602424,0.051517362858251196,0.023448042918482747,-0.291914865287192,0.12237956144398503,-0.47830270159811233
561,0.8071900187109801,0.4160006392749754,0,1,0.7027363672413273,-0.01011429733377234,0.02169584303485183,-0.3609226490951978,0.13140741407017573,-0.4994516149152674
562,0.7423254939265902,0.3777393161960307,0,1,0.6753971374921909,-0.059351546954663506,0.05132246578653354,-0.2931699105952641,0.03693639389452691,-0.42696365871658326
563,0.696053680788019,0.345553761759926,0,1,0.6843981730039677,-0.0606690135290064,0.07735888392480833,-0.1639408851001512,0.032206736534695024,-0.2989053043616117
564,0.6702725462676115,0.3228226227783966,0,1,0.7198771408434002,-0.06882412745803462,0.08334167762323255,-0.14113205323352687,0.0069766669570986845,-0.2173904274711537
565,0.6654830218939675,0.31276699422626175,0,1,0.7134335276971534,-0.06122925238527119,0.05710685385227466,-0.13667141580116157,0.16358348044006363,-0.18501898591914745
566,0.6808976222179448,0.31796699074251233,0,1,0.7223288497192867,-0.05445284321616169,0.05546332828327373,-0.06911597673075873,0.3565783780131275,-0.18044619908393814
567,0.7146139147165257,0.33989640014947703,0,1,0.6849764284663424,-0.0435288827453485,0.03685504487911343,0.10006568282986995,0.20354962913605917,-0.1353928189268724
568,0.7638274419139376,0.37856237724534714,0,1,0.6758234149284048,-0.0017558712600337612,-0.09066258307930905,0.221426296040054,0.03615200097295758,-0.04575820296612278
569,0.8250714217115925,0.4323316240120953,0,1,0.7421694008433658,0.011511191685714147,-0.11659180222501218,0.09416198580765994,-0.08472028908086339,0.04938626535747172
570,0.894476279816717,0.4980104256114127,0,1,0.9030427632192147,-0.050599865917067235,0.03934385974116967,-0.12864519077890021,-0.48448461776893453,0.09492904814759645
571,0.9680354307971212,0.5712134057634446,0,1,1.1544148655590694,-0.17386291557868438,0.02242857041198533,0.05469764303064028,-0.3456349921562174,0.13043312972783794
572,1.0418504122417698,0.6470023954604057,0,1,1.1704063090671233,-0.1600824381019122,-0.07311274218969396,0.5434528529524101,-0.02708378684562767,0.1303362300235387
573,1.1123234309196566,0.7207138346785916,0,1,0.9982732221139918,-0.026855181048663274,0.0466171668513469,0.9225809937299756,0.06950714292914388,0.14350348283920147
574,1.1762798344938046,0.7888370687803554,0,1,1.0019217663223432,0.054304229103947346,0.11852943392844016,0.8226752945650244,-0.6673964676886716,0.1574080190254912
575,1.2310298123238588,0.849772239352514,0,1,1.2129941463511404,0.11207370413310697,0.07056291690723031,0.7832548752110245,-0.5960155698281823,0.12238968654695666
576,1.2743956594636257,0.9042994205944163,0,1,1.1997768523951995,0.1412600599336133,0.46504301536690296,0.47383599892479433,-0.6985773909886273,-0.15802930548799754
577,1.3047249266225696,0.9556337636250346,0,1,1.6148293674389715,-0.1428356644201399,0.3279332152795475,0.5968558738444518,-1.3578874187838446,-0.7801399664565936
578,1.3208926915939088,1.0090122901865464,0,1,1.1182813008222154,-0.05876653972563226,0.33835318164528866,0.9946990343848132,0.32299669722684154,-0.5629455823440354
579,1.3222917621593488,1.070844856783538,0,1,0.9574570491826503,0.03170230030758014,0.1630099442082289,0.22720781444585528,-0.589319240352559,-0.2738676976269915
580,1.3088236701763407,1.1475605200545385,0,1,1.3819966615366217,-0.17698468544546225,0.16187143976996576,0.3292858509828473,-0.7214141744634469,-0.32144129481506634
581,1.2809143538700447,1.2443697945297616,0,1,1.2294499728650539,-0.21163100316457287,0.2419288867429711,0.8326155995679717,-0.18353193134080606,-0.1370326811238499
582,1.2395650531979496,1.3641985788006592,0,1,1.368681454773494,-0.28040034963777455,0.14670679950816284,1.130731935279758,-0.06616005347396592,0.00792968579140469
583,1.1864195826380766,1.5070047035051206,0,1,1.1681817784974138,-0.2694000339715748,0.2198562376186944,1.5692980347818264,0.37437320498340676,0.16522052954818053
584,1.1238112291740494,1.6695861724601373,0,1,1.0199912778608817,-0.26670887348087524,0.15964489462242007,1.5622290752303538,0.12225663345078126,0.23102183607708016
585,1.0547587304011783,1.8458813793166344,0,1,0.9673320273916628,-0.30811158899639457,0.13524602921700174,1.7728668019119533,0.20777727492721013,0.24016462104366118
586,0.9828994038192388,2.0276826559796888,0,1,0.9115513522749841,-0.31304932074209846,0.10279078414291018,1.899881826240663,0.20389678895191754,0.27716319836848813
587,0.9123606490708367,2.205640449786425,0,1,0.9268943293775309,-0.24332955895256916,0.05133286602159213,2.1572966009209433,0.3596648719254548,0.3531363527291829
588,0.8475723640930388,2.370410182953795,0,1,0.8705851981862979,-0.15283136186477514,0.0643778219026255,2.4227909458601733,0.4581174531343083,0.44938403735414006
589,0.7930189514627052,2.513774988799954,0,1,0.8486767284693241,-0.13026859819185077,0.030529145555505642,2.708779208476538,0.27033439411817517,0.5390381290893349
590,0.7529303962660868,2.6295701863193264,0,1,0.80011134956692,-0.05116586049783405,-0.026258088572978067,2.9330967599576665,0.23621065610234893,0.6199462806177958
591,0.7309217817548266,2.7142558074116625,0,1,0.6858067729273215,0.0530290216928725,-0.07254349609492264,2.9152594443675413,0.3041374384262958,0.6210508164343592
592,0.7296070591530275,2.7670438767101673,0,1,0.6618099226643843,0.0802905758981655,-0.06231365597359107,2.787581665337083,0.16439744591029973,0.5061445084860873
593,0.7502289311906638,2.789583186069842,0,1,0.7398803573017076,0.03225660273570853,-0.018588135716214777,2.573918922610844,-0.06823270710122643,0.3421765328236998
594,0.7923549430291636,2.7853107935616452,0,1,0.8413102349019341,0.028233344237020484,0.063481155062672,2.4155030610749826,0.006034619539752186,0.22896799506187096
595,0.8536881858809482,2.75865794538359,0,1,0.8757985150044958,0.010920284655111094,0.11512774293349641,2.494067426043691,-0.07841111324240009,0.09193750682614134
596,0.9300351494460244,2.7143167733497116,0,1,0.8642215130573017,-0.10844324066792083,0.08939417247415779,2.6963612132889048,-0.24799483602654962,0.0566907770002026
597,1.0154704879153584,2.656728514341773,0,1,0.7656824102666534,-0.21784425355126213,-0.03565026698599391,2.409908475088837,-0.20287912557794457,0.22155700212300591
598,1.1027370747469545,2.589869415954942,0,1,0.7276199417633954,-0.2062805125348306,-0.11997605293226414,2.2320826293558778,-0.24297825938809153,0.3261674497761756
599,1.1839056716955472,2.5173188290299096,0,1,0.8279947231650312,-0.1365316390332938,0.02014402452538745,2.46305705545596,-0.15463497613457433,0.2798937591567272
600,1.25127391901909,2.4425098953981568,0,1,1.0578905519196093,-0.15317035078904304,0.0770934873702481,2.9408061930884295,-0.9628430816451076,0.3071012503010526
601,1.298403280227959,2.368994148426213,0,1,2.097465621539061,0.3220738551629714,0.19674307233158617,3.0744752242179905,-0.9787356479692229,0.3541330702772061
602,1.321097994103032,2.300527018360291,0,1,1.9157500162508805,0.7153029714486582,0.5036977348933885,2.327161796320431,0.8517640797613876,0.17597180637442494
603,1.318077771066146,2.2408444884856737,0,1,1.296478689910522,0.44525615900322313,0.48689002436368456,1.6786929568332625,1.0101736266326717,0.05634662022808168
604,1.2911425438807762,2.193150910465125,0,1,1.1999403751795823,0.11038235244049412,0.31760175909295035,1.4843304522467817,0.579305824490121,-0.12909177555804277
605,1.2447729199648963,2.1594996183214845,0,1,1.008828357354617,-0.16307741030678571,0.13138846572252522,1.625793074894252,0.17646823487991153,-0.2706733481066334
606,1.1852816690520867,2.140324065328261,0,1,0.9404222207153601,-0.182198875176668,0.07458649348635304,1.7286879098611172,0.6497089563444157,-0.18533509680439536
607,1.1197445090667166,2.1343259503338166,0,1,0.7745609017848782,-0.05923440561691957,0.10627055782620944,1.8506141007231238,0.83928071409309,0.018459060500262536
608,1.0549590303719356,2.138784426474175,0,1,0.8027787918110547,0.004279199230301345,0.06819767998028042,2.2736641301090565,0.47739678577156947,0.3175829970188483
609,0.9966269419657457,2.150191646382129,0,1,0.9483878538505713,0.060032498113035106,0.061302735101079205,2.5697061707664175,0.15650009244160726,0.602822594336123
610,0.9488617741146521,2.165010439791318,0,1,1.1141553656950467,0.11249157085502039,0.015280730460120946,2.362648574783412,0.17682381442474737,0.6713717060212052
611,0.9140259784563726,2.1803248771652566,0,1,1.0393999434711867,0.10092877032896884,0.006903273458553917,2.2341373221059895,0.37087740238767825,0.48234684370511116
612,0.8928295627532096,2.1942126718087605,0,1,0.8864281839123562,0.05821588953845866,0.048382047583960634,2.142967522663044,0.3150032744814587,0.268017897262366
613,0.8845955346405386,2.205774962834496,0,1,0.8311058519798499,0.08723624142039355,0.05389046040793797,2.1578202002500637,0.08780908373495533,0.1476200220946668
614,0.887608751772813,2.214864413705487,0,1,0.8977808564520816,0.1724675192944577,0.04561809182078857,2.2431373103360843,-0.16602579168722933,0.1021259689222682
615,0.8994891748249298,2.221622440449689,0,1,0.9363814711746181,0.20781699736746057,0.09677316476273976,2.074733198961063,-0.11734273453682208,0.1796312400888256
616,0.9175479768844906,2.225965502619879,0,1,0.9438948916471619,0.17789015390084967,0.0793259002902737,1.931576681279552,-0.0179481618359838,0.2957556339533953
617,0.9390941881233941,2.2271587660245067,0,1,0.9695842739213631,0.08756855630749706,0.10638697996133266,2.0612191619761693,0.05260251530181831,0.3799686076716606
618,0.9616694797204752,2.2235891731253012,0,1,0.9628176922994057,0.05330150164865006,0.08723603397609657,2.1357846068181114,-0.020703333804028407,0.44626522791934164
619,0.9832037449825766,2.212801161625938,0,1,0.943469045304928,0.05598395255674807,0.03746518409801523,2.1078078855578295,-0.008773150542605808,0.4474754909155487
620,1.0021004484892304,2.1917970211944056,0,1,0.9190688709989328,0.05003427467369265,0.019701287915477546,2.1012402536661567,-0.07235999140832974,0.4216569520209919
621,1.0172713145996195,2.157547345683183,0,1,1.003442366090551,0.05622430304482772,0.008578107326018365,2.1044875509141723,-0.1685686386784081,0.4517530155805454
622,1.0281401269586388,2.107616117185814,0,1,1.0564167568869935,0.09588013138733913,0.00492329632681454,2.1516131468903614,-0.1031549665876867,0.5246339470922139
623,1.0346261026962942,2.04078059893713,0,1,1.0420563783478296,0.155703161387666,0.034920326246701425,2.1599746753355276,-0.05150510876750305,0.6035660112499058
624,1.0371053475653442,1.957519072943664,0,1,1.0436417338588049,0.2440590676962107,0.04807202710904966,2.0682826645608796,-0.03655316996832248,0.6484578421801301
625,1.0363424485148247,1.860255273832111,0,1,1.007371389804522,0.34046442734062726,0.07689600394913194,1.9466406004985206,0.05256083271225097,0.6043619009898451
626,1.033386684215654,1.7532915496165022,0,1,0.9955956395935468,0.3304865843172431,0.0880363980592034,1.7327035460828135,0.09224971046149834,0.5088374397891737
627,1.0294363784012024,1.64242778205409,0,1,0.9836625737751754,0.29329561540112153,0.07421440603652538,1.4984614010114334,0.21694894245734733,0.4537415345634933
628,1.0256862695489684,1.5343332480532148,0,1,0.9115954047481253,0.2799976197811032,0.07604050270547855,1.3228351610189204,0.150611490568146,0.41121758450784873
629,1.0231820654475896,1.4357926989366967,0,1,0.8975834027935086,0.18438765498290963,0.054922981420036925,1.1728074944434597,-0.03892083874252412,0.36885526474180913
630,1.0227087751310546,1.3529694512598498,0,1,0.9792920316421155,0.1057388129519591,0.03422070672576544,1.1383982134435109,-0.20156834127108855,0.33347861528515205
631,1.0247308853205384,1.2908118514032072,0,1,1.0564352700466564,0.04515564518679267,0.1709854625569619,1.0736702785562173,-0.21240428232250405,0.27953064524852306
632,1.0293840564403172,1.2526818394600374,0,1,1.1281641989606817,-0.028008785978184653,0.12019324857196992,1.190336844371478,-0.2559932161369271,0.20522936168581934
633,1.0364989931498276,1.2402207455825947,0,1,1.1760972019385791,0.046398706341073286,0.08396800454707572,1.4145484137240787,-0.0345740681543496,0.11903137761221813
634,1.045631527974876,1.253407286470037,0,1,0.9510099761119926,0.1938787457959498,0.12291095831453137,1.4154131094746403,0.0383605255621766,0.10869392956897708
635,1.0560851435319325,1.290725811572283,0,1,0.8937259038991103,0.30683491165598487,0.06861258591181477,1.4863543473666112,-0.06786003096521638,0.13367037647973076
636,1.0669352440762083,1.3493630590831238,0,1,0.8674724229371393,0.28645553692435816,0.06708778604592279,1.3534494838606665,-0.17981143532801455,0.1539326032464207
637,1.0770799181720536,1.425387904485883,0,1,1.0351692783401236,0.03148032326617684,0.14488173663026438,1.071592155048941,-0.5308758887973186,0.12775174371948736
638,1.0853354110840592,1.5139209711516204,0,1,1.289713816950514,-0.15423752975389282,0.20063671532820682,1.2327480477259811,-0.44473385747586947,0.062003228687423036
639,1.0905701330981457,1.6093390741392686,0,1,1.1211815178425686,-0.19572163582458316,0.12626018071105613,1.523657634710099,0.061151867902201874,0.048492918963839005
640,1.0918493545286556,1.7055602833471997,0,1,0.8937427128855507,-0.1981150039960766,0.08980018684369939,1.7619776807065024,0.17964799682635696,0.13681370282654373
641,1.0885606463823616,1.7964202383652748,0,1,0.9664483271305119,-0.22212605864320345,0.16899847274330745,1.8075199187729312,-0.16405090027911404,0.3100633670441501
642,1.0805021386285867,1.8761040445299855,0,1,1.2195560642419372,-0.12870488007486267,0.20989888326138095,1.8482502157247986,-0.07224554413737322,0.5837820191320906
643,1.0679226621634357,1.939567964215617,0,1,1.2413192550306373,-0.04071037355557237,0.10699695875379403,1.8187197504018944,0.3320169738610264,0.8558583324856897
644,1.0515000285807152,1.9828817277693,0,1,1.034558340463201,-0.09141836987219784,0.04624064887486342,1.84886622294612,0.3131263940133669,0.9882651992344039
645,1.0322471275451668,2.0034405041406247,0,1,0.9814694339123103,-0.13317064438589485,0.15014817346476103,1.856281846916768,0.016486192802561424,0.9452547285164816
646,1.0113566553759945,2.0000268826979046,0,1,0.9375562090199306,-0.1286100260227243,0.13927861098461747,1.68709086334588,0.024186926055371955,0.7604827812759178
647,0.9900231738940831,1.9727394320682436,0,1,0.7960271700863673,-0.1652112398409613,0.025103236395030277,1.7084672597073003,0.12002391307123693,0.5350962569355535
648,0.969295481398257,1.922832616826789,0,1,0.8287526795277859,-0.14224071372306657,0.09451284592172289,1.8506443939257553,-0.2089215167057768,0.3899597091225411
649,0.9500027429190023,1.852518324817206,0,1,1.0645232555678381,3.9950841046208936e-05,0.19731897929066639,1.91377788093214,-0.16772284701550694,0.3912645145026783
650,0.9327688550777471,1.7647600887794554,0,1,0.9646656411602116,0.08913810366955935,0.08650806896538983,1.739630897126327,0.21009597719128575,0.5356028232846721
651,0.9180959942255923,1.6630648830170118,0,1,0.8583082213642002,0.10455370686673685,-0.027265173629712713,1.6013268155210962,-0.024750358485787678,0.5779827399968869
652,0.9064770598751823,1.5512658808118924,0,1,0.970689726303542,0.10668248822855993,0.019774091654183843,1.4492698320618351,-0.20419088771049881,0.4742989917552387
653,0.8984938527824493,1.4332983160678516,0,1,0.9708375187141336,0.021860117815492897,0.08727683933912307,1.257038169555602,0.11709109622601364,0.3509629232781691
654,0.8948665133958666,1.3129872179177535,0,1,0.931869341256685,-0.04094432169557048,0.0629581187439025,1.2374494898189803,0.17781819123358214,0.27312601619614707
655,0.8964328869984052,1.1938741882947177,0,1,0.9159464364864528,-0.015920705209429557,0.0825579044743984,1.1306425798331676,0.19382935159832043,0.23310024381788955
656,0.9040533006521262,1.0791034210958053,0,1,0.8893122800944444,-0.022181723467171507,0.13897058329785686,0.9676845973085905,0.34044654152353265,0.22323465032698422
657,0.9184556706547778,0.9713690767041226,0,1,0.868209685030516,-0.05684965876035782,0.1197234763238386,0.8657549899915205,0.3739362222959187,0.24772974663072067
658,0.9400525043955784,0.872906515242366,0,1,0.8701711848161028,-0.03225551021080736,0.1256751835838705,0.9053519376886237,0.25084638614801935,0.26199014821056754
659,0.9687695018537763,0.7854966026439798,0,1,0.8961296777432431,0.009166469032680015,0.03502254629161349,0.8810231197118574,0.09304740634217533,0.26897061671438466
660,1.0039225324470797,0.7104504956052301,0,1,0.9912818579272066,-0.00021469704581369588,-0.043353520846001685,0.7206234364981526,-0.010323103337370541,0.25965844286491235
661,1.0441667660081229,0.6485557374193811,0,1,1.081325713756108,-0.007464809146145303,0.03154643514143619,0.5572356259640414,0.035201018361164904,0.26745957574546164
662,1.0875235494148203,0.5999914953004272,0,1,1.112851699022061,-0.005102153419964101,0.0346565815187191,0.31597420825817474,0.01972506032230652,0.3619681275261765
663,1.1314748926590659,0.564249837218921,0,1,1.0902438353277086,-0.0646587804403988,-0.08344285160426201,0.1749205411761228,-0.13369598618627676,0.3342569536390999
664,1.1731080232576094,0.5401143942063733,0,1,1.2587637855567408,-0.04084731773022611,0.11202089397581672,0.13965985562528863,-0.31197319929750206,0.30338230728481075
665,1.2092936211812055,0.5257368859610616,0,1,1.238983618182116,-0.05222531297165122,0.18992078961665668,-0.11069900713178926,-0.21124252070480082,0.38167695927502476
666,1.2368879258882841,0.518818269544205,0,1,1.1202624047792071,-0.07375315127124611,0.18387067621047073,-0.15863881591191553,-0.4223847127812912,0.4114504200227779
667,1.2529580155028803,0.5168588178217064,0,1,1.0131267488649307,-0.08712467560876469,0.2756736905314653,-0.1546248636278255,-0.6323801621779183,0.33728078164335407
668,1.255035708277955,0.51740964155128,0,1,1.1359501100870364,0.023409642565482565,0.4480283861458636,0.28588466830109777,-0.7843217211986789,0.07295810097628877
669,1.2413989358820008,0.5182549557318901,0,1,1.2899771875769661,-0.020177849539524822,0.47408481663905666,-0.0256231103523877,-0.4431585048562307,-0.05287601834039936
670,1.211356468617974,0.5174873035122886,0,1,1.2094642942342775,-0.12145559582740338,0.39056977422495215,-0.04203878764632236,-0.3276706998804042,-0.05622743324090707
671,1.1654853698556171,0.5134936241744572,0,1,1.1854923033079385,-0.10411397787970993,0.3564890866735251,0.02059049552543893,-0.40754511876159916,-0.1275302153525606
672,1.1057603188876128,0.5049164522717148,0,1,1.1672911014713,-0.10483687271787112,0.33478966127091675,-0.14527735032417954,-0.1019958012044212,-0.25714115369675555
673,1.0355277366023345,0.4906640897053056,0,1,1.0436390733158494,-0.08048304264750633,0.2954565861204207,-0.09224617215945742,0.10496537568913039,-0.39254694984066457
674,0.959307930437655,0.4700142331185791,0,1,0.9052730410071018,-0.08153509466103176,0.2784915670684972,0.03665621682608675,0.1701713812173559,-0.44477191528307475
675,0.8824434196107417,0.4428061804665422,0,1,0.7589621970393964,0.011934051154597959,0.22012316269249294,0.24131937360676925,0.1130048861212895,-0.4539938774342683
676,0.8106413249858223,0.40966973195425005,0,1,0.7178194257473723,0.06572327065504617,0.17385552016987002,0.2167494945316421,0.039472942868569255,-0.45349370643266174
677,0.7494737373281581,0.3722104000089459,0,1,0.7012573598377563,0.05992986380661639,0.14956426250568564,0.18826338080266947,0.07528635423140818,-0.4452630983111917
678,0.7038979115698548,0.3330679639406006,0,1,0.6786385186726772,0.0855345186723885,0.15367352689857008,0.1443963588549178,0.12283924202303016,-0.42678048722140116
679,0.6778419737654158,0.29578699990768326,0,1,0.6761894003362648,0.07345884996931298,0.09874534203880661,0.0818647592202999,-0.04064113079505209,-0.37759503818750056
680,0.673881902642281,0.264476341167136,0,1,0.6990703616046682,0.05501502861844678,0.05165664709892325,0.057914570277200955,-0.14249078180193558,-0.3121938307008308
681,0.6930211678155269,0.24328103508530896,0,1,0.7149537125456793,0.01951044061503039,0.05635532419130152,-0.054718813699113626,-0.1100351642572008,-0.2152230409108435
682,0.7345790631266619,0.23573716041712178,0,1,0.6989977563332179,-0.022533430831565532,0.043718435271720715,-0.06929839986662499,-0.019220178817735845,-0.07529946274478895
683,0.796195473391688,0.24411797565516036,0,1,0.694750447251527,0.003522902007164569,-0.034935575148088704,0.025894864607128306,-0.11323612005644057,0.00832249309365567
684,0.8739628013425486,0.26889947096252026,0,1,0.7731804729024598,-0.0012419496070027224,0.045860264394812125,-0.001598573775807012,-0.05642065737206535,0.053603625383914874
685,0.9626922787912141,0.3084666851145963,0,1,0.9020299026731609,-0.06088636600966729,0.12501116361904616,-0.010446762083128,-0.16117831580909472,0.06043346917803455
686,1.0563063985773762,0.3591479824968353,0,1,1.14730380759526,-0.04056357559806027,0.06227589162555391,-0.044775016892335075,-0.1972994879157033,0.025471249098606725
687,1.1483244545270717,0.41560949347974996,0,1,1.2615343943575301,-0.04578016308469759,-0.006567376296896772,0.0809990231730664,-0.19978846805695252,-0.05200583090773493
688,1.232386023980284,0.4715759315597642,0,1,1.1813758226013733,0.05776290293713785,-0.08374840888794069,0.33249746067711694,-0.27301881003891204,-0.094219769602398
689,1.3027501151622778,0.5207756130739112,0,1,1.323411550806161,0.017350441826672974,0.0791238470718314,0.2773532586931553,-0.6744147591122579,-0.07372742007141837
690,1.3547173969197235,0.5579468148880876,0,1,1.5012086760661938,-0.02867711718305108,-0.03168909636768264,0.5373896136322738,-0.7780435919604984,-0.1801674490823598
691,1.3849406835085152,0.5797073065515571,0,1,1.3461702264635549,0.060766893070055464,0.2940221287613788,0.5414595666377404,-0.47732354556873585,-0.17407643329283115
692,1.3916074328337829,0.5850998129260353,0,1,1.347835226120337,-0.02612942406632796,0.3114318412189496,0.40487341392019366,-0.8351565154907941,-0.24685898280333565
693,1.3744969986117435,0.5756903808204717,0,1,1.2322511550800628,0.11000688643406215,0.3549872819720661,0.540865793890384,-0.3485856170316964,-0.2070719372504528
694,1.3349328011884245,0.5551982115668415,0,1,1.1785011876297642,0.11202952980590487,0.3026376979928796,0.16835370790429102,-0.3877160095849169,-0.10140647355460754
695,1.275657374508565,0.5287446152552991,0,1,1.2795052817174777,0.020405783808405926,0.18585120830315824,-0.14426893008080072,-0.23277721650291713,-0.1845845906947234
696,1.200650415021824,0.501894300667336,0,1,1.2494748041652008,-0.10944440626548042,0.24746914619827162,-0.14612495209722057,0.0682096993930002,-0.20216195914038484
697,1.1148913538256269,0.4796996890313408,0,1,1.2383519686462865,-0.12701336102255442,0.1416598201276062,0.05742362927813703,0.005497703025427318,-0.018299072104251093
698,1.0240530027882728,0.46593814166301234,0,1,1.1528088629201099,-0.0729267286475711,0.10428140337111459,0.27687685735368844,0.3008086285141073,0.27266138841063986
699,0.9341156953356764,0.46266241631676414,0,1,0.8801887884865697,-0.05713597870219596,0.13666569505821063,0.19934495854191672,0.41976843029884986,0.3985248143311122
700,0.8509152542475547,0.4700937124597247,0,1,0.7148441390172078,-0.1738727548206192,0.09882233279578778,-0.08179366269314536,0.3795807684905558,0.3253953865841321
701,0.779671360047434,0.4868103806118776,0,1,0.5984320919241448,-0.24140077106141183,0.11147801837068227,-0.061240562184389016,0.32809368002543987,0.3238359166657051
702,0.7245656484289265,0.5101484845220853,0,1,0.5734966426106161,-0.19942281090162192,0.17960191664157696,-0.0014248601259583063,0.23292138320945624,0.4012229745557815
703,0.6884369078343794,0.536728791287585,0,1,0.6271105768541984,-0.18583837619807203,0.19904740031342855,0.12189633176743528,0.3317327903408702,0.4075863059312448
704,0.6726352376883753,0.5630345859038457,0,1,0.6106805144970614,-0.20149138515116605,0.14114314603485217,0.4402200601422165,0.1856912200317005,0.3779614551993888
705,0.6770417780065673,0.5859689670851285,0,1,0.6738949180863867,-0.16526575856657866,0.08265237984210118,0.5555515768917286,-0.11531934683049762,0.34684207570335646
706,0.70023065414447,0.603320116205158,0,1,0.7129150134192156,-0.11052159985434924,0.08933332302719485,0.5749933655716946,0.017936183691106094,0.2812452741201845
707,0.7397325883507513,0.6140677358731794,0,1,0.7578361136366121,-0.09491258697002257,0.07703959453177227,0.7384257389642338,0.1194394845600863,0.16519690216050972
708,0.7923547912051269,0.6184793649689042,0,1,0.7750444928843258,0.008378909852456175,-0.03140915843388258,0.8268998102509889,0.08493548367428524,-0.009593764093898024
709,0.8545149505544664,0.6179730796392005,0,1,0.8029631803943478,0.053937980179035436,0.01846255764365783,0.5943978181819902,0.1423959750987398,-0.18558681335542546
710,0.9225529482063939,0.614763317989489,0,1,0.9668774197666962,0.012975179766702882,0.15499070874277487,0.5243649934894905,0.28904327605453745,-0.20857764825772787
711,0.9929878323739932,0.6113553753579644,0,1,1.1210298404872177,0.05261233173655976,0.20938459204322662,0.4249308221717907,0.2474524544247605,-0.05706223318801965
712,1.0626900701333135,0.6099986942636338,0,1,1.1690390156755888,0.0806940648833986,0.09846478721738551,0.09364438982420438,-0.026182382546208135,0.09276463773428967
713,1.1289476438695552,0.6122298361163925,0,1,1.1314209230696084,0.05297559009442236,-0.06552197597250374,-0.3648361988637433,-0.18724262455444504,0.1321589218212521
714,1.1894263028716199,0.6186159070006976,0,1,1.0571618474084852,-0.07016569999118125,-0.13640575696565013,-0.6965794880562798,-0.07023319321968863,0.06886641390063927
715,1.2420549669242227,0.6287468644020977,0,1,1.092954859642359,-0.2447708823462903,0.03919781663435905,-0.6578918923839779,-0.32347829044507787,-0.02906608494382602
716,1.284890903579067,0.6414450388973577,0,1,1.3512820189856374,-0.2142153317844864,0.17859254856268916,-0.5093828543792337,-0.5827845137812409,0.1783286845306159
717,1.316022698903006,0.6551014860964611,0,1,1.3207342173071652,-0.13473875434867166,0.3688408458896093,-0.353252309040114,-0.27832632905288984,0.49243832440659274
718,1.3335556662087618,0.6680345342988723,0,1,0.9947726114913708,-0.020852976753491532,0.4737425929208986,-0.22490275831513812,-0.4645229196998367,0.5230488929298572
719,1.3357082460389993,0.6787881888777293,0,1,0.9590254046142497,-0.020897851053135207,0.3903708977466783,-0.5412985816380035,-0.46388674005962793,0.4992524322149938
720,1.321032477364207,0.6863249615652417,0,1,1.2487943935970471,-0.050978836333153275,0.3789538559590715,-0.05575253258567448,-0.5231534098978227,0.37385198195521924
721,1.288743618645133,0.6901050746092704,0,1,1.4730096682537461,0.07944181131202906,0.39448446031697326,0.05250681210496002,-0.31191306459075524,0.2647529387429568
722,1.2390979543190137,0.6900752906000414,0,1,1.4285145454920962,0.016460370044583783,0.38155420200422957,-0.6401059832274923,-0.03324955881900546,0.047636291887377204
723,1.1737161130777798,0.686605623122991,0,1,1.220042701841208,-0.09024816731699102,0.21267474833819414,-0.8570803862314107,0.07020244955184692,-0.19747561041048137
724,1.0957438842630594,0.6804029587856357,0,1,1.181142374951291,-0.14132405186459607,0.18678478464636253,-0.6021661296116463,-0.02656011614004595,-0.44204183383767265
725,1.0097809048293298,0.6724087358538184,0,1,1.0454583894755962,-0.14640704289282092,0.16690655999420598,-0.26467071245327084,0.14037221442197337,-0.5669205318978163
726,0.9215677456525854,0.6636775491169997,0,1,0.843075963893269,-0.01773888127659484,0.12480870791447597,-0.14078824209376065,0.17498788721833666,-0.5796113986392991
727,0.8374771643071732,0.6552435190502721,0,1,0.7299445319245621,0.09383606300197929,0.09683558812548024,-0.19477888840631521,0.05270249490331374,-0.621851669809704
728,0.76389134550763,0.6479971920484312,0,1,0.7005722219499163,0.13616003013369535,0.11438883880525232,-0.06251582421482027,0.020142865347423853,-0.5972289927748098
