id,ASVM,GSVM,walking_nonwalking,normal_abnormal,ax,ay,az,gx,gy,gz
1,10.44339258401955,0.25227376787593153,0,1,9.75923958983941,-0.7420870997170465,2.1315208558901433,0.060359790992220407,0.0873793530320966,0.024095178408848564
2,10.456700533784966,0.33859991483211377,0,1,9.967851009793666,-0.843232669042503,2.4444743057784346,0.0681821417505228,0.19276385758023115,0.03949181551867735
3,10.412268768154643,0.4302146694433645,0,1,10.971064889861395,-1.1416276197956379,2.367867543931098,0.07732929853927263,0.35632236269687784,0.08644553877878013
4,10.31065701838178,0.5217256133207728,0,1,11.263576976278301,-1.0608788834896514,2.106475970504786,0.1053528267244562,0.5984728490510098,0.09892082635357739
5,10.160508165055797,0.6074880954884766,0,1,10.731892593471944,-0.8900069838739556,1.8795988202806815,0.14374341093445586,0.7582711462529129,0.04956372539475981
6,9.978105774066865,0.6822202084528818,0,1,10.177657391097396,-1.2680353235723338,1.781789320965614,0.20895263623888657,0.8317797527899631,-0.06106573945220853
7,9.785551624487915,0.7415415118032853,0,1,9.325638337561685,-1.4194174724945425,1.6975932637360673,0.25118281845548723,0.8232311572715912,-0.0721190156028017
8,9.607757734264416,0.782350001610558,0,1,8.983340055773532,-1.5376702692268212,1.512077463109819,0.3503651739575084,0.6996100077314303,-0.039317500673024246
9,9.468725722938874,0.8029999787336458,0,1,8.689104257556934,-0.994292245955359,1.8434845974104634,0.4358888188394665,0.6195289392781648,-0.04960089177718083
10,9.387739854826666,0.8032962919133243,0,1,8.709422387267631,-0.43789232510641757,2.3918551789823312,0.35417666901893274,0.5219583830061457,0.023996012221580022
11,9.376106929902374,0.7843575379911646,0,1,9.03740853245693,-0.5998492848226143,2.5635107242099267,0.3546465557227244,0.5149337433410797,0.19032511104043573
12,9.434976040580953,0.7484096154459148,0,1,8.527961663396681,-0.7144909792422139,2.953690703718433,0.4062544673433245,0.5701663558878973,0.3565380041429472
13,9.554627396055016,0.6985520144389828,0,1,7.538761227941664,-0.5646804281367984,2.955176732909002,0.44803645317286417,0.5485128050854557,0.485305635064263
14,9.71546532453519,0.63850738935039,0,1,6.706413306129661,0.22861181313598936,3.0223868537020078,0.4042950179684097,0.31297705329310865,0.6142510086081452
15,9.890748752988834,0.5723439320858305,0,1,9.696350850245132,0.5123427258702783,2.553903510925174,0.2720012611868712,0.012889540504310577,0.5538509409866056
16,10.050773039280392,0.5041667835331716,0,1,11.870842993685633,0.7053781185268071,2.2310315553465836,0.18255625309620235,0.10879826996075084,0.3415904975140869
17,10.167806258903319,0.4378052485561684,0,1,11.19594522791114,1.3715526298996894,2.439359281573163,0.10177589961137522,0.12705882825743983,0.12473218091676372
18,10.220770436443958,0.37655342036763945,0,1,11.008592023703791,1.2633007585574465,2.6746751420417625,-0.02460047882947016,0.12258631564333926,-0.05121458201005423
19,10.198656415772284,0.32302638522471183,0,1,10.979738407499358,0.4599649216994329,2.8255098978006057,-0.09358608659261555,0.21849651704838746,-0.17401105909772616
20,10.102000303630032,0.2791614171084062,0,1,10.278697513110233,0.08390650223746857,2.6509552831159406,-0.10551241453457481,0.3375491639523509,-0.22519956398539584
21,9.942268665144304,0.24633696211152337,0,1,8.814795172036009,-0.029883588739091693,2.3749696515745957,-0.10496873398543223,0.37863040140860427,-0.22404314556578386
22,9.739502013425993,0.22553283382093672,0,1,8.290275163487491,-0.3387088089660989,1.95803004543704,-0.10409271461080379,0.2539469281871308,-0.22269993919303885
23,9.518910994874998,0.2174408952215678,0,1,8.434054121319587,-0.48343073282605137,1.5983040904682109,-0.09727022807669639,0.1699153208289022,-0.24277121978836752
24,9.307223252121894,0.2224625153495386,0,1,8.871956960469447,-1.042907528333126,1.318432848250628,-0.10697510705647327,0.0501973583406383,-0.23831160281295452
25,9.129437050391845,0.2405807183565989,0,1,9.299268731289278,-1.3318713965534512,0.9806837012852766,-0.08595091668058794,0.04943126032423554,-0.20337532866735558
26,9.006352968481865,0.2711479531927495,0,1,9.098838236483108,-0.9687578877432744,1.1678317572433063,-0.02017568996099445,0.08659378641209542,-0.14263446899961627
27,8.952983213684877,0.312668413312724,0,1,8.818860324125787,-0.05946785246533451,1.3837994312500432,-0.014189320765377537,0.10474569751993733,-0.09017754891913918
28,8.977784133545704,0.3626685617252579,0,1,8.391467530332596,0.7461467920962549,1.5988109757291988,-0.08883742009213953,0.04737533879521648,-0.08703983130699554
29,9.082619393850973,0.4177367574137671,0,1,8.630215151286299,0.8819190755782792,1.6952365011591317,-0.24248193478002775,-0.10450955564384416,-0.15278218994534765
30,9.263364248887656,0.47377265065690216,0,1,8.912225287945185,0.6709158627193821,1.2978570635132318,-0.3787319040634589,-0.26031743645417416,-0.20835422365486084
31,9.511034886571997,0.5264281964634066,0,1,9.542042445072155,0.47913839012630355,0.4754282555172213,-0.41799226469115264,-0.41851782228045414,-0.24095321591506877
32,9.813255476847976,0.5716639449109925,0,1,10.108653713368565,-0.1127763274402258,0.1811282194075679,-0.38820526989735127,-0.5022796552728,-0.2732237805594352
33,10.155793723633176,0.6063083428841981,0,1,10.82246840440258,0.10123179155688664,-0.5665570783666554,-0.32035415323967326,-0.6264768478464524,-0.23201286783987568
34,10.523853566918884,0.6285054935211564,0,1,10.720747981002,0.9796973681401444,-0.4142558376075804,-0.27900878363332876,-0.6182239521167835,-0.11964636833854443
35,10.902847637140386,0.6379639776685125,0,1,11.657208800819038,1.0640128548557384,-0.8056311610637978,-0.44570180858156644,-0.6211730941949795,-0.060231975049380215
36,11.278490054338205,0.6359625915717526,0,1,11.617037736193451,1.2481098793963794,-0.38046497199895435,-0.5027760799977748,-0.4311992817493636,0.06420030280125404
37,11.636233407319686,0.6251157969866982,0,1,11.626493730767733,-0.27467784066563616,-1.8515661351053625,-0.688799921269468,-0.3638521905015302,0.12259222494938177
38,11.960286602216962,0.6089457234636221,0,1,9.902646371987462,0.417117211089449,1.3141347799647038,-0.2642698418361336,0.055125425350296554,0.21583608648832037
39,12.23263836653454,0.5913444659647102,0,1,10.288592249937233,-2.42617480854041,10.056822001652844,0.2258845704280269,-0.15018002656343937,0.06809758341491289
40,12.432612399645453,0.5760303006445326,0,1,6.674557496805226,-6.794669887905563,3.99045914263713,0.44070457498546317,-0.12169346206498262,-0.009205025546002625
41,12.537468564529295,0.5660893114257796,0,1,6.701701652476512,-2.2412148183611866,3.42172976870648,0.40734370626604194,-0.6262890049751081,-0.05844391095811309
42,12.524431966934557,0.56364765532695,0,1,11.457921553852348,2.310245742977978,4.261262619383495,0.23013980554410562,-0.5630824683849565,-0.5956824324754556
43,12.37420712171502,0.5696658521657754,0,1,12.047439213248174,2.928590081907869,6.124139844787188,0.02755223985662994,-0.33891302676786117,-0.6114377104817207
44,12.07547650822935,0.5838244288516545,0,1,15.118034104445186,-1.4615198135550935,4.415112651758828,-0.01705662723706629,-0.25928699088807966,-0.3620951997371138
45,11.629307325435446,0.6044944178992151,0,1,11.98955380494005,-2.256099490114474,4.33337900204336,0.1394809498683958,0.04145246509714415,-0.1771839830380359
46,11.052189802240369,0.6288293977691911,0,1,9.229202617259856,-2.933847511041352,3.5631400381870995,0.3712950455793962,-0.34325989534916096,-0.1423049907321204
47,10.376769225116394,0.6530334389276617,0,1,11.30424269183972,-0.3550472826919164,2.6584574770700953,0.582121141808287,-0.4270870870772456,0.02475516059243943
48,9.649973671968459,0.6728304215159642,0,1,9.678636137750216,-0.8486993224436491,2.1003003405208984,0.4301254434828851,-0.15976701277764016,0.27755619539241944
49,8.928823577556042,0.6841025276045201,0,1,8.532180274083569,-1.8082331539503733,1.872329159618913,0.4756083064824241,-0.128006516599497,0.38335729359779525
50,8.274587204239507,0.6836112021212996,0,1,7.131451041917155,-1.7010899704354245,1.4582111818399763,0.5499298099758115,-0.06165556274648012,0.5997453529351711
51,7.746161183318734,0.6696780686549063,0,1,6.325680240903266,-1.9081464752284336,1.0056935340281663,0.7209969942785228,-0.04891593880950176,0.5992633537505675
52,7.393644700116776,0.6426876235533485,0,1,6.097723115032152,-0.4643854030241851,0.7574622078337463,0.7890119094047977,0.033994696769716504,0.4736839314118479
53,7.253007277751006,0.6052844867047064,0,1,6.469875724244834,1.383486456424771,0.44662486325462936,0.6924575008695221,0.1669517659173183,0.3227501303438165
54,7.342507766213718,0.5621850306616207,0,1,6.860764444924639,2.2402236467114203,0.1994793964546715,0.48684101325413587,0.2930444452430266,0.09622284403782017
55,7.661166241909378,0.5196005694991066,0,1,7.645370252933112,1.9250767071330985,-0.33459541137399296,0.2059900380276529,0.37602321769575675,-0.11229551403740065
56,8.18923336751284,0.48435229632672644,0,1,8.77690007812944,0.5756550844566328,-0.4356968792793073,0.07360231950997227,0.46819022927390797,-0.1704369966452125
57,8.890348927451765,0.46282007897620986,0,1,8.830998110345728,-0.1532846139450173,0.3711599217509377,0.09013290838273288,0.46330674197220423,-0.10027064786509556
58,9.714978892850132,0.45989722036013225,0,1,8.556907268189187,-0.9971875125995133,1.593929458774146,0.04176203078345552,0.15157428035813403,-0.09726433833855286
59,10.604732858404613,0.4781267450574675,0,1,11.140623747372738,-0.880440455734055,1.5732176868078425,0.037510342643729135,-0.09266882670761359,-0.08056434364589293
60,11.497201912618344,0.5171764711029887,0,1,10.856359226156995,-0.8729309803522071,0.7559619497671343,0.1072956435080324,-0.2940742995389136,0.003552469352442242
61,12.330951295945404,0.5737640411132309,0,1,11.956394731573372,-2.2399303391106593,-0.641802188439617,0.11858509505359043,-0.49208979388556384,0.03367117530760728
62,13.050252505285245,0.6420657450162847,0,1,13.936082207307466,-4.210321107452446,-1.0531263921214153,0.34607110059129603,-0.4310135500520131,0.1436911532359329
63,13.609095379782625,0.7145499484662373,0,1,14.004194856668095,-3.9961180834947547,-2.189273511786974,0.6907003082530877,-0.14024243946384424,0.3316691334242712
64,13.974046453827029,0.7830947827853516,0,1,13.695362381444143,-1.1146106153559123,-0.5234043576576366,0.9757905752377594,0.01566673038515121,0.48465933637728037
65,14.125672100328192,0.8402011153693172,0,1,15.058038941595566,5.402044027409838,3.66327104579332,0.6904619065758366,0.3259330700224963,0.43127834692275263
66,14.058526841214936,0.8801029602695721,0,1,8.019902445006556,7.386685162580897,5.174041223736,-0.43222185563499893,0.6390657663134942,0.2825605325268445
67,13.780038899001305,0.8996031963620081,0,1,8.1020005290236,3.30077937832132,6.150557052662195,-1.110074924211924,0.08263293932403891,0.2625657880197618
68,13.30886287059379,0.8985066892647587,0,1,12.439507532587147,-0.7328120121199875,3.1228636721730942,-1.2862887419365465,0.11596772128359276,0.5648851327603591
69,12.673251612305085,0.8795734726229305,0,1,11.027036156419229,-5.955324709802222,3.571776134426044,-0.9579682601496364,0.20759618134995111,0.6201718541103415
70,11.909669112798765,0.8479795631284051,0,1,11.460921108020909,-5.552330066333197,4.355698636605796,-0.5260622953958948,0.09911183383595726,0.3823797108885169
71,11.061401004145672,0.8103642282369669,0,1,12.546852560101485,-2.1669756178388258,4.076939386781751,-0.3175262303882991,0.2536652130259887,0.3531950884509675
72,10.17664007401479,0.773641477396116,0,1,11.025110067312955,-0.3913649103644844,4.224348872094799,-0.2530489463670309,0.39238234081302953,0.3664161041391877
73,9.305636658520704,0.7438144914995622,0,1,9.194295525152507,-0.7685383357560788,3.4012219601026565,-0.12726964726061565,0.47649649979366515,0.244221764166924
74,8.496970022657376,0.7250258601596354,0,1,5.358349745249814,0.4747151029190192,3.0424108273331774,0.020128260144122948,0.5691820417609594,0.22888590418798255
75,7.793585824488308,0.7190164222876634,0,1,2.941668100025934,1.1445247057243968,2.799405775969536,-0.1456164508872064,0.19006116142817792,0.2575749152252064
76,7.229635941087709,0.7250819081297382,0,1,3.7982908243614184,1.1291248026615752,2.4101594660689187,-0.3029647240704173,-0.08611035038036499,-0.13569433803350545
77,6.8290771622524,0.740525459088978,0,1,4.668976496797863,2.7447603969049315,2.437812523024835,-0.5271525465643262,-0.24351700343604393,-0.5918233177770372
78,6.606381088838312,0.7615055502473521,0,1,8.118456640271644,2.647158666052564,1.7096996041170176,-0.7469537972993489,-0.3983479736232243,-0.7762701179126008
79,6.568830917578934,0.7840831935630572,0,1,9.391562836259165,1.5216881111994376,1.532580336210281,-0.9258255926675452,-0.19796919791108988,-0.6196728703275265
80,6.719172633635822,0.805213983069213,0,1,9.57854454647052,-2.320405582948515,0.78407495249692,-1.0160586482290095,0.11037633168862969,-0.48484570893024115
81,7.057221264690577,0.823443878129679,0,1,7.804210986131228,-3.201344600689474,0.19515495540353753,-0.8302414301246058,0.39079236685594904,-0.35137888008287627
82,7.579487749244844,0.839152428289801,0,1,7.01314071409313,-2.09614725804662,-0.16989429132305903,-0.8941480268562058,0.4757316803416493,-0.23728331506297018
83,8.276761066432165,0.8543089865696547,0,1,6.483146199659144,-1.6251664776670818,-0.2824867441872963,-0.8410057926931542,0.437866672188195,-0.19164340481988537
84,9.130454342040876,0.8718278728307584,0,1,7.405127005141364,-0.8927511398333731,1.0942994926781429,-0.5666615564313678,0.2743631553367877,-0.18261619506750232
85,10.109053094809834,0.8947038311391349,0,1,7.079417928540597,-1.4894089280962035,2.9824367116714225,-0.27902903796830836,-0.05444108229038724,0.019715773125227657
86,11.166042049573766,0.9251624235792505,0,1,9.624135339556174,-2.6498391110927058,1.6493634755589697,-0.18627919664185327,-0.6005794151092755,0.12710062177436054
87,12.240301683117249,0.964051191045431,0,1,12.410301307000319,0.15086275940651142,-1.369622142653028,-0.18724605013383444,-0.7825588140975486,-0.06518911588651649
88,13.25935302671361,1.0106185024938732,0,1,11.546924391474654,4.11854207541258,-2.326934824018221,-0.6663265270761246,-0.6292651115115934,-0.16383704209008595
89,14.145209614274277,1.0627033429246973,0,1,11.891784084409503,3.0312395128072507,4.231763951180166,-0.9694262454805194,-0.8541087878417495,-0.18090694061410403
90,14.82211492514091,1.1172398545859317,0,1,12.9362443718604,-6.825794884206204,8.634691108045416,-0.35216587438726643,-0.8838077783861692,-0.38592261409149575
91,15.225132407186745,1.170903862703279,0,1,9.911676559138545,-9.392781005396484,9.241518487997947,0.6127618008993608,-0.7833349515684224,-1.057300943041222
92,15.308401794509187,1.2207050652357543,0,1,9.794988838458869,-6.148801764685897,4.629858780044014,0.7059556323812767,-1.2087520873115984,-1.313205534638081
93,15.051884458898032,1.2643530601012203,0,1,15.264547811475868,-0.4447139699586344,2.6454802412682845,0.7439797273415328,-1.0452288848635685,-1.0359993176596622
94,14.465535544178655,1.3002979219974022,0,1,19.63155875366181,1.9327735487979862,4.715930131708013,0.6308914278128576,-0.5559309998183448,-0.22875713864132932
95,13.589974162710266,1.3274628501394836,0,1,18.8672364239644,-2.119895153236467,3.9336484252890456,0.8483827250911903,0.24581893239655336,0.2726114161484153
96,12.492995900896418,1.3448095390714079,0,1,11.37944506080974,-2.5077820147658123,3.759169142005489,1.1589513855419764,0.5620111647241386,0.2596308599639349
97,11.261983008571173,1.3509428324289,0,1,6.7426296631122,-2.0008219051524345,2.800027670906037,0.9998953427895516,0.3003370012442498,0.17588484502391574
98,9.99340214476059,1.3439386616894848,0,1,2.19649444838289,-3.147110421153366,1.4937487377151013,0.9682127281859506,-0.27761553923993604,-0.11948437623583799
99,8.781554377086696,1.321494961236011,0,1,6.017476836402434,-2.1204173467396235,0.465403693239506,1.1508758591293846,-0.7528460228479713,-0.07826042828752636
100,7.7088874042147575,1.2814034255928786,0,1,9.790618876281785,-1.8522869396461612,0.4100901786461116,1.2195285232513708,-0.4287419999711578,0.27593635757997315
101,6.83940678530027,1.2222470517393453,0,1,6.211787568971321,-2.024716642958358,0.8069028226497649,1.2402783365896985,-0.18618851610123258,0.39202878173012645
102,6.21559150195601,1.1441604626710984,0,1,5.660946877615772,-1.4824390337299784,0.8657376702860433,1.2382850724922352,-0.24022954033883417,0.4839198770135542
103,5.858380774520642,1.0494609402804542,0,1,5.9679032552003815,-0.173622778450035,0.7007168447060407,1.2830654275676965,-0.014779963255852065,0.44576246033815586
104,5.769465237087062,0.942972259516506,0,1,5.986736563919984,1.818758603847516,0.49756789402521795,1.206215012964134,0.13737389797014582,0.3107824238495056
105,5.93508572394787,0.831916429801042,0,1,5.304185636052109,2.794042226562747,0.18761334676044655,0.993756335839883,0.1947104969818281,0.16109446969768923
106,6.330588811556267,0.7253332470221411,0,1,5.594577543380721,2.5542442127123843,0.00653222466932618,0.6680272122854815,0.1404500569997132,-0.03919194770738518
107,6.925044113702183,0.6330899981901532,0,1,7.257187727259071,2.249296520596589,0.17050338649380334,0.3759458791707305,0.11569113867146139,-0.2005087992287174
108,7.685300191307767,0.5646374631287719,0,1,8.832820899805403,1.197007190028503,0.24144078587356885,0.0810521623185488,0.1624473324478318,-0.29124887040806213
109,8.578950673686832,0.5277240389162101,0,1,9.509800792761395,0.16205359675125655,0.685503406708739,-0.10701779121388001,0.17734851122345846,-0.38496352166279674
110,9.57583261795217,0.5272825866772237,0,1,9.390491999199408,0.15116066932656166,0.8770411203892402,-0.06854789724722966,0.022546376948390928,-0.47024969878192835
111,10.647920957809852,0.5646642558276252,0,1,10.840615012195313,-0.5020125774598856,-0.31534799414768766,0.04637573389635354,-0.20122015533850476,-0.3855033484965737
112,11.767784194535425,0.6373348739531911,0,1,12.079938929112865,-2.1910325514580906,-1.799770324832917,0.0993260213013205,-0.20134124684673835,-0.10888726056444076
113,12.906042913924034,0.7390900976730336,0,1,12.71186733700974,-5.419153903556254,-3.020389909704628,0.5140286982623317,-0.40538425576669285,0.1207484785816676
114,14.028488683055361,0.8607844199344887,0,1,12.683092686077375,-6.028475566892986,-3.160398956552615,0.9532915505737749,-0.2914913629089024,0.31876877371066625
115,15.09372093513312,0.9915017058107163,0,1,11.091349369191212,-0.7620361798356228,-3.896544524114472,1.05068720703367,-0.015041556349568526,0.4027188175738623
116,16.052343943519,1.120033732829696,0,1,6.628423022109331,1.2211583752384765,0.26714412773740204,0.6394217126468982,0.25628025431179297,0.224739659635748
117,16.84873897279281,1.236496777537099,0,1,10.277720521401484,7.697669579550086,15.25114545996004,0.3165211408831463,-0.010693858300205975,0.23392174864921528
118,17.425899840455045,1.333893971903459,0,1,7.926856451085369,17.006297327165708,14.890989448725076,-1.8354313788780896,-0.09855279891966097,0.6793420886309287
119,17.73283224102039,1.4093882024698892,0,1,6.799146443867034,2.799610385350515,3.790310626341155,-2.9353428734501175,-0.8049678161412905,0.8629240998418625
120,17.733086869149947,1.4649963821220533,0,1,19.361281644083064,-12.162336992196105,4.88196279685168,-2.0039719999193952,-0.9040569663194413,0.6814533013154318
121,17.41257196721318,1.507441303030749,0,1,20.491636236290535,-8.219985633109093,6.947984888139404,-1.0573841189143884,-0.2648468168745291,0.18785308645730972
122,16.784824916472154,1.5470807857549183,0,1,17.819655177731324,-0.9920479910725842,5.946598142685738,-0.8831018592382626,0.2452892791839129,0.2689833871969391
123,15.892283210664717,1.59611719454399,0,1,15.587112859466751,1.1469684903243038,5.567825176536715,-0.8479933578089837,0.6527850349992635,0.24814848382089333
124,14.802878534716529,1.6665075703921288,0,1,13.318002406364409,3.4979119909352985,4.394825840002799,-0.9418038578536434,0.9768136860844175,0.12997030517181038
125,13.602392228904854,1.768033513801035,0,1,8.205192790688187,6.273302949830623,3.582860717592321,-1.189140900989221,0.7415739167752193,0.07637992923285455
126,12.383991953706444,1.906875691529616,0,1,11.018366477099388,4.808670737418461,2.025414302948009,-1.7995116880102606,0.36506452936910466,-0.15130558290658833
127,11.236829614993562,2.0848651585747007,0,1,10.61306497778262,1.9829927494014883,0.9590591344917447,-1.941934219435027,0.6296178451478087,-0.41846967869533547
128,10.235515428330652,2.299425339577982,0,1,7.5427778868007245,3.0748517734253533,0.3837668511942777,-2.146623447390453,0.5001961892471294,-0.5489671046514236
129,9.431924290963911,2.5441038073535145,0,1,7.952877344589325,2.5033610665914443,-0.24949292027381023,-2.4303072882081267,0.4288384783096693,-0.7022330816132012
130,8.850343082348932,2.809525318177884,0,1,7.661635381557528,2.3947234172851717,-0.10534219351115327,-2.700796549089807,0.42388305211571514,-0.8790750392301196
131,8.486494130180716,3.0845675790219875,0,1,7.376886360305745,1.9832862514996303,-0.2796725652463038,-3.050756325426762,0.3870404547909116,-1.0671162390197122
132,8.310468017464464,3.3575569944353036,0,1,7.600536003336075,2.04210983200057,-0.20625844843177668,-3.4401777069046986,0.33390724665107185,-1.2082498648912603
133,8.273105229029003,3.6172992945386393,0,1,8.072980992552207,0.6457093282671891,-0.41427183388484234,-3.7259653605422747,0.30070128376529714,-1.2752689464618827
134,8.31494267939845,3.8538048215364453,0,1,7.812578063256658,0.06882767718052363,-0.8509772527523601,-3.783989633305894,0.15317484712190785,-1.3329596467394464
135,8.376518298174258,4.058644291989031,0,1,9.58624143157629,-0.10235558429416562,-0.6723527203820768,-3.7444378862088534,0.05497159517966339,-1.4324463566288683
136,8.408612834084504,4.224967639096014,0,1,10.054347668404633,-0.5324204566617977,-0.38545162813650974,-3.720580674625329,0.16282052395390345,-1.4253583598047392
137,8.380931454692861,4.347307977891134,0,1,9.579799186230646,-0.23957805899215465,0.03614251920358274,-3.7748432824001297,0.15647271727268028,-1.4251412686148464
138,8.287843404080142,4.421341288528954,0,1,9.75049966624677,0.36487280136920414,0.48078540769113703,-3.89953768509095,0.18673762613422934,-1.4635894857710854
139,8.150135180784668,4.4437609057082454,0,1,9.636929238712462,0.5507095881553374,-0.6533201798412969,-4.086535855800743,0.23384640555177671,-1.5363116837861743
140,8.012248606543627,4.412361443272398,0,1,9.67607514226156,0.4070161698549849,-2.338982192637434,-4.205126889171415,0.340595651399689,-1.5835930977061254
141,7.9350909440621775,4.326339147150416,0,1,9.108535636491027,-1.0968842727526413,-2.928645318656886,-4.156189608780551,0.4144788753612763,-1.4547668381030099
142,7.98517280963131,4.186741177309627,0,1,7.934587353495665,-2.2707479131188424,-2.4720146599135004,-3.9911976147739074,0.4449899481238883,-1.0916457858500983
143,8.221527829900763,3.9969575422565162,0,1,6.348781476864208,-2.020449819369306,-1.034369410681753,-3.7790185909425467,0.4500062255212747,-0.6554887261380525
144,8.682520251306915,3.7631429700059282,0,1,5.110866376116205,-1.0215460609385953,0.12482287523116377,-3.621298912106922,0.5343529036394434,-0.332744303354593
145,9.375075663977938,3.4944595261601608,0,1,3.6674814279783647,-1.564456761439549,1.379749159086824,-3.637172274524814,0.6693532138645332,-0.289979716752483
146,10.268836318227065,3.2030266572756383,0,1,2.161875152250553,-3.524993907936006,2.6631192944137045,-3.5933729596745883,0.6008754339794049,-0.5941642612533198
147,11.2970597102649,2.9034619342618297,0,1,1.4307239185592973,-5.442893552543821,4.138222113070903,-3.283601045753907,0.15774218427224646,-0.9403202513934285
148,12.36473669280276,2.6119251047141847,0,1,8.594632333808335,-7.858072196451912,4.060103726891354,-2.7714074883557402,-0.5353305367021559,-1.0951639749088222
149,13.362647501705519,2.344668015947897,0,1,19.07580417083086,-8.471120482915108,4.360890759356185,-2.0384702632689784,-0.25421153485825965,-0.942701571087969
150,14.184419397962111,2.116236756961371,0,1,17.27728375308151,-9.30968064529885,6.809550102065439,-1.4710451952835417,-0.035044780535992776,-0.6097854016734411
151,14.742777584280379,1.9376208773423125,0,1,16.412086237672135,-7.578281475636015,4.5145331734794745,-1.1659783237661505,-0.19225966915207784,-0.4422352418676094
152,14.981570925917435,1.8147285461094325,0,1,14.117952479701113,-0.009501640400236289,0.6947685561871714,-1.202940546134807,-0.2118393673939139,0.01686782601561414
153,14.88165650185426,1.7475362300799968,0,1,13.656372395478417,2.303090650879372,0.516049737792177,-1.507562721271718,-0.1299159911348677,0.18569135215298938
154,14.460569766903175,1.7301188650255768,0,1,12.856460029221918,-1.9984435637678086,1.9097163564203963,-1.7493812604608383,0.12219273128810251,-0.10879929700822095
155,13.767262505584814,1.751566072135605,0,1,13.131077283249546,-3.596066005355671,1.2989246404493622,-1.79526726305132,0.3179136217722516,-0.2799313672574951
156,12.873735983689718,1.7976055912623767,0,1,11.608960104260152,-1.8882904012688404,0.8638655881768258,-1.8058575004940984,0.49528883124236417,-0.44391264281224774
157,11.865334918637394,1.8526382346753814,0,1,10.559626915504023,-1.0002887429679883,0.4031789260937409,-1.938116526101617,0.5856485857395468,-0.5735947860099871
158,10.831149715894483,1.9018499432295353,0,1,9.706697230731447,-0.4011020430147372,0.42367478784638185,-1.9825317335412949,0.7006288015637113,-0.6193293714375696
159,9.855595457272695,1.9330893975105379,0,1,9.372594224651257,-0.2518943775807457,0.344040611213397,-1.9528148111282746,0.7054743883164042,-0.5729113817594632
160,9.011831118388919,1.9382639075637083,0,1,9.199667306195263,-1.3657517965990977,0.28861846922216633,-1.9389462147603538,0.6680680512705985,-0.6194752644113819
161,8.357270598472356,1.914096648062884,0,1,8.15458979546746,-2.2462447130206016,0.35775756266560904,-1.8022325230204588,0.625103945817795,-0.7578164000702502
162,7.931090355114129,1.8621900752477005,0,1,7.113963454529767,-1.920715870612483,0.7642720998529785,-1.6365364843504746,0.5051446557920138,-0.9990752307283074
163,7.753422409081298,1.7884389053008225,0,1,7.911055243727458,-1.9382000572385936,0.45291434457745744,-1.489126280034052,0.3465287383861299,-1.048198412127163
164,7.825829495950331,1.7019209089061358,0,1,8.370978435957673,-2.549072671469171,-0.345418232446409,-1.1896066108297707,0.3438711024226213,-0.9056378942046925
165,8.132643384874449,1.6134582803855155,0,1,8.81486326707678,-1.6747622168644996,-0.6998395698585599,-0.9538215843378205,0.3180098029109806,-0.7928496773060613
166,8.642797571117903,1.5340773591195092,0,1,8.69002363914982,-1.241378591599677,-0.8117550891474071,-0.8594736186476722,0.35651350123834635,-0.821802599469903
167,9.31192820003222,1.4735872917451882,0,1,8.828887999153338,-1.1535453521693404,-0.4208631761235095,-0.9199908430702761,0.3615670091949291,-0.9612493564508728
168,10.08473167793862,1.4394444334215561,0,1,6.526792637809519,-3.0854463194441166,3.187517501452271,-1.1524900814435943,0.5896847246122144,-1.1977879534378253
169,10.897751000182165,1.4359885312026364,0,1,8.414636011325708,-4.389493364364675,10.949564125412396,-1.201014058011368,-0.017353942262432715,-1.0649679450792855
170,11.682822620894504,1.464069415932227,0,1,10.580834137222737,-0.5765076894957588,3.876491912877363,-1.1114178004203976,0.005704477605615323,-0.24041428383046454
171,12.371384065159155,1.5210590263312942,0,1,5.215146192242473,-2.359738939444765,0.9171897836089072,-1.14850628674777,0.42828033802111976,-0.1086655139621062
172,12.899792774014307,1.6012505817513865,0,1,8.55929429708983,-3.977104549378826,3.9803999556432976,-1.1852226198487847,-0.2876332496610655,0.08723334071939255
173,13.215622042940524,1.6966382450074975,0,1,15.2402416510709,1.2064833385411402,4.202876067663319,-1.4447859276220032,-0.8003444407069628,0.06692732267965149
174,13.284361010429611,1.7980137081644672,0,1,16.932669738721,6.718064259928053,3.643427581026083,-1.9109552511685743,-0.15682285454350797,-0.2627648828060006
175,13.095190756472991,1.8962246123075397,0,1,13.767775139218335,5.515857396560638,2.3815397417962925,-2.2730295531648776,-0.3216038242551608,-0.7820047496815173
176,12.664116367565928,1.983362442580604,0,1,16.17461567521903,1.8381700763936253,1.1811088277007957,-2.276088218288554,-0.14444800127493232,-1.0791805168527557
177,12.033141442743984,2.0536340239729625,0,1,11.891834513696903,-0.8022573684668773,1.3895047386953006,-2.073695521551745,0.41828921984682343,-1.0432101659183541
178,11.265223125889921,2.1037427975379277,0,1,9.8301275879932,-1.6973682842520947,0.979887775639463,-1.8443494673848382,0.3663991684313233,-0.9387194964117667
179,10.435917235054912,2.132744037093252,0,1,7.043963437488595,-1.3590992212340178,0.9989912354021572,-1.650930692009866,0.3802686633014379,-0.847393133369853
180,9.623440528325876,2.1414876930554203,0,1,7.280543916018407,-0.002237338100186209,1.551525188161931,-1.5810602529187212,0.09894787935886978,-0.8020021242316685
181,8.89909504827869,2.131863228563692,0,1,7.90097473495281,0.9935708263559027,1.7005992092666062,-1.6502662723698938,0.03177241748048719,-0.77014207185838
182,8.319628012891954,2.106078659110766,0,1,7.672881597584314,1.5175301463961983,1.7873401789474221,-1.77652888260278,-0.03931567136874658,-0.7916580263386487
183,7.922385451824301,2.0661465839218316,0,1,8.112590873565988,1.3458521994345451,1.6507875798089855,-1.91923146506227,-0.06126458174060972,-0.7629859581630185
184,7.723399954566151,2.0136486021743827,0,1,7.867671006947281,0.44961634376327375,1.4728150075682813,-2.0040484711552833,-0.016639761529398615,-0.6881645449913484
185,7.7180698735106334,1.949750294125765,0,1,7.653938203683205,-0.5339764243941326,1.6138495562363009,-2.03569416405966,0.03080603260986274,-0.6479782177669887
186,7.883884024513473,1.8753755043650886,0,1,7.377854386291555,-1.2875502974444135,1.3720149868799327,-1.9336548716892772,0.014167987547659392,-0.6443171728034973
187,8.184631473613528,1.7914339411504467,0,1,7.719918720468978,-1.973527052450639,1.3698852973755866,-1.7230128045302573,-0.10594861557791313,-0.5663365687766528
188,8.57558620338651,1.6990226259728907,0,1,8.18211794532616,-2.495148206981362,1.2379486852334234,-1.4831217261371383,-0.192252491778359,-0.48336273687905873
189,9.009186065510871,1.5995674151920936,0,1,8.104740788869464,-1.4948533113559666,1.3855837484497016,-1.3707566734953782,-0.2976294090829315,-0.4150388098693928
190,9.44070921305657,1.4949083727337724,0,1,9.40037975981106,-0.8774178825918757,0.9366580682128512,-1.3790818129907867,-0.46301855786892465,-0.3758378670344406
191,9.833401058430832,1.3873434807152223,0,1,11.17037361820895,0.012554782896979455,0.21264653975053482,-1.3186050496184982,-0.4607544323006672,-0.2784679563078787
192,10.162451867443032,1.2796304285444209,0,1,11.587669190021215,-0.19485394442302076,0.12249383256663691,-1.2970283349822196,-0.3170638767931571,-0.2183852882491861
193,10.417234694858005,1.1749245872884297,0,1,10.996349620297785,-0.8711444086256513,0.2504312058524279,-1.2591398068791024,-0.20761133027566692,-0.21854652402488067
194,10.601368143631978,1.0766223330649924,0,1,11.329215350486674,-1.174982775234721,0.16397342084145275,-1.1852274418486426,-0.1561744258174058,-0.25750928966079445
195,10.730488861798834,0.988090952159241,0,1,11.374114176475137,-0.9478700899734882,-0.018665399489077562,-1.021395801774514,-0.01262626839517449,-0.25180410979214285
196,10.828026657153703,0.9122970222704663,0,1,10.169080968726812,-1.6576594215452707,-0.5389261460411614,-0.8622041539861726,-0.06589125168193041,-0.21141331867741667
197,10.91965794870438,0.8513857553626647,0,1,9.503576301897922,-1.6094528563494186,-0.8538708175430736,-0.6758664985588241,-0.09729009943797404,-0.29745676121485437
198,11.02738354275738,0.8063008989116377,0,1,9.835824157876798,-2.0061870245933666,3.4554113874920405,-0.36828048623462584,-0.15300533195044194,-0.38850328385396943
199,11.164272749766303,0.7765525050663775,0,1,8.993319855066023,-3.10265535041694,4.571342411398777,0.007788068905554015,-0.15368507176934515,-0.42329138163037816
200,11.330815345860254,0.7602247813495507,0,1,7.584780102155994,-1.47235869200577,4.6573581819625955,0.0452320937996457,-0.3827111501963514,-0.3987828091766335
201,11.513562621220766,0.7542632771601191,0,1,10.597062785471866,-0.2751212145349322,3.581393342102182,-0.037192868572078805,-0.5089159948708163,-0.7676993591918562
202,11.686373814419708,0.7550001572158487,0,1,9.76618038255268,2.810295925295361,5.096982542986449,-0.13060389350769644,-0.21408581958456493,-0.8905486267279046
203,11.814153936456531,0.7587971075657416,0,1,9.670780160058227,0.5819333161283179,5.708423469565762,-0.3191219102806961,-0.2785503934298909,-0.8561898663174579
204,11.858532206507943,0.7626425371673758,0,1,11.154067391811994,-1.165224666673623,4.566425230574283,-0.28148620293698445,-0.4457650163931784,-0.9773679077564649
205,11.784573609927543,0.7645521142052633,0,1,12.949876450212514,-1.1544610637031694,4.250146619327321,-0.20135815008279948,-0.6412042700311383,-0.7841788252612042
206,11.5674092329817,0.7636839351367791,0,1,13.23719337769488,-0.29162664086338497,3.2674223757258956,-0.09593156982250714,-0.47201281072518375,-0.5140382493705862
207,11.197666714745154,0.7601711966437122,0,1,10.621109527968184,-0.5906709629966064,2.446149569780494,-0.15809416098321857,-0.30126511513990034,-0.31812426593609516
208,10.684816326424023,0.7547664347086451,0,1,10.36188173589538,-1.0348282025003919,2.091955071396206,-0.21500000940530953,-0.4518981263546524,-0.06949166326790389
209,10.057963944477542,0.7484464692918391,0,1,11.6732942195396,-1.555303575584801,1.4981122074159037,-0.1792242136724585,-0.3597515618827871,0.14991510171737188
210,9.364059216534793,0.7421204497132948,0,1,7.975732048301852,-2.6729491040053097,1.734459199565772,-0.039185939247890385,-0.18686122146100545,0.5367334313121233
211,8.663822304773594,0.7365176232277542,0,1,7.225744402878332,-3.325675695417581,1.6497030359178773,0.24240220682047167,-0.4710986769421404,0.801024809086696
212,8.025917681807998,0.732237307240635,0,1,7.489880727080801,-1.3876896228427968,1.5068684503671923,0.5167128919228361,-0.4017132645276528,0.8708715642688643
213,7.520032437403329,0.7298646861452275,0,1,7.651127907817674,1.1679604827314718,0.7725953524757827,0.6155406550564577,-0.3038332911036661,0.8251382942114174
214,7.209535300619875,0.7300314019900496,0,1,7.729950426453079,2.325800271102449,0.4364404438788358,0.46246377415565393,-0.021973906422121756,0.5889636579801134
215,7.144338120681515,0.7333427302643922,0,1,7.417269462415036,2.143720149688182,-0.2262256492478896,0.2732180911720501,0.16617366217485646,0.5139812831993366
216,7.354559157955833,0.7401781598063024,0,1,6.6594455926102185,1.060379806843822,-0.7638886776501204,0.16191008546402402,0.18154960067708936,0.5275760997464886
217,7.845661375427544,0.7504502883975366,0,1,5.314865657251008,0.4870413079599768,-0.33704776221857174,-0.013134141684599924,0.030458580702083266,0.458390234163421
218,8.595837143731941,0.7634385503552462,0,1,4.7340430873030455,-0.043097506537879415,0.4939779298911052,0.10331890309902439,-0.422064031915093,0.33444401554585074
219,9.55634382394023,0.7777900832611,0,1,9.616285362842548,-0.5757476453514822,0.6467926745099128,0.27617887038485844,-0.8539496048292592,0.2910781651076886
220,10.655100781841789,0.7917175154781585,0,1,13.358696853136326,-1.9323531629246304,-0.6342003031589502,0.40059077612565736,-0.6218943403334041,0.28403236794908304
221,11.803206186925683,0.8033535873955288,0,1,11.83113458625491,-2.493323180669815,-1.7478253743341172,0.6120049933363081,-0.32257306768827215,0.20701550849916753
222,12.903449922415719,0.8111735046560219,0,1,10.881370208229047,-0.671181642069141,-0.468319142126847,0.8689102101369011,-0.4162112801382315,0.3261933873830409
223,13.8596828579599,0.8143779662301804,0,1,15.860133310761368,3.12024774647118,4.4394259408389605,0.7253312228554657,-0.5498815435098423,0.7087606681001886
224,14.586021383946818,0.8131381771721803,0,1,11.961048517884795,3.3754888406343455,6.494550144351715,0.05791030787654848,-0.14943877127771732,0.8167618093819121
225,15.01507928289373,0.8086360344436416,0,1,11.448198208955224,0.8313422530062654,5.612605580161101,-0.14676640582099162,-0.5065290745477732,0.6278934735210845
226,15.10457873195486,0.8028862308360435,0,1,15.88606819988408,-2.4175982530832596,4.0401438154804055,-0.13215589589806812,-0.3023147986596258,0.6396974108324917
227,14.841772376866045,0.7983860103935677,0,1,15.13887564226398,-5.451536420341439,4.840027131047802,0.2591404320951885,-0.050172485933294875,0.46231760886541046
228,14.245122420380824,0.7976762229961668,0,1,16.581129498651734,-2.178243620553878,4.4736668492704705,0.5688658444895113,0.269812060921666,0.4612035330966709
229,13.362752093208313,0.8028988719982575,0,1,13.311574047622525,-0.17820093848027432,4.121794316240025,0.5909649346639727,0.6343028762242723,0.4805895756446398
230,12.267505363007544,0.8154091931409203,0,1,11.67354400137276,0.6864288782132033,3.2099368944276105,0.6022989724191216,0.6144270933090511,0.34491882328671863
231,11.049048961967246,0.8354700279790748,0,1,10.249428335450375,0.6549875580547261,2.4110155777521247,0.5127195520721456,0.5569297051085327,0.34998234691933805
232,9.804100987661291,0.8620480241214222,0,1,9.239791281544514,0.15155721740840344,1.840905588201303,0.42579097897271684,0.6954665249800855,0.15204486925215882
233,8.626302996266705,0.8927485716490005,0,1,2.737476701781437,2.312215935149688,1.9219161780969172,0.23092620065524988,0.6845418067588843,0.16310974631151529
234,7.597336157600779,0.9239488492501892,0,1,3.905107627440379,2.72125214036387,2.079748199965224,-0.28350595772333376,0.016517472115265025,-0.006179228915233165
235,6.780586591572267,0.9511878396225106,0,1,6.1612163227206445,2.5619657865720504,1.6871189927883616,-0.6028203417685034,0.15462179425911188,-0.5727811095059576
236,6.218013392316242,0.9698286160899032,0,1,6.512893321314588,3.226964408308884,1.4934795086882768,-0.8582934980110101,0.222360749675854,-0.7413563875430229
237,5.930038734461805,0.9759231529408462,0,1,7.119808321849011,1.8542448760256616,1.1839399855171162,-0.9847635836276444,0.38837979697082214,-0.5689246289637133
238,5.917602917300912,0.967117385765911,0,1,6.751412611123037,-1.036143376621497,1.2134585664610396,-1.085772627571897,0.4396962696073381,-0.3121778805228821
239,6.165283505785549,0.9433837292021057,0,1,6.859926365233065,-3.5742645449332335,0.42985476780045767,-1.0294809941468803,0.5473540224885849,-0.0848673925195582
240,6.644573913254107,0.9073849907497139,0,1,5.677726204698593,-2.8573351408928827,0.2578713196255857,-0.9732205555193055,0.6769302477957576,0.009462769816649065
241,7.316856867443308,0.8643447893811708,0,1,5.97698487796624,-1.6529525585712532,-0.5606901319566394,-1.0202463343055945,0.5921556378665962,-0.01106471141362997
242,8.136061299095948,0.8213988679474183,0,1,5.756988702442832,-1.3212020197293803,0.026618578748464013,-0.8775305520740021,0.38824357614787963,0.00016771276360275463
243,9.051263926741306,0.7865112674149339,0,1,8.43594812362087,-1.0403690519792117,1.5066932346536746,-0.5331639952414164,-0.050313965793509954,-0.009952447987525955
244,10.009471072624239,0.7671446376235865,0,1,11.073487092049872,-2.024834551067107,2.1486885611522664,-0.15205198084533603,-0.2834312660059042,0.10029629254588981
245,10.95853256813804,0.7689495176259765,0,1,11.933193606128661,-2.6296036249052226,1.7618968031070474,0.07351270327647266,-0.3915737839132164,0.16685134803869967
246,11.849823194129607,0.7947516182096798,0,1,14.479250303966573,-0.6625382862356933,-0.3598567360992251,0.056162773910750474,-0.5104181156054928,-0.026905129359020313
247,12.640247401459499,0.8440551900644886,0,1,10.82730166421409,2.498781797103319,-1.9365913532758785,-0.26371038490376014,-0.23190769712405046,-0.19562665053523506
248,13.29337890174742,0.9131619270655028,0,1,10.641145573430562,4.441795587059906,-0.641805553495234,-0.8841252651502127,-0.38483329370482267,-0.32342129507647466
249,13.779970925157414,0.995863913556953,0,1,10.584770080363079,0.21709322856509905,5.003543611045335,-0.7737970264405588,-0.6467252147746476,-0.580099100678436
250,14.07834912605853,1.0845413080373818,0,1,10.503205355127662,-7.424216270285659,7.783388715841541,-0.1636107521636181,-0.6256385879615715,-0.9200876305569035
251,14.175123484569447,1.1714105587355244,0,1,9.203137218277428,-10.02000244401971,8.300439148432975,0.6234720590884991,-0.43496727890143333,-1.5322147714430219
252,14.066320875580193,1.2496459865629925,0,1,6.881974272171389,-5.636619927799297,4.305957216242741,0.9956177955341581,-0.7218365979624982,-1.3206320258041735
253,13.758708311631045,1.3141406922398726,0,1,13.079882360393224,-1.129625281424335,2.4732504745220876,0.9897816600478613,-0.9380740299730099,-0.7230546844462161
254,13.270859792824565,1.361775454576467,0,1,16.58394341631661,1.6904096551935988,4.434531293107245,0.993161368578158,-0.3974396936502834,-0.2549401867978801
255,12.633336056683362,1.3912050544695531,0,1,17.301294345815812,-0.058988802023646474,4.745533568246224,1.2077529957264184,0.0922022999688209,-0.07404381802834811
256,11.887254826050052,1.4023042521142461,0,1,13.334554229092658,0.37327074149416045,3.4971766636994137,1.3729867036874273,0.45045114648859746,-0.15313600844932454
257,11.080837530183723,1.3954912315946328,0,1,7.14955282254748,0.5960346098793112,2.524400966643006,0.9438106452873405,0.42373447023546446,0.04854071095784603
258,10.26434214392905,1.3711506841799284,0,1,0.7038875422150722,-2.6301423697916664,1.7410434599799,0.7623743913926591,-0.34538179299904415,-0.2501436287738537
259,9.484675599899475,1.3293314233689784,0,1,8.901695227686883,-1.5255600300026424,0.879665693517627,0.9687354321797773,-0.8404180578254193,-0.1510483559970107
260,8.781228842832101,1.2698129760953867,0,1,11.154999228106274,-2.653666202724263,0.747714564881285,1.0342458276738722,-0.33737916764235165,0.26338995635406043
261,8.18388011085773,1.1925317139313245,0,1,7.141288497585536,-2.8419304303232895,0.9272282979823163,1.1907433025556193,-0.2070203911128186,0.3822906383370072
262,7.713167893866268,1.0982505607048902,0,1,6.954334432662213,-1.2308344777471956,0.8121451835584775,1.196836350646197,-0.2915857508565179,0.49976776007615736
263,7.381996345166476,0.9892782285104291,0,1,7.917155436075239,0.7564865317803234,0.5014271768838124,1.2074315800585818,-0.11559660106386992,0.4827397796693205
264,7.19807415424957,0.8700160609967253,0,1,7.707460190642103,2.353833878069491,0.25366928848620274,1.0944749079592804,0.0813606166233297,0.462614360016792
265,7.166357395312601,0.7471386693497811,0,1,7.222134584935612,2.7726112223658266,-0.20519181108319393,0.8937017158256341,0.14254618046477013,0.39581739440994274
266,7.2908733153107,0.6292919013395539,0,1,7.351301094450538,2.6920509771013577,-0.41418001562894274,0.6489287676948715,0.2063662501124441,0.3286526571422567
267,7.575451905979159,0.5262998022786604,0,1,7.720531644029064,2.201788093360569,-0.7702726765388357,0.40415942644166647,0.24548560045497977,0.2163718437662912
268,8.02311526740163,0.4479843350192346,0,1,7.9051411570231265,2.413693672625062,-0.626998280180357,0.18416127923111542,0.21139373681156104,0.12657684894656498
269,8.634133440659655,0.4027913295367709,0,1,9.902309738411562,0.5273606482614545,0.23702152596400095,-0.12169088462855993,0.051147750210054375,0.0883673060474735
270,9.403008994944289,0.3964646655481332,0,1,10.082871127879613,-0.4559907629712224,0.36737556752550093,-0.1580361896426673,0.12506217871883163,-0.04377635471125108
271,10.314903882410796,0.4310103625839623,0,1,8.578137244393961,0.31511957408621344,0.06733953449093345,0.055463299336222176,-0.04549344588402057,-0.15617553479265153
272,11.34227262222935,0.5041474185733233,0,1,9.602690995114989,-1.4749076426114132,-0.6732818881565671,0.21477386931887768,-0.26918785126147776,-0.15308457168127038
273,12.442643296401123,0.6093669199015116,0,1,11.960941065210228,-2.1807822043806566,-2.237268244915155,0.3502040707138969,-0.26709657241386203,0.01383372084552356
274,13.55846862368898,0.7366325407447537,0,1,11.196458325625724,-3.9706816441186654,-3.579817529493202,0.5331778788368228,-0.1133714582076533,0.18770007035032524
275,14.619709022554025,0.8736679214569741,0,1,10.081667234790539,-1.1266175357434227,-4.078613325600603,0.6656225467134449,0.28127250890689554,0.30904614423742716
276,15.549369049127,1.0076959851977105,0,1,6.108547735441808,-2.6285875713432114,7.009710748915784,0.6008074695924388,-0.01333180419427726,0.11972671794162017
277,16.271610550437096,1.1274198919661191,0,1,16.330427167627,12.296723137312974,17.65900635527281,0.032167039100332855,-0.47805627252137284,0.5009961911769526
278,16.721319808702177,1.2249574663401301,0,1,9.414333568113724,14.531311038422036,9.400050433195284,-2.5222951912264473,0.1448493955866188,1.084948799459293
279,16.853387220778906,1.2973674272795135,0,1,6.6750162899869645,-3.5071386316327278,3.5979491799957755,-2.4410832459771177,-0.7015080075993354,0.3454958586727527
280,16.649904658961116,1.3473889011149525,0,1,20.00217888399302,-7.550417573417204,5.926414724425548,-1.5868072560364839,-0.7398079101502437,-0.15041288467625513
281,16.123990309911953,1.3831338095215087,0,1,19.99171231972695,-4.478422081732624,4.355434650894695,-1.0500929901163831,0.014962007001535821,-0.09846951417014807
282,15.319535662764288,1.4167342915189642,0,1,15.744058898729177,-1.6195659367530062,4.772959085195281,-0.7280440876105938,0.493523189987358,0.3009416081840815
283,14.306653789387864,1.4622418840942093,0,1,13.134029717814382,0.5863496859221538,4.570356641625602,-0.6287317202554347,0.7054477045359805,0.33534190199631037
284,13.173263634318491,1.533254590632494,0,1,10.301029297113338,2.3311489709798274,3.5633787315286365,-0.698076020685376,0.8620988158850891,0.29450148200559495
285,12.01409047064891,1.6407540644878187,0,1,6.441488890640897,6.063525811655635,2.7641045267475532,-0.9693780492624475,0.6034822591720302,0.2637022757284857
286,10.91896561327716,1.791512715613784,0,1,8.846352302281495,5.138888542833975,1.9176776506074433,-1.5960738531018526,0.23679792792002938,-0.009702603720471398
287,9.96233934013968,1.987254882310305,0,1,9.90971335884806,3.5303514826225424,0.7168213098103239,-1.9273202942241916,0.49196161253935916,-0.4612114012679788
288,9.19548125493595,2.224582268815434,0,1,6.447675140624963,3.6101296714840245,0.16522566492949914,-2.2634440891693077,0.5467541866137666,-0.5989485920339754
289,8.642261062325025,2.4955365113728734,0,1,5.583562381767459,1.9515697599278208,-0.26379498761843073,-2.5743447356096554,0.33501474279435267,-0.621701687138777
290,8.298896949571684,2.7885944282697697,0,1,7.618077049622189,1.0039278485930918,0.023885191286272697,-2.7715742757240402,0.20094043745762916,-0.7758071888932004
291,8.13759823557202,3.0898791549971447,0,1,8.96968496048429,0.31396468183246895,0.22581436937133526,-3.0072337981338393,0.2869503640589123,-0.8819885371502293
292,8.113513176827329,3.384404527673171,0,1,8.795595973978717,0.6975019679478833,0.7690233239325359,-3.2604491952941888,0.39575728807889315,-1.0344174659873193
293,8.173888762176906,3.657221723042061,0,1,7.552587926160014,1.6216726689199032,0.5861465180378027,-3.5108150154475872,0.4755827398653889,-1.2435202547950441
294,8.268036867742483,3.8943855095320066,0,1,6.994257646891784,2.538311283617265,0.06846947179159026,-3.7289906039553378,0.25130034339675955,-1.5472648269203089
295,8.356630336070129,4.083697972022693,0,1,9.996147626156986,3.4233911235798464,-0.744660961496849,-3.7780259795576088,0.03329412923793064,-1.7792214531479307
296,8.418909621229592,4.215226186247341,0,1,11.788772235092097,1.0254409590073497,-0.8511404851067613,-3.8550781548582522,0.10503727321012145,-1.6881273321016024
297,8.45651098863577,4.281631516524098,0,1,11.185152492393726,-1.7128274864189847,-0.6093736796322874,-3.8298767512285177,0.3072554348097486,-1.4687865614078912
298,8.492962316696055,4.278386033372736,0,1,9.633902808535364,-1.739992871510337,-0.5459133744336153,-3.7471591566368954,0.39806345566465845,-1.1929045781063157
299,8.568574570843179,4.2039695272106785,0,1,8.367137264996428,-1.9073965331960265,-0.2730520961831929,-3.71675435327336,0.377504510738054,-1.1515653875080982
300,8.731400549213014,4.0601209405237535,0,1,8.313498709108535,-1.1232567546733387,-0.5209344805119408,-3.7052827159269217,0.32287185255887413,-1.1717102243805622
301,9.025844781378266,3.852155036614593,0,1,8.167023873651118,0.16971169431922561,-0.5380041851545048,-3.695218976191724,0.46067485177879136,-1.1385283252069036
302,9.481120327296182,3.589264126550125,0,1,6.737221616681193,1.3941159275267618,-0.6091249636099354,-3.672218651431727,0.649512183676599,-0.956012759449134
303,10.101952001773867,3.2846392192281852,0,1,3.570529368228387,-0.5431316188800697,0.6477051665524154,-3.6984767177603106,0.6503680134875439,-0.7071698805248492
304,10.86369017558526,2.9552033569406166,0,1,3.0966470280324065,-4.527580648537643,2.0122936938417944,-3.4570965913331393,0.253258395125134,-0.5875957206447668
305,11.713247615292026,2.6207804180240584,0,1,6.654980197537662,-7.223705945476222,4.071322113489108,-2.963469783122466,-0.07460383988067416,-0.5563340720113695
306,12.57597535808346,2.3026322472730567,0,1,12.10149597263713,-11.571742248770526,5.296604771291595,-2.3330748631071954,-0.08012603034625101,-0.8515603858383467
307,13.367036142059625,2.0214641917566154,0,1,12.45595272437188,-10.810488125134535,5.050646546293141,-1.4562800051518503,0.13748673532914793,-0.9002461281216716
308,14.00464302771643,1.7951759421856437,0,1,12.269107247263209,-7.282708635239614,6.193869922804851,-0.9032515364600718,-0.18359336377010413,-0.524838069096516
309,14.42225819749213,1.6367596025499103,0,1,15.360865645294298,-5.387584126748012,5.045818092143002,-0.6709782780666058,-0.40743292686195565,-0.4226835219299582
310,14.577506016057784,1.552766253454964,0,1,14.845477567505618,0.014035559222509228,1.1342768177464215,-0.8719189162062763,-0.34538590876544295,-0.27465617183340457
311,14.45667155360148,1.5426540857333422,0,1,14.406072029035046,3.550292471922612,0.7821127892521901,-1.3897766296150156,-0.1929549210664439,-0.1983209641680339
312,14.074724088974158,1.5991240915215392,0,1,12.819944429543726,0.4838309635341561,1.3078939890512844,-1.932037826238976,-0.022682563565505333,-0.289387764902852
313,13.471570848559272,1.709317189695708,0,1,13.02807854300284,-2.2570147577999853,1.0263453319418478,-2.1656203824771727,0.17173800762087774,-0.34816030131294556
314,12.705660487619358,1.8565753441766282,0,1,12.80297554517188,-3.3491005909481157,0.5214110196695032,-2.0971728931634788,0.38880234158858357,-0.3842668860663004
315,11.846171930792664,2.0224131574085735,0,1,10.38942297572172,-1.563761413465788,0.4415694594653769,-1.9200732985413886,0.5165104863441569,-0.38084866212633445
316,10.964958202950383,2.1884010473632256,0,1,9.482767921613691,0.5467704181478545,0.2535908097439354,-2.045413222863258,0.5090341424812659,-0.484445128845553
317,10.129267398532159,2.33777105192452,0,1,9.149160715270074,0.94860101306382,0.08920529903759593,-2.283173214668357,0.6178563531404306,-0.5744051741136144
318,9.39604036389347,2.4566578304431124,0,1,8.85003832380345,1.1998488655982587,0.028097397654359528,-2.4326130561615185,0.6341409373728227,-0.6896158427690445
319,8.80825259811435,2.534951499032306,0,1,9.021768518818662,-0.25148158796885334,0.015075020451903193,-2.429439483879174,0.6203958455165354,-0.7416433002696846
320,8.393368543141838,2.5667764443275654,0,1,8.528155801628717,-1.9794914229902567,0.09810288209124018,-2.2577034782646987,0.5724527282833545,-0.669465825556234
321,8.163631041904173,2.5506409215559507,0,1,8.166142419507052,-2.284526918365415,0.31615556665252764,-2.0418440445567,0.5403265527910477,-0.6288757687572262
322,8.117713509018918,2.4893249404300337,0,1,7.590578027410656,-0.7867429634461711,0.4715298067775005,-2.019919291929373,0.49956083273894175,-0.8348951767520105
323,8.243219625321007,2.389568596533824,0,1,8.25540068958234,0.8394762304056278,0.08853587050807023,-2.2693106600387933,0.45616012177132564,-1.11739634064404
324,8.519552557863717,2.261579043557302,0,1,8.900494593210569,0.17960394750044012,0.0545612884637322,-2.4052521837572787,0.4706909807918305,-1.1519361141091895
325,8.920716787993015,2.1183154097692842,0,1,9.33433424992283,-3.3813256153811757,0.17467194288937193,-2.2939933008289866,0.3717183729502514,-0.9850866207089967
326,9.417649767215032,1.9744864902894637,0,1,8.466754627773133,-6.308096383069559,0.9220591928945013,-1.8737586485966833,0.2816795639917977,-0.9275115460095105
327,9.979766829156102,1.8452405337210607,0,1,7.932013220377596,-6.395506996468459,2.2896054360484235,-1.4541986159208826,0.09533583124428886,-0.9611917070782378
328,10.575600729256237,1.7446264935315823,0,1,8.474606863874026,-5.699103986265361,2.7648759750644167,-1.295756588619642,-0.06778922958433642,-0.8631316817403576
329,11.172713380254327,1.6840099333864493,0,1,9.150125387853283,-4.5395918809293585,3.512636662744245,-1.323437006092667,-0.15154883849639875,-0.5843784298621739
330,11.737358401922432,1.6706844951195914,0,1,8.290927259639968,-3.9023973007039894,5.058883448089123,-1.2941071160708122,-0.029709384564147293,-0.27748398609068853
331,12.234561751020607,1.7069122633307336,0,1,6.932209808803051,-1.0455842493807093,7.37706762563041,-1.2793808322613893,-0.1845009648852652,0.0693225274269418
332,12.629272159182936,1.789561425465524,0,1,6.84869805992302,3.9767915742321973,3.7996243497177775,-1.5544333466770994,-0.6712696030963353,0.41838838768360304
333,12.888952188707492,1.9104063006047143,0,1,13.77480804866445,4.373191647354965,0.9674658287377086,-1.9729215029045009,-0.7247147320541458,-0.07656483391132679
334,12.987436106449797,2.0570393781782417,0,1,17.10318476510627,1.835806900229858,0.7895988270841059,-2.005715154871598,-0.25322048734919583,-0.3542660633152902
335,12.909246088993223,2.214251046942055,0,1,12.424510801677114,2.6313549702155306,1.7346544014169065,-2.091787001645249,0.04505373480767523,-0.32795941671240236
336,12.653181633179733,2.365683624330321,0,1,13.531471124417054,1.2439559395573536,1.44355312536403,-2.446174582838155,0.1619605642997077,-0.4648379485888765
337,12.234122917972071,2.495556740019262,0,1,13.147137996288231,-0.2426299770652049,1.7636520286190591,-2.4824399647783952,0.33415269196936337,-0.5678359431985125
338,11.682500714418602,2.5902691197946845,0,1,11.75449154215624,0.6173674209901998,1.7161993561536775,-2.616821301068589,0.5405153508775341,-0.777168856546839
339,11.041463055182568,2.6396971789322285,0,1,10.554293662532231,0.4731509107684007,1.6489085206274487,-2.7544990531073514,0.5727970337177009,-0.8988460345807602
340,10.362215113983185,2.6380411308035425,0,1,10.518812248768239,-0.5232131762717497,1.8838159299995556,-2.7135803163723753,0.5765279414677683,-0.8499942246687515
341,9.698299544947375,2.5841246940911766,0,1,8.429316844635373,-2.077400940403141,1.6128970619131564,-2.5166086761565363,0.5947767700326139,-0.7145547283817496
342,9.099734625721142,2.4811352361849677,0,1,6.545044786656617,-2.6195356873561786,1.3227948154481826,-2.2639925662778504,0.42304745274323385,-0.6385321830519535
343,8.607930833199978,2.3358830378874416,0,1,6.303571086169916,-2.6868133719443548,0.9628401502795482,-2.094608378548204,0.17846427660692513,-0.6552932731216817
344,8.252136531923204,2.1577353000603345,0,1,7.742281304446193,-2.359118371340305,0.8118490615002346,-1.908006279245146,0.026548937771130415,-0.6364651522574049
345,8.047805193453408,1.957418948520372,0,1,8.395197068380005,-2.4068640985307246,1.0926658665551126,-1.7612135295901696,0.029248456114549598,-0.516551196559182
346,7.996808200302579,1.7458801806260478,0,1,8.648365406781553,-3.273949382655435,1.4350669069929387,-1.5581529686245477,0.05420782218591573,-0.34084650677549583
347,8.089028328348663,1.5333496272525533,0,1,8.111058202611764,-3.440861715491161,1.4307740107196525,-1.3094141492756792,0.12862995450017695,-0.2464671443809393
348,8.304734238697518,1.3287059904101068,0,1,7.2309968587520554,-2.704179244070526,1.0235280303450502,-1.149682310899385,0.10992836716476644,-0.29491564018508604
349,8.617271536325738,1.1391678407581785,0,1,7.295345419493436,-1.7766536502240717,1.1833920227007202,-1.0973312561577129,0.03492643827687557,-0.33067777883429395
350,8.995855819983458,0.9702782091907317,0,1,8.09972870198394,-1.6837926655848443,1.783084445113595,-1.0746101082924044,-0.08221679881852854,-0.3063965190071499
351,9.408414467639869,0.8260891551127165,0,1,9.575022077023444,-1.2156939306397936,1.5755982607403298,-1.0027405435123107,-0.14953816926788188,-0.28150364093220454
352,9.824400159042007,0.7094198479021453,0,1,10.221872289054726,-1.5782071847628045,1.325284907910901,-0.8275216818475373,-0.18994156043125887,-0.2555834035346396
353,10.217360621063253,0.62206575639452,0,1,10.575033681441704,-2.096740779335451,1.1890820532943616,-0.5956209451551601,-0.2582346293015048,-0.22736408299772057
354,10.566947849759005,0.56487783886166,0,1,10.502604897557326,-1.987105465326742,1.175951104645498,-0.4384623696385518,-0.30765207094296526,-0.20304081043423186
355,10.860080536910257,0.537691972518379,0,1,10.889791170265928,-1.2968114342997192,0.2956627142720027,-0.30597502551327527,-0.4088718481691441,-0.15852422000700642
356,11.091115056632642,0.5391468841244749,0,1,10.940819114732243,-1.8039331777315601,-0.36310044547454623,-0.2274122288219607,-0.47081683771885574,-0.16760208358665674
357,11.261049683345433,0.5664681185880482,0,1,11.219766080021024,-1.3996866479635104,-0.8467507362781052,-0.19518189804578454,-0.3393609705749133,-0.22748912007531677
358,11.375917468850467,0.6153132042849242,0,1,9.912204207164619,-0.8009445610969492,5.653295889081305,0.08231342270595722,-0.26049655959915885,-0.12545056411954794
359,11.444600769750922,0.6797706588075635,0,1,8.359549530001392,-4.304999384438016,7.170998350429034,0.3703032815114432,-0.5145893810766082,0.20890611319030292
360,11.476347904908618,0.7525812838251117,0,1,9.98473831140669,-5.617181465901452,3.9706620351765944,0.5109861614978871,-0.5564963073456933,0.17757844023694316
361,11.478323935537528,0.8256057676156611,0,1,10.098024649545374,-0.6335890699596262,3.3145023983302924,0.4578335872489465,-0.2530714284274888,-0.3358850055652447
362,11.453601177062659,0.890510184438736,0,1,8.644256543362744,4.618504775407928,4.260022238418376,0.1926768628918235,0.059956552364003005,-0.756548445609317
363,11.400060638344746,0.939594096875111,0,1,7.007454562684024,4.379716340055419,4.49292741924039,-0.26447101352305247,-0.11419034553095776,-1.0032325866518925
364,11.310646219120743,0.9666473565471778,0,1,8.736058914344122,0.3391371182471362,3.5604211421056595,-0.6377842982311248,-0.4051649248551755,-1.0528372611591914
365,11.175194624396305,0.9676935414880234,0,1,9.742481247303534,-3.7206004546431135,2.584606455795636,-0.5982960425928588,-0.6237702957631257,-0.9876908530610727
366,10.983636013431658,0.9414766036376218,0,1,12.147381596213384,-5.470160257148925,1.568732595595538,0.012373611720946824,-0.7324032515614888,-0.7550915046058261
367,10.729843997566222,0.8895906074844142,0,1,12.820120801695788,-4.8701956119031,2.0524601201574204,0.46243216648028235,-0.5575039707742065,-0.4875041563786776
368,10.415062478055756,0.8162336778175878,0,1,10.870386524616892,-2.6059353283237385,1.3358692587709984,0.5393520232143433,-0.27726924417058807,-0.06626323285150819
369,10.04989418211223,0.7276521828808138,0,1,9.633891193835108,-1.5221780442472335,1.0337611853915547,0.5421995021868643,-0.3343277840934253,0.10052875654098284
370,9.654316777701712,0.6313931990366071,0,1,9.681123434964766,0.030746017833793944,1.041512554687319,0.5442877615273973,-0.3250886641907279,0.2032132856736245
371,9.255835415326578,0.5354900631539382,0,1,7.947905388069226,1.5480853398587087,1.1172915840978994,0.3902480317434312,-0.25867411926482475,0.29115737406369496
372,8.886364824073594,0.44768330722244587,0,1,7.341884973825051,1.5212825319661412,0.8309161297111575,0.1122904299814507,-0.20903870976737413,0.22807881493744545
373,8.578610014335581,0.37475233645952705,0,1,8.113162310028565,0.8695623726643915,0.7103000795089972,-0.11582819528442574,-0.06995273477817344,0.09997439956575391
374,8.362613932255533,0.32201191054426387,0,1,8.827658441413282,0.16449640606168017,0.4323902672593385,-0.212748495784299,0.1833373657135397,-0.02984419673922748
375,8.26287758658534,0.2930036991598247,0,1,8.591575106319414,-0.20809241386296132,0.3823977046111103,-0.2094231350654639,0.3433044344972245,-0.10070734903497214
376,8.296179884320312,0.28938010785492846,0,1,8.57063092564788,-0.33291295399900483,0.5137758929944709,-0.1752010071244172,0.40225303695343156,-0.07359711806173884
377,8.470060449097238,0.3109459711466504,0,1,8.51948978954177,-0.9464008163638025,0.5202104882843894,-0.05888599041060448,0.3124194544541373,0.017410489133178164
378,8.781917582950648,0.3558125049180621,0,1,8.544070513295722,-1.5125295333916815,0.3022152832549647,0.0575785074242297,0.2162163835169155,0.0842332333223929
379,9.218754357213518,0.4206308315225767,0,1,8.162086971836853,-1.9962994337469024,0.4479947079404954,0.18720271698867713,-0.01820467662057524,0.1317674577596972
380,9.757685389434679,0.5008907863801588,0,1,8.882312192557643,-1.9364917228840863,0.3860951381777382,0.4084923140037776,-0.3145088867052504,0.21250866131135934
381,10.367323217292691,0.5912722351687182,0,1,9.369687722015366,-2.0397290971210906,0.3372174929292826,0.5018887487246723,-0.5068267622822324,0.31291929571933436
382,11.010061440610738,0.6860188202935745,0,1,11.287372318488057,-2.2980726711271995,-0.7424692974977624,0.5370285539734952,-0.6365929684595042,0.30372361451099894
383,11.645079831170492,0.7792895968644076,0,1,11.974620599990702,-2.4352584680361984,-1.1849232743558185,0.6363707768216339,-0.5075970936600411,0.16596010277491716
384,12.231693707083352,0.8654556563567996,0,1,12.196666626815714,-1.5269586223480809,-2.134900979611787,0.6904273132903286,-0.2817651261351017,0.04430849669798965
385,12.732555977529284,0.9393465828157983,0,1,12.289927667748714,-1.2168438919208389,-1.4022713910854125,0.6820291338533381,-0.13499490394981126,0.13281454824446592
386,13.116241295712813,0.9964899742139407,0,1,15.487753364674923,3.5363331862082026,3.3299874200949002,0.6067398057503797,-0.04130061392470343,0.32424772936955876
387,13.35887960042061,1.033395271010286,0,1,12.541722270714173,8.268260474983169,3.74553444329639,-0.4930330764069569,0.45323377598853337,0.4855319510532681
388,13.44475629862271,1.047896217355285,0,1,7.066032416821578,3.1442397362700114,2.724347375936787,-1.401480925738304,0.19661717215841007,0.3152653001379818
389,13.366153593240366,1.0394978589702,0,1,11.240355134640318,-1.0326929773629174,2.310028672955848,-1.3343990170074123,-0.14701861462013263,0.3660345312601514
390,13.123008265304374,1.0096136409275231,0,1,12.638521445456039,-4.270493590475327,3.8088087306769784,-1.0856666511010313,0.11121819963102518,0.6161867634685111
391,12.722922842907805,0.9615699494403107,0,1,11.165803110626653,-5.049217080178978,4.426281127279615,-0.6993517370464699,0.21930247073649564,0.6493367735750968
392,12.181641601074727,0.900312654967905,0,1,11.420491580108273,-3.0297454830979795,4.271363574120222,-0.44645863268761676,0.1336932189105505,0.6943983340163253
393,11.5236054357823,0.8318417968927523,0,1,12.268919452314156,-1.1435116775512615,4.016995750533521,-0.3411037185321785,0.21126969449399122,0.6298549623097938
394,10.781960020835733,0.762478451431494,0,1,11.537208578107201,-0.33048203765319656,4.190442112561261,-0.22963027911510203,0.34848796093371837,0.4417784864925251
395,9.997474438272777,0.698103531908944,0,1,11.036002188815896,-0.3762008405778736,3.560236291739482,-0.16841190298829636,0.4370458073686426,0.22878517683850264
396,9.2161422591316,0.6435014381288112,0,1,8.308493686074486,-0.33269016912724136,2.1717803523815933,-0.07613751151258949,0.6958262789310085,0.12284550681840531
397,8.48568407383661,0.6019066553538855,0,1,4.042411427240831,1.881406160106526,2.055663731222201,-0.09078235440180901,0.486705633950159,0.2816250198239925
398,7.851593557422337,0.5748066397465351,0,1,5.689617743768862,1.2439362705930708,1.9295825971501965,-0.3131326435065621,-0.03621592422196197,0.09612357820318208
399,7.35353133703447,0.5620137016945507,0,1,8.685416858446793,0.3872583106989226,1.1737227655768718,-0.2787251458453725,0.0487483961740131,-0.3089357044703314
400,7.022634337393738,0.5619833117337847,0,1,8.835066707364495,0.7082232793990014,1.0769643595368077,-0.31435440815004256,0.2812801105362303,-0.33328607685654327
401,6.8798381077771324,0.5723168031182752,0,1,6.6202659140800515,-0.14011265087392344,0.7373578571381463,-0.47485330308707646,0.45274458158771214,-0.4295021544460724
402,6.934970955535098,0.5903418689212087,0,1,6.0954646708401805,-0.29753934554017974,0.6899004227064439,-0.5720020917623545,0.384528428273304,-0.47166355157654133
403,7.1863686920794,0.6136335886711599,0,1,7.33803803958442,-1.058486263620267,-0.10645182804858874,-0.7103136380663763,0.39677142369030977,-0.3741523998452054
404,7.620940059996716,0.640346464000693,0,1,7.6671561296958535,-1.8520827311832893,-0.7501098856343983,-0.7455048393225545,0.40183041254820845,-0.14917557754191613
405,8.214751112036662,0.6692820470031584,0,1,8.139958492420527,-2.583450346273784,-1.5337906994927253,-0.5762659111733782,0.39218524519994113,0.0627242883220731
406,8.93423001681242,0.6997023933205934,0,1,7.032237350901741,-2.8689070577234252,-0.5031465360847189,-0.12508381067634936,0.4011494732794553,0.11310158536038363
407,9.738092699549583,0.7309867253928016,0,1,7.34321230442168,-1.2205876358413632,1.9736349301037106,0.35405306323861346,0.05324014515778106,0.03261210544270356
408,10.580060200176177,0.7622829141354955,0,1,8.731136129580516,-0.45244225470521876,3.1529846927020757,0.4313872054588691,-0.5097364205183352,-0.0020693194891845913
409,11.41228068899003,0.7923028719749887,0,1,13.450658931495726,-0.2470418941700299,2.193755296617912,0.279034294301625,-0.7751142305041039,-0.07760791129278861
410,12.189044660616759,0.8193556064100209,0,1,16.635527685041474,1.4818598545512598,-0.8221740428652917,0.027009933066130948,-0.5584906113800535,-0.1577982166298446
411,12.870075583471253,0.8416336477506742,0,1,12.564375572783213,2.8872927264037114,-1.0837675583700321,-0.3793304307376977,-0.08860924009195854,-0.27316140848972464
412,13.422703245450908,0.8576957317006371,0,1,12.750506292105712,1.6013641223018602,-2.5913797109077414,-1.1987515112809202,-0.2185532688969063,-0.49395747642687526
413,13.822693224032,0.8670274619145747,0,1,10.297538084876884,1.182923311972003,0.40850272795428316,-1.1449117711405143,0.18720979653786002,-0.4510446131710797
414,14.054124964742151,0.8705175944320398,0,1,7.953501150811297,-2.258458150991622,8.446639638400676,-0.920283893082294,-0.2510279596755172,-0.29015422178913863
415,14.10902654739063,0.870684201865628,0,1,10.764551635143992,-11.259537444014274,8.564801795365403,-0.2988276983295614,-0.22899750291121893,-0.7690573655084665
416,13.987296314768978,0.8715373242305952,0,1,6.89856091680018,-8.11255694016983,8.642565491005483,0.5276380745627225,-0.2153302612657617,-0.9692814550354255
417,13.697007807503327,0.8780504698400111,0,1,8.436963711900356,-3.919732334790534,2.3787393539535566,0.567576554641258,-0.8598682705164522,-0.5277056966709449
418,13.254866516009201,0.8952977583776438,0,1,14.104968419362587,2.9512677494683124,1.7614609309402824,0.42601395736788517,-0.7508067346068137,-0.22797133787336044
419,12.686440152586686,0.9273862676189083,0,1,15.455131907305812,3.1858182789270826,3.605279858717074,0.2894029919848708,-0.30927565091000175,0.2955308395217507
420,12.025665066877584,0.9763762483813123,0,1,13.23614795064148,-1.6322984909418632,4.914541817497905,0.5735920981627349,-0.12443187361636388,0.46918763625671744
421,11.313073167190481,1.041418823921049,0,1,11.218986165242708,-3.2187238829793485,4.122296436516054,0.7906178504369517,-0.0655884243484445,0.2873832586930867
422,10.592437710206292,1.1183257484494695,0,1,10.454925428316917,-1.896306990842687,3.175866991712618,0.7106769801795656,0.19763748592190883,0.4386082446771772
423,9.906157056861682,1.1997161955287101,0,1,3.2424658243288027,-2.974413836483959,2.4472195231062597,0.6452418741192489,0.36745283100611725,0.2509199386508046
424,9.290365483764857,1.275783528773632,0,1,3.094576275885931,-4.00785253089407,1.6040641238873885,0.9875321077719426,-0.5083868636354061,-0.05652856176903869
425,8.771045688647101,1.3356109391301692,0,1,10.098527209769296,-4.030175268863304,0.9476686883613493,1.30385435166291,-0.6246296228264548,0.33383771543388
426,8.362101134355509,1.3688503149021674,0,1,9.021398742852476,-4.06448149355919,0.9149775929016565,1.5159603234980024,-0.1612777773214197,0.5296003594381763
427,8.065622944570748,1.3674839095267293,0,1,7.588426691525639,-2.4442549652240033,0.7989540529982989,1.6964636824232755,-0.13034969637162708,0.5368317196413684
428,7.873948491675435,1.3273446457392082,0,1,7.221217126532322,0.09199083315270397,0.7061645359498548,1.6811054424153502,-0.02217257646802314,0.4258958913150968
429,7.772893163139294,1.2490994210100381,0,1,6.9249408678522455,1.736354922564249,0.6988217778482061,1.5520160987500637,0.06944697529559282,0.3309875932093496
430,7.745633742052195,1.1384961366822475,0,1,7.082808754420651,3.022220628880062,0.7318279391153865,1.3312009134509215,0.16267478528547435,0.255570655078935
431,7.776820561561165,1.0058144166249563,0,1,7.08954859448469,3.093116233506453,0.7506433116805132,0.9611321861475655,0.19949724044395914,0.1628348761343542
432,7.856456795956512,0.8646086623731148,0,1,8.277373420879297,2.262117280024544,0.515205519662846,0.654822836135146,0.19810475559944002,0.019281469347632633
433,7.982982751975282,0.7299566259209634,0,1,8.671220444890917,1.3316067767824722,0.48869164172103335,0.3974489033651427,0.2193409619455718,-0.1420823344077311
434,8.164964160645653,0.6165001971341579,0,1,9.593814161611707,0.030538500271841514,0.4613664847843599,0.07928748175758318,0.2221972997441594,-0.29320616834361873
435,8.420876372474318,0.5365754224518612,0,1,8.693785357498115,-0.06079930342936832,-0.13675799303656933,-0.06493580800489107,0.20530933337077614,-0.3808771234560351
436,8.776710137449605,0.49868386285223776,0,1,8.749828200690486,-0.6537537566278013,-0.7875873048177813,-0.022938919572784492,-0.12601418267422954,-0.37055447137361225
437,9.261451595965298,0.5064815923596324,0,1,10.151588347996418,-1.4826298522691306,-0.8554092724538764,0.050232851069846596,-0.2566430932785423,-0.2890694460020017
438,9.900826696172247,0.558382128617292,0,1,11.153406163451137,-2.2640389022587057,-1.0379615241729214,0.15933111850694595,-0.22951611707484798,-0.21268156876807268
439,10.710001216274986,0.6477995186468256,0,1,10.546330804283876,-3.064742936693868,-1.6930177905634576,0.4758793566976507,-0.1494209067393409,-0.20223663380000817
440,11.686224357038085,0.7639962711176442,0,1,11.474889213339686,-2.338760922476743,-2.3755395763977774,0.8007363349127341,-0.16763507005652636,-0.16543490905000383
441,12.802737119302558,0.8934426087653591,0,1,9.221076248476889,-1.0848776853334077,-3.0645770700090984,0.868782226874028,0.12095055493740416,-0.13371017153244436
442,14.005563847197157,1.0215421117383146,0,1,7.8910820976130305,-0.018470695566598645,-3.0196151336714885,0.963483026571073,-0.013079533399056327,-0.13038962678423613
443,15.214836177100576,1.1345429716827884,0,1,3.5464777788973674,-0.3797278392577101,-1.978481046222555,0.6977239653805677,0.33876103520443074,-0.1625580056059063
444,16.331735232508496,1.2214321768079064,0,1,9.322161751442433,-1.0981663388876566,14.302812970651075,1.0137087713337298,-0.682816560383,0.052362076036400015
445,17.250780269367567,1.2755859838985542,0,1,17.900832931533426,18.282006173032556,19.69689067425078,-0.456945200852802,0.04662683041076672,1.1544892313698745
446,17.875382073565838,1.295913773579152,0,1,-2.105568050985267,9.257217543623998,9.65057620583515,-2.711263035661894,-0.43565564508753946,0.8595843112118914
447,18.13327915632527,1.2872093799391269,0,1,17.653685764000386,-8.25775342757499,2.443553104743623,-2.021993986208835,-1.8163337850536145,0.4221894633466598
448,17.98845964328365,1.2594829530628402,0,1,22.375044490385726,-11.442362105736851,3.3992358047208104,-0.9351526550052263,-0.5501046317518389,-0.31189642212589525
449,17.447220530472134,1.22624874013704,0,1,19.105442045289625,-5.247762457980607,4.620923058263781,-0.21113402376763085,-0.10728225425128791,-0.18861402267107524
450,16.55738245991987,1.2020532243326083,0,1,15.294972929442778,-1.934249840170671,4.804960465862567,-0.14710703257181224,0.38549323877739766,0.10601534636150563
451,15.40102421076555,1.1997906988583924,0,1,13.005792322998264,1.4361097220805226,3.3754819736936046,-0.13214204154688192,0.5950170819817432,0.030879434523710083
452,14.08238441786092,1.2284203203376654,0,1,9.141042068793036,3.2100515372846,2.9171673348722336,-0.4184502318037011,0.6220554256339254,-0.05076188152357411
453,12.713503040249613,1.2915539498464776,0,1,8.208390066270793,4.2284678512044644,2.288553668520416,-0.8778081531197989,0.15648282687837264,-0.05674478672445288
454,11.400358806563192,1.3871282126041733,0,1,10.11797073039871,3.0526893958510577,1.8924173727380076,-1.419786819799339,-0.004115049188498554,-0.06082530129325803
455,10.231678856297725,1.5081155220566667,0,1,9.524919709288039,1.9387332891973799,1.5357243292732816,-1.6972918899429394,0.11655218180926172,-0.3203524719223681
456,9.271604289381642,1.64402737331,0,1,7.893798175491634,2.3385175964619718,1.2855806803799263,-1.8751134982272062,0.0576459478836725,-0.6062286188053616
457,8.55642357906549,1.7828456289526953,0,1,9.125107739085877,1.3805981738871531,1.0221464238055429,-2.0329658034296334,0.07613513222950731,-0.7712149751646372
458,8.094896001230797,1.9129936283900266,0,1,9.200142469919507,-0.2570759740447771,1.111024774119269,-2.1218074980529478,0.2962949319382613,-0.6789808967796467
459,7.871319519900637,2.0250188066904027,0,1,8.342926278356423,-2.031849073544341,1.3140336770625307,-2.0982872653205127,0.392822186514169,-0.4477762966595894
460,7.850399969510288,2.1127729249023295,0,1,7.2779201843532615,-2.0133445116836,1.4925261657355198,-1.987921493207702,0.37645717621912533,-0.30801680242103735
461,7.98309462458996,2.1740063913109005,0,1,7.47906087643781,-1.2896836683578932,1.9824675640831493,-1.9500745763766403,0.3048539419629165,-0.3222487597759422
462,8.212836226219386,2.210401454146495,0,1,7.5133084688730145,-0.0997641007829747,1.9999765351342225,-2.0153154684884327,0.2525970850693767,-0.4426560311105392
463,8.481751811370696,2.22712858746049,0,1,7.512253357850963,0.9672614052676144,1.8459414884865746,-2.2100428072516567,0.05131369089043442,-0.6938965617590155
464,8.736574992931864,2.2320183471000536,0,1,9.368955797267276,1.4421441366849581,1.2762463134001474,-2.365373530681201,-0.058991283612652566,-0.9264781714628755
465,8.93391330306266,2.2344225218683476,0,1,10.201841546996869,0.19879494868647254,0.3485229756311873,-2.368751878788955,0.034588939613190026,-0.942872905547729
466,9.044463432081436,2.243833276138756,0,1,9.679788759783868,-1.5436654665454486,-0.19610947259076683,-2.2106181869713972,0.11983525673953724,-0.7801780554780686
467,9.055786344701025,2.268364857698271,0,1,8.266150535716484,-2.319778939585641,-0.17745970674601683,-2.0145048847992744,0.16334772786903903,-0.5637060022408158
468,8.973418211664022,2.3132731139529836,0,1,7.258580081764499,-1.5910621758348553,0.4476568297422126,-1.8605451675277611,0.05452918039725296,-0.39765230730084433
469,8.8203204224088,2.3797544969803943,0,1,8.363416038057863,0.04078098759776599,1.016997811228341,-1.8168002236936915,-0.07116328608524587,-0.34349409179169044
470,8.634796382735582,2.4642810392779815,0,1,9.725621400383483,1.7688733971995438,0.8811999985699173,-1.9700431905340345,-0.029358699902579843,-0.36433581439292057
471,8.466944509589162,2.558664004254324,0,1,9.87003768316567,2.4714920293677136,0.5596157615372378,-2.318234883021474,0.10421163955560336,-0.49391238173821966
472,8.373591053078218,2.6509049111318364,0,1,9.563934240301386,2.319362130555895,-0.029493886017025697,-2.655733611956229,0.26963745114486154,-0.6759379362267908
473,8.411670919870463,2.726728514744734,0,1,9.115092302616484,1.4104759285349673,-0.779236716897427,-2.7947957960868264,0.4409900444006067,-0.8283627731668582
474,8.63031726616524,2.7715517937100183,0,1,8.719138147383825,0.35629304771869175,-1.182510672732487,-2.855639801388348,0.5160349407026432,-0.8685068372380852
475,9.06240384070695,2.7725678283408977,0,1,8.155849235701787,-0.06790186382710911,-1.61620578510504,-2.842015909896038,0.4998725396473708,-0.7617004509972811
476,9.7167675720801,2.7206247383405744,0,1,8.379405728140208,-0.5955254258567511,-1.6592121591730873,-2.814657364267638,0.5012636790732448,-0.6119738229732004
477,10.572648398289628,2.611639467124602,0,1,7.728972181654737,-0.2825681370414042,-1.6530256431043757,-2.7036269854274138,0.5950397965327774,-0.45072123109006534
478,11.57791135419208,2.4473751588565738,0,1,7.22790803925041,-0.7067067046864013,0.05390936682766474,-2.6104368844102352,0.6928566313105818,-0.39167916034822947
479,12.652291555354898,2.235507903962188,0,1,4.99422266407561,-2.54143115838822,3.790794147346004,-2.313832774997653,0.6814662732497551,-0.4072143595170003
480,13.696152109866269,1.989005951426939,0,1,6.638890175457623,-7.087409469057581,7.426614944611697,-1.8004125365402404,0.3590695849430069,-0.6092689039658983
481,14.60404143859146,1.7249390897163388,0,1,7.269335755596094,-9.459041927013239,11.043240916819217,-1.010662835704993,0.2615790296650473,-0.8251950969077895
482,15.280868758966879,1.4629149722142936,0,1,13.665684351792969,-15.304267656161331,14.694849639667112,-0.47623936639843534,-0.40513939011082495,-1.1035186884681423
483,15.657315700653802,1.2233774977018055,0,1,19.107627323443165,-16.227830953511,5.227061144789298,0.46722174381851217,0.0437656017407269,-0.8508974427326889
484,15.700874730244694,1.0259811869405564,0,1,10.875238174940344,2.081294458685317,0.3275792496319522,0.5568823582977316,-0.27747457048667046,0.6252223127631924
485,15.420013071152463,0.8881831366849269,0,1,15.556110624825825,6.112092470061504,2.118344011681802,-0.186494009277641,-0.41411473396518544,0.9203683858534752
486,14.860952879654397,0.8241028045221398,0,1,14.008874071542465,2.185588663648342,4.427045692447783,-0.739805647583602,0.1722744073859536,0.6779258750446521
487,14.098422097100366,0.8436259449295858,0,1,12.545008242658662,-2.8583207954352488,3.075376164150513,-1.0048348328661767,0.4396197429066269,-0.024051989008660395
488,13.222770318904447,0.9516982676681195,0,1,8.835811004423283,-1.7303120082930883,2.6791980121361427,-0.832277085813474,0.46354977797417807,-0.42692842691982275
489,12.32609399618656,1.147774228850657,0,1,8.986312408269526,-0.26260646915851893,2.582143965421788,-1.0392659898818206,0.22758400115956007,-0.43634967270716307
490,11.489769317883818,1.4254420324256825,0,1,11.235453838342371,0.8278497824565176,1.6134998585487088,-1.2256297625110122,0.40330443833381996,-0.1608548479206729
491,10.775182414356419,1.7723075439620537,0,1,10.386670099171463,1.134317908392936,1.1255195132773532,-1.484547564045264,0.6518363441837572,-0.025320046819820603
492,10.218600472372655,2.1702587366873396,0,1,9.316554650022043,1.004099061602841,1.5154728350820088,-1.7664646016791499,0.6610275321235982,-0.3212449645293065
493,9.830311573119124,2.5962331200217705,0,1,9.213661114183378,1.5330930025102352,1.3453452861860944,-2.1055762246006733,0.6938768998018667,-0.4152479991901126
494,9.597586091717364,3.0235707719237284,0,1,7.909298656466242,2.5367246695498054,0.8536069405576878,-2.378860243621419,0.6394382559837913,-0.4945529155683498
495,9.490660088578023,3.42395684455199,0,1,7.995594296964005,5.402700208135495,0.4903279574630038,-2.875697114020006,0.5353319902421582,-0.8479915250279196
496,9.47067688120782,3.769841570711918,0,1,8.486887613446596,6.662512063820272,-0.3038522699714699,-3.6489039795409903,0.4944692337327631,-1.4379821193075948
497,9.49829050941222,4.037084683653763,0,1,10.212073683838517,3.8486497249630687,-0.5214066819275089,-4.390855705738302,0.5991743705723195,-1.7794471550324011
498,9.541506716686563,4.2074436281027685,0,1,10.304389616455978,-1.049094919340497,-0.5040217027265604,-4.557066753304198,0.775474898606261,-1.9440610748786922
499,9.581420549209586,4.27047443123302,0,1,10.024173161187326,-5.529340003348989,-0.2157319352289716,-4.391421108862854,0.7231665484804832,-2.120793441606144
500,9.614833430268096,4.22449096952291,0,1,9.20982270310811,-8.807358442357325,-0.31177089864899765,-3.9606943853841785,0.652934881925935,-2.0125568963002283
501,9.65324797219347,4.0764255294140055,0,1,7.070931935206141,-8.883778763493039,-0.5104529542512226,-3.3357064880641474,0.5168410641038876,-1.724547466653144
502,9.7184051972542,3.8406808835193016,0,1,6.202760667407357,-5.988062957724397,0.08894760596110415,-2.8914826747524223,0.29514349214111246,-1.6482899290952322
503,9.835300241301587,3.5372667234041226,0,1,6.5779304300568056,-3.0323634908683554,0.431372771705141,-2.574904477375882,0.15143845522466245,-1.6414261539768165
504,10.024315657049996,3.1896013120831923,0,1,6.47068520314771,-0.6551599477064376,0.8529789516107145,-2.485369418190017,0.2105181804001688,-1.6192908603800618
505,10.294446316779844,2.8223198104615874,0,1,6.798382610098147,-0.3687721295901417,1.419192768596431,-2.509765403285559,0.13945958981865128,-1.5068219647059515
506,10.63933286204347,2.4593092502199227,0,1,9.208284279270835,-2.051557859231445,1.6828184589293833,-2.3403079337706396,0.034322335743486705,-1.271938541891613
507,11.0370100548889,2.122060173247301,0,1,10.78013912388479,-4.388623392123273,2.087241068506089,-2.0126930013827597,-0.11952103243781004,-0.8823360906389448
508,11.4532057051298,1.8283449394817148,0,1,9.64880640117666,-5.5753987329545245,4.440183800731382,-1.653928661889339,-0.11490962030194808,-0.5709068083894111
509,11.84708572866534,1.5912166907804237,0,1,11.574218779582306,-5.601048088680687,8.742100168188733,-1.500148282053856,-0.5990495675810157,-0.03714021808648509
510,12.177836549869417,1.4183449335121292,0,1,14.612683083998864,-2.9699928215611675,3.6228336846536986,-1.2986755962747678,-0.4642010352088444,0.3952772172515399
511,12.410529360528182,1.3117285302305766,0,1,11.034125781323086,-2.001955912201702,0.9493016835914967,-1.0197439904561583,-0.12139476753158764,-0.21789089677183282
512,12.520251954424538,1.267835532360436,0,1,12.002104613765486,-0.43385871065919596,1.4803391199776534,-0.8952279752786731,-0.08345416115800511,-0.1508020127583641
513,12.494261412220586,1.2782052507512593,0,1,8.441108407666691,0.7083473354039117,2.447216689269494,-1.0203199774262735,-0.06608905882887339,0.30767417049975665
514,12.332512227568554,1.3305043534380094,0,1,11.249918241061554,1.951892177522247,2.650845079143264,-1.3586353037552708,-0.6966963579452156,-0.09889420512299413
515,12.047052851215753,1.4099562524846785,0,1,16.93104474370806,1.265298050978549,1.9080657061742297,-1.4312918948373226,-0.18320944457685934,-0.5471983778964523
516,11.66050880163636,1.5009856767998808,0,1,12.615939178551965,0.9782163328640319,2.5327899931379774,-1.4160226503767688,0.3952183417060368,-0.4350360477418689
517,11.203574243994883,1.5888737741639611,0,1,9.348247691314759,0.7043829564960217,2.315442021545606,-1.5613425025779502,0.3814088418444059,-0.645072397100204
518,10.711499051533256,1.6612188766855895,0,1,9.51399673453938,0.20596971184465468,2.1169125341047836,-1.669252390997012,0.36323737390679384,-0.837287976810563
519,10.219959239713678,1.7090321645354065,0,1,8.905863827412126,0.3996138553696517,2.2220409371183196,-1.659590177022789,0.3786099727463038,-0.8889906828211094
520,9.761048983903422,1.7273498300318564,0,1,8.815866629758032,0.07754876086248325,2.2738222634471468,-1.6363584241106335,0.3020132304056022,-0.8636323542414078
521,9.360142700931414,1.7153093113461388,0,1,9.117892810126644,-0.7114859200427097,2.1652717083164803,-1.5831565058462596,0.3094866918743922,-0.7966551223449393
522,9.034102612315738,1.6757137063005991,0,1,8.273429501399601,-1.6625411078521368,2.0479700179428844,-1.4377995018744532,0.2809751297907271,-0.7155270076182577
523,8.790967326664099,1.6141835503239497,0,1,7.586537071413151,-1.599793471795713,1.746304440034366,-1.3354721918794528,0.16999952162655857,-0.6365015070917697
524,8.630982741004072,1.5380518755403725,0,1,8.199093277333516,-1.0062833518744505,1.9650040742143877,-1.2716621062242692,0.037850065523780306,-0.5403899407762643
525,8.548633850015035,1.4551842280211622,0,1,9.296566098262721,-0.5615943344844098,1.99752935895154,-1.1986440408734795,0.03611866164101238,-0.5488187198007746
526,8.53517457055696,1.3728965038889003,0,1,9.529455626592693,-0.5290191000751406,2.0054824514149616,-1.1029620894370418,0.10231405442422789,-0.5132029038528517
527,8.581058099720423,1.2971058693822324,0,1,8.937948613968299,-0.26373331610566525,2.363311573753953,-1.0517062119379403,0.17459122750351014,-0.4854567479436906
528,8.677718237391574,1.231795120991721,0,1,8.767331628287812,-0.06705469462524782,2.271322235766596,-1.0910031183309772,0.172121937709991,-0.4137291414014467
529,8.818369791504523,1.1788104401057247,0,1,8.68854968779864,-0.20069023369787026,1.9207196486584732,-1.1824276716161588,0.13763872494161913,-0.34415864992385264
530,8.997807155147175,1.1379571665490256,0,1,8.65895265000904,-0.4669583892509321,1.3048625001128717,-1.2495020239093462,0.08860519701927065,-0.3349865718292349
531,9.211463062681066,1.1073189780651997,0,1,8.459189809975054,-0.7068565646038361,0.9237109100378567,-1.1498938276838118,-0.0009712602427812969,-0.3687331576192105
532,9.454161261413025,1.0837125368447826,0,1,8.791849271667004,-0.4856302372631808,0.9932679145701742,-0.9756107913099182,-0.1321255548565883,-0.4107653699495356
533,9.719031234511489,1.0632034528420806,0,1,9.251312366966713,-0.5083296591366524,0.9161845553238662,-0.8567924099030356,-0.23564610711750292,-0.32816713888915205
534,9.996960767390618,1.0416374431134856,0,1,9.037535161776225,-0.5447780877012691,0.9145251672664274,-0.831611644296659,-0.38082191095306306,-0.25343211099513374
535,10.27677692902466,1.015161817862556,0,1,10.35913877009671,-0.24171090444404186,0.006197159825192933,-0.8431344011513757,-0.5130184938916827,-0.2562279782030651
536,10.546116486427753,0.9807129295703749,0,1,11.445994433243964,1.0795827878726805,-0.039084307439651265,-0.8586304859878086,-0.4975866912690657,-0.2070246507319086
537,10.792732283523785,0.9364284900460438,0,1,11.067809855645663,0.46313375784733024,-0.7744248670954595,-1.0216607850771808,-0.427183416285404,-0.10459061693964164
538,11.005851880879515,0.8819267025039035,0,1,10.584846056523258,0.5590351379621165,1.6751411111733927,-1.014420688094072,-0.44729345385207714,-0.024633498079036847
539,11.17720580912091,0.818395201867659,0,1,12.194258556732267,-3.0181673296471887,3.815567589377035,-0.8375657128573283,-0.48931440448527824,-0.050544527387820615
540,11.301461935772032,0.7484611281513897,0,1,9.82943668462893,-5.037642542069568,3.2780149854112053,-0.34098198947920655,-0.2878860464821894,0.02610182015802825
541,11.375993711448547,0.6758625872660458,0,1,7.858618212334632,-2.6656351991426326,4.7509229555557,-0.14623457457740713,-0.5269760150806729,0.14336464944914198
542,11.400130359651046,0.6049871838041562,0,1,10.66701147079298,-2.3294725712044837,3.473231247719646,-0.19174660760876328,-0.6218808933350378,-0.1369539219581385
543,11.374212147105128,0.5403592862946831,0,1,10.90884589379271,0.3249555104933299,3.8603425659228683,-0.1112854341872923,-0.3034975666325274,-0.4248617681049614
544,11.298811352515441,0.48614138690889325,0,1,9.248654681299163,0.8884358325256869,5.074045129781278,-0.2226446875594745,-0.1688179775939804,-0.4020252006970774
545,11.174375527597908,0.4456884767074433,0,1,9.279034417062206,-1.1555970756687741,4.931193940789347,-0.23400665643054913,-0.23315102650664785,-0.37516059516945416
546,11.00139274005992,0.42117898554322064,0,1,10.122442884769395,-2.088905097231045,3.8687970587413147,-0.11792693100019101,-0.312508393941249,-0.3216103218925973
547,10.781029689830177,0.4133448527708142,0,1,11.567140174568024,-1.754781172881075,3.2394776777087113,0.0025392603659260674,-0.23338779948650842,-0.08494565671240788
548,10.516064214727315,0.42132875414964505,0,1,9.02989671765377,-1.9513111262881253,3.5528572123802005,0.14329751699980797,-0.2016062271091044,-0.07283586057447002
549,10.21185820813627,0.44269794298434717,0,1,9.19385150406114,-1.7313476145909865,3.3038394967526594,0.3005798976166555,-0.5098048815906395,-0.22608167493916206
550,9.87713077095977,0.4736333928190615,0,1,10.463104591147056,-1.1164284309174108,2.8678659764963674,0.1927921443172373,-0.4662532791692635,-0.04545761330669651
551,9.524362143970453,0.5092928798025667,0,1,9.38948555769796,-1.428133518030623,1.9582549561295337,0.07671606458306376,-0.2171476819422482,0.1046169460039571
552,9.169732393547989,0.5443295956004911,0,1,8.583739211523287,-1.6029469728489008,1.3924079551313786,0.20413572871457175,-0.16866346323302892,0.17759426586677315
553,8.832573254440838,0.5735353220663804,0,1,8.296179632758738,-2.1131746636921362,1.107666442960576,0.4257198932885684,-0.20993744081141696,0.3132634703880603
554,8.534395823840232,0.5925537069701149,0,1,7.959950232166498,-2.1067243103177273,1.0290081648143963,0.6170866919875879,-0.19667835812393872,0.4058246372433733
555,8.297613309294011,0.5985681819657219,0,1,8.115611730020483,-1.4993630842182468,1.0601673014326054,0.7045789563923384,-0.07573962871557396,0.44001087707247183
556,8.144069962246412,0.5908319480005565,0,1,8.474643460907396,-0.34459865310836235,0.919208994367066,0.7683799409120722,0.07805803458828396,0.363100384222017
557,8.09343716732136,0.5709054375577509,0,1,8.386078956748772,1.2018837305528356,0.9755437134928048,0.7184631439574038,0.24429361479285744,0.2330197957138109
558,8.161504563257534,0.5425119405075166,0,1,7.795029506600203,2.3126669486132414,0.8595347508839041,0.46156535402017734,0.3908627964859177,0.106428589234508
559,8.358418314287078,0.511001665605603,0,1,7.613459113636507,1.9261065359410465,0.6819178978564439,0.19532066974810983,0.42146362128426695,0.013200155443912034
560,8.686990378432341,0.4825024933839841,0,1,8.698052099123489,0.6489738521926514,1.2182541017599917,0.04895211835751024,0.41851093448335946,-0.01834047850250743
561,9.141272117615127,0.4629064401408654,0,1,9.58131756409614,-0.31994264962743013,1.2327071883827523,-0.002000804632969843,0.3157473141782732,0.004662433892961688
562,9.705615308462388,0.4568779278134053,0,1,9.487756692456704,-0.8214001902651971,1.133018717319439,0.011970598748712834,0.16461243875667378,0.0035236359922957337
563,10.35444591086326,0.4670684669338142,0,1,8.266250505042096,-0.72715211697808,1.1427709594120607,-0.03178418903740618,-0.10326117666646413,-0.06453490854979137
564,11.052968107667462,0.4936838816359107,0,1,10.043366725049786,-1.7643947307970502,0.849236815269429,-0.06614166925123346,-0.4645450853319553,-0.1078220829697275
565,11.758951305083214,0.5344796767370174,0,1,12.143919992297265,-3.044388711817963,-0.6305460752229348,0.11815199440864874,-0.49073681187830553,-0.0032258075108680083
566,12.425568837167962,0.5851719292070818,0,1,13.450475387939871,-4.2339941362203,-1.5304403901249024,0.49680533609033006,-0.36927750731352393,0.10054046134290896
567,13.005010526837607,0.6401705374520443,0,1,11.743785612136326,-2.1259668552863293,-2.7843367068213793,0.745265811577326,-0.05501723185586915,0.1484256288358009
568,13.452446719509773,0.6934913030655013,0,1,11.403644159671165,-0.3207246394370084,0.1654628464588589,0.8340776168522,-0.10797579730568498,0.1862687291989153
569,13.729949241418051,0.7396896061399937,0,1,14.453911697815611,4.851770853309358,4.2969846458478065,0.5513401983456794,0.11451218383680291,0.25390466091202635
570,13.810055223636164,0.7746731192764181,0,1,10.71258717051538,5.299444189172353,7.965009414139922,-0.4771614958833506,0.28288269153385703,0.4222384449473324
571,13.678674271564535,0.7962781068358332,0,1,11.06985806641247,2.6917414048061366,7.585263436248437,-1.1494493316995076,-0.11102081089418725,0.5636239036647701
572,13.337042202326526,0.8045201174824167,0,1,11.133253061026593,-1.568834018901599,2.688354392883698,-1.2491566877005968,-0.0848275230265359,0.5752363110727619
573,12.802501940813563,0.8014622884056852,0,1,10.635569041220025,-6.222795420326025,3.484313103540297,-0.685146570227531,-0.14625722793695797,0.3368425176792293
574,12.107977007873412,0.7907080119671749,0,1,12.71139079489887,-4.62466530008882,4.812825774657071,-0.25468119259637745,-0.032486050822923294,0.21558380511157338
575,11.29999318662915,0.7766217800699621,0,1,12.778705726048614,-1.7674453237245753,4.34816792582303,-0.13278332361695802,0.29382548985306556,0.27826908978388415
576,10.435084383931377,0.7634654057495139,0,1,10.506536485342085,-0.5499440481298963,3.975904372439872,-0.05378958566372851,0.6019506292454719,0.35815516863801605
577,9.57460266222937,0.7546500199097922,0,1,9.187739761332788,0.12877754973511402,3.4053038124974737,-0.03018032354821883,0.6261854430311876,0.3809832887099708
578,8.77840920688215,0.7522432347849057,0,1,6.142900223470512,0.5680846191983567,2.6606186921031614,-0.04590890433004955,0.7383968417266835,0.35890474124650124
579,8.09845765370589,0.7567844624631545,0,1,2.3033464822625116,1.987961962447626,2.5185958587121435,-0.2125309472620274,0.2733760343618599,0.46474980695982204
580,7.573576156965534,0.7673962968238246,0,1,5.957678450620014,1.2789023207732413,2.1077716962308344,-0.5174246698327538,-0.22279908558431816,0.06995426606006515
581,7.22658411336453,0.7821430368675946,0,1,6.040540743469896,1.7669790538657144,1.863371386699377,-0.671955902537932,-0.06013059577517282,-0.4124557464623158
582,7.064252519482544,0.798558596481802,0,1,6.369008268098908,1.3060897618424243,2.0010105290991436,-0.9053466510699432,-0.23576994615711958,-0.47010184877740935
583,7.079788906493616,0.8142334078084899,0,1,8.997923764641124,-0.20172579443173108,2.0464446159144805,-0.9555725762770835,-0.16342088846566655,-0.4478386083161859
584,7.2568426875885645,0.827327947874313,0,1,9.755097208535046,-1.654885994505312,1.4733543045243638,-0.9626853601339895,0.05157739898157129,-0.26288917008189006
585,7.5737241699371305,0.8368936407297309,0,1,8.670971724313464,-3.4786734642784265,0.615194782516563,-0.8730581375903855,0.29376069499784385,-0.1597703130817503
586,8.006687738135515,0.8429358105451155,0,1,7.562744845924527,-3.3598647598394042,0.10292346602756658,-0.7430072717955509,0.39715389997114603,-0.16632697284653808
587,8.531671860443604,0.8462280373703135,0,1,7.116966297938883,-2.383778423661478,-0.1079138834408635,-0.693728692698507,0.3665957357474693,-0.15186663539352854
588,9.124583034649099,0.8479546887752331,0,1,6.6503892812636956,-0.8199129561119793,0.4053592208074873,-0.5948651000436109,0.13372637724237213,-0.2929719269895249
589,9.760741206117773,0.8492997647816766,0,1,8.502211890840103,0.6790572833274541,1.4681706798476304,-0.5341871254068097,-0.17237406844068895,-0.3358246861243381
590,10.414244197803955,0.8511081844806629,0,1,10.808577758957346,-0.016394694277207363,2.7100638084707036,-0.5411435346549589,-0.4697839811702357,-0.044028310003976445
591,11.05776118625921,0.8537205660799961,0,1,12.337761637563736,-1.1621234750035452,2.0077920146241195,-0.5757382802191604,-0.4237591743039732,0.09225952889552802
592,11.6628624323482,0.8570315962964425,0,1,13.043382355991005,-1.3242381817994926,-0.3966770969333374,-0.6480425787151034,-0.38805023470778865,-0.0864323151509611
593,12.200738917850032,0.8607583685552026,0,1,10.440786608426388,0.36926769783508506,-0.9623519226372875,-0.7987379303348361,-0.009008942709772623,-0.2478033082785353
594,12.643205076034368,0.864842821665434,0,1,10.007308281704425,1.0665658391042456,3.770821565225226,-0.9758590322245765,-0.4869180746277692,-0.2852726439247989
595,12.964074974799741,0.8698642464155067,0,1,10.704817841264669,-3.649927432277399,5.922880164207662,-0.6369895788851015,-0.773743629683766,-0.3123713763609336
596,13.141080665062258,0.8773166373913074,0,1,9.726320373232308,-5.7536464658780035,7.417381904520029,-0.1214822759139254,-0.8870392322071956,-0.5487168845093124
597,13.15832642516537,0.8896221735794164,0,1,11.396983648481466,-5.689663240392167,4.971847507502474,0.08960301606339396,-0.9200326595192442,-0.9090480837930767
598,13.008970397235663,0.909807355763905,0,1,11.439121946573653,-2.7047436008020638,2.662267273221913,0.14147065839699483,-0.6039001066267606,-0.968832111102292
599,12.697602423299077,0.9408535552871998,0,1,12.07053370553114,0.24243188554773762,3.370237593223771,0.16562965965691845,-0.45182119713696206,-0.7054048977753163
600,12.241704520917404,0.9848344926148535,0,1,13.93861928620834,-1.0271296205593,3.7384528582953047,0.22589443111410656,-0.2761220971467511,-0.18241957056811686
601,11.671577810372884,1.04204299611035,0,1,14.779448799558166,-4.238797521761449,3.2388100669161553,0.609922929716051,0.03409754602323758,0.1943715715274999
602,11.028217973073746,1.1103473877605046,0,1,11.447283605555958,-4.09315963752838,3.1450777260006197,0.9459651047661778,0.3449107683412185,0.2962405019354711
603,10.358975043582923,1.1849755064519127,0,1,8.90657342898388,-2.795508512864876,2.8909854998828437,1.0519124526923251,0.3415193900733457,0.2199558603909669
604,9.711509690944355,1.2588184866762386,0,1,5.800012298021046,-2.0501495168531174,2.383019743718401,1.0039340608158134,0.311793257907865,0.2519639137668776
605,9.127320914539663,1.3232280708915418,0,1,1.1519226430000469,-3.352703997304261,1.8622115605751988,1.127292523869872,-0.22935172516335903,-0.06271768068952166
606,8.636524555240833,1.3691886450122095,0,1,6.290294485104127,-2.6420445619968196,1.2296811821969225,1.39250140647827,-0.8787921181764595,-0.05941880263022156
607,8.255290304479843,1.3886824631112145,0,1,8.984335323152083,-2.519694047440214,1.2151651458397152,1.3989468004452885,-0.6289817710934561,0.1905030876109846
608,7.9864720381544885,1.376028786749266,0,1,8.656769264297452,-2.322420850725092,1.2310801805005163,1.463704310055853,-0.41063104142181306,0.21370294886096802
609,7.822937156194738,1.3289725065375175,0,1,8.543322172487391,-0.9990227596108151,1.163767174589602,1.5209263160826094,-0.2369561470839883,0.21249300790802003
610,7.7524093146146456,1.2493324067969913,0,1,8.759959486016195,0.7432572711777268,0.8941877689998589,1.5120636061660604,-0.07972909455520917,0.14131364746275313
611,7.7624798899808285,1.1430856783608367,0,1,8.305143960659876,1.8195630154077906,0.8949067405209423,1.3337262823431553,0.13488931506343219,0.11555002457940307
612,7.844675768758299,1.0198495550888849,0,1,8.207925388509679,2.3308902453114353,0.7922158472852069,1.0529481366084934,0.2634334374981073,0.04602624844476437
613,7.996860028405989,0.8918128888972842,0,1,7.986345803492384,2.3243529469354414,0.43973759775665666,0.7074871511908686,0.411668703917073,-0.041157551653769116
614,8.2236424838899,0.7722582237709779,0,1,8.290962354409205,1.6247162755951574,0.23118909870024118,0.412684161412108,0.41814057608064426,-0.16387168994830428
615,8.53483112670456,0.6738804780118618,0,1,9.250996444004949,1.1307500576174214,-0.007224320078526141,0.22529186499865891,0.44344980459455813,-0.24930905830806463
616,8.942244916430372,0.6071362480387492,0,1,9.64160008185425,-0.747621812493733,0.17706144135665988,0.12346270542817422,0.41584563359437277,-0.25134242505837623
617,9.455444958285213,0.5788461923584869,0,1,8.291981050921652,-0.9381413533036628,0.6743647322555936,0.07710095865525775,0.33581203237637797,-0.33964833920967424
618,10.077144119996074,0.5912340710606211,0,1,7.830968946428978,-0.5600289757392451,0.5810381121925039,0.1146761321764802,-0.028235514444530874,-0.35520075724584976
619,10.799188334038297,0.641534848611883,0,1,10.174840907918774,-0.9697527378968606,-0.5084014593292869,0.07129954763684848,-0.22617091428762834,-0.3041497571181642
620,11.599964275363593,0.7222468656017969,0,1,11.203129744712633,-2.389544229285054,-2.420319054734503,0.24484074497939945,-0.341520866759645,-0.2127237320824939
621,12.443826029812174,0.8220351173833007,0,1,10.773880932285973,-5.057707813678028,-2.863141728258963,0.5821452839524198,-0.20752134233879985,-0.04430897488962306
622,13.282750453298837,0.9272096027630642,0,1,11.859710637498846,-4.310087561128688,-3.9648130696173074,1.0638030208784532,-0.2622659985056646,0.1303351656442974
623,14.060097956786596,1.0236117072051414,0,1,10.61836382750821,-0.6033937577780301,-2.801625744844101,1.102953876809383,0.07409874572358378,0.2728119741343599
624,14.716120970904246,1.098663572706688,0,1,9.64092641566553,2.938045437326913,6.804437295885172,0.9274415331051598,-0.06977327679243894,0.1798759669047076
625,15.194614075514906,1.1432907052869565,0,1,16.69475760314147,13.572066382658832,13.840154738111295,-0.31457605428188873,-0.028846452763579312,0.9595212262383936
626,15.449783218097899,1.1534175311230332,0,1,5.55987766911068,8.11444835764036,9.644617218134787,-1.9672796908179906,0.12577292334099102,1.2014329858829607
627,15.452242552315306,1.1307495633930318,0,1,6.138600535137989,-1.7739363665038443,4.106132855016177,-1.809176333703115,-0.9540852105880364,0.30410030461561666
628,15.193263761289915,1.082611827975572,0,1,18.063229157196446,-7.699959181777227,3.7481505560288806,-1.34588794192241,-1.0682764375924314,-0.0062903840261091274
629,14.686800395677055,1.0207573907446814,0,1,18.19507534673869,-5.363948417106241,2.7031931486471374,-0.5467774739364802,-0.26882260325805274,0.012655126708965424
630,13.96898306315843,0.9592992234978354,0,1,13.216121495345812,-3.1543765005343847,4.2272288373776306,-0.21670026872578482,0.043842200800836804,0.07937889549383234
631,13.094816087256753,0.9121695501556567,0,1,12.531294681750888,0.13190450123132477,4.426195485442296,-0.1117540224753306,0.09661676973805555,0.2060679777378476
632,12.132138286582506,0.8906494786831995,0,1,11.944082834179675,0.8836046456107979,3.8288045806006483,-0.2746738048378602,0.27333832106648487,0.23331046452608573
633,11.153578985492384,0.9014754753290828,0,1,9.41441157003372,1.0035667091430305,2.9539274642098654,-0.3649805948779891,0.46370939215761336,0.009514824514343382
634,10.227852112685078,0.9458552744894814,0,1,6.293937184766501,2.029230149159791,2.464427744696735,-0.5478096923070918,0.3754503198472491,-0.10531843215083087
635,9.411986232623947,1.0195018293952114,0,1,4.338781397039433,3.370411640875011,2.2887773984506854,-0.8831863942453847,0.032032652650359275,-0.13753076466296163
636,8.745917453557583,1.1135899289389433,0,1,6.241396564938709,2.8454660436567822,2.061861503489009,-1.2650297065506846,-0.5160289473960563,-0.17793701943954832
637,8.250285232675516,1.2163869526370217,0,1,10.075480940824711,1.79712746095718,1.6053007944939732,-1.4432126013390676,-0.31614470574074705,-0.5001577427968888
638,7.927401707633151,1.3152190499943217,0,1,10.153008932056464,0.7784347702049538,1.5374611642305775,-1.4722077316257725,0.011195076115126155,-0.5814023063917174
639,7.764558904971432,1.398416180411872,0,1,9.108850759828554,-0.4033466963018284,1.422361217403407,-1.488121505456548,0.3841463386191309,-0.5058234266129238
640,7.738474870219102,1.456931382086551,0,1,6.820366194414437,-1.8971514973670947,1.07015787042012,-1.543621583043887,0.5881998560553292,-0.35053871111760904
641,7.819862354504373,1.4854276897232714,0,1,7.017010015402626,-2.021837102360591,0.6818593286127269,-1.4920933654606332,0.4954201664556624,-0.15731434563832164
642,7.9775776091351265,1.4827377774292485,0,1,7.304004470705709,-1.579067448135857,0.4648895641109692,-1.4480058560227433,0.48135274882059725,0.026355994128347524
643,8.182206747399107,1.451703041444867,0,1,7.804292442919901,-1.8233748013112072,0.5144325284388788,-1.3914548225142793,0.47105762390971717,0.14928617747673523
644,8.409088780282193,1.3984790132167535,0,1,8.090512611710972,-1.2569618212301026,0.5563381069478257,-1.298979156972661,0.43385846292279123,0.20024053239158954
645,8.640709284390352,1.3314486538297234,0,1,9.107410780277759,-0.5095826423375983,0.7603219210620985,-1.196646405700123,0.3563409079241939,0.15040209437452615
646,8.868271605717464,1.2599152062966312,0,1,10.03129306949255,-0.3694513593539754,1.118594784070497,-1.0994267657792962,0.43764547333755693,0.12893852214602344
647,9.092178980109301,1.1927557104965192,0,1,8.947429243110111,-0.350689552915692,1.7034851868559842,-1.0254326751770872,0.38313618877574995,0.14738223349178947
648,9.321200694348356,1.1372085818854698,0,1,9.269364386065254,-1.046744955628836,1.5381723119115667,-0.9167553860160406,0.2123424928553398,0.06475178643644476
649,9.57024853394448,1.0979458936952429,0,1,10.230008986976673,-1.0500266864538217,0.807640573142094,-0.8648177844792249,0.11226163989112356,-0.0031844259668036582
650,9.856899396878278,1.0765433079936293,0,1,10.866626622172161,-0.4601384955550304,0.38505653102374465,-0.918289714934765,0.09924868630876436,-0.015609642781420567
651,10.197010398030141,1.0714068035666364,0,1,10.517612452060423,0.4517986652518893,7.503059749850013e-05,-1.0044250258694742,0.17696115219025763,-0.13057840803064932
652,10.599985491422188,1.0781482433329606,0,1,9.761184182733656,1.0391998412827874,-0.07103218426764712,-1.1088222357091517,0.1915992300053587,-0.23850729580379196
653,11.064479213732183,1.090333875058613,0,1,9.143415468630096,0.2920563180917275,-1.0605506934757036,-1.2394589296581442,0.23475126671390034,-0.3134342251698124
654,11.575493034834505,1.1004805001604843,0,1,7.851925923605253,-1.2532246047281885,1.1129055519842446,-1.1394444075553303,0.26074266794476536,-0.36167781495864304
655,12.103777422386154,1.1011584133205732,0,1,6.3203198516748405,-5.091717430566808,5.084597290870879,-0.7435020449361747,0.0516911240223684,-0.38707844012272286
656,12.608061937954918,1.0860760243474723,0,1,6.84177075894352,-9.850771883707953,8.428764943255887,-0.023993108059760047,-0.4696190867576126,-0.4668479012391043
657,13.03992715822039,1.0510431098258888,0,1,10.203917495513343,-11.961591260749788,7.556547014917774,0.8873275834575186,-0.695966899558804,-0.8012505515788084
658,13.350394609723523,0.9947074610873036,0,1,9.616658727158228,-5.423099459236681,4.53618040448367,1.2258806468113264,-0.5722789606873163,-1.052381013263292
659,13.496943614357852,0.9189365248973127,0,1,9.56724125495123,1.1020329740533532,4.213392888111539,0.710928789617677,-0.766708248284696,-0.8690540102562528
660,13.449791169946515,0.8287213813925653,0,1,14.980217373344336,2.848287518891783,3.6743503283585075,0.21806990526602782,-0.7094331191879648,-0.5316371688378498
661,13.196589138574371,0.731561453628401,0,1,16.8285105635099,1.3701072343180425,3.9874612375464653,0.014941034753870954,-0.04501075889167123,-0.22968010174943396
662,12.744888460177403,0.6364249603182823,0,1,13.471158749289676,-1.6432195241680199,4.390467277291001,0.06619684923112824,0.3126456971100057,-0.14805348199806748
663,12.121900383821727,0.5524944889075278,0,1,11.463241854157573,-2.3695699972025333,3.8153494112325825,0.06218487643014614,0.4593200854422768,-0.03526246385470638
664,11.371543371951562,0.4879361559212586,0,1,8.39169641733535,-2.9508959617749966,3.0485348281194353,0.010031397295383444,0.6059908438666187,0.1396651256888517
665,10.549458545800315,0.44887986249206585,0,1,4.537356465385528,-3.9177352147633777,2.5552167409154127,0.02468900241347142,0.33430472639677894,0.015458980955951803
666,9.717197978128192,0.43872223178426456,0,1,6.589105129234307,-3.478067194434085,2.0313754065872263,0.22180779542126647,-0.19892694463094943,-0.14081658120186463
667,8.936776841762219,0.45780853036977637,0,1,10.719411625457564,-1.6978347334785624,1.5886322398235626,0.2589179587837531,-0.19409649040185914,-0.017149549438334938
668,8.266232026503952,0.5035181366458401,0,1,9.985867983124265,1.106679632474519,1.2927449999266976,-0.06770804323256743,0.24255533055658438,0.011620440832392349
669,7.75611193555324,0.5707473674718478,0,1,8.785582440139281,2.438487117784215,0.685663824502686,-0.3829230967200488,0.40136605308082784,-0.017117350396005152
670,7.446402029781153,0.6527382425197263,0,1,8.138124910731632,1.5255745966507435,0.693028067553216,-0.6005799050701052,0.4137487054915285,-0.08638354895946126
671,7.363481855246003,0.7421466492314018,0,1,7.112933510284366,0.06145879452888128,1.017367679105116,-0.7622557984146188,0.32081992884098337,-0.16000596693181143
672,7.517153688152656,0.8321966511609973,0,1,6.193979581724055,-0.002781815084582858,1.5176744260769857,-0.8718433621176759,0.04799048323047482,-0.22482473855895035
673,7.898258818475847,0.9177468986038955,0,1,6.500313420310018,0.6842513583029097,1.5492067087426655,-0.9907641433300272,-0.21838151437583572,-0.24940683446228962
674,8.477663108583092,0.9961045002784472,0,1,6.643586023635116,1.2768863440779201,0.46479328993487495,-1.075876652222916,-0.34816679799705746,-0.298053077079749
675,9.207356721267884,1.0674534713148238,0,1,7.0678744149049075,-0.009824174149368193,0.6717273025856018,-1.203200427850462,-0.5034560476184211,-0.3272347965319877
676,10.024089119254407,1.1348118699683307,0,1,8.264835311701807,-0.8550683592657792,1.8515253572771717,-1.1798267408606853,-0.6188649038818858,-0.32544556020135773
677,10.855420300347237,1.2034945425034809,0,1,11.207462281842716,-2.275848054773931,4.033222323375491,-1.0793861157675824,-0.9378661647411924,-0.13803604294045235
678,11.627434036151438,1.280139104226104,0,1,15.959339947228761,-4.035895699080124,3.932436006391695,-0.8311886063473929,-0.7070887400940314,0.5403537752805608
679,12.272847449205926,1.3714442948250651,0,1,11.696636492355193,-1.6455463411683176,2.9451990838944333,-0.6669532898189847,0.11528974673528632,0.6725255048349355
680,12.738136919112165,1.4828497560962801,0,1,10.219112528808376,1.203915747564224,3.0117270715031523,-0.9080033225020757,0.18294269236706276,0.5131211974436053
681,12.988666110256146,1.6174212464226891,0,1,12.77372604396643,2.484393492356884,2.6560269524192273,-1.2146615674856889,0.18104558176478563,0.381807850873921
682,13.011368672262936,1.775169524612603,0,1,14.234000306025855,3.126986076876297,2.5009140930718146,-1.5303469914687622,0.2968469988584393,-0.044289785158760545
683,12.814928024230896,1.9529281007983847,0,1,13.918344710772141,3.6787509162130343,2.3629826042198894,-1.8374328661591848,0.5675601391046851,-0.3111224919309673
684,12.427556842187474,2.1447797330146963,0,1,12.568905936410449,3.667004980940981,2.039415819250115,-2.1360549359679486,0.7140201364146691,-0.4633948852439091
685,11.89265853861156,2.3428995363466174,0,1,10.018353959879317,1.8946996629834891,1.218397496114787,-2.4377944858601066,0.7239579190141353,-0.6465853343937988
686,11.262997430045115,2.538608181993909,0,1,9.511345361141442,0.7115584404285289,0.9985924424213414,-2.5441738128409317,0.5981365839986036,-0.7962807405047936
687,10.594357306056663,2.723415889461586,0,1,9.093828698429665,0.24289495486714047,0.7448869912957012,-2.636154153970784,0.6460257779244744,-0.9157851924655956
688,9.939767240365505,2.8898796554478876,0,1,8.979299063372851,0.13176688825502825,0.644534572581996,-2.7170926579193213,0.6621517710332152,-0.9948412691749963
689,9.345118405397345,3.032169128135048,0,1,9.52773407757063,-0.36618839720582574,0.4937044663014069,-2.8144812018684635,0.7510112102347514,-1.024971466343029
690,8.846513423255908,3.1463135529101542,0,1,9.57666143536974,-0.7441116269845127,0.5239907815463423,-2.875374741762356,0.8843467595743408,-0.9828353182324702
691,8.469210308133032,3.2301651394222213,0,1,9.029867822319915,-0.9852753514654441,0.37200617111531226,-2.904614555138952,0.9661261439593108,-0.92427968151267
692,8.227727108175099,3.2831571420950567,0,1,8.136438365377142,-0.8327287662901859,0.46264591041764863,-2.9210077364020917,0.894153272927369,-0.8745584817803987
693,8.126613704490927,3.3059580382776153,0,1,7.944812074692907,-0.46644897602097524,1.0344597641876425,-2.9155738852611397,0.68436436705128,-0.8696699019274459
694,8.161500939111304,3.300125779616581,0,1,8.276812773947826,0.006688291990255815,1.723056482838832,-2.9395875582719393,0.512826782161845,-0.9190746865756256
695,8.320181028283148,3.2678457615727834,0,1,8.936098901636347,0.3111432333221619,2.427244593680471,-2.989926688431153,0.4546044814822338,-0.9648305683950272
696,8.583588457374193,3.2117934705141944,0,1,9.177966132170763,0.32167443799704515,2.6307834852170635,-3.0803407470180484,0.5594644079879547,-0.9349266952595884
697,8.92666437740713,3.1351072017061266,0,1,8.23580629372878,-0.2443882473781336,2.138792896663583,-3.1345515939640034,0.6511385354928281,-0.8712536873667067
698,9.3192532678122,3.041406785864921,0,1,7.194536141289887,-0.10157139506117338,2.1872844000865492,-3.010822773126858,0.6473360883593969,-0.835602607118557
699,9.72736728890635,2.934771370937685,0,1,7.390485545372263,-0.32180276405274755,2.5847779893889267,-2.9594197398830513,0.5015960415422601,-0.6613977015587454
700,10.115221518648864,2.819602878553379,0,1,8.706568199318445,-1.2916780605173686,3.09764485693245,-2.885651936266178,0.4358517610654364,-0.4212787066321187
701,10.448257746415274,2.7003455962925504,0,1,9.538707901466244,-2.6990846638161354,3.811189484020124,-2.670166641514628,0.4151747209095599,-0.3464111391639787
702,10.696954600062284,2.5810898817639973,0,1,10.09316545550872,-3.947764141036169,4.778961321360533,-2.409322249839163,0.4241268676195739,-0.28637904101882594
703,10.840758986187272,2.4651410345489864,0,1,11.040911324838087,-4.598820913830871,4.6825844153532845,-2.1431444283591317,0.4074251679036976,-0.3941512956041459
704,10.87120390890365,2.3546664133038497,0,1,12.192796064946174,-2.1546707529412052,2.566432021095904,-1.8801621212365023,0.4021820305359417,-0.7048882031914889
705,10.793340161350091,2.2505303176760605,0,1,11.352531961857213,1.3036402100991074,0.6939112429389165,-1.879866009796341,0.4860073555862455,-0.6971516435530101
706,10.624991639020823,2.152380621139228,0,1,10.326672432827355,1.3597956031598182,0.11786485789224749,-2.0984772126474107,0.5212936369920763,-0.517763635052348
707,10.393898994508982,2.058974412486082,0,1,9.680890737280594,-0.5758332403192246,0.5307939809578403,-2.199037163704676,0.5284513209871111,-0.47746544842694555
708,10.133330964537869,1.9686516714405466,0,1,8.813211243322744,-2.057828092043616,1.28311194085612,-2.108180885886759,0.39826550962271956,-0.5328598284737329
709,9.877043487762045,1.8798220843319446,0,1,8.83736144647954,-3.115959287467682,1.495170663996363,-1.9316947806843006,0.19512440511168075,-0.5914551303339455
710,9.654501218945237,1.7913404536077453,0,1,8.664592992797964,-3.5000047939162124,1.465200869303355,-1.713595477924539,0.09529899121500697,-0.55050061317356
711,9.487111538119704,1.7027013067168315,0,1,7.6522708837675335,-3.3118192431783373,1.7672948116829448,-1.5438221555543357,0.05795088328767781,-0.49156758844998844
712,9.38597107592554,1.6140520447096507,0,1,7.542916179996042,-2.347218594320611,1.956409383120369,-1.4139199047115047,-0.04242744510331292,-0.5144251708499865
713,9.351360382442591,1.5260746719668488,0,1,8.955721740523437,-1.5964567861650445,1.9927433293857637,-1.3889534378655117,-0.09356557777830664,-0.5208159825559409
714,9.37394640898627,1.4398038558573738,0,1,9.615871098219388,-1.9190456557799547,2.2889664346253698,-1.3554948813233358,-0.010061943251963959,-0.48269279342228116
715,9.437366901942244,1.3564386198688612,0,1,9.196176657065541,-2.3966177311741466,2.6330312805663074,-1.2465552588519189,0.05454790120437658,-0.4251253384297803
716,9.521642954369826,1.2771821539655508,0,1,8.906605530379169,-2.7591424394154944,2.896788249264277,-1.1888651199867768,0.04846053708782422,-0.39310126250291777
717,9.60678130655471,1.2031228091481962,0,1,9.26640284200559,-2.7794725558449875,2.9228558533563427,-1.1733685691978986,0.01836780678907017,-0.34851941007984283
718,9.675995863678047,1.1351543007422453,0,1,9.429329173311178,-2.728883527392811,2.8223501755968288,-1.150127307288551,0.028593962923727397,-0.26836147752901196
719,9.71813299211369,1.073924079425517,0,1,8.925740752731397,-2.8454793332861095,2.6663739888987097,-1.0487482678247206,0.04680717602753303,-0.27830145181808735
720,9.729063516825184,1.0197958717875417,0,1,8.719579972496838,-3.0156916436239714,2.7890433824147842,-0.9805202433051042,0.012436207979938831,-0.355145860842207
721,9.711972769135928,0.972816167616071,0,1,8.905282229755148,-2.8076704244168846,3.0611123073349784,-0.9345650767309128,-0.039396820808972235,-0.37037629120358556
722,9.676613787684195,0.9326833320759819,0,1,9.054783807917424,-2.516081344095877,2.8971146880493035,-0.9207970986332102,-0.0070825987398619155,-0.3447506556523175
723,9.637672273803963,0.898729262198365,0,1,9.088919196469813,-3.11391457051278,2.0590974916918756,-0.7857620505109115,-0.08777948738821906,-0.39379042833655975
724,9.612439687259997,0.8699353046995049,0,1,9.828049536659577,-2.740185055263274,1.543453241648802,-0.5662983301248699,-0.14732426761295078,-0.39779470379309745
725,9.6180401746499,0.8450134004261596,0,1,9.17569381581453,-2.3497965943373,1.6688253235174697,-0.5452955200850931,-0.09793315485050777,-0.3707771279055377
726,9.668536465442068,0.8225821166382148,0,1,8.620276408816922,-1.9661669845782783,1.859013071651347,-0.6091270987807302,-0.07881413466802036,-0.38612353197721666
727,9.772341036334966,0.801446179849368,0,1,7.9501635176633965,-2.0927946448522543,2.0935268509695892,-0.6202315769427126,-0.07260921974543068,-0.47305306430702304
728,9.930421012756385,0.7809473595049079,0,1,7.517899560606222,-1.7730680174794424,2.8329655345937748,-0.5806759202912668,-0.2687259570978553,-0.6502039780764823
729,10.135716232724056,0.7613085944907894,0,1,9.24844659756192,-1.1151170699916486,2.9550768326130448,-0.6170419899986815,-0.5069235953077015,-0.6295859988023556
730,10.373936440693166,0.7438643403783006,0,1,11.000616566557014,-1.1664276077178215,3.2301508214464327,-0.6279508140003571,-0.5472157602682334,-0.45268941818993735
731,10.625526872879547,0.7310758747418695,0,1,11.43877812198779,-1.500727756999399,3.30264083268204,-0.6488446538239884,-0.5026300093434384,-0.3234576582104012
732,10.868267581271288,0.7262744409670459,0,1,10.87000820474204,-1.7818616357706647,3.916237829027459,-0.5811951657519792,-0.47556044232932543,-0.24763899188710176
733,11.079879978185398,0.7331450289192722,0,1,10.094269243295571,-1.3504400242776593,4.5023103596727925,-0.5181002798393282,-0.3488337984717992,-0.16147745059463667
734,11.240192128507907,0.755036244291805,0,1,9.940347913792941,-0.9943228169980243,3.9959638837266773,-0.5605060350315731,-0.17906672552474154,-0.00017805879274272984
735,11.332726859776805,0.7942339789555591,0,1,9.587391465002895,0.048473200816163596,3.638411280147773,-0.5767619679559913,0.06420881047513258,0.08928616550969694
736,11.345827080181763,0.8513531359407207,0,1,10.238647391318706,1.1685467175720232,3.70678695237918,-0.6563460243206203,0.12960638162176186,0.006800879459830269
737,11.273498653192451,0.924978628147991,0,1,11.365254932433022,1.302246723266749,3.3089136838018836,-0.7435704424750932,0.2090537533187593,-0.2349494221523563
738,11.116044173363921,1.0116324654251037,0,1,11.33001433537648,1.6008030219038496,2.929270795199118,-0.7909204435574834,0.4033391172256335,-0.46358451270671147
739,10.88040003443848,1.1060750463353146,0,1,10.101493326627468,2.0285463694415453,2.9257682045398017,-0.8500611135427684,0.5163481808055308,-0.5469363901241964
740,10.58000725319832,1.2018851441860723,0,1,9.6570371502251,2.3449888916828274,2.883026184069907,-0.9676172272767074,0.4460723556662404,-0.5858422011674921
741,10.23408380981873,1.292218774925639,0,1,10.301447288857695,1.8522436682464152,2.5678019322514483,-1.083885729762214,0.36795231409645784,-0.6755037874254582
742,9.866259874188437,1.3706264763693417,0,1,10.584719349323677,1.0534931854994207,2.0380089197996503,-1.1612185168856692,0.46624279867306856,-0.8227953856252607
743,9.502625086123434,1.4318076161845261,0,1,8.874523069307878,0.41552130939036774,1.858735979656282,-1.2305248147023216,0.5727056581847061,-0.7906430220298877
