id,ASVM,GSVM,walking_nonwalking,normal_abnormal,ax,ay,az,gx,gy,gz
1,7.943107572612345,0.01352082917042434,1,1,10.224560032533962,0.006635795959068865,2.086989857925099,0.01052373050702264,0.0013623362235757471,-0.008854439940534036
2,8.504786329037454,0.0144995379604135,1,1,9.239804654659432,0.010727099316767044,1.870383516016541,0.017514165887364045,-0.00937292252427924,-0.0034452143466023296
3,9.00358028884447,0.015200885491545859,1,1,9.796434794509105,0.04466916183068029,2.045223033055813,0.022434401914903167,-0.004583564855425919,-0.0018721094153212113
4,9.417921882755952,0.015573397323110073,1,1,9.442520313123628,0.027558695535068758,1.9303122123035612,0.013998838244315453,0.002396130544924121,-0.0008753324487058685
5,9.735894846595015,0.015623216859456732,1,1,9.664924076859227,0.04309404234518943,1.991717765907024,0.01908795912510121,-0.015210313119937383,0.00037119591375241406
6,9.955543576997615,0.015413933067666532,1,1,9.584799150591163,0.050258641619637126,1.9528321850912183,0.011715269521642575,-0.01070704031061911,-2.6941204997030383e-05
7,10.08377100018323,0.015056339679642778,1,1,9.644766918082915,0.05434980714310762,1.9202294605227281,0.01225809963531347,-0.007115878381796893,-2.119361049526213e-06
8,10.134241125059223,0.014689813534014192,1,1,9.598431056990266,0.06540232786803356,1.9484544206295624,0.004062432388646884,-0.014781880815325618,-0.003933745731836831
9,10.124772232660195,0.014458417860057433,1,1,9.600887878931687,0.06044507342299472,1.9369951682800057,0.0003465309195792232,-0.008380787318462157,-0.005788339522152252
10,10.074678492412332,0.01448571139022733,1,1,9.58925085601509,0.05565352587160582,1.9620439795377467,-0.0015739787651312545,-0.009237278565179146,-0.0057707267983725195
11,10.002427463806127,0.014852450269849025,1,1,9.590725463951316,0.04074772292629695,1.9518533612039348,-0.005609252517570874,-0.0044206237860338,-0.005765974204124449
12,9.92385870084118,0.01558089446576638,1,1,9.59853637802859,0.004854353138963987,1.9688542224063317,-0.004296074152125162,-0.013293889674406112,-0.003692337674022643
13,9.851079782596672,0.016628354640786523,1,1,9.614501287923044,-0.012699432391280975,1.9504594030898335,0.009162292544347781,-0.009274885200885574,-0.0025408972740636106
14,9.792040134303521,0.017891146173818793,1,1,9.58666714106058,-0.0197595449777367,1.9494482748708217,0.012584567074236849,-0.004866062406505409,-0.00037379620009083596
15,9.750692743900508,0.019218543414265196,1,1,9.641678218873727,-0.017204377007980602,1.9279359467102837,0.016560112242991296,-0.00481019516251499,-0.0012187562993094929
16,9.727594998287218,0.02043483379270553,1,1,9.664152273635416,0.04134027274542616,1.9603345828009622,0.02143239366525312,-0.003962866249741774,-0.001655043174940163
17,9.720772654264914,0.021366211668186745,1,1,9.680697800580944,0.020495461547973434,1.9587427058330886,0.02303940828926411,-0.0010756371490476826,-0.0013135571024596154
18,9.726673115557153,0.021868161530294562,1,1,9.639463187936217,0.01504303194522565,1.9117567793814008,0.02882552986764702,0.007689643038112819,-0.002092877698207927
19,9.741061490050349,0.021848477182081587,1,1,9.606595281477201,0.022023917265593183,1.9520141569438265,0.03139826227159418,0.005739982652939313,-0.0016315980795812432
20,9.759757300212584,0.021281504107511943,1,1,9.612881212386254,0.07156676595801,1.9436926213849022,0.028124565859478,0.005701650319923603,-0.0018541378900805581
21,9.779159410147521,0.02021077399958031,1,1,9.596141094136089,0.08475389631994651,1.937606091787025,0.018763503817389886,0.008286285959301115,-0.0007630755420795255
22,9.796550633248897,0.018739745414867483,1,1,9.581535641105242,0.05617082714676021,1.9298435740978872,0.011065313797035577,0.0036038566726294984,-0.0033763229808841467
23,9.810205529628872,0.017013142972838107,1,1,9.602567494396144,0.06911502884682796,1.906653703909583,0.009122474868705134,0.0034059040537215103,-0.0052148801728447765
24,9.819343881964768,0.01519333845032308,1,1,9.605327578520034,0.047876919807805875,1.9291369315606532,0.011933479771149511,0.0020057110458760767,-0.005770083601056892
25,9.82397957080778,0.013436636056430662,1,1,9.596323194822167,0.02377803639856483,1.9514095578340611,0.008427952552507287,0.010042507162147727,-0.006754752221380821
26,9.824712738866316,0.011873398593135282,1,1,9.591727142636982,0.05164367460034094,1.9175268476007385,0.004314628302705916,-0.0016117315750518529,-0.0028554770718415127
27,9.822505532231602,0.01059449773735045,1,1,9.646183507264645,0.06462706250423049,1.9508993693096774,-0.0008126624434454771,-0.005652452904179095,-0.0031141196239723935
28,9.818471253000585,0.0096452194461203,1,1,9.625414091246776,0.052270656034340245,1.9068088917556922,-0.007481318450944108,0.007263003995451359,-0.00803279828398354
29,9.813696097571686,0.009026568763945846,1,1,9.617764439980748,0.025596976424035075,1.9046868204268885,-0.002071998914738938,-0.0021473897663717404,-0.0075145605183527964
30,9.8091043136511,0.00870282918629304,1,1,9.581219005585366,0.02222366016996328,1.9494453133112426,0.00251569120172112,0.0020453051939821826,-0.007774307936842427
31,9.80537235258698,0.008613420818754939,1,1,9.58476675186602,0.012581977358697326,1.9555814767125468,-0.0001455585079976782,-0.0010833493312855165,-0.008998346646176018
32,9.802893434021763,0.008686734897033654,1,1,9.626193009019898,-0.007359967049352506,1.9541027164336857,0.007868942065181423,-0.004136572411629554,-0.0070661857352775585
33,9.801788571392532,0.008853605499784135,1,1,9.605578691966437,-0.007804107440255077,1.9525017419846489,0.006262525889316275,0.011696070289701915,-0.0064400342554326315
34,9.801953940092499,0.009058313811394929,1,1,9.606456188629187,-0.01176545643048385,1.9441852791738203,0.005343763839205509,-0.0061960929966136296,-0.002713326518811955
35,9.803130001286899,0.009265588064382579,1,1,9.619504663599445,0.027444381995857133,1.9897807404225627,0.0064755721764651955,-0.0022230441905806315,-0.004922587923960647
36,9.80497656201984,0.009462958225723404,1,1,9.636341449930624,0.03201699639369338,1.9533839152708763,0.0026801164377959256,0.005667703281299038,-0.0064481947641427334
37,9.807139623993516,0.009658734413600923,1,1,9.620739890904263,0.04379051319594456,1.9394706506851638,0.002729297268012705,0.0010648618424631614,-0.00816201597693027
38,9.809299836965756,0.009876429585359845,1,1,9.624813260191829,0.003741264755780477,1.9817621809180443,0.001984063763827862,0.007672553090001186,-0.01230845521028711
39,9.811198277507474,0.01014661019476859,1,1,9.604448616872432,0.02173912047197089,1.9414177741702765,0.004285907757174363,0.011233621898961994,-0.008995469446212202
40,9.812641967968476,0.01049728252194833,1,1,9.600849682452543,0.016288646042367842,1.9367691860814,0.001236153453887417,0.0024495754034868328,-0.005472301494904573
41,9.813496907417637,0.010944349215620874,1,1,9.593846708640768,0.0037844063973671454,1.9577856199077148,0.0025427954689204594,-0.0005720132374933365,-0.0002511892156733571
42,9.813678410725652,0.011484257610273831,1,1,9.611854109799111,0.004677094710492358,1.934042105622955,0.004749507437314506,0.0007792633535950254,-0.00023202054026300314
43,9.813146491795646,0.012091039524693637,1,1,9.61676573642665,0.0035241703494418497,1.9382283142327192,0.007832975063946973,0.009146096809619628,-0.004320387791133416
44,9.811908923933611,0.01271896785328697,1,1,9.622660887779318,0.011682232067835509,1.969972597267467,0.010175717279354065,0.004876875247312569,-0.006283938979734899
45,9.810028911968157,0.013310295290970992,1,1,9.643432573290657,0.027918496010528253,1.967178081753191,0.01036313933993726,0.010836219588050157,-0.005694983634878795
46,9.807630675734888,0.013805900184693529,1,1,9.627686771509474,0.03842281617403882,1.9540412008903207,0.0008987267737632879,0.022654706758218818,-0.005371419386980523
47,9.804896402376327,0.014155925555626985,1,1,9.601380903445694,0.021064345077275462,1.8857737921792483,0.0005352432456761421,0.016162396910702016,-0.00428363162975299
48,9.802051859132058,0.014327897268185076,1,1,9.59988596281047,0.01610370906052725,1.9200171188880177,0.00413184183694525,0.0010208883994558982,-0.006397578012138063
49,9.799343042069742,0.01431105347084253,1,1,9.605973136083513,0.011425632939102238,1.9099942551551297,0.004915212630004818,0.010591220076009966,-0.008359413653137355
50,9.797009244767361,0.014116984897795502,1,1,9.624578746111172,-0.016827925555236736,1.9227897333419075,0.010877767132203122,-0.0018714335964717386,-0.00802757070267711
51,9.795257614017027,0.013777423173915691,1,1,9.60016789437818,0.026791791035202937,1.9788855813333996,0.010766352855202803,0.011783651424327853,-0.009080401363622684
52,9.794242480446968,0.013340000088837413,1,1,9.557301662936077,0.05176665526418601,1.9984495855220121,0.007152610225119992,-0.0022878198761344484,-0.009444262604229346
53,9.79405185322213,0.012862579104045683,1,1,9.573332942475208,0.04086407183314286,2.005864421988071,0.00573869275254826,-0.007305354746802979,-0.008156326299157685
54,9.79470326942402,0.012406813112083876,1,1,9.581975505908165,0.034993696022391364,1.964011236412715,0.005338423852503007,-0.0046949251445347895,-0.008870304587177698
55,9.796149581632175,0.012031842512814268,1,1,9.63185740876524,0.011889097986556957,1.939883036121922,0.004553510396195185,0.0004401806916310887,-0.007080354181190892
56,9.798291559682271,0.011789155182786342,1,1,9.628250107031038,0.00879903763969579,1.9610303106607858,0.003690634911292197,0.006902814743782549,-0.007392128389798161
57,9.800990777422548,0.011719366309091959,1,1,9.629741348820067,-0.00758783906146875,1.9609384807540717,0.0022497312533321886,-0.0016100663414986523,-0.00989767104801187
58,9.804076543156743,0.011851077403400296,1,1,9.585455029153628,0.0026141641351822903,1.9362559968192112,0.003983227940066291,0.006703133769953158,-0.009834307548926863
59,9.807345461791645,0.012201245927244647,1,1,9.5782269268019,0.022206595792854007,1.9813654051108844,0.013829335020442606,-0.010604032036099317,-0.007872784874524882
60,9.810558589076527,0.012775950395188107,1,1,9.616978601731104,0.08397790144417931,1.9916156352836347,0.011924827011007763,0.002702646233546288,-0.007953828544788736
61,9.813444633076536,0.01357040412995429,1,1,9.571669935235125,0.067045905827896,1.9454343965829075,0.007466474441884003,0.012310513620745043,-0.006904493281732048
62,9.815716202463323,0.014567703135295927,1,1,9.604588763584658,0.042897819655816495,1.9579559792359273,0.004090886154728562,-0.002203182573400368,-0.0065101791795873255
63,9.81710081873795,0.015736822341229365,1,1,9.645349774530668,0.040132331469403745,1.9590585368618874,-0.00191973325929631,0.012612796053333786,-0.007870855790412306
64,9.817381602001838,0.017031182124255504,1,1,9.655801316916596,0.03786541986446476,1.9659616584085602,0.0011514123334381524,0.005848248148252515,-0.010329064108987974
65,9.816436864187471,0.018389173360998302,1,1,9.649784760510107,0.04638707635883629,1.9607262609903846,-0.0031873459889147403,0.014709812692915429,-0.011093842551424402
66,9.814266488435827,0.019737340419442438,1,1,9.601266705409227,0.022177791181734866,1.9631376869490669,0.00037463679665179696,0.02611389647508895,-0.010119181683952618
67,9.810997476971284,0.020995957722594622,1,1,9.595806316244454,0.01901040049977337,1.9720028605713147,0.0005101321543951291,0.00800902563238249,-0.011549130677675802
68,9.806868829350398,0.02208609174618932,1,1,9.602238137143127,0.008529287565167895,1.9714724396321754,0.004092118201682886,0.01915355911788902,-0.013287320603233066
69,9.802202018778983,0.02293714577225886,1,1,9.580302930210769,0.02316362535986393,1.9817160748730736,0.004094453396558317,0.0192596298347323,-0.011197628148796676
70,9.797364822571332,0.02349404796386053,1,1,9.612182586093775,0.04707797892959247,1.97688359845922,0.005508678448034207,0.01780456323397378,-0.011751764167526308
71,9.792733998315283,0.0237232758149846,1,1,9.597366453065066,0.038226324411907965,1.980819163722708,0.003321870658992145,0.0251418616072915,-0.012781543392090935
72,9.788659172460006,0.02361679856953224,1,1,9.60789163692945,0.030817017318145058,1.9764630296288337,0.0010316094306899173,0.024012672894419322,-0.014560622414351302
73,9.785428849573321,0.02319306403048282,1,1,9.555115968508899,0.028954103991713737,2.0004716882331794,-0.0024464259472614124,0.01925335257758384,-0.0120382394482788
74,9.78324044570341,0.02249460906937798,1,1,9.558043359381813,0.04878701096557107,1.9904946008251458,-0.0038603002425277207,0.011569280107040381,-0.012372126622474914
75,9.782178300968548,0.02158265076746591,1,1,9.597308915297381,0.04595843988416229,2.0048267442524734,-0.004041852640561898,0.018527736614735495,-0.010358185642498284
76,9.782204395645113,0.020529671176809355,1,1,9.575806811863263,0.05617895444631256,1.9749987527850783,-0.007422232714946343,0.019961809437434423,-0.010121013486168314
77,9.783165204783348,0.01941116213168094,1,1,9.535813339553336,0.042044055120922984,2.005747480938416,-0.008180361706602591,0.02024344391436402,-0.008296751166169302
78,9.784815917126144,0.018297512301313882,1,1,9.545215523874699,-0.00598292029230798,2.0366279422943867,-0.009345987997511494,0.0031839000354674674,-0.006280613606815252
79,9.786860556306891,0.017246963590780363,1,1,9.61440639460194,0.029555672083978704,2.018396489894429,-0.00881399518383921,-0.004367039204699182,-0.006393768897301203
80,9.789002467647498,0.016300680070219717,1,1,9.613845460693936,0.02879257336959504,2.0045233851284627,-0.007835440331274536,0.012016897594191514,-0.009438010704230901
81,9.790995032680454,0.015480780723622974,1,1,9.565262919727841,0.044486048656946005,2.033636560908939,-0.00413907490861541,0.011302472530331967,-0.011244386603376746
82,9.792680786240405,0.014791421241985086,1,1,9.613154355216393,0.038579729598642705,2.0210038349202746,-0.005522227717924189,0.008045571727942746,-0.010973281698048773
83,9.79401026255689,0.014222074174623716,1,1,9.57883220821778,0.003432755294962087,1.998370661265182,-8.089598908071313e-05,0.02374536036426606,-0.008746716607127922
84,9.795037847098644,0.013751698340344044,1,1,9.563110363887825,0.01850740051474254,2.0173340862866898,0.007229948974625269,0.002656200789535334,-0.004805143805989923
85,9.79589727551329,0.01335279715636794,1,1,9.602274328310944,0.040651251178592064,2.013394043428987,0.0049907755081096674,0.001131851472142695,-0.005569687909273555
86,9.796762365596852,0.012995183620498799,1,1,9.602242272392923,0.03683081850502389,2.013576054393839,0.002857827967156419,0.012668961237262731,-0.006117154883285248
87,9.79779926553706,0.012649941521938183,1,1,9.597807844740741,0.045029725020288916,1.9903917095827326,0.0028413042923948295,0.005422842864698724,-0.007485467508584822
88,9.799116654124083,0.012294059433733394,1,1,9.590816269912931,0.030689475910509238,2.0079650217078338,0.006859762149063294,0.01106936081140668,-0.008336834194175684
89,9.800721588568894,0.011915627146698103,1,1,9.536827070017464,0.04404773178886166,1.9929344092344572,0.010051595312158094,0.008295509398841744,-0.008536293475305212
90,9.802490426634595,0.011518915549966154,1,1,9.585189005638709,0.0350179594328735,2.0241419404264835,-0.0011125021996807143,0.0004946886148321701,-0.007192935596241595
91,9.804163683669314,0.011128531403154155,1,1,9.599385673790456,0.02480963993969355,2.00844558837199,-0.001656060197088951,0.011011976884989495,-0.003886191088334758
92,9.805369038199244,0.010792075770925842,1,1,9.595143099102868,0.044035731472844196,2.020684541805732,-0.0030337483665441012,0.010823096858616885,-0.0037887766264764955
93,9.80566959623034,0.010580993415314714,1,1,9.590975625029866,0.019539985453256352,2.027571037306215,-0.0036029108119541766,0.009769215893610683,-0.005501576016304988
94,9.804628509001851,0.010589386855748693,1,1,9.612524522627425,0.003986547530667401,1.9925743247810528,0.0013381926104205025,0.0020875315630639714,-0.006880446334784119
95,9.801878178433778,0.01093057591058786,1,1,9.647498783195417,0.03679311025209284,2.0110709043736827,0.002380507144886667,0.0006026755650140185,-0.012539352803397259
96,9.797182621897692,0.011731210749245205,1,1,9.589027741789499,0.03330034874231992,2.0304039429330656,0.0016582019605347327,0.00464662555026996,-0.009691449440915469
97,9.790485003723019,0.01312273927633312,1,1,9.517859543867988,0.0057891044491545016,2.0188499363736554,0.00633492954206566,0.011137172545117792,-0.008706470412073638
98,9.781938148670834,0.01522998057820429,1,1,9.527175155814744,-0.01018387047638753,2.0654021313103788,0.016225787144465483,-0.01122822958769472,-0.004020689209596141
99,9.771920443386154,0.018156641601842674,1,1,9.560753652519708,-0.004594176481171008,2.053335251880038,0.02057733270240698,-0.0020378988384802004,-0.0013306769067932991
100,9.76103835731091,0.021968068261154557,1,1,9.559736296054298,0.009449419931151051,2.0292248090450733,0.025723213538566676,-0.010503412699002313,-0.003010001306495085
101,9.750109893713296,0.02667248056898466,1,1,9.605741332063605,-0.0009330131770243452,2.0322006435440447,0.02545151396025545,-0.022911914581889087,-0.0011209235217422202
102,9.740116515723212,0.03220339491320585,1,1,9.598547509059948,0.08484996575984213,2.03335399330473,0.024079045402831425,-0.008951849583211751,-0.00131834478038113
103,9.732111385621455,0.038407674844133995,1,1,9.560609047802094,0.054545501620634,2.0023470325961283,0.015496993220066198,-0.010085199273692155,0.0014578498270412079
104,9.727082142277476,0.04504500987192368,1,1,9.534322380232242,-0.01740552712955921,2.0216790557149356,0.006236228892557011,-0.015489098108624564,0.003954829796800561
105,9.725784708304172,0.05180430041999526,1,1,9.451927928133067,-0.09297030210665735,2.0026312768964467,-0.004172439981088419,-0.024244679224608635,0.01881677433078667
106,9.728584085087624,0.058339122047476204,1,1,9.38961746419893,-0.080055743242957,1.9110055497377756,-0.0046615082647084955,-0.05462562465877943,0.04161727422516344
107,9.735349548760597,0.06431825188092917,1,1,9.37915532202444,-0.05794759939087653,1.9590643938965815,-0.0003144464937893257,-0.06557772895720747,0.05448579936188599
108,9.745446373751168,0.0694804847894424,1,1,9.474737662481278,-0.09413694064515651,1.9628506720746943,-0.00025781345191287997,-0.08204953168509344,0.05914336193839533
109,9.757840558277746,0.07367917692802574,1,1,9.687027803029949,-0.12475760047427092,1.970506765099583,0.004218157979170328,-0.08960383109531049,0.055141684646464295
110,9.771294077413431,0.07690358132318056,1,1,9.779476854732788,-0.06648280525926738,1.8821759775434739,0.003374421353676271,-0.05928194317350239,0.038719286975789864
111,9.784594465956829,0.07927075210242997,1,1,9.678011005000073,-0.003125715107701189,1.829697804927322,-0.005169426236950695,-0.06272128681342551,0.029558696371740502
112,9.7967536132876,0.08099057201047088,1,1,9.581943805139854,0.07530031268798557,1.8536825774239738,-0.014221673246770471,-0.06826509892055314,0.026210093836484778
113,9.807130959319194,0.08231342113074089,1,1,9.588668001513083,0.03492408694192384,1.829827509212845,-0.023920337243759644,-0.07208636104045046,0.022728654849839464
114,9.815470054130918,0.08347290277046415,1,1,9.629560417916592,-0.04235627060066919,1.8636561674512786,-0.019461193109453514,-0.07039418515824117,0.011337763109367818
115,9.821863022938851,0.0846353335110349,1,1,9.662019146256771,-0.13488523033132574,1.9197365134969109,-0.002529502356436072,-0.06480292861397774,-0.0020182869606918093
116,9.826665847288648,0.0858650935799751,1,1,9.644544621340291,-0.21638770742734895,1.8892484542613055,0.017751001402797794,-0.07431594609601684,-0.007174654232161399
117,9.830385016050814,0.08711137062252469,1,1,9.627822150085208,-0.20414323172940207,1.8766444276977927,0.04721701039444862,-0.06693891416350614,-0.006131164415612775
118,9.833553031283621,0.08821744803819839,1,1,9.635642877567507,-0.12041856700329431,1.9219273603738265,0.059227397169840844,-0.07502860494308658,0.004283000525369453
119,9.836609876054048,0.08894905793333713,1,1,9.64283007076196,-0.06801437340265774,1.871722232520384,0.06622829081714127,-0.0776977210574105,0.012520538271237776
120,9.839807444513152,0.08903481871672692,1,1,9.675497410576373,-0.042363756743426295,1.8178227676791927,0.06467167601263031,-0.06738453783564781,0.01015962786700188
121,9.843151815766753,0.08821063628267843,1,1,9.628018724719244,-0.051406538304501155,1.8200941109096993,0.0614192584600936,-0.05345536311246415,0.005312785772159752
122,9.846394225449648,0.08626115688052048,1,1,9.623539217185161,-0.019295778893554827,1.7684523857660654,0.0666065986487806,-0.061304533443424056,0.004564247886971368
123,9.849075759520604,0.08305362273648129,1,1,9.65793783415581,-0.014762154778509133,1.7909995954304223,0.07096031374791346,-0.05290793120726029,-0.0030011663195487195
124,9.850621729375135,0.0785613835387892,1,1,9.706473262541433,-0.03316200821416319,1.8015440137523175,0.06532389780096409,-0.05213031537746102,-0.007000180546357659
125,9.850469018630786,0.07287554382697249,1,1,9.77662785169909,-0.045203695980359365,1.7701863313577355,0.06116247400035603,-0.04153241593426943,-0.006563461228968848
126,9.848197600658144,0.06620437516036495,1,1,9.76339313374307,-0.065023187993645,1.8059968776501372,0.05419961564363581,-0.026667490438948276,-0.008542765386577856
127,9.843633447651147,0.05886150185082499,1,1,9.690400136861246,-0.04960714617536148,1.7774264125432322,0.04985106811152042,-0.01814897265096404,-0.00762577151239177
128,9.836898856993248,0.05124500425678598,1,1,9.627104658896455,-0.036850007406266996,1.7839617403780241,0.04522781192778087,-0.03294839980349968,-0.006207686609573431
129,9.82840426601811,0.043809895150039996,1,1,9.651066002411287,-0.050197381040142944,1.74644378234208,0.03506582473324668,-0.028152759725436884,-0.006501330872115346
130,9.81879279086374,0.0370360213052764,1,1,9.644630721061171,-0.02962735690785966,1.720128599698107,0.029510176593050497,-0.02428078049668296,-0.006159161369587227
131,9.80885641048905,0.03139303332023475,1,1,9.681126625658255,0.012650050411673277,1.7424009283181594,0.021187247294087667,-0.020590305816238563,-0.005302190123875182
132,9.79944044709945,0.027304152027096417,1,1,9.64258331681811,-0.028637565130770593,1.7436991058886175,0.01745483240107146,-0.002198637450141057,-0.008449527240883315
133,9.791346891641446,0.025110827593060908,1,1,9.631112865717304,-0.08355807202948043,1.7503860224371421,0.0185895822960528,-0.025839883269846597,-0.007647765926893313
134,9.785243137358961,0.0250405102711147,1,1,9.631168419558513,-0.07221807392243132,1.7952118417376497,0.02275815440150905,-0.013750398210919149,-0.00387806682475379
135,9.78158234810489,0.027179532975383783,1,1,9.634388904269972,-0.048673628524447704,1.7213810640250484,0.026038694873952085,-0.019134943550107964,0.0005171967895379301
136,9.780543343007546,0.03145303487402459,1,1,9.609089737073383,-0.05252328363357524,1.6816118877913828,0.022942006906241194,-0.017478855294648158,0.00015584778717188082
137,9.781999616246967,0.037614368648654195,1,1,9.584023501171508,-0.017697417402489892,1.6961690911902343,0.014405344558282313,-0.02711377795264859,-0.0007909305783290072
138,9.785527278498995,0.04524726984827253,1,1,9.607342193615462,-2.1077229702901795e-05,1.7049895314072676,0.012421464904883783,-0.03192075387829536,-0.0050592447923544365
139,9.790458217422623,0.0537843614457039,1,1,9.628039679982038,-0.052031518037539796,1.7561059453569852,0.012631190467454504,-0.024887677364026983,-0.019805666569521357
140,9.795976522707692,0.06254444631448447,1,1,9.631153937452398,-0.11245622673063352,1.750428909995883,0.033328595180466734,-0.02122853177534355,-0.03761488799522127
141,9.801245173136703,0.07078814560620927,1,1,9.662786910918703,-0.045727486963255966,1.7425429867174715,0.06864060352873838,-0.03535039582653188,-0.04552622166184025
142,9.805540357898233,0.07778737913490268,1,1,9.772441933220186,0.005186034809018815,1.6447536358349342,0.06327612732632495,-0.04207503983933455,-0.048179144873211725
143,9.808366647980634,0.08290066519036189,1,1,9.73083541899628,0.014276450947740882,1.548326504531317,0.05310904119479506,-0.014479427325204726,-0.04588449084315502
144,9.809530378337378,0.08564497243691858,1,1,9.629895866256218,-0.01760699578151976,1.5623358085041938,0.04589035309428853,-0.04485958089523226,-0.04627334630842462
145,9.809161083906517,0.08575582114074777,1,1,9.627350778098792,-0.07198663954194104,1.5992951483139737,0.0493601668042849,-0.051235773362532225,-0.052103662964071436
146,9.80768600073994,0.08322862537839618,1,1,9.663720241673081,-0.09083306541092873,1.5935716827560458,0.07367695281511932,-0.03860438994226563,-0.04901840813593895
147,9.805771263169962,0.07833457456228043,1,1,9.668595978508383,-0.06320395624197192,1.6044494971890786,0.0891680595520113,-0.03781966935902191,-0.03860686724680369
148,9.804241101476764,0.07160460780013204,1,1,9.711918268938376,0.06341567255256711,1.635420215828809,0.08667927422979761,-0.05007787199390363,-0.024422517544192376
149,9.8039779358629,0.06377739330963693,1,1,9.746566143467842,0.08449324756303968,1.6507192284441805,0.06280000460658276,-0.04779073263736948,-0.00862545263247012
150,9.80580090185183,0.05571293489876858,1,1,9.696625653223473,0.16245793868501215,1.6798261912288601,0.03955470372381432,-0.025043086544937483,0.00126337344921812
151,9.810324225269317,0.048281616014945676,1,1,9.639828724180523,0.19589271766206978,1.644023223448535,0.00863156131891805,-0.024200789775402895,0.0036850556212227243
152,9.817809746920293,0.042246293674479365,1,1,9.616231480478005,0.17679603317432763,1.6304374538922122,-0.004423715560198874,-0.003749260618780496,0.0016830150180696386
153,9.828042964399414,0.03815899795829066,1,1,9.633270529462663,0.10711176829848874,1.5719155845340198,-0.000138068201694484,-0.008850730820041645,-0.006313838829297652
154,9.840269571463898,0.0362917743522553,1,1,9.658768276905768,0.09937156629027538,1.5224136012553051,0.008419333633570383,-0.00974993396560108,-0.005454011617949971
155,9.85322371174077,0.03661364576742415,1,1,9.694113595155676,0.08893759605813899,1.4821458857184104,-0.018800529959280582,-0.03562813635681178,0.004791339577252576
156,9.865261323015412,0.03881517972440808,1,1,9.725575716534294,0.055599889540121114,1.4932062748167132,-0.030052774388087334,-0.039260319632088723,0.020763277498644237
157,9.874588097370207,0.042372280468575975,1,1,9.743295046441993,0.13266725768213966,1.5042514746873208,-0.03202952678811453,-0.03385972801239949,0.027234628112847797
158,9.879548154992408,0.04663458415126163,1,1,9.82438460698079,0.2230179893977734,1.5652532390241385,-0.03547829693324101,-0.026370755982415825,0.02015894510890042
159,9.87892153170918,0.050922302914385376,1,1,9.844579365409487,0.22034513976229822,1.6166201281658885,-0.05351203207778495,0.010646940049190678,0.00807707008391164
160,9.872170337176495,0.05461732937653539,1,1,9.78383994436627,0.15087507973752218,1.5672329475433129,-0.05422782201757337,0.019319567647421817,-0.005135227742472574
161,9.859578493128476,0.05723758100057423,1,1,9.840210223039351,0.08251220270971131,1.6752770128217889,-0.057731407854497103,0.01677172335100954,-0.020907029405804797
162,9.842248803442935,0.058486414787672206,1,1,9.81609401158018,-0.04956927595307109,1.6636317104161829,-0.07104009146681936,0.06013871288250036,-0.0247868679986823
163,9.821950359073208,0.058271628036760656,1,1,9.603611708975977,-0.07040237705901119,1.6325148985274505,-0.05327776140790535,0.05201819539973452,-0.017224315118194562
164,9.800843286592235,0.05669236013804616,1,1,9.557201002944062,-0.06914483049281768,1.7026305698256097,-0.03222945129221819,0.017501012556788587,-0.009369162850531097
165,9.78113826524938,0.05399788393128653,1,1,9.560536673856701,-0.11238914687169489,1.653577590061658,-0.008572182573674909,0.039638720525033824,-0.0028476260151818365
166,9.764763953076528,0.05052840545146739,1,1,9.54985527003854,-0.13609235909733322,1.6303214218820081,0.014607135606100646,0.02821559115098063,0.0020796055195487395
167,9.75310939535052,0.04665151198407983,1,1,9.557981326270449,-0.12310938423577479,1.6254754486026504,0.02895146745924868,0.017714779191158235,0.0025400358845427593
168,9.746884319788496,0.04270691489951631,1,1,9.574569402371528,-0.0875251468652636,1.5786816482172963,0.03291739379296014,0.009615781251192007,0.010248955867784753
169,9.746108580617786,0.03896753719587512,1,1,9.628325386634481,-0.030974012567161206,1.6205342606279856,0.03441100590003682,-0.016877728558262466,0.022178426775182312
170,9.750212271754435,0.035619301762261274,1,1,9.709269072943515,0.02283690088026181,1.6190831651194502,0.034768681800207084,-0.011356114596532296,0.027568203039303192
171,9.758206408578623,0.03275743718895993,1,1,9.694385086940622,0.055252068200952575,1.5995386908473492,0.028156458603888077,-0.001756802865485856,0.0237186144035595
172,9.768875595575436,0.030394954005796376,1,1,9.69344044825858,0.04850799054812544,1.5451307380695933,0.010445731334429187,-0.0061722991602101785,0.016122458726077742
173,9.780951133885509,0.028479063680215414,1,1,9.621697285018403,0.045301527099694316,1.5563018404452549,-0.003937976880914458,-0.018722083988541617,0.015546698647082406
174,9.79324156913039,0.026912398886933767,1,1,9.633463629721284,0.07787977807093097,1.6002869061140004,-0.00706073607106067,-0.0331262554364138,0.013118196609956232
175,9.804717834872607,0.025576477880005055,1,1,9.667711808013758,0.03364613056566479,1.639823233934427,-0.008365835444111604,-0.021111404318385676,0.009920199603529694
176,9.814562604331348,0.024354650492278085,1,1,9.671092227414581,-0.04584700380847669,1.654736094272572,0.0009158329394876038,-0.028449384320758088,0.0072899704224574716
177,9.82219586938432,0.023151597617928513,1,1,9.67782405842743,-0.06907982728375653,1.685782794999094,0.013063150138554877,-0.01781718493397417,0.0027961721974955546
178,9.827285410163602,0.021906967385911382,1,1,9.659520158660746,-0.03921262416174704,1.635806777858912,0.01055972151920716,-0.02038285399908638,0.00251382587482229
179,9.829746711426372,0.02060171984372943,1,1,9.67478157716397,0.0013353181020871927,1.6265849435738575,0.012918946042322675,-0.027568881933414852,0.00843264661544607
180,9.82973337471024,0.019256813015192293,1,1,9.724769231277257,0.04912760808491657,1.6636566061396545,0.006734545419563192,-0.017581791255310498,0.012492629106069767
181,9.827615303976561,0.017925024111749698,1,1,9.74451184365811,0.07284218141646136,1.6245126590395298,0.003801023172074876,-0.0003985024744051447,0.00940798946824137
182,9.823938925357233,0.016678122287010547,1,1,9.724566338887346,0.03763360527682739,1.6459696780385182,-0.000510948298168517,0.000284005630322662,0.0037319838961234406
183,9.819365047595547,0.015592869495449213,1,1,9.656945123861025,0.002439519956388152,1.6475689804143727,-0.010714390705886078,0.014002872635180758,-8.788300048514832e-05
184,9.814587643768496,0.014739499465910777,1,1,9.609711477348633,-0.037699858126407665,1.6324583611676697,-0.012400041391126156,0.0048354499900983275,0.001461287834996102
185,9.810247101474468,0.014175059495119232,1,1,9.630654306028385,-0.04784288475822332,1.6969892349904467,-0.007983589049556497,-0.0032408005475609816,0.0036822955405826927
186,9.806856817661002,0.013942042999059795,1,1,9.647551921274847,-0.05939024201143412,1.6981144260254375,-0.0008811203853167929,0.014527216419664426,0.005800676516079947
187,9.804757837258364,0.014071063360775184,1,1,9.684524511816658,-0.02035093071618905,1.7315261276729175,0.00547775507362056,0.009885550960234663,0.007146435201022548
188,9.804105379653787,0.01458523899889552,1,1,9.693934147838364,0.0011758432135759247,1.6309320061524888,0.0014648959467734241,0.024903625980181938,-0.002117071969449824
189,9.804881095152927,0.015503443199496605,1,1,9.655275967514081,0.014152014773665143,1.5434067614065448,0.0013858145466023853,0.026034382968606426,-0.0025970951471314865
190,9.806921115386045,0.016839837569526957,1,1,9.662761717242157,0.01744358003833304,1.5930011988059336,-0.0027062801460864387,0.011458292651315115,-0.0008404177984883524
191,9.809951561801727,0.018598428536848573,1,1,9.707925917916775,-0.02656462606349266,1.5458165863397424,-0.010377331766116202,0.020307378916673748,-0.0016862243718590317
192,9.813625556869122,0.02076346958282292,1,1,9.70232149637699,-0.08878139362445601,1.585379368173685,-0.0061177541721590895,0.01347069704409283,-0.005387349770966498
193,9.81755644742986,0.02328848412640454,1,1,9.729070093417038,-0.100557096606262,1.6501467602942974,-0.00719173251178743,-0.005262497501303141,-0.013078453301276433
194,9.821342901214123,0.026087691581200428,1,1,9.670193826973085,-0.09289406726902592,1.635636915087039,-0.0019886322336329487,0.021393115111601115,-0.015718371848820988
195,9.824585729568739,0.02903344929861826,1,1,9.621217652035543,-0.10482349696812922,1.6385930222243754,0.011436399049953744,-0.007576235481084833,-0.012680027826757407
196,9.826902869995887,0.03196217547879393,1,1,9.667034255150051,-0.13113471716299324,1.6393429251514278,0.01847974865642778,0.0011768579138094818,-0.008718394270789603
197,9.82795286661122,0.03468935946586266,1,1,9.62943938684288,-0.10964090600975072,1.6746936612559835,0.033047676374549646,0.02103764050179807,-0.008691224845692817
198,9.82747365138431,0.03703190419814739,1,1,9.716070390233657,-0.10824958067537999,1.6669013544265598,0.03860028676596764,-0.007857616358031052,-0.008306993882049921
199,9.825332900421719,0.0388336104396034,1,1,9.761820439200763,-0.0675149909501149,1.631690029787288,0.04919010310455596,0.02533707388422918,-0.0017282536396297497
200,9.821574753835145,0.03998803368303243,1,1,9.69442906864428,-0.006863290052407958,1.6024918408953066,0.045819435672198615,0.008912289031312685,0.0020706095312399723
201,9.816442616353045,0.04045318768219633,1,1,9.759380903572605,0.041160983217059494,1.6014049233432877,0.035726526836897615,0.012509882143730871,0.0013958214648135596
202,9.810362715107342,0.040254727417806786,1,1,9.680019880933996,-0.0002839122808703462,1.5884145130414078,0.03199273219335897,0.040052721130809564,-0.006905112950718581
203,9.803885948340046,0.039477358761952214,1,1,9.631071332110414,-0.08470491126872125,1.6348475248175565,0.027587294878047387,0.012013891009917756,-0.008618481785433374
204,9.797600563895868,0.03824707804204819,1,1,9.619931305086514,-0.08330566367351715,1.6802445717030838,0.025977941771716473,0.023752340075102164,-0.00791747849386635
205,9.792039186455801,0.036708732164133576,1,1,9.580027219584142,-0.09786813532816109,1.6250861594382335,0.0209710084744738,0.014971860330152322,-0.004281245104868657
206,9.787606050996425,0.035004043647560136,1,1,9.610509421774939,-0.10955522285512997,1.6955223942985045,0.02799035043006792,0.002582910180077851,-0.0038468395544024054
207,9.784542640426654,0.033254536412706245,1,1,9.662382092539001,-0.07021522286900309,1.7279169434327006,0.03030276281496637,0.009925888077979257,-0.0013335649122784292
208,9.782935369310815,0.03155189574129828,1,1,9.652861033963331,0.0003192264947648941,1.6273427269562266,0.03451279132902229,0.016602397000365976,-0.0027668058157210938
209,9.782754040323232,0.029955915674061213,1,1,9.693493749514108,0.05713708550528672,1.603804971943797,0.027464245647974752,0.009497294613413535,-0.0019354656894018712
210,9.783901010512304,0.028498337926914703,1,1,9.686139640703402,0.077093728575671,1.5623935061715353,0.019928374959759194,0.029725174254869476,0.0007308471246857498
211,9.786251053457333,0.02719022049025753,1,1,9.685149920636484,0.060217743891202664,1.540897400887791,-3.304570229776093e-06,0.015713602888694382,0.00371189001274785
212,9.78966911520152,0.02603083309252817,1,1,9.669002927405462,0.027306444226982203,1.5729438047141209,-0.009753814562783139,0.027996625329732815,0.002638487203161512
213,9.794003808344444,0.025016687377389487,1,1,9.627598755190855,-0.010411793182503725,1.6267543214795468,-0.013931793320951348,0.013296243437743533,-0.0054727091900332045
214,9.799064708329539,0.02414947382651867,1,1,9.644022892258958,-0.0332223997594356,1.6725980204729018,-0.028998145733797387,-0.002186710812034739,-0.015930524069216308
215,9.804597999042992,0.02344135798293008,1,1,9.626483371070345,-0.09657839313928951,1.685539162774596,-0.027628258348099434,0.007415834629502764,-0.018990914210940246
216,9.81027585472692,0.02291593224936741,1,1,9.628484633222989,-0.0916414988144262,1.6860147568061694,-0.018292761504196727,-0.01136453692327065,-0.015952240017060124
217,9.815710273309946,0.02260388894804901,1,1,9.647349969967337,-0.07524849631448363,1.7396035628255722,-0.001827536173410511,-0.00438619009863686,-0.012228563880527432
218,9.820493522896697,0.022534257338295376,1,1,9.683186826560693,-0.04821487158573238,1.7272209190243895,0.0007688853729846676,-0.014422926402127627,-0.011793452519422123
219,9.824257364626597,0.02272391308936685,1,1,9.724913807719659,-0.05254149732936319,1.6507094642364581,0.0030483078636268503,0.012331368032610318,-0.015280688443883356
220,9.826735092617385,0.023168822112199693,1,1,9.729936875056415,-0.031016244188846964,1.6229627707296324,0.01027817698649449,0.006719014566631979,-0.012649959252406189
221,9.827807780702166,0.02383975495411245,1,1,9.707043510218679,0.035313339525804774,1.6016026519957056,0.013282413274423541,0.020780364349305712,-0.008706889287040337
222,9.827520535790937,0.024683631783339082,1,1,9.668952484287061,0.05253130014409973,1.6520359314370325,0.0007017055138073997,0.019828809131864186,-0.005101925350596982
223,9.826063848636425,0.025630042298461057,1,1,9.7220498098445,0.010388945378025732,1.6219640973756644,-0.0027968825632381836,0.022044262879135714,-0.0095312401294053
224,9.823724806331178,0.026601220677362935,1,1,9.695610366339988,-0.01480195491613087,1.7077328897159632,-0.008957358924285829,0.024877746357987767,-0.020527822008262725
225,9.820820026856076,0.027522918361959317,1,1,9.629711916703087,-0.09518884150860901,1.795348440070187,-0.01788308447486884,0.01974478191286404,-0.02891117231408168
226,9.817626937662588,0.028333376229950108,1,1,9.581977893038076,-0.14933738128264948,1.742367112448559,-0.006381792824883127,0.018340452003978942,-0.024448688614112517
227,9.814332716430698,0.02898832209346408,1,1,9.580226282049393,-0.1396119652411345,1.7652273697980974,0.012622017760537426,-0.004712051959944182,-0.018568165428381328
228,9.811017877796317,0.02946164337907118,1,1,9.655530895853412,-0.09435796814252076,1.7617313109696273,0.019636589901829964,0.0017413343008969126,-0.014585837988483955
229,9.80768079273842,0.029743287866380336,1,1,9.69527853892987,-0.06793088927945473,1.7294881156761903,0.01854076436068909,0.010145166942282742,-0.010859720339233403
230,9.804292801694888,0.029836833204015152,1,1,9.736872071785454,0.007130920640050129,1.6756702800584018,0.018687578375360028,0.010111360384752239,-0.004994416531052834
231,9.800859870415456,0.029758512874561407,1,1,9.70405044840952,0.06466662676342705,1.6280252134352995,0.015358502319437715,0.040376671384202416,-0.0032850490759092463
232,9.797464346229205,0.029537814315999476,1,1,9.628785971130986,0.05700455637523787,1.6660485407084928,-0.0010114811105960421,0.028353201760174085,-0.006112441789895433
233,9.794270188731824,0.029218186318714097,1,1,9.66746504601972,-0.0059752783324647195,1.6770477262303982,-0.0007214713504960852,0.02916080983789322,-0.011937079797071221
234,9.791490282879058,0.028855839212381735,1,1,9.651906335857356,-0.017465947170152575,1.7310219409727674,0.000796106229941884,0.022221554296102283,-0.018566000213244633
235,9.789327174836284,0.028515196690576748,1,1,9.616777791574654,-0.04073161907371725,1.8222967781659467,-0.010356567386077754,0.018597392337205924,-0.02422541232404103
236,9.787905894980014,0.028260643492961767,1,1,9.560474726832146,-0.07066347703524208,1.8123822858443908,-0.011721507818789948,0.026563258514996312,-0.025997705130020057
237,9.78722065982088,0.028145322078988178,1,1,9.542972749272566,-0.14010286576389366,1.788152748869529,-0.004165874579139646,0.005584253427427809,-0.02106255299420974
238,9.787116124025086,0.0281989076314835,1,1,9.598565944684637,-0.09080489161438314,1.7827029094448092,0.0012074456811930407,0.006367699188196648,-0.013476645408982328
239,9.787315942599147,0.02841746104735606,1,1,9.613040718049094,-0.019821801593739037,1.7549285643346793,0.00697098756672695,0.02402171663840039,-0.011083050553942875
240,9.787496297324493,0.028758901060413657,1,1,9.681947468801605,-0.0177329651593721,1.6788573533965534,0.006024158219982601,0.012047298626537735,-0.002474667552826435
241,9.787384690325618,0.029146599333644576,1,1,9.705937185460314,0.04682953018568158,1.6531939103697746,0.02102989634830269,0.0327129679916082,0.0037109217720022155
242,9.786852336865415,0.02948126013435546,1,1,9.704597462194416,0.062102890831062255,1.6973931406175526,0.010208853024464894,0.024421369047514692,0.0006386409802436698
243,9.785967409002316,0.029658664108622664,1,1,9.727183004129595,-0.01265961619607854,1.6528511356606979,0.0071640697066222715,0.038870844588766246,-0.007819252669475103
244,9.784987353881535,0.029589174633370612,1,1,9.622027348944691,-0.04686419712623825,1.7344367678218093,0.014728093857942194,0.029574010598966163,-0.014512397530496208
245,9.784288489829194,0.029214698577948887,1,1,9.579665713047902,-0.028211211341992566,1.8393712649049936,0.0033906853903371433,0.010989935373404062,-0.01721513143642255
246,9.784253490608991,0.02851987615568168,1,1,9.54600752849802,-0.07007192587082771,1.8064111762054584,0.007804112183270962,0.028434557765326152,-0.019095324523299973
247,9.785153679768804,0.02753586926722195,1,1,9.492853177281697,-0.1196667506585677,1.8225964124705312,0.022827996357020514,-0.0015819433597660188,-0.01318573993208608
248,9.787066133824137,0.0263364124616731,1,1,9.585137796954596,-0.08528993070559727,1.8292083139251254,0.028105835268444,-0.020436932327675256,-0.003615670893771327
249,9.78985321748123,0.025026599968464965,1,1,9.61783754223184,0.008482642880749675,1.7647358785819336,0.027484100205417954,0.001563889953230912,-0.0013990907364815975
250,9.793208670476185,0.023725669677320153,1,1,9.714804104234817,0.06622468315135838,1.7078892829299952,0.016449044810217483,-0.018157752563574055,-0.003245773121124509
251,9.796749484274685,0.022546223872674763,1,1,9.752693523282762,0.09871034596142314,1.606463643995506,0.014609801079334817,0.011076861635424293,-0.003277905039653779
252,9.800117497454536,0.021573706323927817,1,1,9.673034405487645,0.09061143606772476,1.6198139976688828,0.007444213351420495,0.0008702798329922074,-0.0003219614639298441
253,9.803055086995775,0.020850817719386284,1,1,9.720320888438536,-0.001259763062929254,1.6453508611840368,0.0036895928751379974,-0.005884739669218467,-0.0028145742803414343
254,9.805433499733903,0.020371074352350294,1,1,9.644741576347895,-0.03531094450496436,1.7085601011559564,0.013867096986879867,0.004826946368404401,-0.012024653202464645
255,9.807232277968042,0.020083533341461283,1,1,9.615052088381534,0.00809674621741927,1.8604627029970222,0.005454668252819872,-0.021983372844984875,-0.018804659914689853
256,9.808485793515299,0.019907449705183735,1,1,9.603413005831595,-0.05380988404210272,1.8100608201561945,-0.006126608125381602,-0.0018509562533278467,-0.021110326472482815
257,9.809223392928303,0.019752785828084107,1,1,9.532142086242034,-0.08698574254299471,1.788359744882445,0.005339299208797871,-0.008024465482164869,-0.01583741948817677
258,9.809430820815116,0.019541298203326896,1,1,9.590046774683406,-0.08112061765054898,1.8039326528397008,0.01953215292123219,-0.026009237668724934,-0.005935562965080164
259,9.809051271848153,0.019223429664549416,1,1,9.681211798765798,-0.03193524005782504,1.8017728802337176,0.020377633529895894,-0.01408816098377003,-0.004325205151539697
260,9.808026253462776,0.018787760799004734,1,1,9.7126339888258,0.019041583556652728,1.7446657325508261,0.01563354625863428,-0.0020170378046426595,-0.0030620411837512726
261,9.806356521400998,0.018261830143534916,1,1,9.744702723786876,0.0866817700474427,1.662786533985727,0.015725860883335524,-0.004551711095381205,-0.0005670141256690349
262,9.804152199038441,0.01770532338291335,1,1,9.697298763694466,0.1222793041251815,1.6571337263364094,0.009478740168645519,0.010668808706157086,0.0015040752905560236
263,9.801645267623492,0.01719825405014876,1,1,9.66799907633435,0.025896872773471486,1.6378824569566255,0.0035677652176684498,0.008610720256420987,-0.004019355812872375
264,9.799154204212982,0.01682721429352113,1,1,9.644408365010097,-0.006585386149091337,1.6806495242920028,0.012143941395136979,0.01301407092445751,-0.010745776812196108
265,9.797010577247073,0.01667213564400122,1,1,9.576282634010344,0.008505955559691804,1.865621692632265,0.00636609252958184,-0.0021147374888568133,-0.016307463295390047
266,9.795472132081263,0.01679488975313803,1,1,9.570663318170826,-0.04708996846609321,1.805967241645136,-0.0037055076320808254,0.004740577095700406,-0.014234923464144358
267,9.794651795489017,0.017230164023977437,1,1,9.560620908919244,-0.08314005534148294,1.81266926165439,0.009220441404632214,-0.013977709182391388,-0.007571289044821409
268,9.794486601268648,0.01797870587663848,1,1,9.63495850892875,-0.053169776314157896,1.8505261791583527,0.016013914312570186,-0.021323649975400406,-0.0026301284560612324
269,9.79475710576484,0.019003180334520326,1,1,9.635451684970217,0.00012782350692185145,1.7980815799761987,0.009241967293074685,-0.009924102053921385,-0.004362854171527596
270,9.795151373130349,0.020227373778305326,1,1,9.638581560770643,0.05676927780204609,1.742250559062756,-0.0018854896519840093,-0.014161997126159002,7.251769428088658e-06
271,9.795354271807991,0.021540100607465407,1,1,9.684013977092349,0.13294554784219023,1.6646214375542934,-0.005908979396067002,-0.003466998908639153,0.002988637256642324
272,9.795136537723362,0.022805355379295386,1,1,9.692099312551097,0.14692794200313714,1.719782915417652,-0.016773568947705375,0.007432122891777432,0.0020637726468477947
273,9.7944189130834,0.023879247472520647,1,1,9.700245466332001,0.06020696614706101,1.683562457687199,-0.024857346256775117,0.011938882440951275,-0.0074316855686285275
274,9.7932934559492,0.024631990642674267,1,1,9.662880166834078,-0.04736180688041262,1.7324490339936955,-0.02140161056099774,0.019045184020763512,-0.01526426467107025
275,9.791996075425342,0.02497073482891087,1,1,9.588691303017601,-0.06031930280512462,1.8053744704034846,-0.027155527506008352,-0.012808355032484238,-0.02004937597380145
276,9.790839273012708,0.024857785455309804,1,1,9.586490550739416,-0.07310875873240143,1.8243218917360646,-0.02368113547864754,-0.004422532360958417,-0.023100227772618734
277,9.790126876356487,0.024319553504964442,1,1,9.584217247883998,-0.13733660717885138,1.8206764807250668,-0.004576706184728411,-0.010713107286381033,-0.019638326939762443
278,9.790077837104546,0.023444064169195446,1,1,9.574200838662959,-0.08729330946809943,1.8426539114403397,0.008897338193418904,-0.015075561262854927,-0.010083915053401333
279,9.790782058218246,0.022367849308931907,1,1,9.574336930323053,-0.019033208387636166,1.7749090621146113,0.012395962345439302,-0.018332420164212725,-0.002840650085517754
280,9.792199861739142,0.021255338023906195,1,1,9.640064552435831,0.05554765293640676,1.7296976922944722,0.009663812382194818,-0.02735315702487447,-0.0019255811220730682
281,9.794201782957089,0.020274948928629168,1,1,9.720989085938736,0.08467559471169764,1.6311460575606531,0.008800167920832836,-0.0047033379482838535,0.0009070648184131678
282,9.796631035641088,0.019576341304314432,1,1,9.720059746355673,0.12181874518598906,1.6279788279422323,0.0029919892045833832,-0.00346955100303979,0.002464346365826357
283,9.799362586037429,0.019273073925946804,1,1,9.700406126038676,0.06478790273940173,1.6572993132117793,-0.008249060478416096,0.008771823671052522,-0.003598701106579577
284,9.802334992778508,0.019433902344536357,1,1,9.652746705546306,-0.006230409883425201,1.6670410153092887,0.004565753613339838,0.012236971946430308,-0.014204359471261387
285,9.80554369708498,0.020083678718672126,1,1,9.652453382798187,-0.04804167161307822,1.787837694761358,-0.007124289660999259,-0.017851573494179377,-0.023381044646137685
286,9.809001107801754,0.021211909057427394,1,1,9.613677897686877,-0.09808095504226988,1.774912803181898,-0.01075830219344033,0.006291392223703957,-0.021978122471431067
287,9.81268216707065,0.022784938920431118,1,1,9.589531363436363,-0.1164872090175879,1.7601205228991796,0.011029502496006755,-0.013035828626878807,-0.016190257790416333
288,9.81647972449716,0.02475744390395782,1,1,9.60047767568624,-0.09732969282179993,1.7744465229013007,0.023533454948463317,-0.012755804925439974,-0.010513615464191835
289,9.820190717284854,0.0270800875473818,1,1,9.630217237117517,-0.05009744331932339,1.703359978383314,0.02753783426268866,-0.01420102005344693,-0.005967001836450921
290,9.823542413740924,0.02970192037577711,1,1,9.7004920461207,0.040350724708412604,1.711132201466395,0.03266960884404165,-0.008324155883526016,0.0010743880166175959
291,9.826251017023058,0.032567729245704925,1,1,9.758851437935586,0.09400077613797024,1.6686798398459874,0.026866798767402673,-0.002274091149872913,0.0029417108351176544
292,9.828089396742618,0.0356120050986341,1,1,9.762278963193863,0.06725330093262896,1.631342820955992,0.02815054243142181,0.013111748819975379,0.002789345935576419
293,9.828934451309935,0.038752299811298886,1,1,9.7455260563086,-0.011372481456156767,1.6581808535870677,0.021475039391884478,0.019358839706424345,-0.003802611407945992
294,9.828771893140726,0.04188501560488208,1,1,9.651076782304637,-0.06872710688117174,1.6588711024783185,0.03950229838122902,0.02678925988232565,-0.009351163982386347
295,9.827654318005054,0.04488586825197092,1,1,9.637098324427928,-0.007979722006130018,1.8481577638756514,0.040155429787455475,-0.024190142837139425,-0.008645046275162872
296,9.825628529794134,0.0476158613496581,1,1,9.634504548745877,0.004696158666552371,1.8208128305259776,0.03135568298912225,0.014465628499867732,-0.007378218020971976
297,9.822661213845974,0.049932416275944205,1,1,9.580484987500903,0.02487742589011646,1.8703488021812835,0.046782334376973655,0.008122603881978111,0.0014038882703368057
298,9.818594371545128,0.051704544509983914,1,1,9.61999188969576,0.033609233535938185,1.9101966230913054,0.05403166048213546,0.0043275461294287,0.012615475044858842
299,9.813155064814168,0.052830160379347575,1,1,9.503985861580949,0.11640124913544252,1.8887914201673859,0.0546804100437222,0.02686548040946024,0.022927259370408667
300,9.80603078558235,0.053252714322461925,1,1,9.576884211538454,0.18934227972088066,1.7185555631344975,0.031142269225434407,-0.032538325936311986,0.030992674442452985
301,9.797003098033155,0.05297403939398618,1,1,9.726905146043993,0.24474715990390003,1.6594778668929884,0.027044877638361962,0.005052841196099238,0.0416919996355242
302,9.78610911981067,0.05206122080800269,1,1,9.756890483916894,0.3021891882420719,1.6274020681363366,0.0022139055460168927,0.004677818687149179,0.047502055118836845
303,9.773779204914938,0.05064682028180502,1,1,9.854366685332757,0.2628775785921301,1.578930172895483,-0.0015023083775308188,0.02310054108726084,0.03496605318808706
304,9.760892357590805,0.048922701361472004,1,1,9.716448453878133,0.24381395360064761,1.692766327832749,-0.005878173003665953,0.0622907961385697,0.013771935787082797
305,9.748708875085146,0.04712748931536308,1,1,9.553814414561828,0.10207420209009692,1.7444021403117873,-0.04498120211819961,0.0157362074333818,0.00224988724665724
306,9.73868005071546,0.04552704902277653,1,1,9.413627762470385,0.032743542714096054,1.8484806391229591,-0.06000691713016928,-0.004745369109144656,0.009065331654388355
307,9.73218004350266,0.04438751621917978,1,1,9.520524558682064,-0.13568633208468348,1.6611910696403318,-0.046625511301765114,-0.02559724988177092,0.011704324413231664
308,9.730233059260081,0.043942081751086715,1,1,9.523328461680222,-0.21139032266140934,1.6764038381801014,-0.009242832963842427,-0.01796454779299753,0.004753526819040086
309,9.73330830599281,0.04435545952825633,1,1,9.508030050986795,-0.16888877787812928,1.6987990245278743,0.010988066038031851,-0.036532496291465606,0.005024998723312909
310,9.741231506015081,0.04569229542297081,1,1,9.52309359839957,-0.03295383838253904,1.7040382048811737,0.019429025595108715,-0.043483702186049376,0.004847911549498453
311,9.753229029627185,0.04789619575168626,1,1,9.575179111560319,0.008480494229161193,1.67616139697588,0.0070212190346796285,-0.03937020485321791,-0.006601758513081484
312,9.768088640546788,0.050784392399968147,1,1,9.639238440330942,-0.013979822465720012,1.6339520296721668,0.010722609830861289,-0.03667230348280089,-0.010462100541902272
313,9.784393048628818,0.05406047346436343,1,1,9.853374123443706,-0.11537534543302778,1.5080728793652132,0.0027135905270919,-0.055643433733237956,-0.004489861858721608
314,9.80076322277928,0.057345052959296816,1,1,9.902154544922439,-0.2362576977157517,1.4712920051009664,0.026892553614642344,-0.02933679705461647,0.006372311255369531
315,9.816046323430061,0.060221723622311756,1,1,9.725315926691833,-0.2473190865274105,1.6476308384784042,0.0388874593594188,-0.04662506779767631,0.010317667825321952
316,9.829405652424958,0.06229289708207366,1,1,9.559275951002984,-0.17488054652982948,1.719781372059118,0.0303312583051702,-0.05958833406019998,0.00435298633577511
317,9.840312336119792,0.06323741548267046,1,1,9.515596912371189,-0.11233649700693346,1.7192664581974153,0.022477611517353144,-0.07926700177988086,0.002315400577583236
318,9.848479358649335,0.06285992923547153,1,1,9.60693256053672,-0.07800840491056377,1.715943606173623,0.011108296929725996,-0.08259028797094428,0.004616945145714484
319,9.85379388083225,0.061122160492756726,1,1,9.670510141848107,-0.03880554122922436,1.707309398326037,0.001018413946741518,-0.06998226979140912,0.010733504798392548
320,9.85628627661508,0.058149107876275793,1,1,9.772937494887396,-0.0054624504437276525,1.6934832034735163,-0.011474641901757072,-0.06926213266307789,0.011681323191866815
321,9.856138672952572,0.054208551999207044,1,1,9.8631006236784,0.004696431045530754,1.6269993498258122,-0.023295666910795328,-0.029431731575052356,0.011635793531316283
322,9.853705396637851,0.049668222684148874,1,1,9.776174204808411,-0.06527134368763125,1.6222203020643065,-0.04068617649055442,-0.0058326749585300205,0.008795660808392076
323,9.84950879073837,0.04493964360413597,1,1,9.745066128588945,-0.1721276567512818,1.5177132782903837,-0.0405114509832217,0.005246788673071155,-0.001496049770940219
324,9.844187941217852,0.04041958376785096,1,1,9.687669929461274,-0.218256678921229,1.5939584603375843,-0.02065420466535946,0.0027679230108690494,-0.012033930847071392
325,9.838403842578405,0.03643910872022592,1,1,9.647924338023437,-0.18095264373181205,1.7451127116338276,-0.02261782909924341,-0.01633402147857484,-0.019126166310528516
326,9.832727321134778,0.033227385585954325,1,1,9.602572020949571,-0.2177209154354219,1.7066529836631275,-0.015515899145615467,0.002965718203744598,-0.022461030654667695
327,9.827545898397416,0.030893805556007004,1,1,9.593292006071048,-0.24450232908715414,1.6838562834968653,0.0071617418534328965,-0.027383973398558786,-0.018975798869155437
328,9.823020966302911,0.02942852501235242,1,1,9.661646015489183,-0.21731294902566584,1.7244510185012172,0.01869062906543216,-0.018383551462897847,-0.013905218131967701
329,9.819110228219838,0.02871884980202525,1,1,9.64653025159812,-0.10023398012031882,1.6856471005773714,0.01600787148294298,-0.014831971877261197,-0.006257828266079451
330,9.815647958722657,0.028577293893808454,1,1,9.742448219400835,-0.004938299497660395,1.551331294557987,0.00812125711622554,-0.028978262212326248,0.007703219778076216
331,9.81245482909029,0.028776362511319716,1,1,9.829722732372977,0.06493959512991804,1.5370228283245062,-0.02052458349746439,-0.007430526830661601,0.014579882656217851
332,9.80943763156461,0.0290846432432952,1,1,9.78332336170476,-0.018279680372132786,1.4205477786202572,-0.028858014120960188,0.044396288168705514,0.008645603108533788
333,9.806642753871188,0.029298623646183807,1,1,9.663754955907997,-0.14733038422526162,1.4616253180120524,-0.000648398319760571,0.03547729213676513,-0.010593804131039252
334,9.804245904191026,0.02926547165904471,1,1,9.64761293302853,-0.13322160210109393,1.697091171093621,0.007860632519361288,6.696722407985059e-05,-0.022208175863290294
335,9.802486509934207,0.028894368836612103,1,1,9.604642166722494,-0.16689983872751005,1.707273004724575,-0.005290918970351525,0.014093747850043453,-0.02047016495607411
336,9.801575827169977,0.028157198397080217,1,1,9.593256446083577,-0.21657135429897514,1.5832317103976283,0.0016702171651718954,-0.012533213362391389,-0.007286996281819133
337,9.801614637633579,0.027081733309437275,1,1,9.63569119654421,-0.18464291371499716,1.565755881560422,0.021693359566060867,-0.019029374740167977,-0.0016212289215129516
338,9.802549298248708,0.025740734403334208,1,1,9.640243218794035,-0.1113735186802831,1.635736074197731,0.02888560442999127,-0.01586407901104476,-0.005490265347289536
339,9.804178689282674,0.02423897301156127,1,1,9.716320293227042,-0.04007411702426909,1.597383130624669,0.02612628402277958,-0.009808538615135002,-0.006490214014064223
340,9.80620584109988,0.022698674214196305,1,1,9.713694521701406,-0.017050071946443996,1.5522679429251884,0.01884415387002357,0.011752401362776938,-0.004842513422381756
341,9.808313712547296,0.0212435039608867,1,1,9.718205395067072,-0.04883384429815791,1.4926268284169473,0.0044779283525743716,0.02245715334086004,-0.0021782374727578116
342,9.810239614479135,0.0199820758629385,1,1,9.707874845116075,-0.09593174447643363,1.5002740632348306,0.005320865535991318,0.017557702536501334,-0.003619300721937112
343,9.811827078477235,0.018993194927830647,1,1,9.709174844576236,-0.07992659849944736,1.5513161442307448,0.0079821109734662,-0.0011646168265981097,-0.0037916752063659777
344,9.813043484275447,0.01831582186098884,1,1,9.731100170073889,-0.08756620888473846,1.5981664365233943,0.0020905815569861362,-0.0015818596431482238,-0.007918004143061451
345,9.813962371452877,0.017946523794314113,1,1,9.655687562095405,-0.1125515690320035,1.5470339686308565,0.004253610180425995,0.009404989283979046,-0.012175087867423079
346,9.81471929221007,0.017845765230927686,1,1,9.636456598109369,-0.14891564673752034,1.5808391632001022,0.010568880932787931,-0.00733527834499101,-0.014780140551071795
347,9.81545794503814,0.01795208045498064,1,1,9.626799323855428,-0.12702770018313553,1.6307818787552706,0.01922019860892906,0.0012212519011526035,-0.012178916975990895
348,9.816285908263746,0.0182008850087161,1,1,9.671878164657576,-0.066712509757794,1.562357619234941,0.02177049659989114,-0.0054960235639293815,-0.008108765311632784
349,9.817253628709766,0.018543440686412824,1,1,9.707386257929748,-0.027539209573388297,1.5429007965523514,0.017455600499178457,0.004846303859348436,-0.006227341356127022
350,9.818358119050002,0.018961630432506718,1,1,9.782187617097437,-0.08588090232547023,1.4886359946532821,0.007121822034582726,0.010236851202192912,-0.009000287500823658
351,9.819560759112147,0.019475290484685017,1,1,9.730993875697314,-0.08946070826145476,1.5402535819052212,0.015934503093530294,0.0396717139059159,-0.012652213831519283
352,9.82080392739499,0.02014028657383311,1,1,9.66653463661452,-0.062394256539139034,1.638104371080189,0.005208538250177261,0.008198733431101049,-0.011783367135581937
353,9.82201650327354,0.02103722315729805,1,1,9.66896216451015,-0.09740968082067719,1.6474917251707566,-9.4418979257691e-05,0.01673991160114086,-0.01158873052596963
354,9.82310932245469,0.02225284068957957,1,1,9.621301350135482,-0.11232341041101887,1.6573651506306388,0.005830640630593193,0.003661873430481797,-0.007724741691915229
355,9.82397038238787,0.023858313961223544,1,1,9.664643631443065,-0.132995299368191,1.6370703994773153,0.015637214514910413,-0.002908113804119588,-0.0060580017404324405
356,9.824470269413387,0.025889622348097833,1,1,9.698235688463061,-0.10606217830246664,1.6776804471122502,0.021122370799815,0.0062936200009099785,-0.004733914636498442
357,9.824481256840242,0.02833423220299079,1,1,9.734025772982564,-0.06292831854206853,1.623048574115427,0.025921773855167467,0.009250602625919091,-0.0022108453938819786
358,9.823904224108544,0.03112608461130655,1,1,9.706725001975638,0.0043825831333777565,1.5646101559734962,0.024636706971453363,0.03455505305287088,6.257679791787641e-06
359,9.822692362113813,0.03414860056508221,1,1,9.658512205788465,0.026989441052041197,1.571824239239664,0.016178044353786527,0.02338621436220445,0.002547051585342437
360,9.820862024324885,0.037244123697416046,1,1,9.751441668058721,-0.03853230205859488,1.5697976981027026,0.01274347725632018,0.026983595356240675,-0.00021749805078997777
361,9.818486264102718,0.04022804674316342,1,1,9.728171667281632,-0.06995681734444228,1.6004365633837256,0.015648903838546956,0.04579742647480917,-0.0068878535307154405
362,9.815672097407003,0.04290610752446468,1,1,9.658248764755621,-0.10468956591379386,1.6611475018007775,0.009446695570144511,0.03677399960716621,-0.012550334467033469
363,9.81252829576603,0.04509334419886543,1,1,9.562247042377543,-0.13394617462162495,1.7025991551820834,0.021457465651665987,0.04856544374880719,-0.014423647788724557
364,9.809136642875659,0.04663310098336762,1,1,9.633573484123477,-0.12684748984730876,1.6919571037156649,0.028437344754603067,0.00952886181474528,-0.011044203238338594
365,9.805541784065355,0.04741469248834075,1,1,9.673337574372447,-0.1446654588421654,1.7009569202260046,0.03462673342916,0.034813443097520956,-0.0060859157392470315
366,9.801768359171191,0.04738868664375477,1,1,9.645781813968146,-0.041155993385998166,1.6554423548631936,0.038454932111275444,0.026094891743135597,-0.004933068509191251
367,9.79786124596848,0.04657866493555234,1,1,9.707634030818463,0.057581001873271566,1.6300086058025827,0.039073680118115496,0.02952941093615972,-0.0019460107393739154
368,9.793933252279977,0.045087670364151324,1,1,9.67644600720481,0.0740175033492126,1.6491029142130653,0.02080647347804176,0.04523835663871019,-0.0008095568262026599
369,9.790200226129487,0.043096956233532435,1,1,9.714170836819568,0.009733162799289818,1.5666810514113605,0.007520274022523303,0.04664065723736613,0.0005055041956408682
370,9.78698698547545,0.04085473628212568,1,1,9.666984226655805,-0.02164939559218732,1.6191736439781659,0.011257066050275717,0.05242565991962069,-0.0038353144914762705
371,9.784696769028885,0.03865363446253579,1,1,9.650139139369871,-0.04536211038285655,1.6697507846032167,-0.004583440300091892,0.038129948705914074,-0.011786506090430719
372,9.783749229294289,0.036797410334758515,1,1,9.585567661542306,-0.1261073489363012,1.6765077940081163,-0.00944868328280154,0.049139700178143654,-0.014138494383103887
373,9.784503335932806,0.03556015016532546,1,1,9.557880314442361,-0.14658813555110456,1.6580184527721442,0.0015689836658393302,0.019371085961158125,-0.005851935568906523
374,9.787187067992827,0.035144010381661865,1,1,9.616209813816122,-0.10770564789612387,1.705757992650635,0.004502153571799725,0.011249214572163832,-5.528218851977928e-05
375,9.791851775602181,0.03564372526276082,1,1,9.690723339299133,-0.0536467342858141,1.6908302551444803,0.009975945425100073,0.020352276299074677,-0.0023393869140117297
376,9.798356635488995,0.037025995830483875,1,1,9.693277049193341,0.00893585776507694,1.6581251107380035,0.02098714460774224,0.030403299912409344,-0.0004588732059923459
377,9.806374889819976,0.039128871285499064,1,1,9.691194192353485,0.012352450709315775,1.6570693760153685,0.014643806199466486,0.0398129085922723,0.00254883647742853
378,9.815407170130504,0.04168149033578378,1,1,9.708157943223728,-0.04443472826495632,1.6347826172642437,0.01711749574288226,0.04419078893123451,0.0032526838103241642
379,9.824791183425333,0.04434042912307802,1,1,9.68385892850307,-0.07236983422465318,1.634965611472531,0.020583425969026136,0.04749599632422521,3.766289448303519e-05
380,9.833707510804176,0.04673701579511561,1,1,9.660468101364948,-0.05165731376292374,1.7598013695858647,0.011750014904478938,0.03461203371694857,-0.006244190111585548
381,9.841192191053414,0.04853019014647422,1,1,9.669939859255368,-0.12842507817282423,1.7054010210062396,0.007300742568484035,0.04323411634184612,-0.008620069828820501
382,9.846173742287164,0.049460511377587925,1,1,9.606013703371563,-0.17153150845730736,1.704303990700426,0.021133491110815708,0.0464707498076615,-0.004475719334251551
383,9.847552781806511,0.049401407798473865,1,1,9.624116091382026,-0.1864349598212229,1.7557363444014316,0.029274563970137217,0.022415131262855173,-0.002106345303208691
384,9.84433485731848,0.04840319030418344,1,1,9.68144358314628,-0.14488637859993225,1.7284680270745147,0.043225361400116465,0.037935626443740655,-0.002513687073022768
385,9.835811538092692,0.046724093224381265,1,1,9.71074009750459,0.013337672692072622,1.737881246929385,0.04843415760048649,0.030180218086993102,-0.0002712167776122301
386,9.821765008646729,0.044841487079808236,1,1,9.697140915825022,0.08417428173801424,1.6735967603981359,0.036113266195127475,0.04922358017925308,0.002972517442733494
387,9.802654655231635,0.04343639417400654,1,1,9.70067809338851,0.029540930488047415,1.6377464194044011,0.0248496365003243,0.04611028558281397,0.008603340118111414
388,9.779736699164355,0.043346327481417854,1,1,9.737141816818824,-0.010884436420463026,1.6744453886945492,0.021898315096537807,0.05035376268365676,0.010945404300826344
389,9.755071464002288,0.04548533986574448,1,1,9.69220624018027,-0.01994929583669895,1.7061331937561661,0.013606914104781147,0.06761129289194759,0.004696168809490096
390,9.731386310940024,0.05073537272476948,1,1,9.63755930515277,-0.08401026460669425,1.689810603161169,0.003794562930551592,0.056420487343490144,-0.002779818725056909
391,9.71178456345127,0.05981886770088197,1,1,9.58286369687959,-0.10390595092173681,1.6970914135999986,-0.003306946333762898,0.05549109225659519,0.0015437549770080674
392,9.699319227231161,0.07316857430555529,1,1,9.531366049794226,-0.04077968338580753,1.7470716915747586,-0.012054422920832936,0.04575770400183243,0.014500605410404042
393,9.696479001137526,0.09081532576462675,1,1,9.570424231930678,-0.0013051484444359955,1.7428741801054979,-0.020534653152276563,0.04820506231608483,0.01691317379462529
394,9.704656684627574,0.1123162473969359,1,1,9.609011980175584,-0.027856128492673403,1.6772117699421636,-0.04317473518589153,0.06429425895710288,0.015068395623399797
395,9.723684942104128,0.13674267108959867,1,1,9.607707369434225,-0.03713038090770051,1.511474045365285,-0.07111220234433353,0.07011623118749061,0.02919279359785937
396,9.75153455294622,0.16273871025560746,1,1,9.463018497266475,-0.03951110430660657,1.4267558657360109,-0.10622598534608195,0.07864469329557663,0.05886340407562235
397,9.784276740169537,0.18864953852060354,1,1,9.172799973748571,-0.14589291241081864,1.5006558437341817,-0.13638784452591182,0.10958982029708615,0.10343267109404579
398,9.816403786026203,0.21270573961155806,1,1,9.106173143316205,-0.19984140019244673,1.7186560538436562,-0.1517679486274357,0.10112362446723759,0.14975057672114403
399,9.841559180370284,0.23323999641829019,1,1,9.61427272408876,-0.25925052033186996,1.8341697895090425,-0.18452716911440328,0.07231730257671035,0.14349024774858393
400,9.853634619583413,0.24890750131855527,1,1,10.176163178294335,-0.3477662786083656,1.6193268818659041,-0.20477727260969597,0.10020427329633215,0.08150333696947752
