id,ASVM,GSVM,walking_nonwalking,normal_abnormal,ax,ay,az,gx,gy,gz
1,9.460449155163326,0.14721735834121977,0,1,9.631685100060205,-0.4395900644889105,-0.4511854275609579,0.07760102706845795,-0.03386457801727622,0.048537406189012054
2,9.451775377935826,0.1892935226062785,0,1,9.447387220113807,-0.4108371021202357,-0.386332407146195,-0.07011527688693103,-0.07618924196509873,0.058033577659955274
3,9.469713862047678,0.23303292282544977,0,1,9.313923502245915,-0.8271730197485581,-0.5076237380378077,-0.23747200464161725,-0.22252091231265958,0.05587629537281136
4,9.517845633581121,0.27676762812974043,0,1,9.320800684779423,-0.8456524672254426,-0.8000228856594415,-0.2689997991855,-0.32094634088294677,0.03690350842116585
5,9.597297263415221,0.31899670976629735,0,1,9.605964452566823,-0.8662816667349581,-0.8400989158348232,-0.31315571287282384,-0.3010643009944652,0.010053900374826662
6,9.706294941091297,0.3585064978469577,0,1,9.403945955207362,-0.9830146987156444,-0.6940044065171118,-0.3017769842634883,-0.15903511545825608,-0.025661724430314455
7,9.840009705837705,0.3944108481791895,0,1,9.213604807805996,-1.0334107664013708,-0.6875577864611673,-0.2224287189032055,-0.24993861061047612,-0.05354745472124248
8,9.990745805534704,0.4261220634366747,0,1,9.830903734405158,-1.07842137611418,-0.6548280080310098,-0.20271705808543153,-0.25261294400789275,-0.048932698510359286
9,10.148468780044412,0.45328914899033945,0,1,10.71919950436996,-1.2246066671731723,-0.38208608427734586,-0.32712805851915777,-0.03270717808533511,-0.027665666903350337
10,10.301595874969335,0.47574565725982765,0,1,10.899328982311115,-1.2168409682421275,0.07285287350670569,-0.36369547620110476,0.28889074071028226,-0.022655930754146347
11,10.437917548604121,0.49349303455939797,0,1,10.098610278007456,-0.5311381006309108,0.5084430146877493,-0.4319808563780036,0.3549036301485587,-0.06703754304522593
12,10.545535604147512,0.5067173813281172,0,1,9.438576504026448,-0.5654161489064647,0.24666643363515,-0.5702371482168577,0.040687582633375956,-0.15286983018606023
13,10.613779200122451,0.5158136861438096,0,1,9.944459738806081,-1.019010430229031,-0.7615868318382439,-0.4398070098985587,-0.3792812470814957,-0.19407226196990807
14,10.634103301547128,0.5213851316420354,0,1,11.661744462716696,-1.8046789287785165,-1.6908997717479317,-0.3485609482920469,-0.5538470993030453,-0.11950617761041307
15,10.600915919597215,0.5241994650315118,0,1,11.726358354895972,-1.6698590867480498,-2.4515605511579146,-0.11377599324696147,0.0894445394630368,-0.005407393292592171
16,10.51218437570721,0.5251108083110809,0,1,10.211910227010987,-0.9845541843031173,-2.206865446234618,-0.06286474399641095,0.7053278806941053,0.020719126768131358
17,10.369684135743396,0.5249768461470797,0,1,8.925519193996415,-1.003099643864721,-0.6013672902495246,0.03415014887955919,0.6633738005681434,0.0194623401418644
18,10.17892163549612,0.5246065963974688,0,1,8.606847994650716,-1.688094499343819,-0.4727531550500921,0.008866401560300437,0.11910443559263847,0.028382255843986483
19,9.948939675923171,0.5247665331967408,0,1,9.839764100175971,-2.411248379551078,-1.4773982308635982,0.25928832809522895,-0.2534684467803226,0.09425969193118675
20,9.692214275035704,0.5262586494545971,0,1,10.30447784028303,-1.1385217759538688,-1.9683120672274648,0.5614231388132218,0.18293431753327286,0.1229374604306448
21,9.424662388857662,0.5300573217458211,0,1,9.493742645340493,-0.12255870931653871,-2.1862607361590016,0.33792462236801024,0.6338093770811135,0.06932283513231545
22,9.165571387604764,0.5374524958568181,0,1,8.832258545920817,-0.4486499039714773,-1.4633432348348,0.17086151120857407,0.8765271087891516,0.01997600329798875
23,8.93719166891729,0.5501195497174076,0,1,8.561944058227956,-1.1188992847618446,-0.9192801263426953,0.18133689796947464,0.5319595142246846,-0.001197871906944393
24,8.763799249709605,0.570049431820826,0,1,9.23665892861145,-1.7963870561394066,-1.7638347996837795,0.3069014427513346,0.06823582299326453,0.00020905730774817407
25,8.670131779160467,0.5993228545335259,0,1,9.007238040960784,-1.4792960152875343,-3.1662342326206336,0.4308026313455108,0.37219700182241283,-0.024468910031715085
26,8.679181473157401,0.6397642929409247,0,1,8.672915905960089,-0.7163207428508831,-3.055184260123159,0.40336528806887123,0.7171365079714123,-0.04822746888804239
27,8.809440987329442,0.6925347882120674,0,1,8.371522465757728,-0.5837643441790492,-1.2490749453478722,0.30735573881876915,0.9842410972118995,-0.033746645089745154
28,9.071885786000164,0.7577233323632302,0,1,7.5557058964901085,-0.8732130369201373,-0.6992700549291649,0.18632566305034606,0.6039275487734832,-0.029591803947327588
29,9.467179025813405,0.8340057698416194,0,1,8.378011712640062,-1.7032602682695157,-1.5915229374373232,0.15000304094934439,-0.17413717393777198,-0.07549484438110843
30,9.983672294788244,0.9184661588191482,0,1,9.513947646453714,-2.030336796901368,-3.2857436854636597,0.4077547359005223,-0.011817524502533504,-0.17372596747600294
31,10.596674328765973,1.006682220740888,0,1,10.00532690525632,-1.9530453488499517,-3.5388680270831854,0.6978904674245731,0.6616027223459942,-0.23622983894666133
32,11.26923326670725,1.0931219354153647,0,1,10.02977484840725,-2.163538603291933,-1.1011108444557498,0.6445405811338286,1.498875890356403,-0.24028553455630805
33,11.954458313873763,1.1717932912495437,0,1,10.460668700012382,-2.730190616046057,1.5047337733041848,0.808401711523973,1.1121214200005858,-0.17438407316525686
34,12.599248349516612,1.2370001128902406,0,1,11.47082631701847,-2.746371219039648,0.305943842310874,1.0030700031965991,-0.37835118923156835,-0.16939323660206268
35,13.14913352470899,1.2840416801375218,0,1,13.144851607733044,-1.5669341922542062,-3.1036220336551796,1.0593860049696597,-1.3050526774970237,-0.11523315759858309
36,13.553705080320187,1.309747041295356,0,1,13.02856406449036,0.13743438326072135,-5.613790893602618,0.673711035310153,-0.5234068873324162,-0.015901122473087313
37,13.77185977928724,1.312804386167509,0,1,17.87032380489564,0.3137460007681693,-2.6006655811374357,-0.100386188468764,-0.3554502511517394,0.43876166279088524
38,13.775979451999575,1.293883576846412,0,1,15.063742975420285,-0.42193959604157477,2.1782470006665706,-1.161702359731545,2.4393687351950226,0.3475552919553885
39,13.554365320090952,1.255541925445812,0,1,8.62389904208298,0.05396522092844745,4.920144966969402,-0.5551229260878383,1.4042828512207217,-0.13172053520740357
40,13.111755759785787,1.201884235621081,0,1,12.853805954786564,-1.5599640297567823,4.853073773266028,0.006030701873877766,-1.0781485551713141,-0.06210834418276832
41,12.468326565919929,1.1379809584134912,0,1,11.05764547191471,-2.6597149296587976,1.7123671940971843,0.22477470174084907,0.4393214460306559,0.23389635202058748
42,11.657869539360211,1.0691447681893793,0,1,8.869996430916625,-2.1730157996353636,2.0893583341118216,0.18922942778618887,0.39810996104861285,0.49441129025195574
43,10.725753291592202,1.0002493536172,0,1,9.9032287908725,-1.1135154027565928,3.4622391850504424,0.5073188586490466,0.6138996980270969,0.44058776777080044
44,9.726927955273089,0.9352645473911219,0,1,10.794491667102427,-0.7408073505806438,4.173795694020086,0.6207806422582567,0.613910653369109,0.4040206475792425
45,8.723833147256023,0.8770849255603952,0,1,10.310543924964254,-1.550990005135603,2.302183180927759,0.6286357632941377,0.4777966845711444,0.4745137292848902
46,7.783782335443767,0.8276147726480704,0,1,8.288321288731357,-0.9663598440167334,-0.5101847768092713,0.6472810244445412,0.7406997923499955,0.5856540520838369
47,6.9753935982783855,0.7880006482415345,0,1,6.578383134602858,-0.22718626733963657,-0.8178054131014885,0.6013100359927166,0.6432168171403403,0.5206645969782249
48,6.363940153647626,0.7588918178053364,0,1,6.639575323882037,-0.08224664431570938,0.22635387112198857,0.6101258640510573,0.1368356395966041,0.28714371343894907
49,6.005918728099513,0.7406470690534511,0,1,5.967721096886687,-0.4174314800717976,-0.4327996849824392,0.5539732596480237,0.06927604678617293,0.09332982710477285
50,5.943459873628901,0.7334661333565866,0,1,4.769823413016652,0.16399661206930385,-0.9290580180121396,0.6857717380186955,0.1611705565679167,-0.04569772932986781
51,6.199349707738762,0.7374702446988275,0,1,4.281372585188358,1.4016331798256845,-0.05143273594450936,0.6202581141812045,0.1997265007386936,-0.08572465925715465
52,6.773413594122733,0.7527668585813416,0,1,5.453263779816994,2.801354544114882,0.7643226264739619,0.292363711980478,0.35971570098037553,-0.05233485200918505
53,7.640837170182783,0.7795103732451208,0,1,7.650789180858869,3.190793034955183,1.5086329580528324,-0.3408528014377013,0.5743453380284413,-0.011772616263389248
54,8.752692106262026,0.8179284480265632,0,1,8.305828366003606,1.885657601576817,2.2294842459446866,-1.0566730164239573,1.222493642854043,-0.07287900600464996
55,10.03860022687578,0.8682402408255637,0,1,7.916281793268971,-0.25453495508486423,1.7369700996080544,-1.2360948689394673,0.48199560104505784,-0.010967361860030616
56,11.411230503784452,0.9303810357545593,0,1,11.427734941209641,-2.3027512389871934,-0.8127082540071491,-0.9497307258380308,-0.6149557232232026,0.039673239634149315
57,12.77218308451861,1.0035045226251025,0,1,15.878025013547374,-2.170695901625457,-2.259666676814075,-0.32515373458456887,-0.49924104116607587,-0.23602324258372273
58,14.018718586758824,1.0853553718817297,0,1,16.031045246543318,-1.9861077618859995,0.19673383519107976,-0.4462056955914603,-0.45780462239187075,-0.5479598340370782
59,15.050804956398489,1.1717274296810294,0,1,11.263372473183253,-3.18055789656257,-1.2874517892394193,-0.21960131236736458,-0.23571088634332044,-0.4546145680679161
60,15.778196745954798,1.2562730394993047,0,1,11.167632293502086,-0.33428243191767165,-0.1734048575462018,0.09188939841148194,-0.8442374540503926,-0.30658330310746856
61,16.12760170876037,1.330877529728866,0,1,15.23991763095657,-0.6330991171663392,8.837352550644122,-0.009007359508468317,0.24105804944992837,-0.5562752259185483
62,16.05004795340061,1.3866766271204474,0,1,8.846828843494857,-3.156143961335251,13.950102557654029,0.5211990120113522,0.5805845925633115,-0.6273874321530555
63,15.528163854403632,1.4156069451525073,0,1,6.869138238027605,-3.0826796442983504,7.193280011716295,0.9745741811353773,-1.9991305465769815,-0.6351819346914563
64,14.582464149910473,1.412184043918913,0,1,14.954153996419421,0.5542253917228506,3.998007778522692,1.6058133176539446,-1.9326981719049934,-0.9588199390118715
65,13.275197381831289,1.3750688218023712,0,1,21.818602186207734,4.540096882248997,6.848344257499535,0.7645028223236648,-0.7052152346119827,-0.9012239502207062
66,11.70998006865463,1.3079889663814397,0,1,19.01372480069524,4.092185809564168,2.5508230051566003,-0.4468206411030548,1.170303103639921,-0.3517041997704272
67,10.025586250434664,1.2197401951453393,0,1,9.362988397210488,1.220371489510331,2.4682163168792197,-0.40442571672432026,2.282316767435608,-0.17793226951800656
68,8.383285169155775,1.1232216453829833,0,1,4.056039927011262,0.4082666152648531,3.033741067317768,-0.2544209573956951,0.5552722275505679,-0.2166294597999985
69,6.948915242113227,1.0336691011912489,0,1,3.983840704879462,-0.6537175941228882,0.3114985821095192,0.0696981802050301,-0.718805806446911,-0.11920292764378912
70,5.872579384677609,0.9664037235814562,0,1,3.223116547179872,-0.3629540906024094,-0.7043524458798402,-0.10468314014941402,-0.4359084520055614,0.16379532582357234
71,5.269579030173782,0.9345000647783158,0,1,0.6599461115653967,-1.2620014908450277,-1.5213244152995928,-0.7883943949370056,0.1131423199739107,0.4284703694666858
72,5.205844114112699,0.9467747850220171,0,1,-1.1062498067571473,-1.4453647151060174,-1.9591236253356332,-0.586418293201969,-0.03404694835597865,0.41775035780607306
73,5.69010209121604,1.0064144135547097,0,1,-0.8955578948880867,-1.5618610875414942,0.029628956637515295,-0.41292387778710365,-0.11935872086323387,0.28111104459023334
74,6.673785447441987,1.1104409673382432,0,1,2.6414058974531875,-4.457835880209228,2.2832086028420777,-0.15588886963978732,-0.44700827384264813,0.17705272255600848
75,8.05839268554007,1.2500875368934135,0,1,6.493241028545293,-4.170012857834502,2.672921488412158,0.8147433946595534,-0.4406339395106142,-0.016533759940391676
76,9.70879421347874,1.412013863762871,0,1,10.62132159238387,-1.7975168308712095,-0.8525399317626697,1.231803601389884,-0.9677712362562823,-0.3097980230026084
77,11.469983640622608,1.5801308068839859,0,1,15.750942684105137,-0.7289384899845874,-8.140988033880319,1.7194800599082765,-2.8763632615945913,-0.2959368189307879
78,13.184261606875529,1.7376691359769463,0,1,19.259408708454494,-1.1453880310036397,-8.16449957087763,0.7600778171736536,-1.0675986329512128,0.022055866826044743
79,14.706048409266877,1.869102633769338,0,1,16.00645734898812,0.7587099862684777,1.4967717607159772,0.389899009247942,2.6078785708650942,0.08727830230412348
80,15.912566255054152,1.9616523693720282,0,1,8.912431568486689,1.4654282441237951,5.826456761134801,-0.3950447694834032,0.6777265377164404,0.19886958210590766
81,16.710242757024012,2.0062913528489905,0,1,11.045034127164469,-0.9226278432319742,0.9755668225190596,0.2538263543761942,-2.4224788352968636,0.30049655424272
82,17.038113279336688,1.9983195471593926,0,1,16.100053837561077,-0.18832426869956073,1.9083208574383208,0.7823502788418081,-1.253756460484101,0.5777824396728464
83,16.86995392426483,1.9376232572543035,0,1,10.67440697270743,-0.6204569911564151,3.917631128667961,-0.7174386995532442,0.7898500419893189,0.7363734029937705
84,16.216191061756394,1.8286873417550296,0,1,14.285867046122465,6.616509321226522,11.875420537128704,-0.2667029881669558,-2.0768453972242114,1.3589788050208405
85,15.125339032432889,1.6803446410122436,0,1,18.45848596894824,3.6118865236865028,10.30757379614338,-2.0206442820755335,0.8795876016996304,1.5224700410038023
86,13.683575859257562,1.5051784505349912,0,1,16.777328047892503,-2.4655884848261764,0.7008265370894343,-1.2765829820513435,0.9925520873287854,0.9908961871329611
87,12.01067808981172,1.3185002843329063,0,1,15.294558862193139,-7.330072081537061,-0.5186291441375247,-0.34994485406638104,-0.006686463243967781,0.014744916057422418
88,10.251151086281398,1.136931735195173,0,1,7.5370066326274605,-6.033420735519438,2.3754087998741187,0.7521262224507692,0.7279580016269431,-0.2047505820711251
89,8.560775572571297,0.9767607006416251,0,1,3.7798717230627883,-2.414971194724794,0.532286587161953,0.8848639544728364,0.30993928085664935,0.14942456010118063
90,7.090318005013225,0.8523125701283149,0,1,2.9138213479786383,0.5739091248272821,-1.8152579895648315,0.8629557394335726,0.17660160023705587,0.280843792827453
91,5.969150463679561,0.7745462179945151,0,1,3.398951315789078,1.320557706829172,-1.1633959018354252,0.45868429550764356,-0.3351824325445306,0.09914253177689696
92,5.291622388412719,0.7500134553244542,0,1,2.02834484228129,1.9072446795139173,0.7472403141141207,0.5393234554388713,0.5518561985038137,-0.0928233190415812
93,5.108302370107816,0.7802672486726481,0,1,1.0013784223395932,2.2297095146757164,-0.022073423137375883,0.03797379645918765,0.3771652778761264,-0.28211244392384727
94,5.423060710848725,0.861771545991302,0,1,4.146285050465709,1.8253112820424817,-0.06522307669787573,0.47129815856439117,-0.7807157029534869,-0.1719414582953637
95,6.195776131683302,0.9863316944159864,0,1,8.10311452333228,2.1075904728267894,1.3876383064214775,-0.1656999919264793,-0.30320764608059536,0.02515435870802022
96,7.349441094928432,1.1420154793137696,0,1,10.026419835819157,1.131441046620177,-0.23275868018451754,-1.0446984041771965,0.39903046120738134,0.32855148383936766
97,8.779782257240846,1.314466872124886,0,1,11.167137554811472,1.8792552935010722,-2.8868911563311457,-1.4336924779689133,0.46965288755096907,0.5206346979057468
98,10.36539248794668,1.4884346079068027,0,1,12.848366607793828,1.9870696800234218,-3.026096323249073,-2.101803934334553,0.3817785847697793,0.2628000196949186
99,11.97685236560746,1.6492771629364413,0,1,13.152364943276195,-1.8097010592515839,-0.21685680595781687,-2.1573409343897727,0.7521532782106226,-0.05133702384496198
100,13.484243672165002,1.7842127010131419,0,1,10.230023632524663,-6.7778071137857445,2.052013185563066,-0.7480131841919316,-0.6536241352679547,-0.4715065365863516
101,14.763507528682192,1.8831762495408,0,1,6.721151139510695,-1.898867138261279,0.9628459780407315,0.6336888624741212,-2.345581739707207,-0.4881726381739496
102,15.702877226768827,1.9392841902237388,0,1,9.84177208332101,-1.2243271052288054,5.271570037632066,-0.9367803986809905,-0.9331793680285358,-0.6893422990892921
103,16.21069923943503,1.9490163654582533,0,1,9.646812805027842,2.243660057824655,2.1245277318255935,-0.08520140710268649,-0.49625349324526097,-0.7944589836796653
104,16.225095118458817,1.9122639814492692,0,1,19.794216782485854,-4.307054763372514,7.7224624168306795,-1.5081457117237376,-1.3540312472990559,-0.9804562951094782
105,15.72433822360289,1.8323493622534428,0,1,23.20272421006469,-10.561333099309316,10.262181514438213,0.8493502458720521,-0.08781045443892115,-1.4818168100722313
106,14.735321185824498,1.716020502202202,0,1,13.436961556773257,-2.7727555418549277,5.803029457200092,2.1855460462508502,0.25200065943558525,-0.7652417597787528
107,13.33703214142005,1.5733124481819114,0,1,14.899388813964906,2.1269627017586124,3.0982460221290484,0.7340820318803761,-1.5284067117380677,-0.12139453440533551
108,11.656896696452213,1.417115556482552,0,1,13.695489977846066,5.032506932379537,-1.3854237468461483,-0.8045915958788538,-1.4077096169065124,-0.007493253427213658
109,9.859605108040872,1.2623246437650275,0,1,9.729389742656322,0.9423062692157115,-3.8038258105849074,-0.8685864659003456,1.6744600182572222,-0.1513868683664833
110,8.129744268115337,1.1245395597399501,0,1,5.494315434685774,-0.3367109695529814,-1.6346309930295693,0.07119994452819842,1.2220964772326577,-0.18071926469415964
111,6.650748095703773,1.0184123477408236,0,1,2.501403602498953,-2.0875844898656495,0.3123957271893107,0.10561344548692563,0.6075840978092751,-0.06525433022069578
112,5.583321725942861,0.9558632416862555,0,1,0.635479503543777,-2.3329867857938256,0.9315077486661374,0.23726202416405034,-0.023762134522541004,0.05621976868553046
113,5.046542915175047,0.9444806753748041,0,1,0.9884274364047454,-2.570575553273196,0.22625557272222563,0.40960104542144493,-0.37245217423284577,0.1756323254389849
114,5.10427436068569,0.9864294203017935,0,1,0.9807924996898418,-2.725161872476598,-0.09243817406985481,0.5014286970591563,0.3781298127566433,0.2283102140052385
115,5.758509168541044,1.0780946853067384,0,1,1.9873347377304695,-4.090928340728203,-0.38068022756229936,0.7627583025867886,0.38970178741434613,0.07472294222835282
116,6.950118471860041,1.2105243327848287,0,1,4.425456042844095,-3.8327313467890556,-0.6141451776887807,1.2789403575343028,-0.556061684128665,-0.17314634354179623
117,8.566407530322032,1.370561124055881,0,1,7.795843603323945,-1.505089079284482,-2.984569735638346,1.3871424494583928,-0.5049977732010646,-0.43918266688748736
118,10.454026991128186,1.5424333359682738,0,1,12.394645955083272,-0.17775425905689923,-4.082904432383288,1.6701674594472065,-1.111195563019012,-0.6285703730566485
119,12.435201824601833,1.7095209401151152,0,1,18.636898922454915,1.0632488526932633,-2.646818669235331,1.3014566452025764,-1.0435677385073636,-0.5978154347656335
120,14.325058451853176,1.856040172238,0,1,14.873428138121078,4.577457626229542,-0.27914083490062186,0.3632216799873304,1.889462000855336,-0.051103518286333825
121,15.948195678049059,1.9684713127148024,0,1,7.865550794618287,0.6578342088958539,-0.6923296343177414,-0.8601255723370038,0.9869128321918214,0.18907498907026585
122,17.15345889967274,2.0366485575484683,0,1,15.368285557321366,-3.5009131667209608,-1.1815510428700569,1.0781621807652533,-3.1242131926851964,0.5264054173615903
123,17.82660793730956,2.0544956778830423,0,1,17.518639260753844,-4.161874658087307,-1.023302467648657,0.4427040161350232,0.5122587677612707,0.6804969593912894
124,17.900633803977275,2.020421059460215,0,1,20.14204324746791,0.9022386695716809,11.504236113617857,0.2245912336258511,0.5208996094871222,1.6769078204032422
125,17.36292672996422,1.937396886528458,0,1,13.618048469848437,6.823798831776263,14.487354553890507,-1.4893263223798126,0.48717643369591546,2.0169729620262116
126,16.25802306361663,1.8127388351637204,0,1,10.580012114652787,2.4376066148713504,0.7043352341855827,-1.2772226004212452,0.8404117415611753,1.0695065978807337
127,14.684825746874138,1.6575727877826667,0,1,20.42389880380857,-8.552559867179358,-2.097075944639986,0.012574998456007687,-1.6717580132046161,0.1069248819437078
128,12.787900240579537,1.4859560948013906,0,1,16.635402163910015,-7.93443373632879,0.7075699669746067,0.6085135151545197,1.5835696064946436,-0.26019913794460886
129,10.743310683728222,1.3136461648124227,0,1,5.921475636797173,-2.7164771374864802,0.5547932784381767,0.6313706373304085,1.9540387531429246,-0.0974777804858173
130,8.740375293709338,1.156573451488725,0,1,4.355667270950704,0.6701217260621476,1.671146701774825,0.6295043016530376,0.05339543534426097,0.0946180249633181
131,6.961661835304631,1.0291589391092304,0,1,3.9015148848107133,1.7435143802244832,-0.7096376201623508,0.26358735086771923,0.37364755457921517,-0.06347580025628376
132,5.5641257071675385,0.9426963660609247,0,1,2.4776825157708062,2.360531488795301,-0.6186479144242365,0.7351751238034885,-0.1297009460681799,-0.3777406012811273
133,4.6640769845671075,0.9040553775356402,0,1,1.728661327027306,1.8917081358309131,-0.2795347768010132,0.3587539881295389,-0.05751727593685419,-0.6596843187899107
134,4.3277376917954955,0.9149193419319521,0,1,2.606045412651184,1.6354560130276408,-0.030830590659228014,0.03234185889201032,0.14527331034615115,-0.6809111694448987
135,4.567993617074997,0.9716697271454454,0,1,3.9299931118566986,2.1508447293048434,0.8968835655451923,-0.4756432038825648,0.6064128159288985,-0.42670088199869205
136,5.346918733613198,1.0659184433192166,0,1,5.193356666174161,2.328794926874514,1.9073651329977577,-0.7901607793930404,0.3526993763843322,-0.06371695725172631
137,6.582885102680085,1.1855976465650435,0,1,7.348956395981886,2.8942883468050415,0.5760634844176327,-0.8274819896305879,-0.0040191048849355215,0.33693082136498376
138,8.16062106930019,1.3164391572313174,0,1,9.529647883887291,1.9772377817244147,-3.26441982425766,-1.8450892536360952,0.06894795120563603,0.5033665183474779
139,9.942486800798214,1.443609552360721,0,1,10.477649391771104,-3.475211932604909,-7.252168424959149,-2.3902159714111475,0.2812382245785519,0.47363657707134965
140,11.779504755072866,1.553235686062908,0,1,12.20394331162124,-3.052561773180922,-2.694793237703699,-1.3509365688089177,0.8729002762601735,0.3005443276705392
141,13.521273633548997,1.633601048964578,0,1,12.352673863705562,-4.015809588924512,6.084341807889559,-0.7743050201735362,0.992503871302872,-0.26460585337913406
142,15.024686851040602,1.6759240516091338,0,1,6.648947641673564,-3.1059525026081283,2.695531946586733,-0.12791172717519936,-1.1311560178103903,-0.2962181667526299
143,16.16210015151572,1.6747791546366133,0,1,12.828618581649863,-1.8549426411185326,3.854471073683822,-0.7146488396574404,-1.7765106686662242,-0.40481028962062726
144,16.82985415469872,1.6283000433921815,0,1,13.082283865413157,1.1067063912606476,2.9776974387240767,-0.1242573034702803,0.06673270166620915,-0.9164964649293668
145,16.95757230863342,1.5382818374717766,0,1,14.58384603715235,-0.738434547119573,7.9551823169667895,-0.4490335756550824,-0.7218306210070505,-1.1989941949202556
146,16.517537803096268,1.410216246064667,0,1,20.87464834484455,-7.818115048956004,9.020896973180916,0.24341635661957864,-1.0139836758988081,-1.4907674714762098
147,15.532246966508806,1.2532000407885477,0,1,17.273870806477237,-4.765913939725897,5.073633428554731,1.8283203753867217,0.3634249561277333,-0.9067773141169883
148,14.077613721546397,1.0795942884389391,0,1,18.70772377644085,0.7165928105637416,4.704188480382771,0.8367689179003704,-0.4416657274240146,-0.14452484973207883
149,12.279670763235579,0.9043189075160444,0,1,15.926062062608699,3.0307086665211953,0.027697423410676866,-0.0154052150022153,-0.48349960625235,0.3078724790739049
150,10.303903711759533,0.7437497406731095,0,1,9.218275499138157,0.37681589371266555,-1.6891249824201429,-0.4052055917125117,1.0090295626822177,0.20366594953919132
151,8.33809348283264,0.6142900733947179,0,1,5.222789173992537,-0.7483019844092831,-1.4090611359079286,0.28343712861059217,0.43664921732022366,0.03888734814718518
152,6.571140588040124,0.5307562217116264,0,1,3.078539072721341,-0.3005254259123499,-0.3770477712270722,0.7121727712114295,-0.05913992757395451,0.019493868014618762
153,5.171310772369115,0.5047434527905008,0,1,1.4471958016303776,-0.3164675066883664,0.28104211068264184,0.26412931729170686,-0.23829185877277279,0.10740481515027056
154,4.267418532549028,0.5431544941720637,0,1,0.224644791004165,-1.2164167098645282,0.5545574486806507,-0.298270665728894,-0.11630463444116598,0.15626519654719603
155,3.935729091054618,0.6470889420485313,0,1,0.7758116225189089,-1.1975806830816265,1.0040015942240872,-0.13289685046813926,-0.2078165438247911,0.16735029152946304
156,4.194136666910488,0.8112904018113691,0,1,2.404642914997988,-1.5476783962647056,1.5801051799308123,0.0575954084776489,0.335581071124933,0.06947668669024926
157,5.003834594622907,1.0243073379164407,0,1,3.4876757046535096,-3.775686540718249,1.2139402542623718,0.5336811346667902,0.4315617302530695,-0.119609277055539
158,6.2775070869768825,1.2694339755114752,0,1,4.514298152303623,-4.156519723181945,-0.3355322851018119,1.0146453834895026,-0.12446143788997636,-0.2893552012322303
159,7.892205766905601,1.5263679005282142,0,1,7.355898038667715,-2.2312296464546737,-3.2779215025549466,1.1468865978926963,-1.0302799582762903,-0.4568065068756328
160,9.704578920952214,1.773379308878228,0,1,12.538027305993321,-0.35265078762258717,-5.316965735800748,1.033421124423749,-2.3159076850278746,-0.47296515457649285
161,11.565987439667339,1.9896757127340667,0,1,17.843147652937287,0.25860460465621943,-6.4503531681709685,0.2071835225265364,-1.723087254494531,-0.34796268083122667
162,13.33531818735519,2.157606238931714,0,1,16.024771737850635,1.4113390476626273,-2.374595522711289,0.10999413501471196,2.942157825915471,-0.10612139684865275
163,14.888124395768436,2.264395297024641,0,1,7.20098307606123,-0.6800249066677572,4.024610272366856,-0.7631631382367603,1.9393679370925545,0.2083839893182908
164,16.12201653664918,2.303202801023881,0,1,11.272470584517336,-3.7141258746335084,2.5420185121253858,0.2849927539949958,-2.98172365076877,0.2265516615739257
165,16.9594473624445,2.2734395344789426,0,1,15.408849822698054,-2.552444777106021,-1.2804034687888954,1.4817018447872885,-1.4787845153788721,0.366007311614155
166,17.34945406923624,2.1803955460679925,0,1,15.409376594012175,0.31034442790511996,1.6542049114084776,0.7055543880824009,0.3975236021260018,0.7123073205769381
167,17.269346772548047,2.03434260149311,0,1,19.39773242116466,3.7332721848746195,13.051546634367641,-0.5338283534918287,0.03981538360703682,1.8602525284398892
168,16.72631653062603,1.8493100427709828,0,1,8.830852258840814,6.264161326584452,8.824047041774119,-1.6894732181127927,1.7195760356525345,1.7707406513566484
169,15.758207717059395,1.6416888325539705,0,1,14.10930114020038,-0.3184432619124335,-0.37814170219495646,-0.6592704258736856,-0.9358838816539138,0.7435565182544226
170,14.432546529329864,1.4287441646657126,0,1,19.865368387119233,-9.02630660194434,0.21740434355983437,0.6061210358216987,-0.9804149632452074,-0.02519408131063479
171,12.843144928625943,1.2270940925378873,0,1,12.755701942958861,-4.4609595919128155,-0.041875566258662573,0.8932031471424059,1.1833429613110404,0.09087652795574029
172,11.10398247082367,1.0512495631891474,0,1,9.525589668841738,-0.2792575403754773,1.437934467838383,0.6026157340791803,0.30297407239961766,0.3650117095398304
173,9.340617433684118,0.9123505972809571,0,1,7.19532973814491,1.9126514080573225,1.6389089507566208,-0.07770564180183899,0.9061880157462769,0.39163631785398173
174,7.680042075038592,0.8172371674763721,0,1,5.428682283597223,1.8726903282388088,-0.8639354599827017,-0.1611605663762043,0.5482848870498376,0.11687011285981962
175,6.240341219831269,0.7679721591650744,0,1,5.302865206532595,2.2708658784952562,-0.010460707247788172,-0.009206411853889561,-0.3152166159130755,-0.21860122149127667
176,5.121467197092609,0.7618995172368976,0,1,5.246258240290481,0.13907781873247477,-0.6309549524220007,-0.34930173896426014,-0.40154535354694,-0.46465304429730514
177,4.398018607386647,0.7922677640834179,0,1,4.454202741336934,-0.17703851329738274,-1.0250634088768062,-0.293310553767381,-0.17966412740362206,-0.535119395693685
178,4.114426260672533,0.8493744344806018,0,1,3.8716455182676013,0.419153972713614,-0.8363240342919069,-0.7025875628222753,0.1530639164456924,-0.31524034483065044
179,4.282626529507791,0.9221031527658409,0,1,3.6634695412527205,1.5151353003382968,-0.29534202364339057,-0.8289753742206966,0.4448788741316894,-0.03189512416547455
180,4.88216353929263,0.9996514940606808,0,1,3.946267654695321,2.2357563432752654,0.12406922482357467,-1.0198488504418541,0.09266052615095047,0.12121002999695041
181,5.862611379960112,1.073196693119312,0,1,4.014924985713963,1.3881741857088645,-0.7065860107115829,-1.2702522745845408,-0.2649255814102334,0.31123734068474385
182,7.148135101546641,1.1372232911542175,0,1,4.951188921919503,-0.6411116291313407,-2.391328071990754,-1.9549508694804678,-0.4463170110924721,0.5702978910014089
183,8.643838509441546,1.1902540759731266,0,1,8.971890227087606,-1.3806155070814456,-4.520520625227513,-1.1959734731541158,-1.140516642725029,0.7756639728430983
184,10.243269146521312,1.2348074503924122,0,1,15.522488665345634,-1.5018293828995142,-1.628649274201635,-0.8388166645299282,-1.0469742737685144,0.5491474463828261
185,11.836201728065623,1.2765658881390936,0,1,10.95630285417244,-5.368885447895585,-2.050344312649617,-0.6734255963330696,0.5262882879271208,0.2924508175932646
186,13.315861588538578,1.3229500775551457,0,1,7.261517226269968,-3.202911640968343,2.118513462000132,0.4470863177675288,-0.16514196475472567,0.19644154365885474
187,14.585182893201216,1.3814676561136914,0,1,12.372723678415754,-3.6608465773278303,7.921344408489224,-0.21772671318567,-0.4108279038217071,-0.2853904250065706
188,15.562216630654593,1.458255287441156,0,1,12.239972301293161,-3.271699876552553,6.429292487191105,0.5542862645750374,-0.3745240252346817,-0.4686318797576232
189,16.184961590308767,1.5571246759974204,0,1,16.78603694166357,-1.870719606765362,6.077562518421931,1.7151739254740288,-0.7716580911570838,-0.9286631791091381
190,16.41561248527377,1.6792041518209546,0,1,14.274582168691635,-0.7607939220237289,2.4014685727437426,2.040020729897904,-1.342401278823088,-0.985107473678932
191,16.243818966347465,1.8230487416438523,0,1,16.001789052274596,-0.4157407370855478,4.013807070318852,1.3314408124948962,-1.5217152904883906,-0.47495923832046444
192,15.688297525984083,1.9849893457460468,0,1,21.60980492397117,-2.213320958537395,1.976671436346218,0.35766644619461824,-1.6518248904720427,-0.37326006445829735
193,14.796092195770152,2.159543677764889,0,1,15.552311914523756,-4.473588629783164,-4.628015886084817,1.1004839310849852,1.2378640250391149,-0.1446090549707097
194,13.639000374444986,2.339842888380553,0,1,10.946068466773797,-2.5286604399438826,0.6794832784220144,2.051026754882945,1.387402247377635,0.03876028452818449
195,12.30725621078552,2.5181205606968,0,1,9.534576342464574,-2.719303602726169,2.5503574937409175,2.1049154542422883,0.08046155687375187,0.050286820907646135
196,10.90131927273119,2.6863104157341327,0,1,8.63742556352883,-1.5053507047402153,-0.25645453752537595,2.7972398241249152,-0.9335723236913254,0.10406589067641506
197,9.523090843450131,2.836737672699062,0,1,9.349676805032917,-1.5731870461294564,-1.4225108671306397,2.6255885299978283,-1.9980239658432801,0.043840813578983104
198,8.26778379915373,2.962828704644212,0,1,8.994924589029928,-1.8174409338637858,-2.795209856108341,2.7309478286915905,-0.8993722091472713,-0.07170863609067166
199,7.217183094769474,3.0597462278604284,0,1,6.469716751970748,-1.5181485226912914,-3.268763757399498,2.832094219745847,0.4815701909419456,-0.0564729910952209
200,6.434563826097222,3.1248862851187442,0,1,4.110909905533045,-2.243363596227258,-2.894105381768777,2.3715235564661,1.0059846603418423,0.19478685960741407
201,5.961326570182193,3.158212318388835,0,1,4.352059114563111,-2.896780512431052,-1.6321380112513841,3.469541681152163,0.5811960778338101,0.26616491661024994
202,5.815407531776553,3.1624054771340924,0,1,5.914006698216165,-0.8798148678586185,1.359452874816426,3.8926664340063453,-0.14011315684147466,0.06865969425256582
203,5.99153149195819,3.1427797083051505,0,1,4.655430512069072,-1.6099923947842227,-0.2597782384528015,3.0293204107770424,0.18227599118216736,-0.013835750120161933
204,6.463291790164589,3.106898772990189,0,1,3.95065220381352,-1.2585597105832225,-1.5716779556042006,2.954934981967356,-0.6807130114309374,-0.008884686429504114
205,7.186869413133316,3.063880033201936,0,1,6.629438622489179,-1.0948538727459876,-2.525248912122368,2.4274620477787967,-1.193640370515899,-0.11933515812018142
206,8.105952651805957,3.0234479227080366,0,1,9.032811524768501,-0.6966879900519694,-2.9736240575631663,3.0718931870263413,-0.9447482446811144,-0.28178059193368626
207,9.1571097561959,2.9948473691465494,0,1,11.558186145778196,-2.9539549264165026,-3.9682796204861,2.845298663979943,-1.3688151456905024,-0.37034574549591914
208,10.274643883953555,2.9857261528570676,0,1,12.217698398882629,-3.1281146461999785,-4.676029846357765,3.35428747413293,-0.10309473365710169,-0.2181062033024174
209,11.39406445540508,3.001083732209036,0,1,11.583018274798254,-1.9891585949105195,-2.117157248115136,2.587215049238741,1.1340781217018159,0.1851357547638745
210,12.453865396753118,3.0424037097466012,0,1,10.25339078438338,-2.664925776442099,0.11718615141355275,2.133969132879631,1.5975879911946151,0.4175619345441427
211,13.39613390451105,3.107133152337178,0,1,8.322202265365497,-2.3270866411378366,0.24899586712823993,2.15923514662441,-0.021019049169170086,0.3182850882581707
212,14.167192556174466,3.1886944224841076,0,1,9.027961724560365,-1.7663174076145363,-1.9309388881193703,2.633002195598661,-1.5854894862144069,0.053373079145741104
213,14.71955719791559,3.2771610207398876,0,1,11.35887179298533,0.512428868882306,-4.28576782293702,2.7586666893730647,-0.6335276012814257,0.021390385979017053
214,15.015792134973273,3.360589018603816,0,1,16.080063479179223,5.290142012825601,-2.960437567670441,3.3502730829528256,1.0199737060680234,0.016406442659543868
215,15.033617923770128,3.426815912920912,0,1,27.314619625501983,9.269631499673142,7.490611984694668,2.1399826789534937,3.603997364488702,0.7778747677636733
216,14.77055556937326,3.4653918246787647,0,1,10.641448771312014,-0.003915444632283456,7.369330805424397,-0.3866299758786846,4.248511790445943,1.3102362750457963
217,14.246248626149491,3.4692583151576843,0,1,4.45438883922865,-1.3662993431092605,5.032176333312934,2.0772256268113223,-0.6122132096242855,0.8597357567292252
218,13.50157220831455,3.4358611089014315,0,1,13.21442879671007,-2.7751369203541425,3.164417608179624,2.8868201267715006,-3.252100299516498,0.12042280774858358
219,12.594927219902889,3.367529499122909,0,1,13.29021262494725,-1.0933214322012643,-3.0985743922424147,3.3032553042543396,-1.1759352530934983,-0.3770931192244857
220,11.59672073772339,3.2710956648650567,0,1,14.328326550843645,3.0711294028055507,-4.797219914206838,3.3155239082727723,-0.634687253712949,-0.1277913673846905
221,10.582841903353684,3.1568269022241013,0,1,9.979419862843793,3.4939646005152833,-1.7309134738693048,2.3694443903818008,2.3417038090422166,0.2662497605918158
222,9.627673270679379,3.036828175763782,0,1,4.555546801530496,2.3885364302619716,1.821985424911474,2.081606372505371,1.8602036810346052,0.4386309515950975
223,8.79730437871948,2.9231568577238125,0,1,5.035583567704278,1.6037105526889228,3.340566018648943,2.1877643117080936,-0.8151419373949647,0.2615757453448514
224,8.143874401886434,2.8259505334775925,0,1,7.762111479078593,1.85781604143067,0.6876741887545461,2.478923598711025,-1.1219794665613132,0.13860617773671227
225,7.701873926498358,2.751870273356282,0,1,8.585342073049333,2.246964558396871,-0.998025495859291,2.5459966134181955,-0.9577602574570767,0.19772274409235607
226,7.486703347072825,2.7031008217590267,0,1,8.350863541868456,1.2641565709375644,-1.8617039937886035,2.302208997839938,-0.09888050288562686,0.3298850905329806
227,7.495189432130473,2.6770519563819155,0,1,7.721608170060489,0.5145003779021832,0.5971441707245203,2.2719440353204505,0.5196858245522613,0.5511710073662627
228,7.707480776771349,2.6668037365897446,0,1,6.993675573601967,0.35332630824676514,3.5030553658708223,2.3263580161514765,0.14475232522222622,0.7625939912396865
229,8.089824827438209,2.662240835128388,0,1,6.547115943454064,1.16470402105551,2.9246469997801308,2.500689038541825,-0.4613789874779134,0.7088691484906324
230,8.597963008779375,2.6517210705748506,0,1,8.257895635414835,0.4463094694426824,0.8724476935724639,2.6183680738710966,-0.9327583369324859,0.5982291939664915
231,9.181048756812592,2.6240289260884917,0,1,9.068431334733361,-0.5752783781014335,-0.8664374750675407,2.619053617683227,-0.6709033291770574,0.5736043674321541
232,9.786011640219794,2.570301695615387,0,1,8.927599471851579,-0.4038909947313024,-1.559032160557166,2.8108290126801694,-0.5784061845880398,0.660630722720706
233,10.362191666664387,2.4856047830793324,0,1,9.71848104243155,0.975172930958112,-0.4033441567107394,2.8957220853543,-0.3073417945130294,0.7737452062016411
234,10.86591664187053,2.3698789996046954,0,1,11.249976480449376,2.02511204794107,1.5007445108945747,2.571507708082418,-0.07845029720087178,0.9395894060059061
235,11.264534751702248,2.2280823430686105,0,1,11.5332671193216,3.4627875926907605,1.3943655086608435,2.302055040392207,-0.4509779054518362,0.7988602427279291
236,11.539286717775106,2.0694906135924596,0,1,12.74727189289778,4.136734994574459,0.8013379179647135,1.8974333671997583,-0.8498307299983053,0.2893630214253904
237,11.686387680511283,1.906280437914561,0,1,12.842801957551412,1.9313009875240252,0.06340756707508498,1.4657943585958737,-0.25849085051307613,0.08712298118535176
238,11.71587492163554,1.7516555587648637,0,1,13.639560317164104,-0.3500729466134857,0.4654671959375418,1.3605535882734776,-0.07757804617357802,0.16213205864530547
239,11.648185905146947,1.6178523055676635,0,1,11.97357226779706,-0.5359258163901465,0.6595992754775423,1.2665199403249445,0.41762241324708227,0.25891038571405517
240,11.50899254354513,1.5143514822052146,0,1,8.365961031959749,1.2489495505849713,1.1692024155680159,1.4113875963447389,-0.527464567953572,0.16835672031789045
241,11.323375115454127,1.446544882589075,0,1,9.107686488554695,1.0603324294469567,0.9224151612516485,1.2063725716567364,-1.33084323078016,-0.1319132135916004
242,11.110748373452804,1.4150015401642673,0,1,10.183193800982052,-0.07723352839084272,0.27527854838269256,0.7796786721360003,-0.13915191486156794,-0.34322644428709187
243,10.881867003265482,1.415399266479247,0,1,9.16531794386643,-0.8878273173343871,-0.6488617805844717,0.5009617239327087,0.7552012149096899,-0.3574992253556985
244,10.638744634617606,1.439138498061665,0,1,7.835811055068185,-1.7250876451025674,1.0596209201748816,0.5963415106713674,1.028320246267361,-0.16565220869091082
245,10.377607855674006,1.474600713027079,0,1,8.047797666306414,-2.660430587254961,3.901439171844609,1.025663263226873,0.6410845535830998,0.009307234507132328
246,10.09424920359252,1.5089185812769883,0,1,10.82853275362807,-2.4614717228381444,1.9376373265897273,1.516052426073317,-1.2575159456172464,-0.07521646545249372
247,9.790427500180963,1.5300049756373415,0,1,13.41113159880198,-1.7410855979678037,-2.858461029137688,1.6496932427930378,-1.5704294459644361,-0.1173360118856292
248,9.479430169203052,1.5285002739620097,0,1,13.70384862629523,0.2947697304014164,-5.561933089019133,1.4020487711461185,-0.38135169432179966,-0.04329650660717041
249,9.188829911213832,1.499293965128286,0,1,11.863428855894414,1.0648433232872108,-3.5585387365346284,0.9697041067917239,1.258754189572973,0.08223721500650864
250,8.959060748226456,1.4423612419386471,0,1,7.929141064734478,0.37562979491527226,0.7787065792758843,0.8750668377485056,2.1136866272477035,0.3221967237920948
251,8.837622208220372,1.3627847232625048,0,1,5.846020781072652,-0.9212568851906202,2.838514126929486,0.6787636674898999,0.8799452195303912,0.48695228286956044
252,8.870042715760365,1.2699639674795506,0,1,7.076673961761887,-1.208113658158433,1.4197878229565948,0.9445000188171369,-0.5873501696965953,0.5000872953548617
253,9.08963416046834,1.1761397604973387,0,1,8.15808317996202,0.1656693641956158,-0.9626182969475712,1.1985111536176603,-0.549612386084363,0.402612866165874
254,9.50827307421791,1.0944689157871303,0,1,8.094761356206643,1.458709318130537,-1.412776063469445,0.9002180789864291,-0.3831874838520743,0.2752016487283748
255,10.11009440287412,1.036959646657646,0,1,8.236363433724645,0.7673741787166931,-1.338236998508457,0.10569520458766592,0.2692587380050932,0.1864167680806689
256,10.849404718223683,1.0126061154724222,0,1,8.018106284682133,-1.0068153008797216,-0.7791282695417966,-0.04517755290213318,0.5997173871330647,0.17235845140309575
257,11.653499225658916,1.0260371583366845,0,1,8.188830501498849,-1.8068139836191321,0.3493073733648274,0.1987831155400493,0.011954669682113183,0.1279258356969007
258,12.430377957649494,1.0769038627230156,0,1,11.639005428422317,-2.4511244116432014,0.11280591135738947,0.5320605743633742,-1.276688320744918,0.10378315782923131
259,13.080526846131816,1.1600750824376325,0,1,13.446579434119936,-2.169928933585803,-2.233085374991593,0.868100633089017,-1.1906082690891588,-0.06874407618476609
260,13.51102310940275,1.2665356477150547,0,1,17.516357618222422,-1.9899318406903528,-0.7666164471769971,0.7315157519178583,-1.1366294827614893,0.09393593067728753
261,13.64950977619877,1.3847587633020906,0,1,21.513118063946674,-2.6226670844727673,6.406920026067565,0.6400663435288988,0.558520672134758,0.40523320964679116
262,13.455432664440373,1.502285921188865,0,1,9.26528972651825,-1.0065199915762089,5.459111896031557,1.0825085223022919,1.7497376724967169,0.5162911404614466
263,12.926571236223182,1.6072678157155706,0,1,9.390668189627226,-0.44596422282896,4.096616755901269,1.4071329103446661,-1.3396874546949533,0.785820630099763
264,12.100111216454973,1.6897588742879834,0,1,13.95394520843402,-1.5743049819167385,2.670386091171236,1.633257536991021,-0.33858528161983736,0.6537790964785472
265,11.048673180629775,1.7426166744613198,0,1,11.326393305340249,-0.8551301286360508,0.686043686099202,1.5404189497713967,0.2218481812367444,0.46291625915872153
266,9.872326895211886,1.761950050578692,0,1,10.019909650946115,-0.6314293178674693,0.6321172399078411,1.3811686153505178,0.41627370443053113,0.32963598926047966
267,8.687765546105673,1.7471605761710383,0,1,8.635500549087775,-0.3945774512017636,0.15137921262713758,1.6100102090366404,0.48317385559188036,0.2810750718188945
268,7.615862901394003,1.7006806865660011,0,1,6.685268196221201,0.2945296116570709,0.2833944720593113,1.6376468580124663,0.11660988974001918,0.23530638045561533
269,6.768939967139903,1.6275086117576627,0,1,4.855824111011531,0.7085211076567826,0.05879883461508559,1.6375814596102274,-0.05934232236694637,0.11672570178843543
270,6.239111017876849,1.534601326079482,0,1,4.698570690631584,1.0985954863515084,0.5437178811295027,1.7201947425759823,-0.562262757383426,-0.04389176766820143
271,6.088933327305578,1.4301511063321377,0,1,5.756414340686477,1.4879334383786254,0.6656007798629194,1.5449811907078952,-0.6297676040522251,-0.16570923575470337
272,6.345233770698755,1.3227647195574077,0,1,6.2430124246533225,1.5003689938354856,-0.38727432154221575,1.1162717577873777,-0.12024791400904988,-0.11615365743258509
273,6.9965276481557135,1.2205916285106952,0,1,6.443773442509428,1.3043935403033422,-1.2699503870367905,0.765101850033398,0.47831734775962576,0.07220804690355068
274,7.994035564410759,1.1304902437065796,0,1,7.050837415339804,1.8133415796425525,-0.03343543141284249,0.5678534933580032,1.0836979076025477,0.2670790975617175
275,9.256033514601862,1.0573459147668025,0,1,7.923278496246077,2.3351325433523553,2.1171797962389642,0.22407617101250524,1.046350720363953,0.2825244271540451
276,10.675100338559298,1.0036428831996242,0,1,9.29239659609247,3.8603619132027758,1.5948058497546316,0.16847755717658058,0.18689846344321887,0.1644617250473745
277,12.127658339380567,0.9693551748112089,0,1,11.819407418913121,3.7024171607253726,-1.0816736206531619,-0.1952154786207255,-0.9501716660475338,0.07556995498493019
278,13.48499846657406,0.952171478603731,0,1,15.27343178426351,-0.14859189676454215,-2.688260997156477,-0.38163425381931715,-1.64514465872945,-0.05482912837737483
279,14.624802071038154,0.9480103182762417,0,1,13.306853025864953,-1.1735411762220433,-2.88506918597022,0.13683790865015957,-0.6326804647929616,-0.19728410392911752
280,15.442116009925646,0.9517338297904987,0,1,14.829527545888313,-0.7598362709658012,2.5310687746723213,0.2662743111241316,-0.5422587117813302,-0.24768704427699223
281,15.858836203507831,0.9579581558907114,0,1,18.344052769742888,-3.793019889877348,9.01544946045784,-0.4501955623163195,0.45553160254365854,-0.5479370168790938
282,15.830947537976197,0.9618729756115582,0,1,9.880079266225449,-2.8468106619996516,6.252279129221413,0.36993061261370674,0.6821723252449257,-0.7132645934485974
283,15.35300454190932,0.9599797158995073,0,1,11.3429792925443,-0.6179384621579322,7.535507677640433,0.6364724643765349,-1.3386047898446374,-0.7199845457797958
284,14.459575732856502,0.9506328031448416,0,1,14.513422952560877,-1.3291840153431183,6.706362436336026,0.459178927275359,-0.6920270636753799,-0.6922194573741274
285,13.223495451122815,0.9342664212180617,0,1,15.925771365524918,-3.0152911926992454,4.482096372336229,0.6534252668990761,-0.5106428526242424,-0.27814833434360536
286,11.75072157850209,0.9132451675725554,0,1,14.65696055361764,-1.3772651289553668,3.4828587398209976,0.8428384719217876,0.28256381019619825,0.16453177443157954
287,10.171628015766,0.8913699814846587,0,1,10.079695118130823,-0.6736258228017277,2.0692172743115176,0.6092266956504467,0.6724439439634047,0.18265368085057726
288,8.628986653005517,0.8731504939129574,0,1,7.314228873943676,0.5740278842937752,0.6961075495272829,0.6572525706767267,0.11809754356596112,-0.07057093179274497
289,7.263679511465095,0.8629933155735066,0,1,5.123848469291058,2.7992681245286914,-0.985325281869332,0.8558346126075894,0.17632325755184158,-0.18347364987597115
290,6.199927309602451,0.8644576620893357,0,1,3.6992556207235614,3.374290138093258,-1.1049867466336811,0.11187150008791438,0.07682449491850653,-0.08486119380668097
291,5.532154471309602,0.8797052791705193,0,1,1.6465931597477643,1.1432588140079951,-0.4679739913463431,-0.8193752312720718,0.7184119579714782,0.07282816608898035
292,5.315450109778948,0.9092209222044535,0,1,-0.6832364516613808,-0.6218769145913093,1.9873834161109685,-0.8005980771715495,0.8045640035747302,0.15134613300660393
293,5.561034323175706,0.9518094372137226,0,1,-0.11344052056568653,-1.4827386725974854,3.770402783603698,-0.8240552391962609,-0.3378722756696591,0.13677098243513935
294,6.237304055580676,1.0048142089394723,0,1,3.9621017261571274,-2.028654768506067,2.411447574239759,-0.43800507236398467,-0.8674077252153767,0.11698857682731481
295,7.2760214832840635,1.0644774611159755,0,1,7.1904103463250575,-3.0275484563709782,0.7266253428006734,-0.35032823254031803,-0.8903259741597748,-0.008641771655229856
296,8.582218749748042,1.1263703591192655,0,1,11.071429483147188,-5.102930528960383,-3.065510715226892,0.22360349645754973,-1.051898508209904,-0.21047148287081782
297,10.045692526824094,1.1858310504236464,0,1,13.886512285958931,-4.644993638490704,-7.687571273303033,1.4764251078807078,-0.8169782503701916,-0.30469696429474946
298,11.551810115742644,1.2383499583419046,0,1,12.147257436209168,-0.15651340707449488,-4.828704723120831,1.5971243194630487,0.21629779323308906,-0.26495008631298406
299,12.989907512295867,1.2798542673533395,0,1,11.529355400798904,-1.567717300380407,-0.15785488524974137,0.449477236154377,0.17935626120556186,-0.24169696424112005
300,14.258710545640927,1.3068884452131257,0,1,12.527221961899702,-2.2372113027831624,0.28621758093960686,1.0789433902563117,-0.5593560212931808,-0.13042382902084418
301,15.269462255412838,1.3167449306704175,0,1,11.668422306167592,0.8569377166220398,0.2679875201887606,0.9601636249937322,-0.7174298594107741,0.007014795267964817
302,15.948204891516934,1.3076187381092201,0,1,13.646640954827303,3.7124413791581197,3.1965961079117338,0.8464899678732655,-1.399658765943145,0.33521871584795276
303,16.238672645542668,1.2788236534403106,0,1,11.898966876870166,1.0826788013991973,5.35472563168254,-0.7530470045455188,0.3643638326568623,0.5509120157885699
304,16.1066302061509,1.2310529656532034,0,1,9.630036671457791,0.12490509659618382,6.790936989538023,-0.2649270010507837,-0.2363150947732846,0.6648340749110285
305,15.545520259083904,1.1666315778048346,0,1,16.408698430430267,2.7680719787483246,10.36149311806468,-0.5730694474378994,-1.5140335556880922,0.9709526090564163
306,14.582207705530777,1.0896852287079721,0,1,18.370404645661896,0.6348486557077325,5.980987926892227,-0.5290672213549867,0.28041341555889227,1.1775643009146852
307,13.280733308609573,1.0061375789019895,0,1,19.01260772229163,-3.450793330408631,2.4857784275283046,-0.6105499788743127,-0.16049385768358188,0.7787758591677807
308,11.741754775112174,0.9234574783559026,0,1,15.76154970386694,-7.543174737927255,0.39622134654224,0.23986930412135835,0.4563191789180978,0.013808861589230444
309,10.096093512406343,0.8501292467733059,0,1,7.172664579262602,-3.769656899528821,0.2811573664487492,0.7752447267000062,1.0470466617428742,0.021343096544915688
310,8.492384342842533,0.7948776017393503,0,1,4.858360421341768,-1.515913404455369,-0.16161921700436593,0.8967841911781037,0.30793734443777276,0.21728498656870984
311,7.080599217873257,0.7657139684044226,0,1,4.350491311405945,0.4129163232929585,-0.604913122348428,0.6842107786884514,-0.08800809116273832,0.19187533813382357
312,5.9944070807633505,0.7688935332004188,0,1,3.04118731047255,0.6810950683287638,-0.9918672016945599,0.7044378881125353,0.02968986972499686,-0.049072509145968154
313,5.335522133666639,0.8079065174403468,0,1,1.797959062425683,2.3386271716620484,0.19229487798224537,0.7749548286681631,0.001367093655757165,-0.35607661237583754
314,5.1625247228753235,0.8826658917914354,0,1,2.079994968467951,2.5234501176132476,0.6850712035710032,0.21060504771936414,0.13602420437658577,-0.4825813675814307
315,5.485559888859718,0.9890718153328975,0,1,3.134647824392177,3.025301281110205,1.4795159688464243,0.08747450392325341,0.03761156333103238,-0.30905711272721925
316,6.267201307204974,1.1191127456506371,0,1,4.795285486993124,3.2028832285861903,1.2394040338086347,-0.7467109804716737,0.0537439334133769,-0.07445718075358777
317,7.428798694359269,1.2615915035813037,0,1,6.534795931688233,2.9645483716449306,0.03758244418220856,-0.6764897039914038,-0.2948288570924676,0.2808809755716857
318,8.860885840292866,1.4034348134703105,0,1,9.406448203275136,3.001314323729289,-1.4710935170375687,-1.671410188447895,-0.6409270289733521,0.5936875215283542
319,10.435752574052412,1.531380387071904,0,1,12.64822895223382,-1.5580016217796224,-5.741521159661684,-2.419663778131638,-0.20177660342595954,0.6020706400233776
320,12.02011486874207,1.6337007492513185,0,1,16.952362554677414,-3.161631369950633,-5.603720273579994,-1.9138798381059587,0.5859387547811871,0.2750412909943068
321,13.486052487012298,1.7015932272542384,0,1,15.357400425076058,-6.348548345369608,2.590427933108853,-1.2123964436936787,1.9639486407385944,-0.26776412583713205
322,14.719143875343502,1.7299715757409109,0,1,4.837531927783305,-3.9254768629856236,3.2949369530109767,0.42471377939270166,0.4145598319514852,-0.29873716653077487
323,15.623901465847979,1.7175872469383304,0,1,10.451638982515295,-1.5212899130236446,2.217038992779464,0.32256906725817186,-2.8322281678309653,-0.17965575687407506
324,16.127645083454773,1.666590980485695,0,1,17.435777820238396,-0.46738439422585787,3.2959670668454533,0.08782144270284194,-0.7103552791367735,-0.6556810439668355
325,16.184174734812242,1.581753439283639,0,1,11.700497809712745,2.252951348188653,2.4347850456565707,-0.0901000430486997,0.42530705188143714,-0.6912718677652911
326,15.777892514819186,1.469593869504344,0,1,13.937359476412164,-2.4879093604482225,9.607862041061027,-0.708190789891596,-0.48624279768623285,-0.9148748470760995
327,14.92791677769253,1.3376300058645407,0,1,14.833792765559322,-3.297322499464772,7.681579227758255,0.5488338332835013,-0.8147731383173772,-1.1948800664817365
328,13.690843091734587,1.1938635064091163,0,1,16.181790810323662,-1.6545380988398097,5.241843962387497,0.9615010589566525,-0.44727467603977755,-0.8800332703277941
329,12.160425606105237,1.0464869160970718,0,1,18.090876758496503,2.5859049662433238,2.1149013784318687,0.14336804695117353,-1.086882708838388,-0.2504092747850895
330,10.462684900336832,0.9037071548857154,0,1,12.945747312890775,2.5446878204190035,-1.7219710954622875,-0.6585048444690725,0.431322789693447,0.2265903043828945
331,8.745830656338736,0.7735618303812395,0,1,7.061394700438312,0.15863020471732556,-1.0117571920108455,-0.8649152484415843,1.23322502519721,0.1423808419019966
332,7.165745887411343,0.6636389975389123,0,1,3.5600967587545744,-0.9218743921644931,-0.07975651391473375,-0.19325137856382904,0.48714574421357587,0.10866209569750468
333,5.869138372646992,0.5806702065466998,0,1,1.9234882845810912,-1.0966077810475967,0.7981653906884093,-0.23486933128162685,-0.01287039297947276,0.10274494616969405
334,4.977241304551428,0.530037164723926,0,1,1.2971212475255445,-1.5767584035288031,0.7385273629324722,-0.4051911194968112,-0.015732816228158433,0.16407772950249963
335,4.572826612607092,0.5152917864151594,0,1,1.6624567584102004,-2.131423738453748,0.6646617746150656,-0.46751518729372826,0.028406444799286782,0.24312423270469305
336,4.692430663646011,0.5378067813648116,0,1,2.2007840440748914,-2.3361311661841375,0.6277914657774989,-0.022440254924632877,0.009732427794904883,0.22198087356889212
337,5.324506061390474,0.5966432706857928,0,1,3.8304640639287726,-3.326738473573396,0.26961260331530396,0.22293194818534126,0.004299636647378453,0.05061126195159133
338,6.4130870719881825,0.6886637562766299,0,1,6.065898768947258,-3.6601907513257537,-0.4520722633897334,0.9270808796406623,-0.24248316083117016,-0.08805118542906205
339,7.865697788613741,0.8088503168828908,0,1,8.860652687544185,-2.2738125661922064,-2.996182535275609,1.0282448299924947,-0.52748466734161,-0.19541603317390152
340,9.563730201676654,0.9507244714782963,0,1,11.646928874602956,-1.1049880041948386,-6.937870543648988,1.3348142068689484,-0.45796022257752234,-0.3198966849837058
341,11.373431420035041,1.1067394595072688,0,1,13.650336162692996,-1.093225297281425,-2.9226319812742796,0.9403822685990739,0.3638281889015571,-0.3847414056395904
342,13.156009492087218,1.2685576762964534,0,1,14.015661603764974,-0.539726484977877,2.1715128709975167,0.7183144492889723,1.2404159582888221,-0.22720274982062724
343,14.776150805788184,1.4272233518718103,0,1,11.30145445540029,2.6978150660682534,2.784677538773579,0.35075426871214277,-0.3608929823649754,0.13837315363424638
344,16.109197383981407,1.5733383636462577,0,1,9.9300962427074,0.332544754494452,-2.425423192477107,-0.43955992954078726,-1.4578382378363206,0.1895502735120407
345,17.047923295112117,1.6973889184867812,0,1,14.219447659710356,-0.4735515180210497,-2.9967061580238066,1.038264559489962,-1.6402849811834523,0.4456255454513692
346,17.509852211557664,1.7903323619973173,0,1,14.268814929605124,-2.6689791091920374,1.4617377818020125,-0.09473335883830723,0.7227753150165808,0.6137924376290779
347,17.445270004333306,1.8444647306852369,0,1,19.31588935250013,1.0781356608692478,12.734943554695636,-0.2866400094927504,0.04671184733521453,1.4748169822935424
348,16.844883413857605,1.8544897444960722,0,1,16.096630193512485,5.575075012073592,15.992897250009973,-1.645291927452607,0.645723764581747,1.8963183616638122
349,15.745147484265274,1.8186116981919387,0,1,10.85524953587477,0.18301399148334394,0.043254910071919984,-1.462690395575618,0.6937318698613221,0.850823787319646
350,14.229181220368272,1.739390827650363,0,1,20.45695358980779,-9.850504094010835,-3.3157531362131896,0.2546614095346965,-2.5354206825849563,-0.21193908106367226
351,12.421925451205505,1.6240735209653778,0,1,15.129286828237083,-7.158777173617074,1.6116740356681725,1.108496088268,1.9529168293119097,-0.4756600934114089
352,10.479370440665827,1.4841806066068806,0,1,5.22178717386018,-1.4144969022549552,0.5892116345618302,1.010455372407553,1.3116691659396507,-0.11539993342818658
353,8.572952381587855,1.334298288680852,0,1,5.292803874331529,2.117692203899808,0.7524226087456045,0.7133803682971669,-1.0478469187866966,0.2207208270663197
354,6.871345770088444,1.1902205297309396,0,1,5.406900616695067,2.3137927358418167,0.28078879127895195,-0.027939053826205935,0.6286338484377173,0.10034426170514782
355,5.522484039077934,1.0667709790783286,0,1,2.6144201980800283,1.671956289724269,0.24315808658353105,-0.11467205749620829,0.5738051120120494,-0.19707478899422504
356,4.638461387692657,0.9757227994726253,0,1,2.2702876856892265,0.46825442399234807,-0.14772250408191753,-0.1363290550008749,-0.4233520095853486,-0.39383441331002395
357,4.285207984911336,0.9242082482422259,0,1,3.158843892933543,1.070727604459883,-0.1815368014376688,0.08645777712853531,-0.24999413168646076,-0.5016764545855735
358,4.477897041486823,0.9138887128893619,0,1,3.2834538689406934,1.0316303924735377,-0.2147937247779353,-0.40037397543627273,0.551177769272201,-0.4118062288457912
359,5.182158415553014,0.9409907053092759,0,1,3.6211939531078445,2.0812549377550105,0.4961762640509994,-0.5872339586579325,0.387483038085197,-0.1640794299371355
360,6.320400035697985,0.9971506014981456,0,1,6.485300067279978,2.655500463418762,0.18208268233459493,-0.7612431089291891,-0.20811768591753835,0.19127224683253266
361,7.781921627424783,1.0708753264316277,0,1,9.166349364414422,1.7524040376355972,-1.620006412820001,-1.2441801700843775,-0.33120322760074283,0.4580623633638539
362,9.435103029340729,1.149326093840032,0,1,11.192396043358602,-1.3159562158071951,-4.028044930927625,-2.131906343835577,0.06395643706142094,0.5588245252815855
363,11.139837951336641,1.2200822654831387,0,1,14.088367157182864,-1.7957680039802173,-3.971730349982341,-1.6766244410553106,0.20330370010695162,0.33573514166261437
364,12.7586509076012,1.2725744849236136,0,1,14.986700791850751,-4.042499413245794,1.7194616309238426,-0.8840618736837234,0.74282943443718,-0.24664337163713435
365,14.165602460642145,1.299006860140803,0,1,7.554374686640024,-2.9845968133412732,2.9909922103388324,0.10537769942231946,-0.3523423724959271,-0.2604794796620114
366,15.25299604252355,1.294767903339688,0,1,11.825348830345106,-3.2060481816025157,3.607551749544726,-0.6827147939345098,-1.6029331538950018,-0.29154687224963377
367,15.936652789757483,1.2584617705495111,0,1,13.15270110115264,-0.35997907445206134,1.8855019608287151,-0.0284791739090955,-0.3108317117405887,-0.674768568789483
368,16.160672457773895,1.1917175054553186,0,1,13.480826655320316,0.5103490331047414,5.469538331735299,-0.4882492193846235,0.16018039949568938,-0.9923039675750923
369,15.90203164794986,1.0988814187540212,0,1,18.57497482958793,-4.4456787300862475,8.927779554560347,0.21201404548537428,-0.40722216841800635,-1.3727203708985303
370,15.17445615486601,0.9866279185491055,0,1,14.775539179111298,-4.0176839237210755,4.635999932372149,0.8259074162167237,-0.4610453111170393,-0.8748474608906577
371,14.030323481087304,0.8634784200876897,0,1,15.096650014434697,-0.861613789346315,4.493377507359438,0.3289535617084959,-0.037445979503840196,-0.24485038400442835
372,12.559279052029698,0.7392125837183496,0,1,14.85860727920967,2.095454811098115,1.3129194755717553,-0.3385605402521493,-0.961959426542956,0.07321679001879192
373,10.882757611219073,0.6241824846753813,0,1,11.87290705279209,1.1570968276449503,-1.8497862636807834,-0.37197165225275963,0.09840603232958263,0.04712887889827074
374,9.14440192341771,0.5285677018207844,0,1,8.982419699255974,-0.5091925837624752,-1.7300697557533984,-0.1011062406837691,0.4475217808643774,-0.15342695059611983
375,7.497194792388358,0.4616149846211017,0,1,5.6611304200959,-1.448616319849667,-0.49089755025464316,0.40774797592797607,0.7708407929008867,-0.15023578755108785
376,6.08880008175035,0.4308965726805687,0,1,3.3472643009313114,-1.8262994519609579,0.484348963138934,0.22884182188558905,0.2933712585837592,-0.09637731358200657
377,5.046995019080623,0.44161831369237503,0,1,3.276662275423222,-2.4954694414400223,0.7522941989578155,0.019192103772814148,-0.3684613435144999,0.10324185355047255
378,4.467059731924977,0.49602628743522004,0,1,2.999299223566939,-2.0905308828556786,0.3796184308200075,0.12627590808304123,-0.07181520248054832,0.31061278870551867
379,4.4026110027063,0.5929901680042357,0,1,2.662891596315847,-0.4829534209026007,0.04611998202664265,0.4467858189915979,-0.052482883275617946,0.3791752863363703
380,4.860803988678632,0.7278585338071906,0,1,3.60570726417715,-0.5665013025285772,-0.13781404454318302,0.39434070744627525,-0.0995846308950208,0.13366187047688508
381,5.802243514031619,0.8926692065941016,0,1,4.917064012621549,-2.712178651487523,0.12279375901751302,0.389747368366519,0.30983587967460346,-0.15951234849972576
382,7.1454026935598485,1.0767558545438862,0,1,5.49712596606956,-3.8738885855761733,-0.6361257094935064,0.5948207237133524,0.4277481066591992,-0.2663337936590481
383,8.774850388356983,1.2677217438180797,0,1,7.370595692605905,-2.8165197143804455,-3.0239072716163813,0.996666693084789,-0.5085324339278112,-0.27729032961110844
384,10.552181232802424,1.4526556832060449,0,1,11.58504817304718,-1.2403179591786402,-5.197294484741474,1.5010342786789705,-2.343501213179776,-0.22748584132360924
385,12.328292184092032,1.619372035897768,0,1,18.07807465526861,3.081804288219548,-2.4999903661202714,0.8976292257400991,-1.4520838756009962,-0.19299662411668975
386,13.955657899879615,1.7574265684760286,0,1,11.51584413948473,1.358971962551684,-0.6311784235558454,-1.169017562811931,2.5727172644148046,-0.07856210199254024
387,15.299627907353926,1.8587428514675388,0,1,9.908374107343917,-0.9401381974554348,1.1254094059434052,0.015198216800545467,-0.17390944261750377,0.21010380821179497
388,16.24839545209156,1.9178563741924077,0,1,12.50227557159578,-3.079251909690196,1.5327941733793757,1.0404318250973505,-1.329629426138066,0.3428473092159793
389,16.721708268702486,1.9319400342819892,0,1,17.380512825462684,-3.7310050009857627,3.3900720796048396,0.891111543434333,-0.6470166519412393,0.6681397048958377
390,16.67816901416462,1.9008052970473124,0,1,23.757475185290904,2.194691401164036,9.464637663116255,0.37467975361613554,-0.3331928531275761,2.033659647661574
391,16.120292813115054,1.826961155461225,0,1,8.158428971607712,6.581863493191192,6.176612860692115,-1.0202103098169861,2.394757851471341,1.4847418883883774
392,15.096064324334403,1.7156521285172004,0,1,14.741923343720016,-3.444805411180629,-0.5531652068776519,-0.2896774779368843,-1.5544277672972975,0.28166696992364026
393,13.696004236054906,1.574710495004067,0,1,19.177458521544196,-8.872862091685468,0.15874647525649815,1.2877353714507953,-0.7973229781923223,-0.08833103737080295
394,12.045472836021709,1.414097518832665,0,1,11.55698765444977,-3.1911703943588887,-1.057852987852252,1.1478553931152062,1.0648960623654666,0.1060925129397966
395,10.292713920133242,1.245122612046315,0,1,7.71788893759479,1.6878491882092943,0.549509050596962,1.280465995329911,0.04057901157906237,0.2992639346092549
396,8.593908401722237,1.079433676057077,0,1,5.892981140620456,2.903151950531506,0.9282606832043233,0.14127647464701742,0.9349799360605133,0.1397123896189048
397,7.097209268285064,0.9279295277682287,0,1,3.9594754071803773,1.1016649768667148,-1.0099415378589167,-0.09111305614832466,0.6042533550946269,-0.19611688829259202
398,5.92804822358581,0.799766412526772,0,1,3.799587096454878,-0.18575968169995924,-0.06411877495169593,0.06686310091201397,-0.3174593306388651,-0.38677215933626335
399,5.177706762071533,0.7016217636877129,0,1,4.383437685148231,-0.2150277770587635,0.3244804241234744,0.325383815144914,-0.31216594300970435,-0.45707046299275594
400,4.896377744485156,0.6373329869317123,0,1,4.480732245162109,0.8738015750242324,0.22705484587678113,0.0278641755276815,0.014353211441461976,-0.44134056671143856
401,5.091045333869758,0.607952352495728,0,1,5.214108821635719,1.6353422762862453,-0.5416738770206897,-0.14646457242598962,0.06528621879851057,-0.3729350085040221
402,5.72775430450966,0.6121717580960255,0,1,5.907947436838835,2.4669842416678445,-0.9299247568359674,-0.49574160954666285,0.3523336117211542,-0.17847296283231256
403,6.7373610278836145,0.6469912263987567,0,1,6.0202826298293095,1.1607563873864284,-1.8196215634818205,-0.8923103134479603,0.6056195135069341,0.18462487859961196
404,8.02366365485517,0.7084447624132267,0,1,6.855800852682258,-0.6599730308846654,-1.8381739372342725,-1.037356604018995,-0.18355780535749727,0.4143134943289792
405,9.472802066437486,0.7921773551475053,0,1,12.13736146187218,-2.325244843861392,-2.0571914523665895,-0.7106379193087472,-1.5286526750897742,0.3554951426746812
406,10.962891460035925,0.893716089198497,0,1,15.260714472948292,-3.116112427801326,-1.4688987075801359,-0.35599072124614073,-0.5086653683600515,-0.019589386861363262
407,12.37302097581787,1.0084047417534459,0,1,9.486334650333106,-1.5099585797402422,-0.1415293554688016,0.022268154374643197,0.259199028739225,0.04470880120242075
408,13.59113208495478,1.131131634952361,0,1,9.760297066790192,-0.3005660414822443,3.2444590703389102,-0.3145026114231615,-0.49585785101549573,0.03840221320015398
409,14.520842852487203,1.2560867275767489,0,1,8.86662126529448,1.645174918354625,4.652833325840895,-0.7295100619783789,-0.5246721467762684,-0.20087040010467935
410,15.08762031940638,1.376765160189008,0,1,15.565306268803614,-0.5513893164362698,7.626773549045199,-1.2506894206021988,0.12454124064469822,-1.2055201070225383
411,15.244461394058959,1.4863051759212835,0,1,18.909131053268133,-4.720392791211286,4.549255915182863,0.5919717635399314,-0.8382050448403429,-1.8234882261188774
412,14.976582500427975,1.5781015716095148,0,1,13.04641521877366,-3.3432629848509614,0.7974744798137137,0.9028213646809035,-0.3135551033557557,-0.3892630799326848
413,14.304125972220453,1.646559371876307,0,1,13.476580474225646,0.49234187592313805,1.911472863430255,0.43928281113318296,-0.8004480336346008,0.32177814024332363
414,13.281938783305717,1.6878515428047876,0,1,17.27602063052959,0.6158128180887391,-1.941778850163013,-0.7356857941951077,-2.5245846507533125,0.13068350322005426
415,11.995905302007115,1.7005558979962923,0,1,15.433583183446657,-1.7116442819380107,-3.630899372298447,-0.14604934988681254,1.7715324318514445,-0.32359365756354347
416,10.555831388996209,1.686034225381454,0,1,7.893582168629507,-1.7815712212271617,1.1161421610747837,0.6578414152289331,2.6542945952355645,-0.34308732267411385
417,9.085463886760799,1.6484261799858668,0,1,4.094999389010661,-2.368676507198445,3.0317381873116616,0.9388881673968029,0.6521672490204181,-0.07059983400210638
418,7.710884046794585,1.594217199094115,0,1,4.573040979018625,-2.7354846727850477,2.2269329682079895,0.4441559807414872,-0.9724133092849007,0.18674127166103638
419,6.548924431284505,1.5314786607220754,0,1,5.968279942952479,-2.486181711643922,-0.08030024399511992,0.6034045431886648,-1.2612851443265456,0.28159180523936783
420,5.697107128617593,1.4689797543658656,0,1,5.3122410535505065,-1.337323402696512,-1.8354630459260735,0.9069933230452673,-0.6731112266353153,0.17107448991197888
421,5.226000055308652,1.4153712783137689,0,1,5.206753491449176,-1.4997856900546576,-2.571729160940451,1.338245269558722,-0.10752615744190208,-0.02239776493571449
422,5.174263379691135,1.378558252979317,0,1,5.3761912536646,-1.6218518258870422,-1.6564760968913252,1.4116907934700753,0.5579140979629349,-0.13555180818763887
423,5.5463154466780775,1.3652727386009524,0,1,4.65538489076585,-1.6819970589972344,-0.7034121680030528,1.2857259024590533,1.0208229947047616,-0.14102326395715567
424,6.31249927970462,1.3807813960466524,0,1,4.0321552222288775,-1.2276442500455762,0.10468719300695929,1.2174475632561896,0.27609457698526024,-0.08374305034739378
425,7.411704185981967,1.428634788086159,0,1,5.736600667265233,-1.8060232883096625,-0.4422391557261767,0.9112669282016853,-1.3143979467175835,-0.08639386117439737
426,8.756381163271044,1.5103823380976997,0,1,8.746057634955665,-2.309705740187943,-3.190013537016432,1.0961824956779038,-1.6277675377951952,-0.16450588948374575
427,10.239671253530348,1.6252203408475903,0,1,11.412870426581419,-1.135541182959721,-4.732971132971852,1.7649570744134353,-0.9149028244319362,-0.17505587269163514
428,11.74403716208488,1.769601393601553,0,1,12.708833638286167,-0.3819276458846433,-2.0535343124183836,0.9004143184043034,0.6750885248351673,0.008160474957969404
429,13.150598523975745,1.9369118857135244,0,1,11.237359448323135,-1.3004122092029182,1.6842140421181853,-0.008514627853195733,1.744899049299828,0.42000436999650853
430,14.34846725817223,2.11739608306682,0,1,10.597450718829558,-1.9205798544508885,1.7535002520674325,-0.11705527354551404,-0.6597171365993424,0.6774219454633194
431,15.243604225724063,2.298516738161214,0,1,12.687614052489785,-0.9096813433328633,-1.322974472686898,2.1417453594620732,-1.0955656459272487,0.4191967295300199
432,15.766731942107821,2.4658560375036727,0,1,23.57149908117368,4.915939257731958,2.362852902240437,2.961152132395949,-0.2732353580866594,0.5021443688459823
433,15.879527265470324,2.604504039849176,0,1,22.27518230765769,-3.1529624912077665,3.388293187837017,0.07515601582901466,1.4807942411471562,1.1442050843374982
434,15.57807064957765,2.700731934810814,0,1,6.039225344846717,0.34825052959321906,4.609058822737362,2.003413548415451,2.958116949847969,1.2236270488281318
435,14.892873266974652,2.7436687342982893,0,1,10.569229909175183,-0.06602871787451851,5.5458757681717525,1.8383780598392425,-2.051528620815473,0.8232519937450853
436,13.885653895414928,2.7267045747823238,0,1,17.264987073882462,-2.0713301224398,0.7343020030585564,2.7736510401463326,-1.1001810826829252,0.22047467058446377
437,12.643661601545004,2.6484142605594285,0,1,13.63545098457769,0.8783539806204239,-5.457697105335967,2.5421489047113077,0.7204798336506558,0.12724674875712655
438,11.272319635729929,2.5129075276283297,0,1,9.957681152853713,2.0089351859004845,-2.3575093816441233,1.8871769853039315,1.4420905235459058,0.3303003780823465
439,9.886703438611239,2.32963029888877,0,1,7.340116778263986,2.1573223294727044,2.449566879679658,1.6142484480442592,1.3534100018448822,0.46855196629964735
440,8.602360500032905,2.1127209945939733,0,1,7.187601389958114,0.875881094690948,1.194798151300085,1.57103880671431,0.13075768507218277,0.4326403942533834
441,7.526144973727789,1.8800455354105579,0,1,8.75506882887623,0.49617208770972804,0.18773563568290882,1.8911259968900105,-0.020171373770002707,0.29066558243012197
442,6.7477321993046155,1.6519979356899175,0,1,7.8030107298406195,0.6537889839655661,0.1673059050183318,2.0733337700927033,0.16702946827111048,0.19487202683150132
443,6.332266598809994,1.4500868089806656,0,1,6.47703713945012,1.7519598106897099,-0.10927160846497606,2.080939116826089,-0.2108911872362079,0.17134796441866607
444,6.314434721356868,1.2952818180854566,0,1,6.408214495210969,2.2543677071351156,-0.3819999284803521,1.5680383688177328,-0.4508926209395911,0.1967769478141319
445,6.694315324534884,1.2061206317742197,0,1,5.4604551694308725,2.114423917433889,-0.9851575533121517,1.0070365051652574,-0.1455104491914693,0.32263891103652304
446,7.435571314495036,1.1966860717739445,0,1,4.976632292837591,1.914409030385812,-1.1383518834637298,0.6816525358421925,-0.2925264005164762,0.459338969735316
447,8.466719097216796,1.2747027590697086,0,1,4.845888640626295,2.2715350928139943,-0.22981554218880376,0.7283002349811463,-0.5736085271659922,0.5292718924132083
448,9.686156548078083,1.4400969195213569,0,1,6.335963355717784,1.986341191098931,2.058958397955766,0.7729019239773024,-0.49199045099000915,0.4817459150323759
449,10.971230847402747,1.6843686565744005,0,1,6.064283184969281,-0.8801798446100824,5.01433411437052,-0.13638772807287583,-0.3457515309122119,0.5049914795808175
450,12.190866124461675,1.991042118614682,0,1,12.631469243949113,-8.159862763897348,6.882606421535138,-0.598926797238386,-0.13006471861517116,0.19865480133192207
451,13.220320791770327,2.337291844419763,0,1,19.070429994955326,-7.619690137566844,3.789631709778095,2.5872506676487834,-1.438066111903642,-1.1702142635368324
452,13.955912104485023,2.696600151476096,0,1,10.821154505807446,0.7310125114902847,1.1773952156793581,3.690628624220294,-0.2234162352244793,-0.9645021817554592
453,14.327468962196338,3.042039286999058,0,1,6.548829732320539,3.307099419539844,2.0161510215088287,2.0555636279390455,-0.169000365827548,0.28506630789949516
454,14.30684350560507,3.3496070513094396,0,1,18.665615860656573,-1.7973812105680245,-3.8677652251860484,0.18319879578984172,-4.85545630067928,0.5120577698014633
455,13.9114514976334,3.601041233250717,0,1,28.28072858261912,-5.827206603243847,-4.5328026143581885,1.1020690493166596,2.3183203935316947,-0.09030360571983229
456,13.20213944796751,3.7856499777294754,0,1,5.4600901409423805,-5.358498381034256,2.4215645925945415,2.276456019657375,6.654212841735849,-0.1630282848476738
457,12.275130789379128,3.900853829492713,0,1,3.3221902560296996,-1.4577630553882304,6.618917242980761,3.1317247992984103,-1.813542039889431,0.25560517385259796
458,11.248888128049613,3.951348365039487,0,1,11.863221362844673,-0.7009762402595195,1.8107531357439224,2.7194546563371396,-2.720416989338496,0.3853414811922962
459,10.247993780205467,3.9470931454236706,0,1,8.840268601429674,-0.8682550012947804,-3.4661752094428215,2.858356593511366,0.11007419718028194,0.36696512474867427
460,9.386718518257563,3.900645984974588,0,1,6.764893729020883,-1.3416508974720138,-3.907664164947828,2.6225310754019455,0.38347506475524434,0.24294996755319334
461,8.754684591325603,3.8245370250190756,0,1,6.541659713794632,-1.233523029715497,-0.011909783414603888,2.9660134635649924,0.9318490338316838,0.1927774707108256
462,8.40645378909955,3.7293113889101424,0,1,5.353451379954366,-1.897656623079474,2.4105778743892796,3.0030281133300196,1.0406815265962623,0.17925484199308034
463,8.356298823846835,3.6225962445735966,0,1,4.526399599010192,-2.2945162884062564,1.7703781714711941,3.4789202888791944,0.03581433604479712,0.14356866698105647
464,8.578769512003635,3.5091921152515253,0,1,6.643206579812773,-2.552861879988433,0.67716558980857,4.209342037208837,-0.5682761513635477,0.12328821848476731
465,9.014846317927384,3.39187747094554,0,1,9.08112696648493,-0.8480785413094244,1.5596163467837814,4.506770086884258,-0.05937286428298432,0.3514726836524962
466,9.582558022108037,3.2724429018566394,0,1,12.068000888106413,0.8030844005740189,1.7920749097160458,3.937514422362745,0.6228154815295688,1.0628120585126997
467,10.190144597892985,3.1524871019912544,0,1,12.682049474249167,4.728517236156303,2.3525955183073375,3.0268108050441818,1.0285177041256843,1.679125966329546
468,10.749441159679423,3.0337025995089997,0,1,10.575228182221803,4.875430981617671,1.9697505504901314,1.5942201284768234,0.41104601451649064,1.350029824212783
469,11.187317958297905,2.917666685070573,0,1,12.814840992447326,1.2962630832588762,0.7108344899160957,1.7883492001001462,-0.7847718826135315,0.5903161201781748
470,11.453667923424158,2.8053898318606936,0,1,11.446518782152712,-0.34850306148289023,-0.8075273194928247,2.395455393158096,-0.8383178039189155,0.19816316288561503
471,11.525303633799707,2.696944231608366,0,1,11.652381709105917,-0.39678429045769487,-0.14337744391659915,2.4809914222885108,-1.3635666041053325,0.2671771917233394
472,11.405907511263448,2.5913910494802685,0,1,12.112573892006175,-0.5960522640846077,-0.8082477060771343,2.397297729766436,-0.49907965869839427,0.4541643918822303
473,11.122722177317597,2.4870455382281538,0,1,9.520954154541045,0.07134632048378278,-1.30569903283977,2.591676759906261,0.28104778033498,0.5998744311128819
474,10.720971694127623,2.3819771120298228,0,1,9.017291853629144,0.912709166032168,0.491931422239703,2.5465018582821677,-0.11557345944892121,0.5841112058670618
475,10.257104468243805,2.27458204439537,0,1,9.72815430665046,1.9122411753752393,1.4101007605869338,2.467643181981276,-0.03740349741772354,0.557146435714724
476,9.791848349858789,2.1640754447399355,0,1,9.523069853035244,2.487515950058824,0.792388155695475,2.1735231593893807,0.007498742090782476,0.5514941086675702
477,9.383794600112248,2.0508007172207257,0,1,9.299804124494727,2.709390217820697,0.4094439190358387,1.8819365142619269,0.04743568763889459,0.5249395398868635
478,9.083900628901205,1.9363256445796355,0,1,8.987557764095136,2.2237378977231588,0.5161653724491189,1.6530109656127874,0.18131544728090024,0.46846819564308884
479,8.931072609160251,1.8233562813566755,0,1,8.76845074114035,1.3617224204254086,0.833765797669089,1.5906764854013797,0.07007054766477679,0.41309012303365994
480,8.948913904575653,1.7155263595211196,0,1,8.618552106917315,1.0868699519505,0.7591944839063209,1.7177290674232948,-0.2501581285858564,0.4320026200551576
481,9.143747388867748,1.6171041217307278,0,1,8.483832452093623,1.30951708080517,-0.21658368175760878,1.7356960761519036,-0.4635014820999013,0.5082563948386237
482,9.504049500247746,1.5326213057078755,0,1,8.701215063651787,2.023304537504154,-0.9743025008180277,1.6061774610790978,-0.5443666578821859,0.6065047892969685
483,10.001408676862983,1.4664068782840902,0,1,9.226529139115344,2.892879280717198,-1.279164617629236,1.3592986486944254,-0.5160822802935271,0.6518719487194023
484,10.593020684918704,1.4220272994707737,0,1,9.640779184490933,3.642974942133711,-0.7881450521337218,0.9642717570335312,-0.4262619626330039,0.6345910011405327
485,11.225576998518404,1.4016902920814587,0,1,10.113176884928652,2.8810813216034536,-0.5147486716780011,0.5076033895992359,-0.6443264313238263,0.5421453757850816
486,11.840225814958124,1.4057243967985202,0,1,11.453776264809967,1.643538925217363,-0.04652330029772053,0.5906936985669413,-1.1459107854168922,0.3539822942085129
487,12.378114231000657,1.4322612098415755,0,1,14.346681931105582,-2.333046330247837,1.9091239351754372,0.4026525560648705,-1.3695946809737594,0.020793485956903567
488,12.78588294262189,1.4772080795296822,0,1,13.160059618383103,-3.94913286647394,2.2754060442992956,1.2067747564251172,-0.3664707592350047,-0.10232645912526786
489,13.020455286290998,1.5345295280381168,0,1,12.243191292513533,-2.0443011736588916,4.040823061453975,1.4943870146270857,-0.6278189169695074,-0.18158202030702175
490,13.052623536431364,1.5967899228302636,0,1,11.518817722492228,-1.1335397728027399,4.725468427349823,1.7300349778663093,-0.53928096553806,-0.36097027466608506
491,12.86925365480501,1.6558673447968482,0,1,10.518561770500575,-0.8606641985798047,3.4971549152771484,1.630668622499324,-0.767098269186976,-0.2747700752321834
492,12.474222822760126,1.7037364571449827,0,1,12.201448007877264,-2.9304503982223937,3.0546438032364827,1.2513718740801796,-0.9289796546241074,-0.1113054424372193
493,11.888294743907737,1.7332375910004412,0,1,12.092272480319513,-3.4023118672136294,1.5391355442301364,1.3486835757969702,-0.38567803754451213,0.1230491087628037
494,11.14802315175339,1.7387839963435687,0,1,11.810563543752671,-2.627754181490537,1.1257554095050826,1.7716878641863434,-0.31493420270507255,0.23012555216949662
495,10.303621914800296,1.7169775050687714,0,1,10.314373660164478,-1.298822807108275,1.3248003283161986,1.8101309207570808,-0.10950863704399331,0.03240084001953263
496,9.415723571677754,1.667088511619412,0,1,8.622173180517196,-1.2767620934361619,0.17072387762424393,1.724082650031034,-0.3265607542844971,-0.10281621568604055
497,8.55108969513585,1.5913281909003676,0,1,8.662677489372347,-0.6472847313022327,-0.96260297830533,1.475023882079476,-1.13999526702348,-0.052539541010866074
498,7.777519069469241,1.4948318661213449,0,1,8.761439063489094,-0.42919271193559233,-2.2497389785175725,1.309250401793079,-0.756523433960337,0.059510528368524225
499,7.158320273706239,1.3852969590920263,0,1,7.378131452028489,0.3725545338486215,-2.174513299119469,1.4924769894758714,0.4353800349648082,0.09576066543353459
500,6.746794572494723,1.2722690297094175,0,1,5.399453337000097,0.7115545636385027,-1.1263288900785295,1.3600090139515495,0.5811373341578041,0.04862887760476096
501,6.581285874428717,1.1661302513625724,0,1,4.630782499319988,-0.032775389738279995,0.0739760347992344,1.0337643917284443,0.44907752070266455,0.02459395981846159
502,6.681465236912155,1.0769056882048598,0,1,5.081377304136196,-1.2956764750782241,0.7170989635933089,0.562670047713389,0.4462594513636168,0.08706753718719538
503,7.046477119617836,1.013053441580847,0,1,6.42320198071464,-1.921232595129678,0.33125356102051634,0.5580509466666707,0.2527135806914927,0.19036345074301778
504,7.655282233851299,0.9804254349873655,0,1,7.525027170339123,-1.3452271291693128,-0.4496631937272421,0.8335632954144254,0.14013216307483456,0.13713190121599073
505,8.469069225071383,0.9815560292313805,0,1,8.83550786087875,-0.837104828219691,-1.5246075492562683,1.0718954061201798,-0.4247210920697089,-0.006763447486405262
506,9.435174434219098,1.0153611894000303,0,1,10.62489879424035,-0.4528900219341763,-2.00221775300138,1.0183452281168877,-0.562648209829246,-0.0556057211130973
507,10.491708430376015,1.0772497121043285,0,1,11.542700760950563,-0.6651386268804017,-2.1411770665057217,0.7540622064339887,0.14963277570178116,-0.09259740923931019
508,11.572097552127339,1.1595987447185352,0,1,12.07833759123609,-1.3184169523864153,-1.6410030606772046,0.7533332730067988,0.9138257605486584,-0.1373655288387363
509,12.608984464057453,1.2525316075244115,0,1,13.067253470851245,-2.0092489352771876,-0.3672979488079146,0.9684204941528748,0.7244069243292923,-0.12924450833596093
510,13.537312607750144,1.344930168617585,0,1,12.394613536718099,-1.7921089984512757,-0.7660136662571989,1.1259047516903196,-0.18416760067270652,0.028390145467494403
511,14.296815839197079,1.4255964251557411,0,1,11.194370243454289,-0.4982537052648689,-2.497234582100769,1.0334423677992872,-1.2254732237541264,0.14303685169649102
512,14.834389258692354,1.4844512007144186,0,1,13.120242113632393,-0.2556575266358445,-3.5251409618610703,0.826627064370667,-1.5291372864763895,0.14408922458967832
513,15.106796363115189,1.513634996334604,0,1,18.662589751440706,0.5672735641530205,0.1123376324056582,0.34637868041523784,0.08056300580653883,0.3185131736449694
514,15.083868496132384,1.5083656298536259,0,1,11.636636846584373,0.883100559579851,4.669752508658772,-0.44871786825657584,3.9188034113812695,0.15584027342720955
515,14.751966893646157,1.4674150165959778,0,1,7.907618663008159,0.8847101574852508,10.869454596468065,-0.17491522102499316,0.3104222702634814,0.2221132747906127
516,14.117220948894303,1.3931110560484383,0,1,13.550779836711614,-1.2452290817398952,8.105514273652382,0.05004672606813869,-1.7871607233887241,0.5150481886476672
517,13.207934538009344,1.2908686756167531,0,1,12.934675153593439,-0.8071386409346603,1.8117962793354707,0.042432071238887106,-0.030792110823882862,0.7347789362399221
518,12.075453471394603,1.1683780891088094,0,1,14.702383543659394,-2.584451973423278,1.9331766833840294,-0.237143351356774,0.02812827617327139,0.5994321833175433
519,10.79274627144858,1.034654170016261,0,1,12.887425616606317,-3.9224648261404407,4.266933907303425,0.07731265991394422,1.2756497428180829,0.24943508554365043
520,9.45014179701186,0.8991344934492035,0,1,8.691039756384354,-2.9966245651774557,3.0599258091130204,0.41136717018364005,0.6782452260333534,0.07020217475859461
521,8.14818682182216,0.770932626383245,0,1,6.74862186414794,-1.537851617703668,0.3050993439363532,0.6704335672406369,0.10391153513683876,0.14176557118880234
522,6.988321263294665,0.6582674144950046,0,1,5.061018521602154,0.03996758704519794,0.02371777809588891,0.6645604115229928,0.2355027788211911,0.22659507433402223
523,6.06272049836358,0.5680354628009613,0,1,4.416895709451488,0.81987173903255,0.05984828398743439,0.6226730382403972,-0.32652977582500253,0.05438117416015068
524,5.444920089145416,0.505473917018229,0,1,4.00934299762017,1.0611342218488498,0.26677158502822335,0.6057357548000574,-0.5553344106965695,-0.16002985695632138
525,5.182631747820948,0.4738653231692407,0,1,4.238586060524669,1.3960063028424459,0.024939987293856786,0.2118258491526694,-0.24454132143721627,-0.36751536650004807
526,5.293638398803739,0.47426643162710946,0,1,4.615612340407229,1.2888095349633497,0.161582842016752,-0.022348561464448725,0.04711537066012493,-0.3937885680746391
527,5.765054067374125,0.5052947563579319,0,1,5.307542380590408,1.0118505084304321,0.5301118450249483,-0.05931431212930098,-0.08186547393961263,-0.22935410831813702
528,6.555711455993329,0.5630572084440942,0,1,6.837568101600738,0.39711242583954637,1.2652135425432873,0.040989824949416734,-0.18457438111726918,-0.05702074515883423
529,7.601060544786705,0.6413218073020576,0,1,8.287531014878853,-0.2434896972471626,1.3583942131464217,-0.4044267992880074,0.11369351106179322,0.05249198065439524
530,8.819738890254888,0.7319977614902199,0,1,8.590923782401365,-0.30500721722215274,-0.15638265543775873,-0.6182906000824735,0.12483859363800576,0.1473501544051554
531,10.12090378703945,0.8259088170754629,0,1,9.541821532094733,0.5178686506766704,-2.3506864515528423,-0.9972098606805051,-0.4601310558384473,0.28180117374089486
532,11.411463101794775,0.913751543003058,0,1,12.56251125664425,-0.06720823532429306,-2.5386175510603652,-1.1058749049359964,-0.7692803415238672,0.3696322579799649
533,12.60244677324486,0.9870680900575438,0,1,16.779058249798386,-0.2079958473886155,-0.07030019000449106,-1.230356866036801,0.024812796469773146,0.17887021657898125
534,13.613930568805891,1.0390667305947534,0,1,15.157107569034366,-3.6891240545000663,1.649300984253846,-0.6198912576481463,0.4440949819774092,-0.29769789198875984
535,14.378277086442612,1.065192635660925,0,1,8.556165482917443,-4.815849192180048,3.2777040098471133,-0.0021905042910972815,-0.39685407260124306,-0.25447127932588026
536,14.8420555151491,1.0634394737079127,0,1,10.55014683980405,-3.5312546305754484,4.44111226097103,0.29805692320032745,-1.1648287229212757,-0.4556825428743269
537,14.967595913340059,1.0344378211267151,0,1,10.602855932445696,1.2340883235882338,3.1495088965578626,0.8991040915772087,-0.828959477100199,-0.6423141535305505
538,14.735267874605235,0.9813397378885531,0,1,11.11916190677061,1.2912932384160012,3.3240409636420924,0.29297314855592177,-0.5073224650581469,-0.6890144467449685
539,14.146998059257946,0.9094828195085769,0,1,15.32470344479582,-0.9490241781879933,5.047022399845451,-0.06342539125831617,-1.0851916275382394,-0.8147388189859387
540,13.230466642896417,0.8258160418260172,0,1,16.68338728788201,-2.943139373713901,6.119085719105065,0.22281722073926408,-0.1500295730220362,-0.6636220620886251
541,12.042382708541052,0.7381154220629987,0,1,15.22677207571215,-2.2511059341325566,5.970137335016378,0.22696790136885941,0.6738178506298129,-0.39971710481987016
542,10.668793506364626,0.6540833732759112,0,1,13.414965713723644,-0.32330168960048733,2.6292212303513702,0.19450482665936294,0.08405180761863343,-0.07570252728050458
543,9.220827648127141,0.5804789412716644,0,1,10.683092420876944,1.3885329880117447,0.2129591722243793,0.3074401334548544,-0.21176451908297506,0.06319282959317095
544,7.825454976264399,0.5224416260778157,0,1,7.096772007836379,0.7180308130147899,-0.7721400501369399,0.09894211588973881,0.33669171021232036,0.08166844091014314
545,6.612271159192977,0.4831372758891171,0,1,4.164763952453897,0.03425537626837014,-0.8424624541606237,0.1258629484722328,0.340957752201277,0.06936441468362374
546,5.6984621372860484,0.4637802521423123,0,1,2.39447969610924,-0.3279493529361005,-0.5363623101117024,-0.081771735128026,-0.028812619535751816,0.04983212852536175
547,5.174648123857823,0.4639961674580553,0,1,1.3902795220075868,-0.970348196811876,0.08344423595623394,-0.35928918001778937,0.6807152798037691,0.036722577096792455
548,5.094153952815844,0.48240628432181876,0,1,0.5356487907735249,-1.8034979635407078,0.993075437904889,-0.2669504291462726,1.221677552127947,0.04834290747318927
549,5.467493416767449,0.5172586769564043,0,1,2.4132322234805734,-1.8173666843343999,2.5167363671099565,-0.1695834894615353,0.11946020614909852,0.09852631120553024
550,6.262714745462543,0.5669278408170589,0,1,5.848687563486501,-2.4298653758259094,1.9700145730583347,-0.08860430258596806,-0.5867849873294408,0.08844307169289647
551,7.411029601339355,0.6301601631206388,0,1,8.594850946418335,-1.8842619011132784,0.27292759430228175,0.2738455225234194,-0.6566351955511688,-0.012624860323497047
552,8.816142599496285,0.7060226495466242,0,1,10.656088952032075,-3.2119370058187133,-4.859245370610975,0.31949040290837644,-1.0322233890740682,-0.20565159215926446
553,10.365155967628121,0.7935755184374897,0,1,12.00118765759599,-2.4375498464085825,-6.4743074858246015,0.9362812480641157,-0.35419016958865945,-0.37555346600657674
554,11.938972593424232,0.8913371693888099,0,1,14.468107755060684,-2.6094686098233346,-1.9557547448364179,0.37575197339754157,-0.21260520197819,-0.3921057032297899
555,13.42074577553618,0.9966681327355754,0,1,14.708848418202916,-1.410657837603212,-0.3880249919082383,0.6669918216781341,0.5175284367955698,-0.18681257134925844
556,14.701956612938485,1.1052643029036733,0,1,10.37996372398,0.7547243756128317,-0.5015915238090481,-0.017835820667243086,-0.0027488464063931965,0.15438604177106782
557,15.686805710016024,1.2109761313769754,0,1,9.58632051572757,-0.5168381303898572,-0.4525801031207524,-0.11591323547934243,-1.1742540785298414,0.18902562756308347
558,16.29631927990109,1.306120290672767,0,1,12.99095179055198,-0.047629992151845206,1.187489878787099,0.791347682321046,-0.8709462043265752,0.3775204743542748
559,16.47347398502854,1.3823270151945137,0,1,14.062743783692282,0.544754067327382,5.086179638738933,-0.07670835318631358,0.05599306661539764,0.803538882162398
560,16.189680953525293,1.4318139423318361,0,1,17.435641448997142,2.460525263099232,11.831058726544427,-1.0374166018562534,-0.46849804507805093,1.5049081415057883
561,15.451596071431071,1.4488448795443922,0,1,13.361877023163352,3.861431462831287,9.398323856119017,-1.7208477816869985,0.944649055246149,1.5187810776905828
562,14.306162840262418,1.4310533105393983,0,1,16.28547635396509,-2.184879398727164,0.9693471579042914,-1.2084869561266238,-0.45301897677991176,0.6887194172081356
563,12.841541938695292,1.3803140949672361,0,1,21.27910430427546,-10.708124914325083,-0.130507552382334,0.1526261968518694,-0.9706488736456762,-0.29147506006804375
564,11.182190868129544,1.302941038099554,0,1,10.991585529538181,-5.850522686631303,0.8861588496277492,1.1851457050074456,2.0676582309894123,-0.4146804121985612
565,9.477644258074584,1.2091316716011014,0,1,4.240875729569673,-1.8885250978044978,0.23979620705214313,1.0734437653233082,0.5384892314471228,0.018664221728901288
566,7.886228322095663,1.1117201359616642,0,1,3.7723944825688824,1.5014929163905273,0.4780493711736665,1.0968368360324496,-0.516439992182696,0.2650431074083938
567,6.556469284788943,1.0244241544376298,0,1,4.444449960926937,0.2544970728890842,-0.3535301300151884,0.11957004427987894,0.10401394717108114,-0.006183849394349137
568,5.6096309291463635,0.9598841152705566,0,1,2.254986892362909,0.23936672907792822,-0.10062475224492366,0.7027480585161383,0.22422968765556994,-0.22624700500932526
569,5.126395220643324,0.9278526747804714,0,1,1.7730872188358893,0.9443946710961174,0.3296810393592446,0.3597975512640877,-0.27166446293478336,-0.4089203935797164
570,5.139566668706119,0.9338591494797684,0,1,3.5573716228567944,1.7631518109753541,0.5660228237382958,0.6008799370462207,-0.034249008722035644,-0.4269668972976459
571,5.6333575529169595,0.9785566911012276,0,1,4.907248494205336,3.777630618186322,1.1023183417779203,-0.12220854548824471,0.6937870050596852,-0.22697751272453237
572,6.548596289708123,1.0578151361046808,0,1,6.316798109966309,4.3693971625404835,0.5238277422478143,-0.559535207295352,-0.07969097332330147,0.09139952181525894
573,7.792269965435401,1.1634870749713528,0,1,8.932670500199077,2.8735807267831746,-1.2466618958722473,-1.4638962648425249,-0.5476399112561224,0.39870751524136383
574,9.24931808889251,1.284658606290883,0,1,10.184628371830515,-1.4334984413486553,-4.716149801705866,-2.0148141173846383,-0.24334827535876785,0.4940935458260555
575,10.794591630993455,1.4091141413942772,0,1,12.113743397991643,-3.311348460221794,-5.963425097185737,-1.606859061093487,-0.5199767447173762,0.30802524257231867
576,12.303310516831887,1.5247346318939645,0,1,16.590557030898122,-4.861843402717798,-0.2439943911995323,-0.9945723481181316,0.714284178816682,-0.06066843974196609
577,13.659101166470416,1.6206308634674342,0,1,8.782648193027557,-2.944073469649672,3.9991558621952605,0.020928123991827013,1.537528809355748,-0.24790613959458382
578,14.75966461704745,1.6879439108012588,0,1,6.8545955379010115,-0.014803952915145373,3.309942470009799,0.01974370887507932,-1.9561247950224907,-0.04397063903390489
579,15.52102283823396,1.7203477669365714,0,1,14.174704740766884,0.031825045457485976,5.159558693295416,-0.932552379418988,-1.4043131275713514,-0.39053171038047124
580,15.88162045173437,1.7143334349039658,0,1,11.461073874168775,3.256026948092702,0.30315175977544845,-0.49495788519586364,-0.3484711298989518,-0.7326504561456608
581,15.807021725555117,1.669360085804947,0,1,16.65195049483567,-3.39219811304395,8.457185016444065,-1.336070661705688,-0.022260438957127215,-1.0529521716136758
582,15.29482255859214,1.5879406434138839,0,1,17.02984430400169,-7.048076490258676,8.219716726477563,0.4423871809929616,-0.2200159052904982,-1.496519743280978
583,14.378377405189783,1.4756764384328511,0,1,13.433863401463848,-3.791379132281027,4.067335360632064,1.2865351442155493,0.06604560396051455,-0.7506446728117355
584,13.127579384507388,1.3411784004581504,0,1,16.251252597030703,1.9053085340196134,2.3561576088539953,0.4340994044748182,-1.8992668683290301,-0.004767536585112703
585,11.645345785813436,1.195753634981349,0,1,14.698187108771288,2.66720398732906,-1.8444952861728752,-0.6318181891894883,-1.1093595141004928,0.37642734489519936
586,10.059390131133503,1.0527349911574693,0,1,9.494910927323597,-0.23203539426321912,-3.374778374225097,-0.8946468500807514,1.1972066339750613,0.14350965198403035
587,8.509958263194639,0.9263954643532356,0,1,5.717607951655394,-0.8168559360671493,-1.4878784738652553,0.18578069249072496,0.9758883439329901,-0.07725001479680554
588,7.1352111196155334,0.8305000052379411,0,1,3.794331052085944,-0.7209413794600978,0.7548456249383292,0.6866667153373343,0.34494825653295835,-0.07775749800533856
589,6.056597535637531,0.7766699462953083,0,1,1.9722771521573141,-1.2246875973116471,1.5235966522387598,-0.11513869820626961,0.2386440803282701,0.028889165195674513
590,5.366618863966123,0.7728298560772974,0,1,1.742531128374687,-2.852452831558091,0.8761042969971828,-0.3732466920272241,-0.05372123357000645,0.18260433689614308
591,5.120787948318663,0.8220380411487348,0,1,3.06598651514429,-2.2354878933766393,1.2503383341456094,0.12996436523428834,-0.31233609276713886,0.24511424765395198
592,5.334566812963652,0.9219522553786345,0,1,5.009651159248227,-3.5413492385642757,0.8650032630985586,0.1536385977702717,0.09602254850804752,0.09890941047545979
593,5.985003477480081,1.0650594784723486,0,1,5.567259783999595,-4.777715742602065,-0.61298683802927,1.1872629987718526,0.313153966865132,-0.08160394363125328
594,7.0159907251551425,1.2396323938231837,0,1,6.120301933845642,-3.437391850108118,-2.524788019050357,1.7311036224856766,-0.02979400235782262,-0.21785261251982965
595,8.345692483567678,1.4312105878216628,0,1,7.7839708094211115,-0.246007207556918,-3.928826971381823,1.542042390793736,-0.7606436086074543,-0.2833478421773097
596,9.874699080991219,1.6242985698334584,0,1,11.33902717608364,0.40664707090000074,-3.7166638769019293,0.9744364049627321,-1.8112364230488243,-0.3114284965928712
597,11.49373700294203,1.8039675595878744,0,1,15.024993503599553,1.6851986709042244,-4.644631787807757,0.5934791506531218,-1.1348358689967544,-0.4011802534341149
598,13.09017371732047,1.9571327585034435,0,1,14.426844536735338,1.7003883613904396,-3.1047840454193447,-0.4460694686319956,2.7237804588188546,-0.2347549160572512
599,14.553155689005386,2.0733971770651562,0,1,8.686410905203545,0.02448707510748705,2.300712408171174,-0.6783586886880141,2.3395711286882213,0.08048327033054709
600,15.77797370110302,2.145463360984895,0,1,9.475961576066362,-2.560234557255343,1.9762732381345365,0.21046129691745327,-1.0924129976159709,0.12589726241141871
601,16.67082481026983,2.1692088758568877,0,1,13.31576753049634,-4.6469939761100685,-1.49142303022336,1.375534129227849,-2.0074905671371135,0.2609255327537304
602,17.155020865046843,2.14359055071497,0,1,15.042643875007704,-2.7105473261910995,0.29760454846389606,0.64956689134619,0.046494609162302566,0.6223266947380395
603,17.178725306973636,2.0705463788050715,0,1,22.2340534370347,3.972152544539399,11.722127512343068,0.1160767791620046,0.0798352391102934,1.8706100815097588
604,16.72298094258908,1.9549745455292893,0,1,12.083143450171473,8.16371019129642,12.606889640413376,-2.1651052689087886,2.376863707271057,1.7056035283545572
605,15.807928447146917,1.80472164893143,0,1,10.7972203488689,-0.5633196962754982,-0.6757382466008,-0.889456927721035,-0.15454774300980928,0.5390522990388786
606,14.495168069026654,1.63039727004489,0,1,22.24430695184588,-9.322141199792929,0.5670408353851154,0.6039556149715033,-2.1825574408515354,-0.1725498827337058
607,12.884982814292288,1.444825176082102,0,1,15.11391627696169,-5.217162212641114,1.4954717549240257,0.6516882295986075,2.32710334698153,-0.2305144749157111
608,11.108152397546911,1.2620409330271163,0,1,7.362571035889915,-0.2885647796675984,1.0309605347103812,0.4726314223034538,0.835659037819409,0.011561868325639425
609,9.31314969606195,1.0958975330965202,0,1,7.25192667648017,1.612863605334898,1.4968485256020465,-0.06926829519940092,-0.016673256468347688,0.1917570271665936
610,7.650546689250471,0.9584924391371066,0,1,5.406000098016041,1.2943065967164378,-0.69475247813038,-0.24118114339799437,1.0083568442905284,0.0423024023543224
611,6.257119696376531,0.8587259896957483,0,1,3.7465910813134773,0.12407751956704845,-0.5207398784461859,-0.09390825131066094,0.15136540134420684,-0.2160184630549461
612,5.2421044496406175,0.8012923113498929,0,1,3.71304195822937,-0.6072539779469609,-0.08650977593661081,0.19815020382968263,-0.36784638520421387,-0.44627222659880805
613,4.677415740114293,0.7862970796580807,0,1,3.758846668658828,0.3552717056609529,0.04380899983623221,0.13394651046543568,0.10237973471455564,-0.5517952252306054
614,4.5927759341003345,0.8095500783074071,0,1,3.0156812564829356,1.6248922329574402,0.6781427492968464,-0.2667734891384139,0.9307195518234294,-0.40478602128545277
615,4.975855534114241,0.8634452195873925,0,1,3.1452498381821274,2.9486866576552164,1.8274338220452404,-0.6404605510109914,0.36767734354954956,-0.1713268191368615
616,5.776828011178219,0.9382410129074991,0,1,5.166161799170175,3.9590482247837255,0.8193705822416719,-0.7456499858576677,-0.428373064121644,0.08432267457448066
617,6.916221900691602,1.0234994483429627,0,1,6.964748460544658,2.8577133026311836,-1.3955377050625257,-1.4465631775052425,-0.3501481022345172,0.2515272154935252
618,8.294640020046806,1.1094272988002276,0,1,7.373923775654754,-0.6793658964691632,-5.212228083032936,-2.0036833038808832,0.1467053997619091,0.3287829142030002
619,9.802830904985031,1.1878907214222958,0,1,10.491129755761724,-5.0081931769175245,-4.594637193785845,-1.490496144580471,0.15724119060660213,0.4076480421772403
620,11.330751112825254,1.2529601479381811,0,1,15.002844127108018,-4.278344481086759,1.4081887946528495,-0.43263322371588736,0.299901238156041,0.024207915716587054
621,12.774659500437018,1.3009900249013164,0,1,11.015390317384686,-2.2838134367901883,3.294411650614298,-0.02242042671263771,0.4669223942463796,-0.2724606643171358
622,14.041936877076276,1.3303845899892184,0,1,8.821366395304745,-0.7820183883604866,-0.14537754818596652,0.19129206876470145,-1.5074302443993564,-0.07574093415766364
623,15.054079259957634,1.3412537566835185,0,1,15.507872453837496,0.5302482607838428,2.1172651259227013,-0.7726799794689668,-1.3408689822121156,-0.10577612939519636
624,15.748806745707425,1.3350992921758793,0,1,14.160673754740712,0.7557930269971205,-0.5972577786497199,-0.8627609834490538,-0.02578740585136444,-0.5769778982801743
625,16.082166061937706,1.3145638047063013,0,1,11.47979999027606,-1.0874291121345223,8.040817382384908,-0.8174768843892185,0.8017037262862167,-0.8666236812214089
626,16.03097755919128,1.283203197320034,0,1,14.265105156666744,-5.492683566605401,11.755422612619615,-0.14680602388143915,-0.8525409627147288,-1.2868290204839679
627,15.595348644533557,1.2452224043396984,0,1,13.77689528058468,-3.7059602468385027,3.8250738836511617,1.1734847855275328,-0.8815591135820485,-0.997184370696977
628,14.800532168761368,1.2051272991373765,0,1,14.583922254430876,-1.7539753510691911,2.7244787449262384,0.4721865689130606,-0.2918411871272521,-0.28161314517600294
629,13.6972504386167,1.1672872969687862,0,1,17.780133477516973,1.3325299855422852,1.2642616419048418,-0.08876166819703186,-1.2514630994132088,0.13128672935483662
630,12.359717489206398,1.1354611940344799,0,1,14.605765927269124,-0.5432188541243977,-1.1295442125494426,-0.5604140302563424,0.8867845512539788,0.23384432256136925
631,10.880939815602925,1.1123785534263853,0,1,9.799285739831992,-2.0686245222402895,0.9102896768392054,0.2118257781874644,0.9969755581807387,-0.022065714157261822
632,9.365448229404247,1.0994681402332585,0,1,6.555725115520645,-2.5448671907337603,1.7245593822510086,0.7926494330289686,0.05177535119043293,-0.08414805071012818
633,7.920294584602949,1.096794512752303,0,1,5.791774644487735,-2.9203705229226538,0.6600399103128908,1.0083365414524241,-0.5058678607966337,0.019029250334155135
634,6.645635058681151,1.1032215647576153,0,1,5.556582593321766,-2.978412573542908,-0.2603398159067889,0.9302673815503077,-0.5991432137727315,0.2393337852504464
635,5.626269431943996,1.1167747195657178,0,1,5.179963299480982,-1.5279882813777426,-0.3284916344804836,1.1198010645382177,-0.7448230882592553,0.32203600533218285
636,4.925177834763334,1.1351327756188974,0,1,4.353208913313396,0.17368447250210983,-0.46060277279228906,0.9521796688535095,-0.22201344721003913,0.2216871495985462
637,4.579661704666959,1.1561633905528617,0,1,3.1627858959691255,0.0658048285241903,-1.1766574186510377,0.9735590715580154,0.4482690029974981,0.05693818983672309
638,4.600337574687982,1.1784252410710732,0,1,2.973940120705464,-0.5478036685186376,-0.23529809391412573,1.1710129011701615,0.43329395611108734,-0.07200722121520475
639,4.972937675418393,1.2015761331244523,0,1,3.9888799101688943,-2.111000455358792,0.9645564719649355,0.9736349964637183,0.1560888902352226,-0.1618012589806161
640,5.662542937669379,1.2266300977767979,0,1,4.779753630360092,-2.6759121055239485,0.09832787174578708,1.1867536746832574,-0.12190627948027183,-0.2785683351673539
641,6.619482015457967,1.2559947782160132,0,1,6.45062616609127,-2.3608779529685915,-2.3353395893293905,1.4491225964082197,-0.8093529160844795,-0.40374193557950927
642,7.785759140658892,1.2932064585743095,0,1,9.92288646296606,-1.6012478286941305,-4.1622292557456095,1.635228289334501,-1.4555761101844655,-0.40693295267753293
643,9.100672182128815,1.3422926333711984,0,1,12.371333433603505,0.5125622140213836,-4.23917803727767,1.5107716826340836,-0.6934541503736961,-0.27525073160934144
644,10.504404114262348,1.4067683982775547,0,1,12.521458020136878,1.9454751687132834,-2.1710893350339315,0.6485434761034438,0.7147566245728973,-0.12100999476444092
645,11.938921337369722,1.4884200395027074,0,1,11.5537240341233,1.2997563074626044,0.1731265234458154,-0.2777633269334311,0.502352899913687,0.07038818860099241
646,13.346435287350976,1.5861835060538605,0,1,10.511354104784175,-0.8417412332863841,0.2307201282138981,-0.6934109270339711,0.1735405718528541,0.23099323267528585
647,14.666675221470374,1.6954818533251117,0,1,9.968069741907437,-3.718970886765797,-3.5125591647671577,-0.12188292597343826,-1.595038864022935,0.2712635774410324
648,15.834838155391736,1.8082858850035146,0,1,9.829185653903341,-4.918018376924906,-5.748310392234696,0.9360919361517861,-0.7933403351328652,0.052066842580195345
649,16.782013518733905,1.9139460387060594,0,1,11.060496496822362,-3.744078100235417,-2.603910673040684,2.5483388329275134,0.23548664914392065,0.23703697161052367
650,17.439107098097516,2.000612327948659,0,1,15.36149643008188,1.880862326966515,8.456913381920199,2.136869916507952,2.0824241338068736,0.8535506783564969
651,17.7440611448146,2.056908551883263,0,1,21.495589284112462,6.522160942553113,16.924097945691678,-0.2613060605128664,-0.2405370938597025,1.9072427934990914
652,17.65094438641801,2.0735108970714538,0,1,7.904105216380785,8.248197878995121,8.047958762256494,-0.8832723716203241,0.4515487795490343,1.7332782094381238
653,17.13881878861856,2.044387713319957,0,1,13.606638321375813,-0.49124063631701553,0.29458451787891243,-0.11894591600570087,-0.5583943713924051,1.0359017116051548
654,16.21842322063789,1.9676000491421666,0,1,22.556889484167314,-9.831783237614538,0.8607309616234169,1.400612231093501,-2.2970246177738325,0.2639370996515378
655,14.935305131567198,1.8456421024298129,0,1,16.86036688251081,-3.8393519812680883,-0.7068863353123178,1.684090732627016,1.852938430013514,0.12591366826378622
656,13.368633567826686,1.6853030443866326,0,1,12.063631680175956,1.054503507974502,1.2913617884480928,1.641932267851341,0.3790119129944451,0.2499369201277244
657,11.62556243104656,1.4970339978189469,0,1,11.052868022085436,2.6733351974388264,1.8787693526441402,0.6813315022841371,1.1100700771828524,0.32561075863904626
658,9.831833683606108,1.293870263244861,0,1,7.794449035902097,0.18523813811521356,-1.2387572411225285,-0.07457914522122124,1.4825213289388592,0.32554567280076707
659,8.120067584092821,1.0900648092209764,0,1,6.026139324283585,-0.31865912427661747,-0.36396664432867615,0.27895845337502534,0.1848160575838146,0.09909529347413386
660,6.617495687220734,0.8996650158558636,0,1,6.087923784884263,0.029846999992280816,0.9818856245685441,0.49260823989003283,-0.061295955683887265,-0.20154088909954976
661,5.4346927259308995,0.7352693100295626,0,1,5.244191919278696,-0.6127390005696092,0.7583841876418511,0.5118895465669672,-0.19345091729486957,-0.35161406700082737
662,4.656377895415574,0.6071328203900248,0,1,4.486196316353522,0.21021500703610518,0.06095397647999784,0.5829437907594159,-0.41994694517513187,-0.30459955775744874
663,4.334842513303594,0.5226790306415176,0,1,4.265895613765638,0.8364355460201854,-1.1830920035588062,0.35546293862964035,-0.5615777978497949,-0.14467001509032423
664,4.486188374599061,0.48636834370910687,0,1,4.40642225239645,1.3263711992210947,-1.4332230908619967,0.2542584932013473,-0.43214711294300134,0.06524375198115931
665,5.0893712351693,0.4998196471405492,0,1,4.220263141901368,1.6121178697242344,-0.6778141399413192,-0.21475457151086563,0.039689368386062,0.31617890721699443
666,6.087982477714272,0.5620811307319907,0,1,4.5211306258734485,1.2227706168132673,-0.4188616262464924,-0.551727761514537,-0.20156798043696786,0.4412596350488804
667,7.394678616327984,0.6699714036469999,0,1,6.767834679179863,1.0608097073154072,-0.10770833755480569,-0.24501479557984732,-0.6191612815887646,0.5883214683612924
668,8.898090065870425,0.8184370951073601,0,1,9.50514462882604,-0.8157136250419706,1.0157123275172628,-0.36947628315625236,-0.8183088986828395,0.5769367862823356
669,10.471860859736434,1.0009017686318993,0,1,9.09522409111828,-3.0127894226736567,1.2344490524193565,-0.1583099742630246,-0.6785782067173184,0.5053930703365315
670,11.985234710592291,1.2096248074517149,0,1,8.99426357125019,-4.673664335129189,1.8903806552964053,0.19840850774544763,-0.28251285928567665,0.4092751253143244
671,13.314380700698244,1.4361345424481973,0,1,9.665935534816743,-2.511675769830101,5.02650256161775,0.6464219701682472,-0.4038558271864106,0.2139907707451348
672,14.353433443800474,1.6718030002727484,0,1,21.29933521111833,-5.034551065418708,8.613870133196377,0.8473849247561537,-0.7220828750165519,-1.3361270563260677
673,15.024008912072095,1.9085551976587896,0,1,17.47663640798741,-3.9818606294263903,1.7565943336828085,2.6831669898171726,-0.31118615784636167,-1.7158266625160776
674,15.281964110040935,2.139583681461697,0,1,6.923424215904973,0.6349793598220599,1.402216055032653,2.4370942902392914,0.2081436784661229,-0.249858756724037
675,15.120641169951623,2.3598648712670323,0,1,13.526395443409188,0.3662485625544997,3.1949482978350314,1.3785013597314608,-1.645214273352143,0.3261985078523673
676,14.570546458742689,2.5663226565188704,0,1,21.566919120893154,-3.060593653734633,0.03569061720909044,0.6841328457835505,-1.6937392665017073,0.0029101104737545356
677,13.695793897710894,2.757621024724917,0,1,14.729695576544758,-6.056015463187973,-2.7923087636111705,1.6750390474720653,2.7537838295035826,-0.31355324450795163
678,12.587608621670457,2.933679099469763,0,1,7.589953693188205,-2.8544894885490453,1.5374183451265049,2.918059273266318,1.5363180529650222,-0.11242286046047838
679,11.355273222453096,3.0950292164464286,0,1,10.140138790002661,-1.4760758908509068,3.969905296693865,2.7172406260056885,-1.1618471354983668,0.04339114770911076
680,10.115344885948407,3.24212583701888,0,1,9.73796555893241,-1.310128800633328,-0.18482365686624855,2.817110164488422,-0.5314932364640601,0.3027144231226578
681,8.980366326130362,3.374720593876432,0,1,8.144674904052437,-1.986070259988979,-2.9032382424944023,3.031804951086188,-0.7505571076934503,0.31438930058730524
682,8.048276575400084,3.491437549696225,0,1,8.002571754703226,-2.2748976408194803,-2.6972269309649675,3.3121933843388303,-0.03791360529859312,0.21863994458744734
683,7.393453029692202,3.589665189908951,0,1,6.645467004305619,-1.6364482377471727,-1.196821783381737,3.4811320367939773,0.8256507653544993,0.2055082375877853
684,7.060094107605315,3.665815180967351,0,1,5.390143265279487,-1.2785024384747001,-0.4469254786420353,3.3456467279043367,0.6631544785212746,0.14790048597566352
685,7.0585585253993015,3.7159121278820453,0,1,5.39546343719058,-0.4936517724580168,0.06046368319020755,3.7039170890801163,0.15426827896731943,0.06065129557517272
686,7.365181936838683,3.736402769914314,0,1,5.724498852217046,-0.4298188471775349,-0.3904714860741697,4.0022609589924745,0.08404159081552194,0.04550855386223053
687,7.9258425743330525,3.7250177224280603,0,1,6.313911597363008,-1.992331047857994,-0.5366927586378573,4.023209394069681,-0.15184482451486014,0.15281627310347162
688,8.663093655295393,3.6814919119896263,0,1,8.530983550734954,-2.12425419084831,0.440726428898528,3.86084689421871,-0.3314517397812923,0.3188655069643905
689,9.486100274170287,3.6079651010551057,0,1,9.593575933029928,-1.060321798143377,0.9315389406014593,3.5465864072621027,0.7013134252295555,0.527210304461808
690,10.302063980562336,3.5089449525128136,0,1,9.43350496119537,2.6662768584936627,1.5082627248862608,3.9494325009127254,1.2756035559138874,0.6595949182172723
691,11.027432855471389,3.3908074735682767,0,1,17.127211757216447,6.015586235339009,5.814233842730466,3.526596103372676,-0.07895955912486634,1.1450789983881697
692,11.597101669598764,3.260918559426997,0,1,14.47236993782619,2.866325409230616,2.397441189176977,1.561837357971138,0.9964397295184034,1.1863274330588867
693,11.97015326613785,3.126571809269045,0,1,6.8538833590343735,-0.13908259856957766,-2.360953308520764,1.6381091725681558,1.0355682995143958,0.6430705411959267
694,12.13153576233573,2.994007172855637,0,1,9.984325372317553,-2.151418590576247,0.6858363252042907,2.7745841865861554,-2.234284449265018,0.25536847492180753
695,12.090101507223254,2.8677389397699407,0,1,13.338272262681874,-0.2757507509419643,0.5871017761506213,3.0302610986909873,-0.8670218165531098,0.2390364684724085
696,11.874081660235758,2.75028375577659,0,1,12.937581227160909,1.9073315540266687,-1.4780292372204278,2.7986526966273986,-0.12377625801492045,0.5601516797465375
697,11.525103701662204,2.642239546595744,0,1,11.578808667500997,1.890258235726697,0.07421266710263,2.1809512994112867,0.5759983931499365,0.7023770574042252
698,11.091626335110137,2.5426137904532786,0,1,8.980260545299021,0.7753574579272305,1.3007718061414402,2.1100539977603137,0.4816184547574281,0.6610473796903362
699,10.622569955845576,2.449317801480665,0,1,8.579750012246423,0.8050304833160343,1.2085265033506423,2.491686098842961,-0.6065170887832656,0.542265502077227
700,10.161944788692718,2.3597586688365144,0,1,9.656449703089885,1.357664403012352,0.5375301974481037,2.6127453978548023,-0.5633180020723414,0.4649390927708673
701,9.745162986689527,2.2714434506022423,0,1,9.478686709523494,2.1307493549618233,0.23610485171236442,2.3879641582844036,-0.1251857790339283,0.4740494551814515
702,9.39736675069229,2.1824951920013347,0,1,9.12418661701403,1.790724734738266,0.6211230047116847,2.0219902732844637,0.16604594644522977,0.5305399454637293
703,9.133662861498314,2.0920037150183366,0,1,8.962024342124673,0.9088020488341942,0.6654893505401119,1.8968627988060696,0.12062811750896499,0.5829290496478987
704,8.960816326050292,2.0001875531915285,0,1,8.759565684052365,0.6602144108734065,0.2424507308432091,1.8927783152808186,0.12847125817482566,0.6164093281184949
705,8.879777656009074,1.9083890018201397,0,1,9.303140046034716,0.9808772459307452,0.634653416900008,1.8429106098639976,-0.0035301377023321907,0.5945233582169279
706,8.888347808946644,1.8189392899927899,0,1,10.551291523571305,1.287318984141796,0.8243850803131074,1.7358838320780103,-0.12602320438073267,0.5537433605340488
707,8.983289838155114,1.7349241361526053,0,1,10.6385583559563,1.6025570636617108,0.3302822920657509,1.6799469600855785,0.019781210919399526,0.5046285968462645
708,9.161321816363671,1.6598712060509437,0,1,9.49000035488076,1.6672740142175009,0.25486349331481983,1.580114783900054,0.02209994918636103,0.4699381454651288
709,9.418730860411554,1.597379405034646,0,1,8.864379278307995,1.3561960002705744,0.2519804506307502,1.505343259700159,-0.20094401354416316,0.47412178324377563
710,9.749794133497511,1.5507130078122524,0,1,8.368634077441698,1.2161561795965221,-0.1682849948738572,1.4460796846514563,-0.2854481990693162,0.5154710155670353
711,10.14461131186215,1.5223868845272357,0,1,8.452515017356204,1.758614875233617,-0.8421704565596723,1.4320413691147749,-0.7163376204999262,0.5475001352292016
712,10.587151099379183,1.5137727900184204,0,1,9.447590281441478,2.882645847766587,-1.5040619742126562,1.370571069149452,-0.6546631451396985,0.5070393077694654
713,11.054212343435552,1.5247661044914358,0,1,10.786223344073843,2.9817177975811626,0.3292269501154229,1.1305177379548128,-0.41840258228934135,0.4428866618233811
714,11.515679974774192,1.5535695904525786,0,1,12.06482279269948,1.2754628932109482,4.097252372461786,0.9566709250281665,0.2773354487210625,0.3786873456958351
715,11.936100483838409,1.5966617364421019,0,1,9.80686095532909,0.21395399379752608,3.5941985047026757,1.3386630641034463,-0.15044999693898423,0.22499924771542024
716,12.277369909807295,1.6489954249794136,0,1,10.984177953673475,-0.265862948641424,2.645797131872247,1.6584404280130243,-1.5912341469864701,0.06601802716078038
717,12.502237238193018,1.7044106535338293,0,1,13.717378757585008,-0.9848504181663864,1.4020192291188571,1.6738782308937894,-1.1423882011048192,-0.11171175438264958
718,12.578272181550865,1.7561814375063396,0,1,13.312995796949435,-1.9327375545438643,1.3156719898022886,1.3544961440572783,-0.33681336731861333,-0.21417179983281026
719,12.481867284620579,1.7976051518418321,0,1,10.835763107372497,-1.916920717671224,4.38836479410173,1.51680692472509,0.46655330534919814,-0.2705839882517107
720,12.201808293116397,1.8225847935430004,0,1,9.95247247499671,-2.0570026508816155,5.424585452646083,1.6655120294302874,-0.46568116968014406,-0.15954422029795542
721,11.742010917063366,1.826195438460068,0,1,11.357651647512355,-3.8286888639012067,3.184405487699032,1.6010668094567737,-0.6545416674897301,-0.009499890958852423
722,11.12311490363112,1.8052200914807297,0,1,11.053940448015085,-3.616933773182024,0.8047158875671674,2.018333989493074,-0.19616751375877967,0.14143494779587434
723,10.382662708817332,1.7585985845332555,0,1,10.583727005261343,-1.8443962895768042,0.497064758835894,2.075274899421256,-0.2207402710805146,0.1097928046776004
724,9.573604545162047,1.6876996001189124,0,1,10.339888403063476,-0.47676589808079756,0.5018328790136085,1.7825090777311252,-0.3994752421002734,0.04576908776129519
725,8.760954406477705,1.5963327970217778,0,1,10.238937691293005,0.5359877635514999,0.404132509699522,1.4218248830490838,-0.8156838238710161,0.08743078411282212
726,8.016609961609763,1.4904687678376705,0,1,9.207555738407038,1.0004367076172864,-0.7485090109263466,1.0752036667103395,-0.7892169254590015,0.09873268660950087
727,7.412637977515278,1.377704357470614,0,1,6.655472107581482,0.5347076049427987,-2.9227129696121943,0.9233663011276593,0.2460579647403982,0.1664368001227851
728,7.013698980845437,1.2665620745805086,0,1,4.119962189425284,-0.048022740423347074,-2.4570246112428493,1.1782436213163006,1.12803105302446,0.2330349455586979
729,6.8696557659588615,1.1657213052574347,0,1,3.4484583677078904,-0.8116700193737854,0.7029635178100584,0.9438823184734841,0.7716107310696216,0.24720337920608648
730,7.0095907580723384,1.0832558897738473,0,1,5.3504957689962165,-1.55314102986445,2.421980199172812,0.7774177524567945,0.07830795933596986,0.22630626737782572
731,7.438262685708567,1.0259296063717345,0,1,7.640713934988029,-1.5228332047957769,1.205877462675636,0.8941005245578557,-0.15871078697907465,0.15448471889970092
732,8.135475069773697,0.9985944063108747,0,1,8.50279397333212,-0.8297756065508209,-0.8932524268658975,1.1063247531995914,-0.18929618355789318,0.07957708607296876
733,9.058163249593443,1.0037315610627042,0,1,9.396278661211731,-0.13080142985310755,-1.6305157288307552,1.0836171755418131,-0.3401050083645646,0.05485886828534988
734,10.144537968308905,1.0411607415784774,0,1,10.830991657893238,-0.7175945754829964,-1.6909188689305163,0.9072126219123807,-0.07320286664588019,-0.0027386000513407107
735,11.31947559281495,1.107928383382043,0,1,11.486768815462508,-0.7868334848992173,-1.2433461038059601,1.0576549041736363,0.44196144789927416,-0.099685989544805
736,12.500440765698281,1.198387600372612,0,1,12.288375797534703,-0.5028605746545334,-0.2465877598149965,1.0682660045222796,0.30081971853555456,-0.2089737744724772
737,13.603427036981351,1.3044900882900912,0,1,13.914329595081812,-0.6835989403185737,-0.8951536818764553,1.2167790367871147,-0.24626011054390817,-0.16381623518623725
738,14.548598850696571,1.4163118199537275,0,1,14.21689725755201,-0.07121862360101516,-2.2720502537512055,1.0506498577545968,-0.9514784643263091,0.09533550991425624
739,15.2654570359932,1.5228248094417303,0,1,13.137551328683356,-0.15829785458601908,-4.572965696349745,0.6922287109046579,-0.8386991609990044,0.12452657082455662
740,15.697410472988699,1.612906386637268,0,1,16.62059033499578,0.0715912572370357,-2.455631209414646,0.5426022234855692,-0.6399837081875525,0.2715989267110642
741,15.805625121296488,1.6765339905491297,0,1,18.08904119658474,1.954534135783604,3.2930645281674638,-0.28004791993455425,1.6636808891038632,0.46391797629275594
742,15.571987521821764,1.7060319100910217,0,1,7.254401568166903,3.428105164416267,10.029629419162053,-0.7958958764943505,3.2830196907870306,0.31837551308374984
743,15.001052215798639,1.6971367347005353,0,1,6.782786269212773,0.9318075394571861,10.908613093506984,-0.7609930845555934,-1.748176124702908,0.4382162209944512
744,14.120940305527908,1.6496097638231864,0,1,12.535244054455642,-1.8074283875060115,3.150402512256807,-0.3462016488450482,-1.6005045387041137,0.7329618234078653
