id,ASVM,GSVM,walking_nonwalking,normal_abnormal,ax,ay,az,gx,gy,gz
1,1.0137822736915774,0.2716477935281068,0,1,0.9904047300212165,-0.10493979933400613,0.06383634579603599,0.06772164704800468,0.316075340340548,0.027239469047135808
2,1.0042138952531703,0.3023398993776566,0,1,1.0057906788955808,-0.12136031507687874,0.051503737607486194,0.08675702056366116,0.303126065511696,0.012503406722077313
3,0.9930068177791458,0.3353222905065789,0,1,1.0209514783844473,-0.13174431692643232,0.041469654984407724,0.11100324317208578,0.35959565620800976,0.010041868513308499
4,0.980942505471274,0.37071194132823987,0,1,0.9926046385522292,-0.12171540472942417,0.047079110960840394,0.13105469517775667,0.3715384838618751,0.02117672733769453
5,0.9690458546563299,0.40834491894237473,0,1,0.9880069374442412,-0.0902011463292471,0.04863628861034338,0.13601598903482007,0.3647437566018637,0.04664219911780638
6,0.958495457526426,0.4476095938311038,0,1,0.9838950084596069,-0.06143266467132988,0.06287954651317254,0.13822688433544864,0.41555967324743787,0.05433876047568336
7,0.9504889758476607,0.4873147933094113,0,1,0.941893064104029,-0.03753306403553907,0.11967864828361816,0.0952376089582797,0.36401551717253694,0.036191507589251284
8,0.9460779296072568,0.5256360943066506,0,1,0.9295098419505365,-0.03342494918604955,0.11924400731993867,0.005746248061897576,0.41521277038093096,-0.029193440695655718
9,0.9459957859265583,0.5601784965180042,0,1,0.8946994187219336,-0.059839368204630636,0.11632251160931067,0.023647006044328588,0.4885930451164593,-0.16819569554947308
10,0.9505096396539594,0.5881761892970844,0,1,0.8833454796233406,-0.10693802208694175,0.15384193461934073,0.06939191137638243,0.26426527007456796,-0.37303411896220356
11,0.9593265791111332,0.6068211438611657,0,1,0.9095159079377965,-0.10218202322514076,0.18779001225162006,-0.008857486293025721,0.32973097084697617,-0.5476609692557158
12,0.9715797553695691,0.6136778364469334,0,1,0.9244934262087006,-0.09900490565049619,0.15627463058928723,-0.13120550595879735,0.3130305514627447,-0.617813549258863
13,0.9859072545402201,0.6071107526383618,0,1,0.9080350721012892,-0.10366545539950917,0.12089128580951927,-0.24955645977900834,0.36859975225182984,-0.6446954473491686
14,1.0006217057893312,0.5866352661130054,0,1,0.92975080256804,-0.13546941308241126,0.07295567173534605,-0.3382405015120718,0.37427028973237564,-0.6140647417352249
15,1.0139519061602498,0.553110808232132,0,1,1.0186819896481936,-0.18446249490202143,0.02847818261661392,-0.19191179104099163,0.048851523503756905,-0.5060335046410264
16,1.024320268032342,0.5087301267619255,0,1,1.1771465802158882,-0.10975660055928507,0.10790360706460829,-0.2710673034117967,-0.28541738087342716,-0.38007231452688617
17,1.0306050342399213,0.45680906350374806,0,1,1.1152039150681254,-0.1003509415856359,0.028224407469232247,-0.2539155744348827,0.017809250299616667,-0.21167771728469947
18,1.0323323743799744,0.40142777854479267,0,1,1.0651691639265601,-0.07458374846671602,0.08007135117827263,-0.17433051510995085,0.16305559372037953,-0.11292889937059684
19,1.029757738115067,0.34699925490832817,0,1,1.017096460019644,-0.0874516534128541,-0.03689676360291222,-0.2720859062468333,0.20475671054306652,-0.061588436111191185
20,1.0238246490120957,0.297838461116018,0,1,0.9836051304988497,-0.10288699243855279,-0.04116148713941611,-0.28384777956073914,0.14078786045510136,0.026033772691608968
21,1.0160190719836142,0.2577834219506074,0,1,0.9761162863672189,-0.12460120227937631,-0.07519982630574762,-0.21951268226950996,0.12150384107068345,0.11987541864033474
22,1.0081562444734375,0.22989350144047807,0,1,0.9642655168967672,-0.14239228803718448,-0.04579267232479855,-0.093274795836116,0.1150167822812114,0.15257560363764922
23,1.0021410660048289,0.21623364115933036,0,1,0.9574487808767576,-0.16998547410138234,-0.017485218386930873,-0.05726404639842607,0.08924809026346708,0.16949178692121933
24,0.999736708530231,0.21774808649500194,0,1,0.9701054500414162,-0.19483220928148826,-0.05112125508809312,-0.0010322817877086855,0.03358044278034728,0.1833427155002659
25,1.002364801242513,0.23422641692858873,0,1,1.0194555848473401,-0.19378515199198204,-0.06795593928397697,0.11784940972596757,0.02372140261919577,0.1692379127915387
26,1.010949232853016,0.2643617672049365,0,1,1.0197504842659595,-0.18415223968792377,-0.09629535093102172,0.20689752135836048,0.07193267610901681,0.1287485254714085
27,1.025808247644325,0.30589423627207524,0,1,1.0007307139158816,-0.14388697165175923,-0.04801724156233139,0.3077203239633423,0.11399525268135059,0.09427673111013479
28,1.0465983526875597,0.35582387133134136,0,1,1.0061424028682975,-0.1088753721116832,0.004709991201996816,0.30278992340454314,0.1418264318071851,0.10411139779358923
29,1.0723169449813674,0.4106708851463072,0,1,0.9652069322062072,-0.19709358094021578,-0.0025751238528364034,0.347538868901811,0.1347456170046309,0.12664592375150316
30,1.1013726387181533,0.4667580823638186,0,1,1.0015098952413704,-0.29593132198875716,-0.02423802614666411,0.4396561645138009,-0.14500870776037783,0.11739730332404956
31,1.131726748789966,0.5204909503430467,0,1,1.103841013056654,-0.3220361149595979,-0.04521821717212487,0.47592737131868623,-0.343925010398898,0.12193420760856825
32,1.1610948119721656,0.5686129388826563,0,1,1.197322333724346,-0.23001786465492588,-0.15245377591257364,0.3769020910057715,-0.5715029162261934,0.1422180144048733
33,1.187179225096534,0.6084187069465021,0,1,1.2576466573107852,-0.2213947553675071,-0.15495604524211434,0.1495417384780658,-0.2646239103512665,0.17947906694610063
34,1.2078932942085765,0.6379184879392409,0,1,1.1587335380821286,-0.144525980376169,-0.3155610703508128,0.45226318522358233,-0.3185934443357917,0.1744064760148121
35,1.2215404758173631,0.6559561025909292,0,1,1.1798030636798278,-0.28070512244989215,-0.0009579754880597221,0.6073824134378196,0.10945225560493567,0.15984591320000405
36,1.2269284078336544,0.6622799484693929,0,1,1.1574479304757148,0.030462633445831472,0.4423411635448402,0.9470572866562316,0.6652360726714581,0.1603522836261964
37,1.2234158976201808,0.6575518814338145,0,1,1.044159799118219,0.203667453848502,0.4221095760160866,0.40409107023722785,-0.08354848722667498,0.09490298322459535
38,1.2109034291807634,0.643273547140792,0,1,1.0877978754975308,0.5661430613163179,0.6560769104184015,0.35641476649603204,0.04846744423722366,0.10557644704446328
39,1.1897824434829707,0.6216259700073246,0,1,1.024370562181013,0.39278154785844177,0.2120482721013716,-0.157828236882205,-0.6465080624797024,0.45653424398278486
40,1.1608606976059688,0.5952392497856294,0,1,0.9821153896773261,-0.08174331668591867,0.15873145443069597,-0.22131911914141011,-0.6863509579245448,0.49723596872116166
41,1.1252840417392673,0.5669145630282053,0,1,1.003657864760677,-0.26193582403417415,0.2389229774904065,-0.32612809080645994,-0.19382931316162505,0.31164665522845086
42,1.0844739096311533,0.5393198974012438,0,1,1.057095960530251,-0.2465084060718947,0.3090195245520556,-0.32987485288595325,-0.19112875992713027,0.11791899576330461
43,1.0400867211425953,0.5146946688403533,0,1,1.110063393059497,0.03184357476105328,0.2652754878027108,-0.42238447225258813,-0.14018384607732715,0.0262595898253895
44,0.9939798823996343,0.49461977499675774,0,1,1.0682047700785706,0.16481361415559664,0.23062414134613649,-0.27765992275478296,0.00940884350658254,-0.041614027767697154
45,0.9481555041792744,0.47991246522877173,0,1,1.0175929770656018,0.1506426736436565,0.15056008184662523,-0.3661884571934496,-0.05392780282644941,-0.009132374313675725
46,0.9046603299507059,0.4706780334961147,0,1,0.8340762686692861,-0.015485034504015284,0.11199030385055493,-0.5558288666552441,0.12471997726662168,0.0662614709775472
47,0.8654460666411613,0.46650403521471456,0,1,0.7087547713639168,-0.12310698317460532,0.10821850008846885,-0.6439708884755816,0.02012117101134861,0.03864978063860536
48,0.8322227791327134,0.4667392052040405,0,1,0.7338445156249309,-0.12276375788138517,0.06937676368158975,-0.5428851795204864,-0.055666976114742944,-0.029946847123584322
49,0.80635137287253,0.47077924737736515,0,1,0.718687530835734,-0.07386416998196411,0.07225963248200037,-0.4170556730700503,0.03862546921520366,-0.07304067926442566
50,0.7888105063551881,0.4782926258238172,0,1,0.7564366812016707,0.0011428679781769456,0.036074229124054426,-0.4513039777358174,0.0011666339815100644,-0.07067844708319844
51,0.7802438300863191,0.48934842470752427,0,1,0.87440366953679,0.01910281108319402,0.05994981632341234,-0.536419296953643,-0.02801982812714643,-0.025207001903545606
52,0.7810599590333072,0.5044341728859981,0,1,0.880669627136527,0.046663335764645666,0.017161024262439834,-0.5870265123455723,0.1514689592572614,0.04576933806975434
53,0.7915351318184488,0.5243656620946214,0,1,0.8942782941714155,-0.0019984249157208797,-0.04584550552303585,-0.5952677842150321,0.08353920566168338,0.06573312415183578
54,0.8118665271849358,0.5501011609301644,0,1,0.8637048249064693,-0.08892229827331223,-0.02557261138663022,-0.4529306329856787,0.2202185498727061,-0.00670912170841762
55,0.8421433610778706,0.5824887634543494,0,1,0.8095126330839969,-0.12176300126485222,-0.10034688151679641,-0.4502132778694972,0.1906154355439706,-0.09827350772564611
56,0.8822345948491207,0.6219957622546591,0,1,0.8240963181672317,-0.09114748052908085,-0.08568157891300368,-0.46207144542497397,0.14442294553234938,-0.17610362103938268
57,0.9316227810131408,0.6684804459742237,0,1,0.831743071654968,0.05054513759455563,-0.06529772033279058,-0.446214623809553,-0.10793268321403206,-0.12430447060927685
58,0.9892314152953258,0.7210583906166553,0,1,0.9026685723219636,0.08136687296153378,0.007323892015956071,-0.5428596585681494,-0.41567447301193877,-0.04218215869601022
59,1.0532927541409574,0.7780857661274305,0,1,1.112856343274479,0.07769799472289836,-0.019956014771634445,-0.42859383945840135,-0.827933433597797,-0.11801483994607144
60,1.1212873450102783,0.8372418950664597,0,1,1.2000912820677119,0.07060626694190154,-0.10702303868137446,-0.32307419612370697,-1.0394483843029112,-0.19379848325687427
61,1.189966302129809,0.8956630646223027,0,1,1.2111015974146604,-0.027975634425174853,-0.21459109440924592,-0.4146163393498645,-1.0182308122771009,-0.20808492741613008
62,1.2554560476358525,0.950081640090725,0,1,1.1548403650960586,-0.0861284430189811,-0.3055983902706099,-0.5490023196001749,-0.5589413367431249,-0.14052826997684725
63,1.3134485404617011,0.9969641217506833,0,1,1.0699117555915592,-0.2075279248116751,-0.08259647368895698,-0.5020581204707653,-0.20491171514615888,-0.17884308198284193
64,1.359488789973864,1.0326935303256217,0,1,1.0415681450887446,-0.306593974686708,0.31614315399699183,-0.36607849252992986,-0.17470966297288862,-0.4171875697042146
65,1.389367166959454,1.0538600753574248,0,1,1.2466731806482847,-0.6835405169314781,0.6789404889965158,-0.35065643779333044,-0.5679792338287919,-0.8808176959515952
66,1.3995960195719552,1.0576799440846218,0,1,1.3526152407347287,-0.7573620053015587,0.5898573941810753,0.4800461441032017,0.010434925706136714,-1.3980606768194102
67,1.3879102865030473,1.042474642089502,0,1,0.9449518819311372,-0.20509729339463464,0.21780619600410436,0.8327980387545317,0.2939123088909468,-1.246919696567763
68,1.3537055423490834,1.0080750672659173,0,1,1.3853096932365414,0.21908877488580128,0.29807531674925164,0.28508934187562357,-0.9386887015041269,-0.7339925659728243
69,1.2983238839448736,0.9560209553363855,0,1,1.8484268171432725,0.40200340610931873,0.1650429822044303,0.2675393344831523,0.10828989803041096,-0.19324500762574093
70,1.2251075794200719,0.8895047397759298,0,1,1.4527790664286149,0.23474497501434635,0.18062491390155722,0.3947080359179415,0.9699975538204856,0.2537175707013002
71,1.139163544328636,0.8130992328540871,0,1,1.0523140021797581,-0.10730678850891709,0.19350838916408453,0.423486760403754,0.5139497181076285,0.41673630778763243
72,1.0468378543275452,0.7323523983881093,0,1,0.7227601772211117,-0.38041393262274537,0.14515114930928955,0.4731824886741983,0.44920250896022007,0.1317034630341937
73,0.9549841267102515,0.6533250427470013,0,1,0.5714092031406824,-0.251183824301143,0.15839837265145162,0.3686445410409047,0.42524661533727337,-0.2613251602496598
74,0.8701775233776197,0.5821222849841258,0,1,0.7587626796786787,-0.08294737481151788,-0.054483079275571916,0.3062460790919457,-0.3712409651121894,-0.2786657151147321
75,0.7980354417595268,0.5244500596323742,0,1,0.8123213552069314,0.017018991488986873,-0.006490680971362403,0.3893375766990932,0.10542783306311479,-0.13098405029640356
76,0.742758563929878,0.48521274802439535,0,1,0.633030746909073,0.01862196584477249,0.10264271268739444,0.5041958172182478,0.6271277616845883,0.09650443828704361
77,0.706936752714601,0.46815481257306224,0,1,0.5929842665066425,-0.08353401237395738,0.03529780126163514,0.3908911460549702,0.1876892940746027,0.2546077631667005
78,0.6916046717062432,0.4755460410073219,0,1,0.6572949585955464,-0.15024953876299585,0.014903229066580762,0.3160483911303671,-0.04199309501170916,0.2543694712572651
79,0.6964898323941582,0.5079250270125674,0,1,0.793245412452295,-0.19950116616264912,-0.0653801547004994,0.20864533276028369,-0.32242648884018166,0.08257145191891258
80,0.7203656777653162,0.5639416883167788,0,1,0.927937025694386,-0.20949924604819725,-0.1138937184734342,0.24778111493886515,-0.042103573396721626,-0.11439517679554123
81,0.7614059448583886,0.6403543212482646,0,1,0.9100552949903009,-0.1211199357989464,-0.062306452111839106,0.4635999623716051,0.5624255802707261,-0.16801322709330196
82,0.8174451389755989,0.732222191715415,0,1,0.8438848169879232,-0.06224344038834504,-0.1704098249076548,0.5253364840715199,0.3197042387738712,-0.10778455716714837
83,0.8860886861125455,0.8332953851640618,0,1,0.8988886016242339,-0.20361653208468505,-0.033933895114140605,0.760035264895353,0.1380837178916284,-0.05669845628382005
84,0.9646732994264132,0.9365594180797157,0,1,0.8136815700591733,-0.21976765922256952,0.009421340723856407,0.9872210876563492,0.3830991461582158,-0.11937337534623708
85,1.0501308583449251,1.034859015144918,0,1,0.8729023817057535,0.1305222954416206,-0.05130816684465447,0.9209678860766473,-0.6454437246979768,-0.008810988156103984
86,1.138839101342644,1.1215100245711425,0,1,1.2170528749123029,0.2103858822903343,-0.05115850558731531,0.08198860788769931,-1.8065346081213494,0.3832517028523091
87,1.22654384267233,1.1908178896493455,0,1,1.1019579689130499,-0.043948625758461826,-0.3412437294874444,0.33097143219571484,-0.23963182983363254,0.4035432526299517
88,1.308417766198878,1.2384623521468703,0,1,0.8826859956669818,-0.14858201839533397,-0.3399303456554533,0.7734069966000623,-0.5924661897586478,0.27937602976438786
89,1.3792921239835747,1.261765066796512,0,1,1.2036007195700205,-0.17228726111682116,0.3946862027893768,0.6742283503156244,-0.6078673945606003,0.4259901630280472
90,1.4340623031090665,1.259884882305207,0,1,1.295841084985818,0.24323143964705055,0.7130306348518255,0.8735520620684178,-0.22512435442113457,0.8035631080602461
91,1.4682213537860094,1.2339527202567928,0,1,1.5206117304995481,0.7992908464167957,0.7749939772446809,0.10379087544349079,-1.0469747646662217,1.374564175936499
92,1.4784267370024116,1.187086967207886,0,1,1.3874497228186025,0.46546835057239333,0.06378083424378314,-0.3762583168527724,-0.6955215220531218,1.539681121909799
93,1.462982648345675,1.1241839296199827,0,1,1.3251416214034417,-0.24164780657481558,-0.019342717123627607,-0.6441808028886913,-0.8013881507650463,0.9465739234858774
94,1.4221393734148957,1.0514065129714352,0,1,1.6311665571778635,-0.4070979787351635,0.37943742712461054,-0.7160904104240924,-0.22057619619157623,0.07635214441563876
95,1.3581559168643833,0.9753956013616683,0,1,1.4037756776837793,-0.10577334062086373,0.19442237064677598,-0.6448521065306867,0.46182455745109724,-0.1562834091848856
96,1.275116747250331,0.9023469542697108,0,1,1.199407309798809,0.13584938084781598,0.2498345764563936,-0.6134756559181357,0.026916893052248043,0.034214419094867235
97,1.178531131921704,0.8371644806436636,0,1,1.1064717436131695,0.15992582530078447,0.1953867972860642,-0.31985834156201165,0.2713406656909953,0.24128553541253714
98,1.074777845621517,0.7828886965173483,0,1,1.0140856110814336,0.04020460577234813,0.1811894224109986,-0.4102929607475563,0.0986145991658474,0.3478288511932235
99,0.970483188309292,0.7405224655752576,0,1,0.9115820955829199,-0.07530189843110126,0.07061279961255551,-0.5928707814061757,0.395763161915938,0.2421288577896449
100,0.8719269346236568,0.7092688883934234,0,1,0.7213099648552315,-0.10271182293415076,0.02714833432543263,-0.8038643459945591,0.4683800907172153,0.05009036890853303
101,0.784559335589339,0.6870935066932323,0,1,0.6798332242878515,-0.04709359299272095,0.033997649676317236,-0.797991921083616,0.11620656308795002,-0.14491358063348514
102,0.7126881615842006,0.6714565893035239,0,1,0.6346277540608102,0.011039168295570804,0.037375517952725014,-0.7368833823473068,0.2202103038669003,-0.26539185385127617
103,0.6593610930825863,0.6600483719371222,0,1,0.5946620703765051,0.032885722681816054,-0.01747530147813908,-0.6848489286312289,0.1196773440791502,-0.20087535196481804
104,0.6264285661934226,0.6513925348189433,0,1,0.6732691270620019,0.02750458959981601,-0.06732439622855657,-0.7031064568593763,-0.03490901222911002,-0.024598388377228976
105,0.6147326804652221,0.6452357210064026,0,1,0.79510395421463,-0.04699548135791327,-0.09787575143012468,-0.5970425496197245,0.06779029818420161,0.1338873444748346
106,0.624339718686975,0.6426902945677248,0,1,0.7998853236626889,-0.10598611834276826,-0.2039968434176424,-0.4093603208592503,0.3248906256622208,0.19637350570177964
107,0.6547286221079949,0.6461317177899242,0,1,0.7099068947393966,-0.10872697559315107,-0.1484874837037923,-0.4372507166357026,0.6008967083546135,0.1936247170772379
108,0.7048719794740226,0.658868814521056,0,1,0.661947609613399,-0.036259477579928166,-0.07695963682056262,-0.4635071355255051,0.6411501740381947,0.14356525293216266
109,0.773193363495006,0.6846120068957329,0,1,0.6824059833645784,0.037679238440414375,-0.14709956422290382,-0.608359267050522,0.45698538225455176,0.18064993806599058
110,0.8574349618133789,0.726775652391203,0,1,0.7688718719110699,-0.0058922916702312715,0.04165937932858703,-0.7042777207117019,-0.250352411962057,0.24571982546159987
111,0.9545006951543585,0.7876770768369734,0,1,0.8680869967295501,-0.22973137800581125,0.009451991222261952,-0.6783127593683149,-0.8151434946544727,0.22358337625020078
112,1.0603439097587133,0.8677368862991406,0,1,1.1125976173180105,-0.3204471950568339,-0.1996153499563261,-0.2744875560226989,-0.8212546132559596,0.07183515920102176
113,1.1699534042701805,0.964835084937305,0,1,1.1436340125362494,-0.17875232461229576,-0.39045685716203427,-0.029395098480659337,-0.12280938590368899,0.02913843789160164
114,1.2774735680614977,1.0740193438485117,0,1,0.9849619116337869,0.036114580015440254,-0.34544413552113373,-0.357693637771722,0.12171029796691586,-0.0018312021747602188
115,1.3764847065223123,1.187759486975205,0,1,0.9657561545088357,0.20793640867885016,-0.08258323632974156,-0.6385237501139176,0.12955067488183802,-0.19697624005995695
116,1.4604602656832713,1.2968519422351947,0,1,0.7986428102929221,0.33524708706116624,0.6055783034612529,-0.7578785682076633,-0.29619842357947507,-0.229593230361537
117,1.5233845966431685,1.391893113487346,0,1,1.4561481048572433,-0.8444701217984283,1.172719683960775,-1.3670882091632277,-1.7009330862788106,-0.8340454412907488
118,1.5604480189485352,1.465020425828029,0,1,2.1647388221453085,-1.5843202332920983,0.858683891574415,0.2855198851077236,-0.6169774782834929,-2.3140661000174765
119,1.5686723342265751,1.5114664716097717,0,1,0.660350375276017,-0.3527095662041941,0.15202087888031746,1.4257828700926418,1.7547788927983425,-1.8133197044715792
120,1.5473233518587182,1.5304796080864926,0,1,0.9425738973043916,0.3305878679668028,0.035610134998543076,-0.06417996951749877,-1.684414465521795,-0.3924483088875667
121,1.498047048596884,1.5253621479330866,0,1,1.9139257874413966,0.38860529100301927,0.012219136844488226,0.4590631688117393,-0.3775757659478372,0.25677065782238195
122,1.424747299463416,1.5026879052287287,0,1,1.6679513887421096,-0.0439364437675219,0.02981358894161215,0.6144028421057705,0.002002008460478147,0.15261811456401672
123,1.3332397432080196,1.471026758531214,0,1,1.4841673043297627,-0.5328432991438619,0.3378235568339995,0.8065009938469956,-0.41354195603057775,-0.4476900688198384
124,1.2306987108926049,1.4395888323501354,0,1,0.8752206440468421,-0.5462936652210973,0.1651040115695948,1.1560359567848957,1.1913204422906989,-0.6333946357548002
125,1.1249298061232191,1.4170921232835212,0,1,0.7531085024169023,-0.34128983469887275,-0.1255330771796495,1.0293164895410796,0.07002667949358238,-0.5208439518260739
126,1.0235536131863439,1.4109634917985319,0,1,0.9872531021658235,-0.17389807959874223,-0.09760038875794508,1.5579716792568579,-0.38464245534865327,-0.2983463309974787
127,0.9332249803701078,1.4268273500476694,0,1,0.990732712725304,-0.07207980950668186,0.0890835336165395,1.8601648942625097,0.0712940914537343,0.029632671425368302
128,0.8590058826001407,1.4681697938980403,0,1,0.7127840473584675,-0.08215331782384058,0.1178995039688471,1.7340232532117612,0.38975184016511283,0.26443344251639245
129,0.8039735085525954,1.5360782853493737,0,1,0.6124921946195996,-0.09614281868110287,0.06945742861874775,1.4858477214390353,0.10978670962219159,0.29105185013874657
130,0.7691071103773205,1.6290249551395524,0,1,0.5954198465951479,-0.11484520541433202,-0.08568267727449612,1.2084563529680434,-0.10571945412785894,0.20370576119150752
131,0.7534631236353546,1.7427528204910847,0,1,0.7189603952576603,-0.14628450756549446,-0.12923008198196592,1.2482086280818692,-0.36879688916506376,0.01783727772820958
132,0.754607650273173,1.8703870334647759,0,1,0.8147506829799268,-0.19502031111952825,-0.0797696546018736,1.591882808015848,0.034475315543965955,-0.1457096850525643
133,0.7692283266654105,2.002882577111804,0,1,0.8112974587337124,-0.270933321937503,-0.07225955929662876,1.924965881928921,0.11774395649260933,-0.14463653204347868
134,0.7938100575454663,2.1298343206694064,0,1,0.9017211145317195,-0.3069858742237514,-0.13020547516016248,2.24497465705022,0.1577832302336735,-0.09226137515818617
135,0.8252475136101063,2.240558829659598,0,1,0.8496522201469269,-0.2647248787936196,-0.21313256990022023,2.5768573305742293,0.3514325071830706,-0.08407329491509924
136,0.8612850376954881,2.3252662811018507,0,1,0.9057471652580799,-0.09791482475436872,-0.16801298144238505,2.624198243123166,0.12342942898453162,-0.05213082459904244
137,0.9007131513069104,2.376112781209064,0,1,1.0108523979124577,0.08947108180398383,-0.1254552043829666,2.558164464779242,0.0415880671690595,-0.03788743605205081
138,0.9432979523562083,2.3879643969406,0,1,1.0227683774860878,0.17236676892330582,-0.07388314287064295,2.4121141497058702,-0.012376092011881706,0.09248060597856543
139,0.9894664817984671,2.358791459037135,0,1,0.9783513766070877,0.09666076488234772,-0.047458726282673135,2.194721258902449,-0.16313827045293902,0.3795211752345742
140,1.0398140657536779,2.2897061262179292,0,1,0.9513353971545516,-0.06319983795967676,-0.08595061844127079,2.095562697493899,-0.10118103167493867,0.5670371056886901
141,1.0945358142656432,2.1847224578417883,0,1,1.0014211124086911,-0.08931368818184804,-0.04946221832878431,2.1186201155435187,-0.28504295282124603,0.5658819555681011
142,1.1529070099542824,2.0503416822349667,0,1,1.0262875218919814,0.020178001228909146,-0.10746989199730343,1.9160779555712368,-0.18939654506872372,0.40665597546481985
143,1.2129383115501353,1.8950547173394958,0,1,0.8742066491961875,0.09468098463017019,-0.01963347260378129,1.6920102676380637,0.04217389888596083,0.20853922660561755
144,1.2713077475671193,1.7288271385090956,0,1,0.8754850815828978,0.11762535614842115,0.2268378982270515,1.4175964288372271,-0.2050924359194804,0.08030391781066529
145,1.3236207547528593,1.5625968938436545,0,1,1.2523415015159862,0.37080868210911755,0.5050292993410765,1.6975582590088805,-0.29536564902087536,0.11495939718906621
146,1.3649734735186523,1.407769989491685,0,1,1.5343263995018401,0.7283963852147415,0.4283510931412841,1.6477901626177656,0.18002945064477566,0.6135231050867342
147,1.3907101927712024,1.275652390021209,0,1,1.3379130076120267,0.4523184288451033,0.06827836438553131,1.2699038613146663,0.2109709605981369,1.0987810741248878
148,1.3972088417774253,1.1767378315547885,0,1,1.5624012231243674,0.1961197053719771,0.04970670806410572,1.0565116217172013,-0.14883562710344747,0.9427924502642047
149,1.3825262716908995,1.119811280949925,0,1,1.5494642703292427,0.10164104771680385,0.19471551115217497,0.8863282170509608,0.47434717225150275,0.39595323573307106
150,1.3467811962914704,1.1109226764752491,0,1,1.3417317681983267,0.20727754998239933,0.28793444517366734,0.7180864396772353,0.1952208485737261,-0.03182976227727672
151,1.2922186088958136,1.1523922604032508,0,1,1.23326600497457,0.14288667916418282,0.23733532937233193,0.6551077405511939,0.41776556046256846,-0.20781181415685113
152,1.2229626981638595,1.2420720556514397,0,1,1.2639048165404438,-0.04354965855188091,0.11363776359353875,0.8026014769359695,0.08278018656856624,-0.1389493183771172
153,1.1445152977464055,1.373073973294302,0,1,1.1877175604919086,-0.2291607518602922,0.041547422243475254,1.0940661860381513,0.4709087595240539,0.06738721144012676
154,1.0630897775452794,1.5340875230504534,0,1,0.8606344811555372,-0.2605224697949609,-0.043112269730778134,1.573590281474155,0.40436913621447823,0.14844417625231862
155,0.9848876352123894,1.7102850008938904,0,1,0.8099141612751694,-0.21544216950205117,0.02491942878797368,1.9010734185282852,0.22311440436634516,0.03968009777664316
156,0.9154290484006113,1.8846979382814557,0,1,0.7493602502774891,-0.12889006093836305,-0.029886846255061553,1.9541232705110099,0.3623331119681196,-0.062527596241391
157,0.8590353818163872,2.039883537192047,0,1,0.7989598319669367,0.04548270792951732,0.03313100973480809,1.9404308230926095,0.270135994897046,-0.05282822154586
158,0.81852728739028,2.159691531369231,0,1,0.7971723155611656,0.06973993437798559,0.08713059828005412,1.9751861929218852,0.33820441972719645,0.0031836588819630176
159,0.7951537379237411,2.2309650460257124,0,1,0.8161742601671231,-0.04055741284841699,0.05140236390197916,2.119776172826129,0.10066300840431874,0.13819712104480444
160,0.7887210707475041,2.245026718935921,0,1,0.8434244989143027,-0.09910391398399719,0.03401925041106746,2.4355074776207464,0.04778148378472897,0.2598617013421524
161,0.7978601808222551,2.1987959073251835,0,1,0.8138066615774436,-0.05933298437542512,0.06420467416850273,2.5514958541320127,0.11343293708183515,0.34922245208164676
162,0.8203585249661576,2.0953696241541078,0,1,0.9287764027661501,0.10094673367571226,0.06074810945209659,2.341086973981543,0.1823911971520045,0.511140704087098
163,0.8534886833473065,1.9439135063247528,0,1,0.8874464830229235,0.29917169430029916,-0.01565820275254844,2.3235808071136606,0.29459566471285653,0.6202224620903256
164,0.894282200161796,1.7587751701655778,0,1,0.8026031080122116,0.4076919698013018,0.07458033221686079,2.061357218740491,0.1676773914218186,0.6215848105566444
165,0.939722389978151,1.557850930467339,0,1,0.8003870467551741,0.40505359338069785,0.21441029647099177,1.4842185000530737,0.18769963731591202,0.5733249819683179
166,0.9868577422222924,1.360386817861305,0,1,0.9025582235633014,0.38280331583755267,0.19670147625646484,0.8140238861063204,0.12751884824888915,0.5085961340847486
167,1.032861250604087,1.1845400217619217,0,1,0.9539403257943604,0.31553730267636904,0.19527584152239422,0.29370991601588514,0.1914811471669033,0.3948545410148326
168,1.0750747860041847,1.045118640785792,0,1,0.8283921884957003,0.1478247602446967,0.20286786054396214,0.19246239702827417,0.3168491273934048,0.12025982052291045
169,1.1110796339688944,0.951910002231198,0,1,0.8596813752296838,-0.03957943911645095,0.24769177422969466,0.1818688095598057,-0.010552930341102865,-0.3469851759909124
170,1.1388219125826164,0.9088862809788392,0,1,1.131221966966134,-0.2682428768870695,0.30299623854930297,0.3036484150490633,-0.10375197262126072,-0.7332466947093177
171,1.1567911747132238,0.9143726854310067,0,1,1.2010180359836728,-0.5583032411067452,0.12229934400001542,0.7280143112317138,0.4644135575342745,-0.7090535396228276
172,1.1642091554555227,0.9620434685496052,0,1,1.3553566533824248,-0.5615500532546838,-0.0018944459594167208,1.0971220975247926,-0.004692126325227337,-0.27330556150519053
173,1.161157493582593,1.04244316599437,0,1,1.297300808666253,-0.28733107087794246,-0.05385181967750482,1.6923497677592307,0.360126960843375,0.13432922725296315
174,1.1485832154148605,1.1446590917215829,0,1,0.9011756729630203,0.0628158506718926,0.11105620398146505,1.700468209442903,0.3625508206689099,0.2776630929123365
175,1.1281689697823154,1.2578068936691125,0,1,0.8902062391835682,0.06307755182373616,0.24263102227676545,1.2988878074117824,0.09619660852951294,0.27674586114678273
176,1.1021107207641705,1.3721160125779774,0,1,0.9848946510879121,-0.1222580256088963,0.18888240148181698,1.0199584712705525,0.027121290990644194,0.19208586959647084
177,1.0728705547486095,1.4795697267978682,0,1,1.1408620721152163,-0.25587978803513356,0.1257441389919492,1.0855108996305258,0.045575552165893485,0.15147880547304926
178,1.0429541333273458,1.5741942171875944,0,1,1.1166567597210386,-0.2913506645132213,0.03460700429416855,1.3544800380390032,0.03652320299047205,0.28881104813388786
179,1.0147245909484164,1.6521431270334515,0,1,1.0910083673260678,-0.2780167476158646,0.029421644012190013,1.5649479528867252,-0.08578820275521168,0.46533898674932905
180,0.9902416336319777,1.7116840708102814,0,1,0.8938353035340804,-0.09076374148482493,0.03314473910852438,1.9405405065903412,0.19221934495532225,0.5179046888487684
181,0.9711200373348162,1.7531125006794452,0,1,0.765654287437375,-0.031821632129498074,0.1982149619451118,1.8575116471686373,-0.20543737639944495,0.49476247579432114
182,0.9584215889127683,1.7785591231858462,0,1,0.7878155022531452,-0.09987293832555391,0.36013183528251086,1.6941487213605606,-0.05759403378372679,0.424692408693558
183,0.9526037014314469,1.7916514649721273,0,1,0.928614685004785,0.024292727244598494,0.40847443224794877,1.6867871855870944,-0.15034134305369792,0.4823290942964648
184,0.953533868870598,1.7970265417341356,0,1,1.153807329164149,0.16855030760291895,0.24675568835088768,1.6364145809602608,-0.1650726481856503,0.7016042554259186
185,0.9605533210404343,1.799734941255536,0,1,0.9954073459284343,0.029542199737137925,0.06311843028465235,1.6599410618097812,0.10364414737463433,0.7693245070661852
186,0.9725603787810125,1.8046019085422775,0,1,0.8367262866198854,-0.08310187976197082,0.06173327426010437,1.6655165280926552,-0.2143941108748797,0.5920065535083229
187,0.9880964875727462,1.8156175028267887,0,1,0.8773107921352812,-0.11338423885855507,0.006425670956459112,1.6292854554063392,-0.2928323347342756,0.426369125496825
188,1.0054420976460874,1.835425747212675,0,1,0.9460788739380854,-0.06159493988411142,0.008832039392486266,1.6952060911924975,-0.332390451684427,0.391529614802129
189,1.0227405475980178,1.864975621036366,0,1,1.0598454405415676,0.004491327955265923,0.1286058369697926,1.7260402737291172,-0.1853889661136167,0.4895484226936469
190,1.03815607345768,1.9033815644636773,0,1,1.0967867014692192,0.016034181164233347,0.12132836341250677,1.7534415779138754,-0.02650561318033872,0.6060427437382562
191,1.0500495376114978,1.948017169841091,0,1,1.1089764160944122,0.01975707067577682,0.06831327475446057,1.8065843319714925,0.0038977443356341818,0.6520037804033711
192,1.057141375392531,1.994837825298823,0,1,1.076714558687858,-0.011500069431756015,0.0024513589036014366,1.8234706469087065,0.07215944541158321,0.627269988110778
193,1.0586339954501676,2.0389016163195595,0,1,1.0474827608794033,-0.03272622530708753,-0.0038973617886204834,1.8504323453509537,0.08908795458206852,0.5703796467668261
194,1.0542806011911987,2.0750338461087696,0,1,1.029720741511054,-0.04400246507336985,-0.019869070938038195,1.9655425005546925,0.0768938084545805,0.5424485537483836
195,1.0444035741958275,2.098556860079456,0,1,1.0096833018768723,0.009896156955396336,0.016731878726839358,2.2113201301212064,0.13366280238545522,0.5110610395989774
196,1.0298749790816735,2.1059841367947008,0,1,0.9873583415983809,0.09510834269855362,0.04185864315626164,2.2699962642048703,0.2532451593259556,0.4816302942499868
197,1.0120718123972714,2.0955653738380033,0,1,0.9681356278186429,0.18198859995418845,0.04216766323843928,2.152661703419636,0.25157419722745644,0.4955690589512824
198,0.9928111028598336,2.0675818145584284,0,1,0.9812530312296196,0.24354881694379873,0.11631433146551727,2.06213961482496,0.12948599190350168,0.523642627879706
199,0.9742587953537046,2.0243329092630002,0,1,0.9716002054735974,0.264190048435522,0.14103989528915267,2.0006377487016724,0.03276206546968866,0.5166083582990229
200,0.9587965010806221,1.9698136059975875,0,1,0.9859887352977258,0.20072862943026484,0.1344125231616901,1.8721373193933393,-0.1487473323089254,0.48265066835095755
201,0.9488268401954613,1.909135458884681,0,1,1.0506217379905525,0.1529650245840176,0.11562006831358985,1.8251304882700956,-0.2218158052390758,0.3999199318518595
202,0.9465050577071151,1.8477809401511782,0,1,1.0450049974585736,0.10519111782970263,0.14499104025336298,1.794780046135463,-0.07715108503586247,0.3274201482597293
203,0.9534034550807434,1.7907969294237633,0,1,0.9809692957420016,0.1535853392282076,0.1511605988695806,1.7826924664891663,-0.045260632835108845,0.29920994089825503
204,0.9701449957183284,1.7420356038195877,0,1,0.8940794549433055,0.1727131989599316,0.2165935140175428,1.7559587640854741,0.19152941883152677,0.2856471984311748
205,0.9960778691950297,1.7035470075385863,0,1,0.7439780092680077,0.28301717729506426,0.1907578423613424,1.5726076212478672,0.37274007390052477,0.27022832148930026
206,1.0290918529325634,1.67522364665507,0,1,0.5206160774218394,0.10482535812221756,0.11842659956919216,1.1357744072728035,0.21208681615085437,0.2400100199406209
207,1.0656819103020607,1.654789148171947,0,1,0.39848964571044054,-0.4397258519530521,0.3438899662670045,1.0222154225205888,0.03859251231181879,-0.06816613321008723
208,1.1013261353563093,1.6381893339856077,0,1,0.8872425124116075,-0.6463966627405968,0.32489973029244157,1.1761142215955065,-0.9627903775422137,-0.24309222857011614
209,1.1311592854419414,1.6203614372104258,0,1,1.3993558524711636,-0.5130199629625097,-0.02538240398000184,1.8100044395360546,-1.349278388742022,-0.12309567943784125
210,1.1508159622694527,1.5962360969433196,0,1,1.5264677727138782,-0.07839372632868671,0.00948678745566518,2.12541415050653,-0.8679985258764629,-0.0375693579456783
211,1.1572419161199015,1.5617301042375495,0,1,1.4328678244202635,0.24652841703546835,0.20616621645393537,1.6402959421809378,-0.1949593061273193,0.18242636520933214
212,1.1492717925907014,1.5144871891689469,0,1,1.1092513798044632,0.16103016695844394,0.08465164946052788,1.3249146433999002,-0.15741185354405945,0.3235367023326077
213,1.1278462865162076,1.4542265369671956,0,1,1.1216900907896394,0.014777136666208097,0.1085540299289099,1.2674784987876924,-0.25837956965181325,0.3496935124715993
214,1.095848545419928,1.3826943367020943,0,1,1.0590994248650112,-0.06822327054498342,0.1122535724087398,1.366002046018633,0.2557723422881436,0.3380912074622388
215,1.057629554840469,1.303304797488219,0,1,1.0058705141530828,-0.04649386284441413,0.1219581336515692,1.2588275565796234,0.05922950706682316,0.3279559709313288
216,1.018341045354203,1.2205838551029986,0,1,0.8846368600944345,0.05204018505007124,0.054796685426598615,1.1618302472447182,0.3304974618915944,0.3283352448740397
217,0.9832060486260247,1.1395215528802631,0,1,0.8205474694989989,0.058298806851573175,0.06593027074990418,0.9398280521668804,0.0880887479956849,0.360587299577857
218,0.956844463523307,1.0649286144162604,0,1,0.9079290472278453,-0.016456428653209752,0.005460386263760795,0.7591859711130504,-0.11783651566925063,0.35986690554864154
219,0.9427417818060861,1.0008832540304886,0,1,0.9489577789771696,-0.06937705037308513,-0.05280676880368048,0.7679220949894333,0.009196405461981775,0.3506291594325118
220,0.9429096762563803,0.9503330548647333,0,1,0.9623160819832418,-0.10651507031078747,-0.0379112825331343,0.9242004082305634,0.003715809994702107,0.37611599598604817
221,0.9577485130698808,0.9148764082738864,0,1,0.9620989740607044,-0.030078578294714543,-0.04400146408356608,1.0279474613531676,0.0762120166657271,0.3752554767440633
222,0.9860955600119513,0.8947001784664557,0,1,0.9235099170819948,0.08557731821099737,-0.09433618682278122,1.0159950348335807,0.09737001612509782,0.34594778184498565
223,1.0254313895450737,0.8886200513575362,0,1,0.9259334585925826,0.06649090609896025,-0.08364937746335877,0.8262494276558271,0.0400837917901299,0.3531501828467636
224,1.072212883462579,0.8941749907060343,0,1,1.0189782924062918,-0.11375704167579008,-0.11559255112610814,0.7196592579553153,-0.3111542969744788,0.27936882810277797
225,1.122293821707557,0.9077608444252292,0,1,1.2271333619084992,-0.1119087139135045,-0.11620786653620334,0.7526296996105256,-0.39607991209520726,0.1782678941688412
226,1.1713801035588414,0.9248254974598275,0,1,1.3365068157071964,0.014280444630127622,-0.11825268999529479,0.6886729763238132,-0.31530877442770117,0.2513006723840907
227,1.2154548520354858,0.940166439985055,0,1,1.3146112798390146,0.039179675934593206,-0.15464512255126495,0.5400527989949764,-0.2278004179997974,0.4044883810552995
228,1.2511131415175576,0.9483631593917698,0,1,1.1683160984042587,-0.1229113208760806,-0.2346993823999944,0.5780046714283376,-0.14383722963321016,0.4805792811724428
229,1.2757722339052926,0.9443432971511798,0,1,1.2083641597813144,-0.2960661938786985,0.04524203948499594,0.909676529211847,-0.13487980256893642,0.4794495926802486
230,1.287759580598225,0.9240300217422324,0,1,1.1912365139488772,-0.08805702236794068,0.20632400192660796,1.1442862729755399,0.1286290473766573,0.40811934480240325
231,1.2863079034663318,0.884965955529141,0,1,1.0971806306062801,0.1384711798696648,0.42729897732219213,1.0467019371442203,-0.0401185499886455,0.21030291070146412
232,1.2714930530558204,0.8267838003974048,0,1,1.2260328481874756,0.6584828739613822,0.6460855469967682,0.8976824938044894,-0.2983523990638203,0.20097612736819873
233,1.2441405096644116,0.7514141899776301,0,1,1.0493681837762345,0.4491004570858436,0.36008644920084365,0.32973518809938446,-0.24374123714584342,0.4965368524944293
234,1.2057151400645858,0.662978062161805,0,1,0.8302391204061087,-0.05591700169844954,0.3769817361089498,0.39305109513688624,-0.4115139408570451,0.47731637078599487
235,1.1582063198170118,0.567374312856871,0,1,1.0552188819733932,-0.227061532091433,0.3576918481670572,0.22626420666282274,-0.8063187959039584,0.2152727296685184
236,1.1040197894250803,0.4716215676639778,0,1,1.2970003670198527,-0.17022450558936914,0.2739354696807316,0.013706729718524881,-0.3094830557271715,-0.007602224039067104
237,1.0458753335262987,0.38304662251752747,0,1,1.157091473733904,-0.022961038508320767,0.2406362122663793,0.012977589365144464,0.1380035153074191,-0.09580992882501765
238,0.9866913990017162,0.3084391897215736,0,1,0.9105790042730523,0.026416381515434732,0.23655344491340907,0.06913471564170769,-0.05158592175575294,-0.030402215106608222
239,0.9294365024643639,0.2533043594408343,0,1,0.8845511746196074,-0.05698046758948473,0.16110263697476881,-0.04606490844525599,-0.18692585004069864,0.0027489240822490746
240,0.8769498160502763,0.2213236126091356,0,1,0.795914135612034,-0.1358560084448029,0.07886645713093744,-0.11743076030716337,-0.1871653220683872,0.025090126058621213
241,0.8317607872780407,0.21408436301205713,0,1,0.771040817821847,-0.14061359588019612,0.11698996472110176,-0.1495735776599539,-0.22032155645182366,0.06487545757353658
242,0.795949197366089,0.23108135041065261,0,1,0.6315977197199677,-0.08230507773096192,0.09681274374626973,-0.036554643022686614,0.056027489064610726,0.056617402257877675
243,0.7710783153187079,0.26995315209431664,0,1,0.6571182209740702,0.020242550523728576,0.1251630215380325,-0.17913490437169838,-0.1637886326964542,-0.026584905265579536
244,0.7582104651834868,0.32689594255004306,0,1,0.8478365355248657,0.11809197894997678,0.07817619405100394,-0.3751732426728336,-0.052814019194230635,-0.1756337382975534
245,0.7579830236913354,0.39718386719256443,0,1,0.8843933670270075,0.1693666013639536,0.012834329281696075,-0.5177688411939007,-0.012004751527402038,-0.15219331526289426
246,0.7706940001071308,0.4757165605637079,0,1,0.9492008725374198,0.18123465352052187,-0.013283667233762763,-0.5465119613312426,-0.011670334582804757,-0.09031914983523448
247,0.7963358968406191,0.5575168886553103,0,1,0.8730928447427938,0.09630078942535253,-0.023439021592763645,-0.5132651272527827,-0.039026654645323476,-0.0804682095720637
248,0.8345356496699518,0.6381217180569029,0,1,0.8376131658932691,-0.006735825553116844,-0.026558545466604543,-0.5897461459276798,-0.16126997717616565,-0.14030668970913532
249,0.8844018653244211,0.7138375272543105,0,1,0.7970997850477859,0.000805564003823328,-0.006636320779390886,-0.7099520935603673,-0.016200116118393067,-0.16124337278226958
250,0.9443285565032506,0.781856284377674,0,1,0.7310765656701715,0.0896439119964756,-0.02774630525819703,-0.8127644886225103,0.014866751444070712,-0.09938780764655496
251,1.0118350023062457,0.8402387342913931,0,1,0.8339498801879622,0.05546992870706124,-0.08865158670226421,-0.8386603981343129,-0.34338270080811245,-0.03477588406282422
252,1.0835204870274024,0.8877779890889418,0,1,1.0536911707907763,-0.12693008410207493,-0.07231674684240111,-0.737211872582516,-0.902122992407168,-0.09335775348981186
253,1.1551806009157106,0.923767576362116,0,1,1.294608997188458,-0.25966935029308796,-0.11534693923268102,-0.39773032075318693,-0.905525822445213,-0.18910358376901332
254,1.2220841314279165,0.9477238321774901,0,1,1.2458350593806857,-0.19395563669608637,-0.17838397303465386,0.07782835070971549,-0.453964876591696,-0.1019353395517345
255,1.279370852205437,0.9591486700152841,0,1,1.05688844840202,-0.07116095242020076,0.031549261311293854,-0.20652274044356111,-0.20590894484936062,-0.019733359327288653
256,1.3225158586879961,0.9574372033877184,0,1,1.12860417085108,0.012638282688212977,0.47800016085588687,-0.8009952268743764,-0.4115366081492159,-0.25789101158106975
257,1.3478069558731136,0.9419975051863008,0,1,1.4444406791949673,-0.3098458981148372,0.6616807033197593,-1.0819430213975967,-0.66341645308855,-0.776293988621865
258,1.3527786589759396,0.9125560634253765,0,1,1.3573620021700132,-0.47347348510742465,0.4957035201345967,-0.5098813680317882,-0.12397690531514931,-1.1276381016997905
259,1.3365380858289015,0.8695315891424686,0,1,1.090115800272186,-0.2861540952062745,0.3067340245301937,-0.24129549859370902,0.2681376686253964,-0.8772693832683639
260,1.2999221070852454,0.8143405059858517,0,1,1.3554797466002455,-0.17879902508464343,0.3166252514488298,-0.3550830281028103,-0.1348063430299881,-0.32565430161521497
261,1.2454492731220268,0.7495547190153881,0,1,1.5171088974899505,-0.16320648321715361,0.17029986382719442,0.13648586148900121,0.498398619235955,0.00041913615085879103
262,1.1770621826029743,0.6789050853355889,0,1,1.195653166163967,-0.13655493758724863,0.22378779194714524,0.5231035492087865,0.9530916640014537,-0.003377347868026074
263,1.099688198631311,0.6071549811076479,0,1,0.9723774207525863,-0.12064604340698089,0.20951709637336727,0.5101190215134664,0.2815297073659911,-0.00826296649379739
264,1.018683527110727,0.5398582594451965,0,1,0.7918399484780732,-0.17319574997678053,0.20111202164608086,0.5026150242847981,-0.00393049179819426,-0.1304707769443786
265,0.9392627325470013,0.48300441359306956,0,1,0.6280228081038618,-0.046895014286370815,0.2106287278654241,0.2180502211396524,0.21178761412573227,-0.25160648422207615
266,0.866030288750522,0.4425628216043752,0,1,0.7195468538341367,0.00039752669572068304,-0.011790716827029245,0.008637805346213596,-0.5311393022257839,-0.13440923240913233
267,0.8027052323647887,0.42395453978051995,0,1,0.828642171948397,-0.04478644288698659,0.024592565712880928,0.19942269799388337,-0.4198109035463313,-0.05353267567863724
268,0.7520705883422071,0.4314886398442454,0,1,0.7301709555987793,-0.13669450900959842,0.09384134436871629,0.4351258027662345,0.23786269117390363,0.02496393383412606
269,0.7161108700927217,0.4678048439211821,0,1,0.7668582319235746,-0.19556830159577393,0.06130583050396265,0.5067763275388083,-0.1251200932566393,0.022167421534082223
270,0.6962496217915751,0.5333759095115225,0,1,0.8507713048059661,-0.23120330734003264,-0.05422385790603136,0.4018076678150414,-0.11586852713371278,-0.07993631454761632
271,0.6935780917097117,0.626141603708375,0,1,0.808790638414004,-0.1743325372950097,-0.17073028789969755,0.460212609889197,0.006979918564160534,-0.17190598936172147
272,0.7089761215928617,0.741360085095718,0,1,0.7745819187429709,-0.07090669110315144,-0.1309197795617829,0.47328022108161394,0.11949399596898597,-0.15282416850002475
273,0.7430614095182739,0.8717582496372122,0,1,0.8051843879695924,-0.026563405625282165,-0.16683626073311114,0.611333533882179,-0.11614975059855964,-0.1000201234263023
274,0.7959539877947661,1.0080305494953021,0,1,0.92289410523902,-0.11340205287186728,-0.12383309677897451,0.8071397917797049,-0.24994377952575392,0.01572594893648553
275,0.8668972627416075,1.1396757263401351,0,1,0.8167836948596181,-0.32844067038753233,-0.010630603507592666,1.1812141272531727,0.14863233931947625,0.043880793464512624
276,0.9538262103507705,1.256084450602323,0,1,0.5321918985201394,-0.23805862290886473,0.019104816581755175,1.4759266441541827,-0.040086381576134,-0.12339076207310194
277,1.0530101806554661,1.3477211050589302,0,1,0.8401826161448368,0.12674646245643142,0.020197713223377923,1.0797993684323834,-1.440404659828105,0.0012545605941294573
278,1.1589095230343212,1.4072085221806243,0,1,1.0399033157639017,0.16061599565340437,-0.19099848613425174,1.0575369930694614,-1.042192306893022,0.18625629500727342
279,1.2643576556384453,1.430144664763532,0,1,0.6922419883365235,0.16026094741806005,-0.26407564656745874,1.0478254012482846,-0.4587328989288582,0.24272612793602186
280,1.3611126846297001,1.4155463577258371,0,1,1.1983833685046805,0.25173451089986065,0.328914798087013,0.23523437670118036,-1.185824329948936,0.7371201143150728
281,1.4407299765914596,1.3658887799245572,0,1,1.6667685384295028,0.4978559530156313,0.701717987980901,0.4752156144812202,-0.037604126578796346,1.3585479322015965
282,1.495611094246603,1.2867531126528045,0,1,1.7939560811518998,0.53198113967204,0.6897489513878643,-0.20045484588530094,-1.36710204144409,1.5253902398186308
283,1.520017911961488,1.18611161700962,0,1,1.6763389087067508,0.030720022977278043,0.1162751941028879,-0.5057884951851255,-0.3417827329860209,1.1327512436945448
284,1.510841127805136,1.073310737708828,0,1,1.4904411608244534,-0.167692115616503,0.16039600783622862,-0.18018138230924463,0.0959506426644815,0.6001008415443086
285,1.4679869253164586,0.957884720445127,0,1,1.410963838900277,-0.18889573090641287,0.19385745989577668,-0.32166863339627083,0.11866425811587886,0.20642952009817786
286,1.3943528082656849,0.8484107510023409,0,1,1.3524071922761634,-0.0021604599839361756,0.2589208369654688,-0.5871414786500663,0.13363859910327341,0.09877738123445937
287,1.2954495253928844,0.7516337301700291,0,1,1.3137863991976368,0.10638176524913891,0.21690390566226858,-0.5462687802314435,0.19907587800331508,0.026280203844167887
288,1.1787683438074212,0.672014944228203,0,1,1.049669930711733,0.17581133768043342,0.10329428313688326,-0.34412892228818254,0.6553810566473462,0.07535520882162118
289,1.0530030789200056,0.6117324869114911,0,1,0.9491216150699174,0.14110514872144944,0.10960415501496035,-0.5366725830288289,0.12247529162344312,0.28529162961619176
290,0.9272314360031894,0.5710456948076629,0,1,0.9125943838628298,0.028148096899198945,0.07798004470312123,-0.6169041287635875,0.16086282795372409,0.27997680959404914
291,0.8101468893819272,0.5488679350986929,0,1,0.7456810794637121,-0.061777586975839016,0.06769744885726053,-0.7271800097756642,0.2834080515229002,0.10697193210342262
292,0.7094115237256285,0.5433747518970162,0,1,0.6431126306583699,-0.06338246890257472,0.048945917973270844,-0.776246770351941,0.19714710189310344,-0.06548133893912303
293,0.6311754902316726,0.5524978476994383,0,1,0.5263818929387044,-0.030223965664798142,-0.012847043603778224,-0.7152029591150992,0.2171730530156951,-0.08184611210794619
294,0.5797836508100331,0.5742113607985264,0,1,0.5224080795299451,-0.052710568592394424,-0.020568918397295313,-0.567510737466251,0.16155812571844816,-0.012528053524591442
295,0.5576641899431458,0.6065947827357396,0,1,0.6068188453420257,-0.09914794813007016,-0.13251223968476047,-0.36025968990449275,-0.0465426604299955,0.04552961870984683
296,0.5653671582295301,0.6477349664447143,0,1,0.7187106801595555,-0.06296219495864065,-0.14058718447516683,-0.18882146826221916,-0.048638932493270795,0.17847287193276687
297,0.6016997240725287,0.6955773010064127,0,1,0.7242607068930609,-0.02302239870672673,-0.058468482818439874,-0.17906234806662563,0.3711346628053136,0.33848931878625876
298,0.663901349339601,0.7478295507321259,0,1,0.6989386810881473,0.010259060894118295,0.01297394104797196,-0.38055552645721785,0.6651269076299919,0.45320287820468447
299,0.7478226452268306,0.8019645436684003,0,1,0.6678918423564477,0.09582495336369541,-0.03309319918761485,-0.7240071545477934,0.5108738378636875,0.5217644008776398
300,0.8481080322456632,0.8552959003429899,0,1,0.7012450265524766,0.08384889274448404,-0.0071293531700539125,-0.9461108224811883,-0.1043357141269722,0.5314078713379625
301,0.9584146304926046,0.905060854653844,0,1,0.8289311619670449,-0.10008470194233869,-0.04180849284205593,-0.747716461841268,-0.6914051670079648,0.2896674277013106
302,1.0717098363372999,0.9484594008796176,0,1,0.9926684586330008,-0.24938680526469145,-0.190538900168406,-0.4909687853681928,-0.7320490122795682,-0.09387194270344924
303,1.1806728428815618,0.9826560997337277,0,1,1.0898410190320051,-0.2631206343686491,-0.19230422206186976,-0.25129950336614393,-0.5094413015631379,-0.241066478152576
304,1.278190541121595,1.0048121338335718,0,1,1.2723530928020284,-0.23755593624391627,-0.05380192900079336,-0.48179262707711423,-0.25110143188994044,-0.17566885301104795
305,1.3579017389912926,1.0122393052815584,0,1,1.3752313517291426,-0.25085160709993104,0.4033684135600219,-0.5540392433699556,-0.23109870568892216,-0.3805358167669265
306,1.414718377272941,1.0027291390432276,0,1,1.5229550963212284,-0.40401514668193,0.5794072533869588,-0.49957645264516465,-0.5726945518161904,-1.0115069579082483
307,1.4452463183955018,0.9750176946021538,0,1,1.3858163496750362,-0.4487727786785863,0.4896480211028159,-0.1925021816983416,-0.12739347327616485,-1.4596689994690095
308,1.448046007357892,0.9292482636788344,0,1,1.1228181709369434,-0.2805569661129703,0.23077749062296524,0.13197947005809244,0.15896885721363865,-1.406452266111811
309,1.4237105225687614,0.8672535529281555,0,1,1.245068742509014,-0.06878325946955978,0.15738832335144756,-0.012311827726514799,-0.32158265509040657,-0.9332886763093822
310,1.37477451786692,0.7925296422318755,0,1,1.5733509192107615,-0.051806471157709026,0.1349917815772559,0.0496283873951266,-0.14475097945133902,-0.4185325233770033
311,1.3054784869223353,0.7098890723245963,0,1,1.5520292163819591,-0.10964051001414138,0.177391127313484,0.41041947812113777,0.3449255812113256,-0.16716286350616616
312,1.2214006680467366,0.6248905666549455,0,1,1.235544778902747,-0.17085998971796573,0.2346466367633944,0.46105902973866814,0.17753205461532243,-0.10324460523553985
313,1.1289640060867276,0.5431906760478405,0,1,1.0276568030284199,-0.23529862487498837,0.22061514025204376,0.4297170440203564,0.1703759016293252,-0.16858321650478725
314,1.0348499047309756,0.4699424574117727,0,1,0.8484611406277218,-0.16037926413224443,0.1503796455522614,0.2741172403324419,0.39688766799117914,-0.23938684156854384
315,0.9453903523229853,0.40931440051071516,0,1,0.7077298934503223,-0.05412215824967709,0.06079173636807825,0.06898290042774596,0.33783395922849696,-0.26379463269476944
316,0.8660325504895512,0.36415763004358137,0,1,0.8501785237025455,0.03555636747326437,-0.03668607598577285,0.025774976841728713,-0.2745165324085226,-0.16104805321838966
317,0.8009567563254056,0.3358266814616371,0,1,0.8405857489211417,-0.01886867122575657,0.05147227078740907,0.049248452899514954,0.31232245394931574,0.015914097151229115
318,0.7528868001655246,0.32415397025135684,0,1,0.7020480200528425,-0.07980610270513308,0.07204713036549681,0.08409145196801775,0.29997033258951805,0.16907366674133295
319,0.7230871832387493,0.32757826175177523,0,1,0.6977558261497633,-0.14877140186127774,0.006813317095987591,-0.036980309706554276,-0.05533391806096859,0.19682177162806697
320,0.7115094544184458,0.3434245022046084,0,1,0.6965739891713318,-0.17869657458624383,0.007521748518365919,-0.1888594619113001,-0.08731252203329747,0.027944267114196383
321,0.7170360555066919,0.3683226385943793,0,1,0.7769808026940522,-0.09808684611680968,-0.04345036485296508,-0.12893067749358714,-0.057056899058256644,-0.15479852434319538
322,0.7377651142977305,0.39873273465277564,0,1,0.9264912434130551,0.0014386229480886194,-0.025408229977421037,0.16281182409693212,0.3669050995399711,-0.2518663658002443
323,0.7712825362702321,0.43151131159915335,0,1,0.8230146065833664,-0.02389703108896133,-0.12050725261846905,0.22858169812922713,0.7680157476660553,-0.29292094037560373
324,0.8148827291884791,0.4644210314054438,0,1,0.6767498793198357,-0.09420006749194815,-0.08678485583989226,0.16451896918390801,0.4516040039134106,-0.32430003915605243
325,0.865726856288779,0.49647726686823285,0,1,0.7216502196448967,-0.0983801935548485,-0.021753460586700555,0.1018325064254605,-0.18138947665591715,-0.3438263542174839
326,0.9209553417269918,0.5280566288498728,0,1,0.9095729409082577,-0.05621340136015606,-0.01688375995990805,0.06398721900095697,-0.6588308017397446,-0.2989781274833132
327,0.9777817061142233,0.5607514593583033,0,1,1.073436616591072,0.01733532856893122,0.057239733573057304,-0.22589879122387743,-0.6184894889025169,-0.19846328059441207
328,1.033583049414881,0.5970130097692065,0,1,1.0656845191839865,0.0885092027383585,-0.0488735318354276,-0.2857154321377735,-0.24859173217647473,-0.18489778633502685
329,1.0859834101528143,0.6396700860004789,0,1,1.071382231225614,0.16644211022603558,-0.05757366732499338,-0.3616617148020529,-0.02283879070452879,-0.227531304230026
330,1.13291801209675,0.6914371696138104,0,1,1.1537524458272672,0.13272668431856158,0.018465296523739374,-0.4001773424051814,0.10437800664695092,-0.2016919513690519
331,1.1726728342789017,0.7545271254062056,0,1,1.0432491232611094,0.07709275972538647,0.12715687543823875,-0.28780450942637525,-0.10562876383541263,-0.041188676799769
332,1.203905237205536,0.8304453315100476,0,1,1.178604954352301,0.1105054755518089,0.44859915105341325,-0.7449914643837052,-0.8417799321721033,0.32670519859090685
333,1.2256572875739271,0.9199684415686066,0,1,1.1939983240028715,0.16035058940602565,0.3862127442203788,-0.8704398320724333,-0.6174539396251494,0.6287560120555206
334,1.2373716769725536,1.0232333933962792,0,1,1.0544631030705254,0.012763105459354902,0.044192607240559414,-1.0500850021905974,-0.7228285791779776,0.5318040921326153
335,1.2389145515117803,1.1398263782007771,0,1,1.260040456718916,-0.09158585944697731,0.12298925153354716,-1.0179219968352606,-0.46481492335718905,0.2801736324579781
336,1.230602529413223,1.2687935893600437,0,1,1.3149965682056521,0.020039432125311032,0.23909268869020414,-1.0500714561531064,0.07035164481001717,0.14112424956873967
337,1.2132218596829147,1.4085751651283427,0,1,1.2321527929814269,0.17314555791100109,0.08712162863139575,-1.177901402761116,0.12265551891215966,0.12925313803751023
338,1.188019349628733,1.5569367699299075,0,1,1.1548591000705486,0.2892681324039856,0.1717654910521144,-1.3138122757938087,0.12104236450935936,0.13836984569737829
339,1.1566456323663443,1.7109952559052888,0,1,1.2081853645256957,0.31453234332282004,0.12775885348328522,-1.5457992762757482,0.18164582455297767,0.08242903107315545
340,1.121044478833961,1.8673987748309275,0,1,1.0613924760429192,0.2225622640027451,0.026984361204313648,-1.8724367500713008,0.4783011106416293,-0.04304092377516922
341,1.0833010539265062,2.02265216075187,0,1,0.9622334739807723,0.13631156775180261,-0.0022872380706982693,-2.218790121691895,0.19177418877116695,-0.08910031416669191
342,1.0454786698808005,2.173510935015251,0,1,0.9556883425672423,0.11192995373506347,0.021775073932241238,-2.3556621522642014,0.10524867637757658,-0.06432257967282662
343,1.0094800744933166,2.317331754670049,0,1,0.9649197778912094,0.1271648812256434,0.022678932474131972,-2.411043275260042,0.051609674882567284,-0.05700578053493085
344,0.9769604343821335,2.452276253637652,0,1,0.9900708940082936,0.15947735853474765,-0.02940087425131045,-2.4873312819901487,0.1666395159810619,-0.06874987544823002
345,0.9492975504913729,2.577309439554768,0,1,0.9692591195435429,0.17830931113296655,-0.06650828121897803,-2.62865760094099,0.19609674759522056,-0.0742189273717221
346,0.9276017550860268,2.6919898024142506,0,1,0.9903762314832759,0.08440495992885608,-0.05199272252699663,-2.746288503578332,0.20495839568153928,-0.051369829712589604
347,0.9127350874176713,2.7960968107594306,0,1,0.965699762203054,-0.009472968897269183,-0.08086092684751864,-2.766143967277711,0.3950590216413652,-0.022884343753567196
348,0.9053112384341817,2.8891767632302967,0,1,0.9039923958993276,-0.06398406471362875,-0.052100336393131504,-2.7488800682132153,0.5675308102935182,0.0044619689549202915
349,0.9056613631708545,2.9701115552373407,0,1,0.8881114024659974,-0.06998241819954194,-0.042590154866826956,-2.71109105474538,0.6293197697639891,-0.013411910980122616
350,0.9137690383831324,3.0368250049864414,0,1,0.9030893644493201,-0.02768450527578328,-0.04092394005592459,-2.7732853324216302,0.7272483975482952,-0.02434566435982212
351,0.9291928111320606,3.08623105321601,0,1,0.9084150013965578,0.026152369566612738,-0.07547905502600251,-2.82549779056951,0.7629659304218078,-0.006412472896379276
352,0.9510024445508439,3.1144925504070295,0,1,0.9272279290929193,0.06707373050348613,-0.06435996826441355,-2.8355445086131716,0.6130530634249153,0.015423806569751675
353,0.9777552173964401,3.1176014517526176,0,1,0.9397644707236341,0.12108258766018141,-0.04046474224616802,-2.9123098623405688,0.5332043464609738,0.0365710272674744
354,1.0075340328042053,3.0922196690158916,0,1,0.9457019411839375,0.15736163813543153,0.006154949531446835,-3.0019617862731254,0.46252903022704467,0.04188226503410372
355,1.038061394647426,3.0366442955944466,0,1,0.9669118953474823,0.11034816980539734,0.026093764817860608,-3.2350646625572295,0.623887135045958,-0.07296634138690589
356,1.066892215384556,2.951694576302856,0,1,0.9414624434375718,0.019076397362624956,-0.018680806637141712,-3.468571142605947,0.6944913480904611,-0.22075261632630264
357,1.0916722740800868,2.841283798832974,0,1,1.1127950478528885,-0.13633793821726503,0.06196276347682957,-3.2674919278535826,0.5426509396830861,-0.3767945321016126
358,1.1104274138337875,2.7124661832016974,0,1,1.2972490302592081,-0.26279944625861984,0.10298473344449645,-2.9166001858697737,0.6722546457877124,-0.5232104107737416
359,1.1218266621000141,2.5748513170352183,0,1,1.1784971467842096,-0.4105189661124215,0.20446893479444886,-2.3936411036440033,0.9421514217454123,-0.5171972097857735
360,1.1253537994495924,2.439436386612613,0,1,0.9778690162063807,-0.6517716260106298,0.2785355052581513,-2.046225423803979,0.9641602301958464,-0.43039215484426085
361,1.1213390732189448,2.3170684818375293,0,1,0.9241859795200044,-0.6342391490021099,0.22971229286887815,-1.7099933596799775,0.6946217044604432,-0.3810907318367559
362,1.1108434576228614,2.2168609656783476,0,1,0.8904879024936311,-0.3247691067080812,0.15359414923178552,-1.326966753095713,0.5366034747869278,-0.35086930694199214
363,1.0954332765899193,2.144912669492126,0,1,0.9686443209137416,0.13982033798958549,0.10914818081821841,-1.4413691359034768,0.2985333435853037,-0.3698379051403855
364,1.0769112971405854,2.103602894846319,0,1,1.0231156965578334,0.3076251490447047,0.029653002680477724,-2.0151954009247883,0.38693987755294,-0.4675288250361658
365,1.0570709307189194,2.091573575075591,0,1,0.9719646466174792,0.12452342654634381,0.0031467727679664916,-2.44344254733493,0.4598337190350747,-0.5565208917016876
366,1.0375179625242414,2.104316272042964,0,1,1.0016536613740592,-0.11815677357738405,-0.011888146647852333,-2.3625990712875335,0.30815414949367426,-0.5539582715910829
367,1.0195734707217492,2.1351362734109327,0,1,1.0127692257352936,-0.33344187963674987,0.005905191804778356,-2.2391036121454873,0.2966512576253157,-0.5122671182671957
368,1.00424465596621,2.1762260024987063,0,1,1.0354305901264598,-0.4103430884509921,0.046642428719143016,-2.1304976247020386,0.35305220170011636,-0.5201499503014896
369,0.9922336304536331,2.219637181968895,0,1,1.0014972285765018,-0.29632278253484323,0.07024266075183727,-2.117312329968374,0.4181474380593415,-0.5679891741766262
370,0.983951749486276,2.258038153835722,0,1,1.0107579203451416,-0.20780656881298573,0.0963718933039616,-2.1968261033421688,0.37484128551529355,-0.6350928168648877
371,0.9795200181163544,2.285225777194003,0,1,0.8908834927931023,-0.1332387448921926,0.14778749956726958,-2.141031123868554,0.7354892475841339,-0.5559222815997706
372,0.9787584970936268,2.2964125512309366,0,1,0.8322319196521952,-0.10307165248805734,0.0799666176983822,-2.2169885944316152,0.4708791090869236,-0.38903314665431415
373,0.9811868236580571,2.288337900133728,0,1,0.9274089090899896,-0.15545701130220646,0.05075527574843771,-2.1349812975772897,0.18068873787614123,-0.32890373175385407
374,0.9860619980228705,2.259268964806807,0,1,0.9642707927403148,-0.21045688997614573,0.09833486906474061,-1.990910669297249,0.3073624575520642,-0.37366228965871084
375,0.9924657256369072,2.2089604507089016,0,1,1.0244420232355547,-0.24541818358846243,0.0809252111743401,-2.0049369819615412,0.26405985008562777,-0.4893885855635194
376,0.9994312693127747,2.1386271943242696,0,1,1.033874073350068,-0.23346372026120915,0.06149525852298661,-2.0308996109474884,0.3784888778343085,-0.6296207016145821
377,1.006083630216158,2.0509452778369237,0,1,0.952340836423884,-0.22872775601540807,0.04315758376675021,-2.045177078384749,0.3194594440914111,-0.6788593854677888
378,1.0117651159919685,1.9500511926351725,0,1,0.9490695544579429,-0.26103429503427794,0.06288531347490241,-1.9827168747698007,0.1490348062876728,-0.592892750218356
379,1.0161273241571427,1.8414764971025537,0,1,0.9706406742582,-0.3199614378596463,0.019570711559396794,-1.8093813948574597,0.13445211920725317,-0.5144185554615288
380,1.0191803575830047,1.731952799964797,0,1,0.966499927923234,-0.4041716883915202,0.060708225944630566,-1.7350838265520907,0.150294417257697,-0.5215559674959355
381,1.0212944754898554,1.629045852717981,0,1,0.9724099900131647,-0.39170179812747535,0.03199389422561521,-1.581529348044209,0.13788424923417011,-0.4932015541845072
382,1.023150190857945,1.5406133700750515,0,1,0.9775482337627386,-0.34673726489874823,-0.01949430931904048,-1.535980792678635,0.07804587513690009,-0.3929909176076758
383,1.025635309037871,1.4741160997054974,0,1,0.9622225349580446,-0.3470464576288027,-0.05495328594918422,-1.4967430852756856,-0.08116247582045488,-0.37995795042993763
384,1.0296936649287012,1.4358412162855017,0,1,1.0182978743106006,-0.3391266360505834,-0.0022014629235907446,-1.364602569235346,-0.3759338692775803,-0.46964696640817594
385,1.036138622241042,1.430122504594578,0,1,1.0448583708377426,-0.33271018288271287,0.12163447517412207,-1.1893347028518537,-0.1451542028580682,-0.5135021653414362
386,1.0454532288546616,1.4586635983659306,0,1,0.9022772997914154,-0.3476628507290565,0.19703034790506824,-1.1573627115431782,-0.09523852835462324,-0.5306888232197459
387,1.0576085783013365,1.5200832227958538,0,1,0.9186708109886265,-0.2229251923748086,0.2747328941421674,-1.0965236873465452,-0.46081198923486083,-0.5316174588925491
388,1.0719408089788136,1.6097933078257225,0,1,0.9446871219141592,0.06050655865381663,0.23140027749733466,-1.0720672644824236,-0.6386838679774243,-0.45659075522133935
389,1.0871290143295673,1.7202822509057087,0,1,0.9460688668821731,0.24281411179645399,0.22629921614976944,-1.3692855116687461,-0.680436886917996,-0.26906942051024446
390,1.1013045557471746,1.8418072129249325,0,1,0.9422905125429057,0.26687182159042266,0.2249438572178211,-1.7588769959486628,-0.582748820497463,-0.06405647091943197
391,1.1122962804540766,1.9634141656615671,0,1,0.9997555565848115,0.2830510364045519,0.22942883579233075,-2.081177037308374,-0.5358570467050039,0.08129534826321679
392,1.1179815244530353,2.0741254608119615,0,1,1.1495736025467287,0.15726738813483848,0.1698035930798787,-2.412856741738398,-0.6192065695922095,0.0491409172528045
393,1.1166779712737458,2.1640899394701787,0,1,1.3987330789903205,0.04214730269446641,0.10648270610124812,-2.4312226501768857,-0.6377043169940109,-0.21603740975882046
394,1.107487762613735,2.225502377099253,0,1,1.3381384476136442,0.011657131943749666,0.04985965759347785,-2.1829642034094077,-0.011876817602818985,-0.4600766386110173
395,1.0905068324691582,2.253169046071563,0,1,1.03994571002649,0.02289065801231948,0.06500963448893157,-2.028605596079315,0.07511271226772154,-0.46572751829479214
396,1.0668470259234455,2.244696472111968,0,1,0.9845384978499067,-0.015618082968028859,0.0027160842912601108,-2.105938867988261,-0.22239418360157526,-0.3710756553351001
397,1.0384743907888134,2.200365376735767,0,1,0.9830593847399152,-0.09810147779898151,0.012010146381653633,-2.1825805437045487,-0.07092384431663651,-0.2835644243103344
398,1.0079159395752177,2.1227895566050856,0,1,0.9727120529916574,-0.17976833208027015,-0.019125946111306073,-2.1594524906550516,-0.12903246096375273,-0.2578435573741854
399,0.9779079158780808,2.0164542524387272,0,1,0.9427618161799908,-0.16605404455777278,-0.033722908509471794,-1.9023562944480696,-0.014714339396102519,-0.2755242343840711
400,0.9510530373649031,1.8872075436338418,0,1,0.8911633062247608,-0.16388001480896797,-0.03088696578075662,-1.7063431741914923,0.047717226811051706,-0.31970650407843965
401,0.9295377598891568,1.7417601573357886,0,1,0.8481500750615211,-0.14906149955736142,-0.04662628081862378,-1.608995616760408,0.12092605726238355,-0.4158636366556386
402,0.9149438038515433,1.5872314512936454,0,1,0.8032598719113991,-0.12897262412036808,-0.044824558504154746,-1.550322178245386,0.12545468236873852,-0.505034877216818
403,0.9081710920427257,1.4307541432832414,0,1,0.8708575732612399,-0.17782123126190819,-0.025824788232368244,-1.4769259393551877,0.0930865711507578,-0.5343328719681646
404,0.9094684018974767,1.279122417146652,0,1,0.950565437849512,-0.20875525982774318,0.0006733963594091983,-1.322982190445053,0.15147355898393963,-0.4719167355367624
405,0.918544467255043,1.1384538531796242,0,1,1.0324997514184615,-0.19439095384691046,-0.09112315177426913,-1.1360792657909176,0.167507901479231,-0.33902763581812345
406,0.9347142064505025,1.0138468455360097,0,1,0.9792701955947629,-0.24667197527548437,-0.13057154165927873,-0.9423320418180309,0.20131403273154128,-0.19432586263279494
407,0.957032712456792,0.909046825624318,0,1,0.898903957466249,-0.2541625158328876,-0.07756427987234478,-0.7772323295763548,0.18272556189239827,-0.143135073359674
408,0.9843867465905803,0.8261687145692965,0,1,0.9049399948444795,-0.17755757693912613,-0.07409622117888724,-0.6499648638870459,0.20804466915610603,-0.09789898730928295
409,1.0155402759621783,0.7655408955805278,0,1,0.9444874751751174,-0.10700348341774155,-0.033667020356464086,-0.5874964725274843,0.14963010008666358,-0.039193249518726776
410,1.049151193200185,0.7257279567155475,0,1,1.066957398375656,-0.091975333323764,-0.03494459569477423,-0.6200739371463876,0.17507396600508418,-0.02408394534266917
411,1.0837810809890682,0.7037571839806842,0,1,1.1135515305120207,-0.037517106589966674,-0.08190358043031844,-0.6991893124474955,0.2554165140192814,-0.07994884434195779
412,1.1179120613987423,0.6955281733619646,0,1,1.1245430539287842,0.04282665288684416,-0.060222285058326545,-0.7201489758303041,0.15503418775407382,-0.15679396740818694
413,1.1499753923111675,0.6963421775983324,0,1,1.1053312755508942,0.07966160292335653,-0.12437178649257168,-0.7526224328137223,-0.07929588609055366,-0.18051639660914776
414,1.1783930758911494,0.7014627337681552,0,1,1.1575406011215894,0.036416477172838774,-0.17260345304301702,-0.7063621441870733,-0.26125855662575587,-0.21090490605111062
415,1.201635025013527,0.7066178207303861,0,1,1.1529669519203092,-0.06545600531330914,-0.17263802221277236,-0.7703754580846209,-0.18582827753535272,-0.19030567420799682
416,1.2182944634505382,0.7083725437774128,0,1,1.1597217636963018,-0.13287010133249938,-0.04485862031291719,-0.8007030388944895,-0.08372061000300675,-0.16177636232483417
417,1.227179535310119,0.7043326859793699,0,1,1.1796494884368711,-0.16884091572771437,0.1315722418613209,-0.7069240579766437,-0.017837670103039924,-0.1804078353722908
418,1.2274098219726173,0.6931769757417626,0,1,1.2711540531248329,-0.44061326091030434,0.38734644439191446,-0.4663747391065302,-0.14551567346184396,-0.2374407844658417
419,1.218496692080215,0.6745519239487676,0,1,1.2603606877000808,-0.7022993220405547,0.5086041098864876,0.2877166353185385,-0.06391308390607181,-0.3819176869726602
420,1.200385716133929,0.6488857925828321,0,1,0.8345408757541276,-0.3456770911391485,0.30954609585108617,0.8227902201650665,0.3585600714185444,-0.38409990976472774
421,1.1734572427199397,0.617179395745248,0,1,0.7479590850951849,-0.027040366799149677,0.20138008679410016,0.4939593393995633,-0.21098272703425136,-0.1793888384641625
422,1.1385095847700837,0.5808186770157433,0,1,1.0578484291361856,0.19098729272116013,0.30617994363439555,0.22357702458379786,-0.15324223756528121,-0.030128338416662806
423,1.096758611524674,0.5414440075390183,0,1,1.2019713357194985,0.26633433665884315,0.29092776948509685,0.27110729429473773,0.44391272635115814,0.003135079937471492
424,1.049858804888295,0.5009047308037314,0,1,1.3617970284340621,0.19890270736635118,0.2691511787761004,0.18238826155745033,0.01691146093203514,-0.10956049476443336
425,0.9999069703805776,0.46130667102313305,0,1,1.126929751668837,0.04061671146976733,0.35439407277460494,-0.05907242610914966,0.47312735486031543,-0.2227948964373088
426,0.9493766554290735,0.42511622576373936,0,1,0.6445872375945075,-0.0661097230956018,0.22305060754103492,-0.4202435501302848,0.7687460724548827,-0.32755287189479065
427,0.9009669390374687,0.39523604677305013,0,1,0.6777972003780205,0.017354652104076627,0.0313666163085064,-0.4824530524735605,-0.20358050730788912,-0.3082016032691226
428,0.8574037127557088,0.37494913860853113,0,1,0.8048046122109085,-0.0114412015605357,0.039311319516071155,-0.29627572002992913,-0.2703195792670544,-0.06989224190723535
429,0.8212581774812738,0.36766317378300395,0,1,0.7603379902162275,-0.08624707254335076,0.16937612638597002,-0.08559668288828141,-0.08112468925879651,0.15536714653380335
430,0.7948276140895421,0.37646104775741723,0,1,0.8322392753576314,-0.1976875154155556,0.09128260544584198,-0.17372292260538433,-0.2515213154638561,0.35210833637810107
431,0.7800785984434587,0.40353494630954284,0,1,0.8268711200820572,-0.20686424881148902,-0.0244210221815933,0.18406112767512803,-0.037835475528754915,0.3671452069498115
432,0.7786155954573708,0.4496189295917978,0,1,0.8647594601164763,-0.09727553087821,0.008484827022746562,0.08829871548277977,-0.2812078125999467,0.24685888372260972
433,0.7916253718425852,0.5135423680254597,0,1,0.8912647459946045,-0.13675889708114794,0.025338736710478947,-0.057768201268073104,0.07014835032790116,0.08466122200287524
434,0.8197591917677166,0.5920177773172408,0,1,0.864607458238137,-0.0904903901625031,-0.1537418280488425,0.2592585231793071,0.020475450694344147,0.1267743079380413
435,0.8629426085668978,0.6797491380528936,0,1,0.932700272703231,-0.19440790412248152,-0.05683468280152446,0.61312549905487,0.060348047526585506,0.33255881112756713
436,0.9201386581739133,0.7698892140152762,0,1,0.752412178997344,-0.27039032242780836,-0.07346958388849882,0.8164074147977746,0.3471104922147193,0.33686569224746665
437,0.9891257835308382,0.8547950993796287,0,1,0.6624444107860148,-0.2589403138102416,0.02098744970455494,0.5604824729920503,-0.3671596793826394,0.18637414032813318
438,1.0663750591640497,0.9269616471679762,0,1,0.8773086862026586,-0.14430865151826383,-0.0015890931002016146,0.551100555902113,-0.8588743408461642,0.0760020622138337
439,1.1471078565740205,0.979976955795696,0,1,1.1017508716123656,-0.10760266322470907,-0.1231242929445193,0.5715229741364897,-1.2238484474996922,0.04507917971336598
440,1.22557808684753,1.0093422106820382,0,1,1.2364594616341462,-0.047554270855644,-0.055967771800276345,0.9139697343313216,-0.730331360605182,0.05587425948414959
441,1.295564216677556,1.0130220678684347,0,1,1.2139551238068662,-0.016051469321005672,0.3212160838668195,0.8179941264745543,-0.334338845226428,0.22293189312620043
442,1.3510002424620073,0.9916400102170925,0,1,1.5001593666937456,0.39009636320929647,0.6079628841004124,0.6837124659534609,-0.933592152630334,0.5584567818142939
443,1.386642199075654,0.9482977076942509,0,1,1.3070095772260706,0.5698483520219016,0.5691790210864255,0.1116618725649549,-0.36505214350734966,0.7382592825860049
444,1.3986653917196803,0.8880594346567895,0,1,1.0830013253562398,0.15305517727911253,0.13421163202415776,-0.1077098250528156,-0.5656377149248982,0.7399045669688408
445,1.3851132657068743,0.8171893904096,0,1,1.331203853096418,-0.23380594994484563,0.16959209234284578,-0.014053706922851794,-0.8401728503036022,0.5448076947125652
446,1.3461536586289071,0.7422619944128848,0,1,1.664733160951053,-0.21494253952430714,0.27164168536986716,-0.13769233407927337,-0.3012645110429656,0.1971623624356696
447,1.2841202897411383,0.6692862273669925,0,1,1.3680492557891766,0.028510279258152416,0.09139382876511087,-0.2517279686581846,0.44663940393054047,0.1297892920430644
448,1.2033267210276983,0.6029909847526783,0,1,1.1557609768023696,0.1106511741886388,0.20909291257738616,-0.24677956994995517,-0.07472328744262162,0.14872256062392875
449,1.1096585231206042,0.5463975403298582,0,1,1.132692545555432,0.15921841873006928,0.15763911168290146,-0.173758641536208,0.29661931208022485,0.1257652721577962
450,1.0099865314225671,0.5007495660343639,0,1,0.8819879050930424,0.16110024240912907,0.11417976306384794,-0.3358354737761238,0.36786489761802355,0.1913816385729639
451,0.9114827465963059,0.4657903313305564,0,1,0.793892138639822,0.017592668024044144,0.060135920964788224,-0.5970228599653902,-0.03720748407021265,0.1960226590982294
452,0.8209401378166903,0.44029706266266,0,1,0.7531027628474146,-0.0711473512045597,0.06433860616112158,-0.5896351367393114,0.04577394722392317,0.05336958218996312
453,0.744192891421915,0.4227323771563912,0,1,0.6314646285125636,-0.05102819971274116,0.05580617670056214,-0.5231835533209438,0.14606241629970806,-0.012838791842161872
454,0.6857097139968918,0.411866774247908,0,1,0.5952401711217196,-0.05662669009337693,0.04012354664852902,-0.41175947262232304,0.1191472783005947,-0.0009336683899670359
455,0.6483975782345011,0.4072572630023325,0,1,0.5835096085083356,-0.05380618229623906,0.04731732103874608,-0.27769664475357936,0.23411120782874745,0.04706965064252032
456,0.6336140661186717,0.4095127998524472,0,1,0.6289163891186393,-0.01656466299293314,0.00893358998017018,-0.33893435946575584,0.2415947696136501,0.11735590732338794
457,0.6413487073700108,0.42031550324010897,0,1,0.7399320074374872,0.004453776119385823,-0.014395557840776058,-0.30657467516313297,0.4580314680954264,0.17126943280948367
458,0.6705030961382754,0.44219013689879844,0,1,0.7979966718237534,0.00998636594142827,-0.0562056683925915,-0.21604234991519752,0.6206631932994713,0.20304422246753057
459,0.7191837667950014,0.4780329665091261,0,1,0.866554776871875,0.04204230101415284,-0.04656429131680205,-0.14242473701403036,0.557958844596215,0.2099896814010158
460,0.7849278233555675,0.5304419686340635,0,1,0.898215937719712,0.05141994607535898,-0.10967828054222134,-0.20170052666101201,0.3949970589323017,0.22883796870762094
461,0.8648104548680817,0.6009399172230543,0,1,0.8873486028370309,0.113911916149849,-0.05626650564098695,-0.08412236539400827,0.0063448172784874015,0.18508781548844463
462,0.9554288010216123,0.6892338852212119,0,1,0.8692452796509528,0.08284109053037604,-0.009827318976831392,-0.24229543637249565,-0.46657210605220223,0.14448232461572058
463,1.0528046250672158,0.7926786153973074,0,1,0.9879222975198169,-0.08313367662580326,-0.12281146420360985,-0.23007030507740994,-0.7004671317839113,-0.021505647751754616
464,1.152283759730899,0.9060879434739504,0,1,1.0440405383351314,-0.13102543308553213,-0.2148831141454986,0.11629365030076287,-0.8239987039521041,-0.19448968521521637
465,1.2485233100957134,1.0219786726976612,0,1,1.0541846291726231,-0.04496204398118277,-0.19677989175974717,-0.0827062238283229,-0.602823399017728,-0.1665999349541605
466,1.335646639770813,1.1312612917202942,0,1,0.9489197353334861,0.08535043411816469,-0.022113037043621532,-0.7070408683819353,-0.23535645618318793,-0.138104373247401
467,1.4076128919019846,1.2243216220979949,0,1,1.0605338714422956,0.031229957322673852,0.4398476633151511,-0.8569515381244455,-0.607257447111009,-0.3855695944949537
468,1.4587906588587196,1.2923557404076012,0,1,1.6470606950094202,-0.5693691502099434,0.7436603087135658,-1.1021404853123988,-0.9026038717362009,-1.116913369728591
469,1.4846495132052075,1.3287286745095257,0,1,1.8302150828126564,-1.0150292738556088,0.5934675040126568,0.08600764931037647,-0.33123002754880293,-1.9948519261885538
470,1.4824192645727585,1.33006583881875,0,1,1.0872779030502446,-0.34268464652322955,0.1269630651816093,1.0980889742757207,0.6992959155208134,-1.708847891212756
471,1.4515594044446378,1.2968126816030678,0,1,1.2910320658767744,0.16425423861718516,0.13055235413047725,0.38563122254048393,-0.85729162067079,-0.5956872692900931
472,1.3939380446855847,1.2331321888755677,0,1,1.8318584084013103,0.2741332563298772,0.1179444200067643,0.5865669646786279,0.2211472982388672,0.23545573845529122
473,1.313695438952748,1.146198850798546,0,1,1.3505118423215416,0.13758132925945227,0.1384535200407075,0.8196743683490694,1.0429144074755703,0.4845016619658643
474,1.2168201143860287,1.0450970679795062,0,1,1.1107599060875384,-0.17538414866382881,0.23216345390016763,0.6067844441087368,-0.18633423778389432,0.27119339362601164
475,1.1105013460900084,0.9395834558974355,0,1,0.9103167036882589,-0.2862608248106523,0.24585561145458332,0.7247424769785271,0.29692887277244495,-0.15243723694661682
476,1.0023578619319198,0.8389422332468514,0,1,0.7886962079662094,-0.19803531100651095,0.10171723179297526,0.3492517263877383,0.1637324341607803,-0.325013942301446
477,0.8996681346444337,0.7510970737578916,0,1,0.8022938794032548,-0.09248433003579141,-0.006581295010886695,0.4868131044274156,0.2033308518793293,-0.24746904176212894
478,0.8087216720924625,0.6820640931644454,0,1,0.7760982653562419,-0.03361597085499636,0.022609028953191796,0.7880541079826116,0.2199794494989023,0.01054878612391428
479,0.7343743304196206,0.6357445515567305,0,1,0.6521564029664084,-0.05860429122352096,0.14855691065077217,0.7990216308662779,0.3943624274397242,0.26747044349196786
480,0.6798424899270504,0.6139807770639026,0,1,0.5669764425978976,-0.090323123588132,0.16126642448688716,0.559789073106933,0.39128346286504145,0.3799180558494783
481,0.6467272272466084,0.6167638145205588,0,1,0.5911047080106382,-0.1090134784759835,-0.00717907044935968,0.42316200369782997,-0.004222209278946482,0.2665985807591366
482,0.6352251261237175,0.6424978910024045,0,1,0.729685668289438,-0.11974801926368905,-0.09449471779603241,0.46401375943208567,-0.37578330916342484,-0.044193132957609994
483,0.6444556188835858,0.6882731717690553,0,1,0.795304215800052,-0.07718881595295361,-0.004558819909960948,0.4944746505077788,0.26930081906684594,-0.3382267739070798
484,0.6728183602469815,0.7501377126400475,0,1,0.7287659197269083,-0.010117493546562842,-0.027132697443395918,0.49215936917090825,0.6550456551352233,-0.34264399405541
485,0.7182960066658852,0.8233736602100804,0,1,0.7834894469861117,0.04980119896075186,-0.1882728423136648,0.5594664096710438,0.4198511522150892,-0.20202639355764107
486,0.7786411439149826,0.9027807312198679,0,1,0.854332767363821,-0.12678177015328046,-0.03999646869202558,0.7142144649934705,0.401072833875845,-0.04817633661380227
487,0.8514236006988953,0.9829666576946863,0,1,0.8240629187231462,-0.3641933453946986,0.0329555749917507,0.9460166015992036,0.13629356613346286,-0.06999901624131036
488,0.9339545841742417,1.058640782549462,0,1,0.7814088285043994,-0.212151054559004,-0.06294361954079944,0.9588490237377371,-0.1960970068241822,-0.16680260069013306
489,1.023138675957362,1.1248971772136682,0,1,0.9370288828831213,0.09409439556723462,-0.12810174984170702,0.7669641995567559,-1.452700483529419,0.015265429407809264
490,1.1153271261471505,1.1774620721328184,0,1,1.1207244142258326,0.19402567459107814,-0.08835099120109575,0.2760314036959933,-1.1130819667592708,0.27058744229760046
491,1.2062503673425622,1.2128846390560577,0,1,0.9148409782660704,-0.026321655026621888,-0.3883889567453687,0.5602776019842336,-0.45057109103345644,0.17291506866720216
492,1.291093928093551,1.228678942084486,0,1,1.0484528787597482,-0.09063426447983203,-0.012622124857214857,0.5429237495085368,-1.1859759407464443,0.17714328100222387
493,1.3647535469960805,1.223456576561002,0,1,1.2822157061954702,-0.0513799605693706,0.35377346330490017,0.40825200011298995,-0.1539035108819517,0.5304555277027101
494,1.4222631509543173,1.1970869115817986,0,1,1.2553583604474192,0.2983517474216109,0.6125433321637764,0.4270600618751587,-0.33736624237738616,0.9839468614513077
495,1.4593364294952986,1.15087106769785,0,1,1.623511244314209,0.6510581531671472,0.7566667979620281,-0.12210808141261084,-1.4210737365236885,1.4449581750831708
496,1.4729160132062584,1.0876440126455595,0,1,1.4780165761518445,0.39749499026126406,0.14688264914758897,-0.32970947925979216,-0.3192841511320398,1.42305249275019
497,1.4616098037054102,1.0116813504967457,0,1,1.3650014231456566,-0.09097478295789488,0.18383017663682977,-0.475579194385487,-0.2421728828836201,0.8695545741024483
498,1.4259229924666714,0.9283292312495375,0,1,1.5532465441677117,-0.33476523007134756,0.2357084214688743,-0.51021747037067,-0.0003045815114992171,0.1579620251315958
499,1.3682491321195582,0.8433854324619838,0,1,1.2870160220803029,-0.08395540548110604,0.2604939496993237,-0.581569624754945,0.4685208692795655,-0.10059161470625304
500,1.2926348836543937,0.7623651234895547,0,1,1.2329990948117295,0.09490242650457024,0.21326876628064123,-0.6285662604534639,-0.08123359958067125,-0.08065476698295217
501,1.204366040942269,0.6898218980570819,0,1,1.2013779233661965,0.22726876153956269,0.16272130046510522,-0.36578329433293827,0.3084891917625207,-0.02476222146205357
502,1.1094393978443613,0.6288613772199604,0,1,1.0710025979646653,0.13228386217665897,0.08155941458585704,-0.4557738221684496,0.20323373731753255,0.2512886803525801
503,1.0139912522812142,0.5809192649358832,0,1,0.9612926566582297,-0.06082119026422286,0.06468272928900576,-0.5452308838507979,-0.02664436451140772,0.3138660169699412
504,0.9237521682986861,0.545809869320544,0,1,0.8706759005389748,-0.16732464790874008,0.07660374209003361,-0.5547743254893603,0.14805493203731665,0.12215030260992647
505,0.8435915510089266,0.5219994035671536,0,1,0.7059390037189915,-0.1438402985378577,0.06386031119633018,-0.5399593157990953,0.22909273909464697,-0.08176122072533647
506,0.7772044850421048,0.5070289703243865,0,1,0.6465548473771816,-0.044143002688441006,0.017845127988385272,-0.5243168309522143,0.08481109245778465,-0.19189715621060588
507,0.7269743107463115,0.49800741282350186,0,1,0.6662081075564865,-0.01576375615171021,0.014686802261579765,-0.5310163033631878,0.08977355595475713,-0.15280148810382618
508,0.6940155711516051,0.4921079162732189,0,1,0.7338334875905838,-0.03186280106129799,0.011537655499375764,-0.41763314164272963,0.027251244197769753,0.0035692471134471933
509,0.6783663217734265,0.4870234312868415,0,1,0.7998842526021288,-0.042577989401319315,-0.08159631147911073,-0.30955507300343843,0.06457089291724906,0.20930171434368616
510,0.6792668360903584,0.4813533959339053,0,1,0.8021793625898622,-0.08041356083841042,-0.0782331343247744,-0.14201877993800063,0.16885429361053947,0.36049256391049384
511,0.6954474187153342,0.4748984198781207,0,1,0.7828913652414785,-0.13633965710629822,-0.007772242750487239,-0.027767800627926754,0.41205350751823927,0.39079719749248865
512,0.7253592646553718,0.4688288583492947,0,1,0.7023798851253343,-0.15436581093176624,-0.03183036522830627,-0.01567670405206848,0.6421986075520164,0.38386316211365096
513,0.7673143115403313,0.4656796948415265,0,1,0.6474520828891358,-0.1246005761878347,-0.025212539577387647,-0.06180419966367688,0.4368112726838531,0.3981864380671668
514,0.8195372541710176,0.46912848259356427,0,1,0.7206265559129152,-0.09611612156945394,-0.018643955793537476,-0.21083724705919257,0.10641109303926907,0.43186434319775663
515,0.880157449250555,0.48354670653441506,0,1,0.8354947237045304,-0.18757031799687598,-0.07050888588263564,-0.2302430484686174,-0.02687727018852567,0.4301605894194928
516,0.9471705854563409,0.5133676700847898,0,1,1.0043012807403775,-0.3046145218101096,-0.11278094770319287,-0.05826040723098329,-0.2771439691760894,0.3756508756801457
517,1.0183849365482551,0.5623625647245857,0,1,1.1432670498482997,-0.3308504367117603,-0.16432240528469338,0.21796822611164832,-0.2308312331905507,0.3310754988499262
518,1.0913525012472072,0.6329437784209307,0,1,1.1739128939608026,-0.23500309270133773,-0.07632078883270998,0.532963046776439,-0.241713429856825,0.3222854757683476
519,1.16328953766755,0.7256187252568631,0,1,1.0902008129776188,-0.04774729372934578,-0.015449492347909276,0.460852441400729,-0.021632658637941445,0.35191281310347083
520,1.2310178996359251,0.8387051546026139,0,1,0.8744601445996254,0.15958295886178642,0.15167161496839948,0.2491928270634951,0.3931100140025733,0.3092062855441528
521,1.2909909415355578,0.96839393581933,0,1,0.7859091786368293,0.2630981877765052,0.2934189335558021,-0.1331912457007741,-0.016856051578672985,0.2436345273361522
522,1.3394745366690584,1.109199585891102,0,1,0.9460262637770814,-0.10843485736754672,0.628989662821538,-0.30027783327904833,-0.9633911006516469,-0.09376851407743367
523,1.372911810714571,1.2547574074119674,0,1,1.651221733982979,-0.8551453842707397,0.7579618827566545,-0.28278734443287007,-1.7312597893426114,-1.0584695459436662
524,1.3884201430760272,1.398816992892439,0,1,1.5020882834214617,-0.8724424179725242,0.11358965144753382,0.8919143869401743,0.5045545431479882,-1.4519250722543
525,1.3843000369617593,1.5361978102920517,0,1,0.7542526105038203,-0.2257928960568208,-0.08217801775951865,1.3916192589853564,0.1593847875426602,-0.7606481539343433
526,1.3604254190714344,1.6634755147082025,0,1,1.5664539395949468,0.01072794674193317,-0.07462888447761128,1.1515754015085213,-1.7959263255314526,-0.0364910274958566
527,1.3184276038577647,1.7792638014610598,0,1,1.719336544807896,-0.1651688418838876,0.16103594463276769,1.532547977277291,0.18232798849176124,0.14947040866331138
528,1.2616327662056392,1.8840909222458242,0,1,1.310400933996137,-0.44590141469354583,0.17352871335684206,1.4333100278975792,0.15848346389030996,-0.03069527764814975
529,1.1947448864757764,1.9799792592292724,0,1,0.9497630659736597,-0.5728224556658179,0.15429847449090528,1.7504277627893705,0.6914614519975689,-0.23986431303532096
530,1.1233053459385696,2.0698838070140506,0,1,0.8464385580735478,-0.38012806730289733,-0.07319253485843642,1.952413362693565,0.15107712352156755,-0.21125747484322774
531,1.053015341240763,2.1571244386908455,0,1,0.9192672651766937,-0.20039581072821983,-0.05769250629981135,2.286839904222655,-0.019899877816465787,-0.02633585267501377
532,0.9890485250054578,2.244883731888662,0,1,0.8886609384687507,-0.11373917094457893,-0.02476756820052821,2.3709178754763283,0.08221251906479296,0.1668149160458132
533,0.9354816047503183,2.33578248677462,0,1,0.7721625189365512,-0.14241627892499764,-0.006758646310836688,2.3151282333616527,-0.03855664186252906,0.34010961583641536
534,0.8949347856940947,2.431519956207338,0,1,0.8052627751750248,-0.21908033238168273,0.03547463205713536,2.4048412290753722,-0.24305212667404458,0.3475061695131218
535,0.8684630152450759,2.5325746823552504,0,1,0.791241125659368,-0.25083212800375254,-0.029872052157695627,2.505332246194056,-0.07756936672986108,0.20062754557118082
536,0.8556883333420418,2.6379845888644975,0,1,0.8568476525808096,-0.23912809125438847,-0.05704889599343268,2.5067856632303296,-0.1866017828643555,0.10354479298036195
537,0.8551207229423138,2.745241940700478,0,1,0.9058696382100565,-0.12243814856699628,-0.10837777255880143,2.779361324077021,0.11048219747614274,0.024315548639814215
538,0.8645854195692236,2.8503413930697348,0,1,0.9365241647208734,-0.05291258374714139,-0.05701275477808051,2.821333221623596,0.011103789009723848,0.023736159300896162
539,0.8816632744807805,2.9480096690294175,0,1,1.016553526657966,-0.07702336938731098,-0.01999551386465401,2.824285394475864,0.16567843367046348,0.13514690219336314
540,0.9040584872705302,3.0321297323376672,0,1,1.0196952121788825,-0.05718351695374335,-0.046339489638953665,2.8627540992052833,0.23381940024265105,0.2771005465704517
541,0.9298325377300504,3.0963533550194375,0,1,0.9980155480051038,-0.04402355477208401,-0.05639072612521967,2.984370804032335,0.20423995555093333,0.3686931575200705
542,0.9574801604070122,3.1348700373878766,0,1,0.8929353693999879,-0.07853866449102642,-0.06974381672949723,3.0847955044169595,0.040929639925730885,0.42039120150216175
543,0.985865244278359,3.1432644993822225,0,1,0.854190984632521,-0.1664242102349036,-0.08582781672815816,3.0904958179972297,-0.16940357695789757,0.4697617269246288
544,1.014069679254653,3.1193552353579626,0,1,0.9070280320484065,-0.2663966668718569,-0.0450331669013269,3.081132520347732,-0.3843346289371355,0.4983420761762251
545,1.0412242093278845,3.063874231094632,0,1,0.972282887311091,-0.2756422067264775,0.0018282481731033927,3.2819475492337062,-0.4123745061689953,0.4427168103195743
546,1.0663832190496727,2.980832964599168,0,1,1.0028928258870533,-0.1060225207057134,0.05456199881957836,3.3806402216455003,-0.282095939284439,0.35528855510203006
547,1.088482249989814,2.877432680248936,0,1,0.9939634139345341,0.06590960800380413,0.046655177394467076,3.34511887467877,-0.21750395720276317,0.3720221045487036
548,1.1063891902554235,2.763431537623394,0,1,1.124672453171931,0.2689647805315898,0.18466488528056169,2.8762929656319427,-0.17004808842880065,0.520014528518063
549,1.1190344515720951,2.649984856848752,0,1,1.088867929791313,0.34149918742799257,0.12968106333693294,2.458850729539567,0.24169509089544924,0.5097144602198638
550,1.1255852327598186,2.548109827485298,0,1,1.076115171238026,0.40632206056737574,0.20899773190025742,2.2490723247463755,-0.2507987658445796,0.3563363405497936
551,1.12561808069255,2.4670481773082433,0,1,1.1069704265716254,0.26300167561102167,0.3116831007445504,1.9090029736118095,-0.03887282376361558,0.24310450967996633
552,1.1192454517801338,2.4128603217212357,0,1,1.132001073931911,0.025959536273410605,0.17115074647634268,1.7862779010440368,-0.16470689583547476,0.21013900315128112
553,1.1071640968437697,2.387554826795187,0,1,1.1851447523555725,-0.2611494827935537,0.011446362281162917,1.9971388079149364,-0.08747844321842616,0.23955605459895526
554,1.0906111653744806,2.3889404416875655,0,1,1.0133110058515007,-0.3339282000611252,-0.0918231512338751,2.372659508313473,0.030747219321131447,0.2648513869060443
555,1.0712344495373096,2.4112154414625278,0,1,0.9943175046136689,-0.2335329530084249,-0.11360355268839403,2.587592168058834,-0.025198890042202406,0.30673978369937555
556,1.0509030350273754,2.4461336509365346,0,1,0.9396396355511509,-0.09102761699571651,-0.07541356843404151,2.746661937481733,0.18105358574953306,0.2283685504770063
557,1.0314979192894322,2.4844650386966975,0,1,0.9712423165444855,0.02654284762385918,-0.06032314106426955,2.825374431582501,0.12658009820915134,0.2785502519686347
558,1.0147221632545136,2.517434199038831,0,1,1.043720544768987,0.06974227891749374,-0.06905755698061843,2.7960440388941463,0.17315721174290874,0.4039438135257728
559,1.0019560497815794,2.537869258863844,0,1,1.0370861249849537,0.11848834596729685,-0.11035055625070238,2.6792151068739276,0.1542930525863452,0.4942899976089166
560,0.9941629364444569,2.5408985162677915,0,1,1.0106109984559881,0.13901219286656624,-0.06682125397104022,2.555124959287513,0.04832797071971699,0.5199548894018994
561,0.991837925295503,2.5241568298616057,0,1,0.9459836721602198,0.1757798646683004,-0.013204492477861594,2.416684101418349,0.0761227973267126,0.46719989727090305
562,0.9949897292859727,2.487576318324847,0,1,0.9249354747809965,0.22420718501694092,0.012431698885457611,2.233824024971527,0.11232137133380848,0.3768897203420337
563,1.0031515882400375,2.4329124379657934,0,1,0.9763817122899184,0.2171624979857158,0.00875809041980669,2.1421438588068016,0.1371628997229334,0.31612236689950585
564,1.0154209133924943,2.3631834680780837,0,1,1.058473610369626,0.16582565210351827,-0.005852890169010361,2.0878408967311004,0.02556224891547446,0.3225422982566502
565,1.0305257120804476,2.2821766467994626,0,1,1.0945357011221613,0.11109018234943864,-0.03768956705609572,2.1173792980007216,0.04653957514585331,0.39083678344036554
566,1.0469131618240175,2.1941079368099317,0,1,1.0199558499514685,0.0895369188474206,-0.020801791743138693,2.2167348290839453,0.13613447223315675,0.4816886818236286
567,1.0628585664724441,2.103437391478134,0,1,0.9372938633202519,0.15513279875754066,-0.027422267080463716,2.2537646335146606,0.11510764603157898,0.5667770288755578
568,1.07660102362805,2.014768821514943,0,1,0.9349866806903435,0.20290117581267358,-0.00495273930544115,2.2012331465454515,0.023482649152552826,0.6020200604473899
569,1.0865159470767793,1.9327287027294169,0,1,1.0145178441551044,0.2609973645409917,-0.008990223224481914,2.0239920279577337,0.03559519865854676,0.5648173227347267
570,1.0913238877925178,1.8617373925765108,0,1,1.069606114491922,0.30107841576223804,0.04725968656311292,1.8079745182883433,0.01804082781814988,0.572350204579396
571,1.090310164286184,1.8056453058506814,0,1,1.1973086860044957,0.31756165295160194,0.05589201088420952,1.5340687807551734,-0.1698794794561949,0.5558043455622906
572,1.083503649943993,1.7672788008807914,0,1,1.2125798550456928,0.3484352346669573,0.11049508203100138,1.5642039470673808,-0.0779625956330506,0.455320938769369
573,1.071752905392414,1.7479926605709564,0,1,1.113602743705906,0.2758469616055871,0.09940127132079006,1.6522010438699009,-0.20401193684188132,0.327430661610235
574,1.0566539103387895,1.747339608221191,0,1,1.0469638358746345,0.16660654851222856,0.17468445170121286,1.6935428797072818,-0.005247220976055269,0.2399214989753104
575,1.0403222504765128,1.7629461163861986,0,1,0.9113361329112729,0.14178498948990792,0.22026992202825063,1.549619185313264,-0.07236816449545563,0.2557189754897449
576,1.0250473550777914,1.7906454320249934,0,1,0.9094670559584987,-0.11624915445309074,0.3110168518043827,1.5084402809163435,-0.26783536293859006,0.29653863453149526
577,1.0128981702644757,1.8248754768201523,0,1,0.877441945381268,-0.4007660993617419,0.3573350868814965,1.7740382845183578,-0.08182091467038648,0.3074288528372009
578,1.0053590815664004,1.8593007279502074,0,1,0.7932660264375831,-0.44541149667539487,0.27397567795191946,2.0061531567361817,-0.07054640743969463,0.32729968662816744
579,1.003066169782669,1.8875645518196242,0,1,0.7402523848323942,-0.2836495551845795,0.171878410494321,2.059357258725398,-0.11274456963176124,0.41247032262680744
580,1.005696023751476,1.9040384014561884,0,1,0.8201536983128261,-0.11056257673651662,0.1165380076936001,1.9834741932002162,-0.41393872965583955,0.4523818557857938
581,1.0120344329583348,1.9044296046823106,0,1,1.0568444131717503,0.04990228423351568,0.18033740216515648,2.043508495118756,-0.7275091881586698,0.32190398861537817
582,1.020216954842108,1.8861484254136731,0,1,1.1558916037181994,0.06631965871091411,0.23950637558717142,1.8469062741698983,-0.6019417666799644,0.07900320628698929
583,1.0280926593868052,1.848405236712568,0,1,0.9383944177884975,-0.10487193790643815,0.17150334111242152,1.4319680142357372,-0.30354376779060327,-0.10028860392411358
584,1.03363323450123,1.7920842893745257,0,1,1.082130379133915,-0.24249912505874974,0.20391376140066503,1.3304401448721437,-0.8868378505689584,-0.08517414345414145
585,1.0353044865212007,1.7194898931837543,0,1,1.192127653373036,-0.2221938940758297,0.08798261223135714,1.5498084813432447,-0.2142097451454294,0.03434137005140863
586,1.032332539381123,1.6340593515778292,0,1,1.067643472940522,-0.06898554628614968,0.02336357458950534,1.7638798883918672,0.06779402365059198,0.29220403920683347
587,1.0248234688046811,1.540089129089243,0,1,1.0284944396181037,0.05059525275808559,0.026416975499018853,1.7465434686354424,-0.11276044244336114,0.3698964354312076
588,1.0137280255677281,1.4424631146893683,0,1,0.9674241981474349,0.09895014154201429,0.04175937460516996,1.4731064463679735,-0.03767727461540342,0.33900038961164375
589,1.0006767141330564,1.3463450358170677,0,1,0.8778798007361137,0.04620886896481443,0.12949544290591614,1.2287247104684627,0.11160784235236892,0.33577398892087107
590,0.9877336312549978,1.2568129906147933,0,1,0.913645653207716,-0.045035081592059954,0.035709786782208285,1.0420509679638774,-0.23284092520449723,0.35837973880209556
591,0.9771215381910389,1.1784506150662797,0,1,1.0487484156616016,-0.08765614388563644,-0.01378394798637995,1.1142742232083411,-0.23991714787332347,0.3711916332177931
592,0.970957363129231,1.114934888773908,0,1,1.0299362288537124,-0.037843978987374335,-0.052853084779166,1.1547622036759035,0.09360791541582353,0.3600469662962406
593,0.9710181845169489,1.0686629019172045,0,1,0.9759969107864384,0.02935323060468461,-0.058561848210337684,1.0844009457016026,0.09755865547223727,0.31906716438771526
594,0.9785464112463513,1.0404521534205153,0,1,0.9075702899741757,0.09895048789585616,-0.05555616027731282,0.9685586343890512,0.17625018979507381,0.32826816139264947
595,0.9941042407730161,1.0293492135302635,0,1,0.8910280293477527,0.045293268753843346,-0.04535887161176537,0.7448709099539207,0.03290245582751564,0.36919132970699176
596,1.0174932999308983,1.0325915708120603,0,1,0.9871836799688248,-0.03643437143037345,-0.15957686912498795,0.6913726240820852,-0.1722524041255344,0.37174541016943285
597,1.047753318629483,1.0457709770750196,0,1,1.062473107194473,-0.09160752072603923,-0.10258535705161784,0.9027152396572646,-0.13935146513777813,0.33840656510517364
598,1.0832401788056878,1.0632261307892181,0,1,1.1326443486507198,-0.06631966785297083,-0.08954531509098757,1.0234425097513782,-0.39993446190481646,0.2964267055692811
599,1.121766713446698,1.078647651289755,0,1,1.1487918633103857,0.011540453446956362,-0.1377545106990743,0.9223826982047663,-0.3570819278578538,0.25777369888542584
600,1.1607802324223873,1.085827728098501,0,1,1.1280415857759827,0.054903902098244,-0.23722766488693933,1.0208700179882495,-0.49612719944283257,0.15297411063982372
601,1.1975531903564531,1.0794514347123838,0,1,1.1779617137673373,0.0016438600046212507,-0.2186074373532667,1.1082530351813729,-0.2078723424795163,0.04900306133587172
602,1.2293730972044947,1.0558132082821565,0,1,1.139664839180035,-0.015974701382492257,0.023553356704491022,1.2228631848310971,0.155823432708128,0.08832709896932237
603,1.253726282734643,1.0133464151046387,0,1,1.1808774817449694,0.12171376950051234,0.26407382379013233,1.1248101643918698,-0.24667984312058186,0.2777295402241652
604,1.2684712244492367,0.952874364774254,0,1,1.214944696719076,0.3797722196552675,0.705413540471158,1.0141592066714793,-0.2889513343567771,0.4642713749781364
605,1.2719914058201043,0.8775298799641844,0,1,1.1111165081670022,0.6223565937509771,0.6905057078360024,0.3295031153140461,-0.2974183459040043,0.6416312119881941
606,1.2633144243742207,0.7923451022731373,0,1,0.9085898140391031,0.10423543505487272,0.2490453983808497,-0.32377771981149167,-0.5197338592802739,0.6251887574535441
607,1.2421928925877752,0.7035709407711372,0,1,0.9565698590868339,-0.23041832623739186,0.2890293372760217,-0.18075293447797228,-0.5763157782729269,0.26139975062644594
608,1.2091565235552961,0.6178301689161952,0,1,1.255239680471354,-0.19220273101666263,0.31547950977331557,-0.2962867664879757,-0.41779192756437644,-0.006479995107230368
609,1.1655419768924187,0.5412310058674232,0,1,1.396199138448565,-0.13678102983459378,0.2897971201521291,-0.40217670223559243,-0.0789329391298885,0.013923445740846073
610,1.1134817372240595,0.47856960999211356,0,1,1.2028454780084121,-0.09759064345081704,0.31451259769510387,-0.3522546710842067,0.2538515695000293,0.15959286225398917
611,1.0558116927317207,0.43273364565702654,0,1,1.0051622860557508,-0.16424992159169235,0.2887921715701993,-0.20421837206040563,0.21898731790869028,0.22498021857942024
612,0.9958680591577258,0.4043899310567686,0,1,0.9151043156269276,-0.17739263327346444,0.21946237974224075,-0.060322392637921135,0.09897584140695648,0.20315573586512872
613,0.9371846589460001,0.39200435353502866,0,1,0.8374590854960883,-0.11860584347431369,0.18406502200446614,-0.03230038198004931,0.10184115043422517,0.19581065247454058
614,0.8831427814642507,0.39220495756603996,0,1,0.8210723197236556,-0.08452729448337584,0.1427443121172084,-0.13309085010272026,0.1470956621967756,0.08391474355387715
615,0.836645304236049,0.4004548913489246,0,1,0.6985014588844045,0.03813038432188483,0.0977374261093989,-0.21741107479625674,0.3298949651566515,-0.09321753766040297
616,0.7998815404495065,0.41194740486622505,0,1,0.6667519074395084,0.14974505542100394,0.1066007687365466,-0.4250292482315845,0.07723858710782175,-0.24863913621487418
617,0.7742267515052761,0.4225788712669569,0,1,0.692586660580799,0.17514923888938444,0.12554903659810618,-0.5964671253574128,0.08755182497175254,-0.3113881253403604
618,0.7602872903111396,0.42981722530306327,0,1,0.7726253499390571,0.10112639601619908,0.06149948660490408,-0.6999426385146114,-0.13723885413197584,-0.21818681389811534
619,0.758065254017576,0.4332817694377671,0,1,0.8425402244428207,0.04133222437188807,0.009989552090561099,-0.7252770295596196,-0.09888310828068743,-0.12191065535962992
620,0.7671848580495945,0.43489528589824406,0,1,0.9193898807646725,-0.07892242322634346,-0.010360683011598504,-0.5453578797780446,-0.043886794257644406,-0.04493179639839903
621,0.787107591075355,0.4385545480213956,0,1,0.8594702437673871,-0.18107505567354953,-0.004604688895121145,-0.3709002313349183,0.164585755454628,-0.07707722906969625
622,0.8172711408329468,0.4493687478309046,0,1,0.8018215682606633,-0.1864385033195388,-0.021998758846329552,-0.3760013508456697,0.05970620583542772,-0.12882015252483386
623,0.8571153650070465,0.47260716405141695,0,1,0.837186793563216,-0.132134845413604,-0.02553144415798721,-0.33425117924514847,0.03940305254566953,-0.11782955386477063
624,0.9059953211324258,0.5125540706961157,0,1,0.8615384551717681,-0.046864073337506494,-0.034894117324363566,-0.23628814709659957,0.018170447201815567,-0.10523414237667097
625,0.9630117749022793,0.5714826044897678,0,1,0.9274937576140767,-0.03657385759779874,-0.06466406745231157,-0.2082064922712543,-0.16419367368089943,-0.12847014997525547
626,1.0268048984620013,0.648933552301563,0,1,1.0973378082673733,-0.0313263356194801,-0.09606999571198127,-0.28048093489760695,-0.38991852493649615,-0.23099304369264576
627,1.0953585629200646,0.7414267753991537,0,1,1.1554653724144175,0.003687365385804765,-0.06676190915309,-0.2925557817497868,-0.499922281045864,-0.3120888518518892
628,1.1658595838428263,0.8426539972403364,0,1,1.076112346795095,0.0014513583555418902,-0.062184529498549565,-0.40647456575540997,-0.7283357683870662,-0.19248416512219335
629,1.234656819506572,0.9441209881505844,0,1,1.0685810281496668,0.010585781986612804,-0.09535318671166616,-0.4738155979024216,-0.7201783553667422,-0.052879883631877775
630,1.297367822562175,1.0361428451440082,0,1,0.9925805717270109,0.03176010451511634,-0.04849132724096064,-0.8608335465534325,-0.4606178568393428,0.03211357605927309
631,1.3491723249613383,1.109053814641622,0,1,1.062516326199088,-0.2673817940654586,0.293846691628476,-1.0757225877718624,-0.5712591856800159,-0.10648657652466466
632,1.3852971067507562,1.154467668065388,0,1,1.394561526600246,-0.7587526877349678,0.6732447853459362,-0.6524479149207222,-0.8397061186841903,-0.8441324550514928
633,1.4016372424954875,1.166412967467644,0,1,1.323460900650487,-0.774881236436266,0.6227884798236202,0.2699963951411799,-0.07342058242725834,-1.4206077642281634
634,1.3954009105138432,1.1421771639597642,0,1,1.032512866362744,-0.27890297413919524,0.2520279781272173,0.6454378148908415,0.30176115998361264,-1.1835813855513
635,1.3656417305357456,1.0827348087104873,0,1,1.5375585211223626,0.12094895475451475,0.35839694135584776,0.20051430286119964,-0.8715180390919188,-0.6014068661885038
636,1.3135603054010778,0.9927060548882229,0,1,1.905923328147374,0.24610756188497387,0.18031008298057782,0.48213649771502615,0.499365429434656,-0.12245659399615025
637,1.2424963481078906,0.8798709940715518,0,1,1.2892880646265579,0.19525861824755694,0.2055785728251158,0.6851927152250881,1.3011040007609618,0.07782872962447421
638,1.1575867659073193,0.7543270281431669,0,1,0.9041749601159594,-0.04690066283957678,0.2903107284821414,0.3561871926623286,0.2631954340460384,0.1325625091999236
639,1.0651405635639821,0.627412534338609,0,1,0.7672903796221122,-0.24894612376411604,0.20878356015232835,0.14247378831926089,0.3494542951360053,-0.051762686154259246
640,0.9718618386119424,0.5105406075100516,0,1,0.6773174145971288,-0.18026330923945041,0.09391926789676593,0.11209464576046772,0.38769667673758346,-0.2012793822721241
641,0.8840935160016432,0.41409272076488185,0,1,0.7248127968559201,-0.07175527932943634,-0.03888936572670685,0.10028733208952621,-0.1304206180556131,-0.06692747265124684
642,0.8072315541962941,0.34650019389441006,0,1,0.7917415631646585,-0.02256487343098811,0.036282103914089744,0.15255188919864912,-0.17850158491816961,0.1928117414233827
643,0.7453897106634306,0.31358979090403094,0,1,0.7797305958337191,-0.05414819090862658,0.09064863974288367,0.3499590373534802,0.10788193550219229,0.3749128170633226
644,0.7013164395090775,0.31820964436307664,0,1,0.7148551513746239,-0.08975277018881034,0.08660175942515153,0.29916818225537545,0.12344247521793353,0.3544521677088045
645,0.6765074126044807,0.3601099684956279,0,1,0.7071290767188231,-0.14485315600108614,-0.034278281452851216,0.20528884826306026,-0.12449230752604298,0.17015331439893555
646,0.6714296891035639,0.43604494712402436,0,1,0.7459749309352299,-0.20967070449202996,-0.04075663561851334,0.1594179541769992,-0.12268528438527188,-0.008037070546532419
647,0.6857717923013222,0.5400801556595879,0,1,0.7299812517356614,-0.19633721803725632,-0.14791906319221734,0.4197175746071998,0.13093816554117665,-0.10297248926253734
648,0.7186486181898758,0.6641055358985459,0,1,0.7609191538490069,-0.12011448458871196,-0.08968245723224313,0.5899789525211917,-0.024495779219355134,-0.08670816871421339
649,0.7687150977728354,0.7985427482070623,0,1,0.8534038554975321,-0.12850240800679305,-0.09278875609925025,0.8063476702863164,-0.06472635418128293,-0.035631853490421056
650,0.8341740043458467,0.9331994459272331,0,1,0.7372250771470273,-0.16267089980277039,-0.11791801792055645,0.9244941108698979,0.15346254706731016,-0.09065740894366728
651,0.9126957795339341,1.0581826335024271,0,1,0.7169114339912391,-0.13759450986920402,0.09969371592859763,0.7703177127023846,-0.764650158318129,-0.14996829747596827
652,1.0012935541591876,1.1647577030105403,0,1,1.1961613680349867,0.15005159251193098,0.043732635202161634,0.4583110287009426,-1.972639944262923,0.12277344456593457
653,1.096207651782733,1.2460408954078637,0,1,1.2358406111513685,0.15349037539887048,-0.18007612196654826,0.43239072605811146,-0.6961605363214661,0.321670854425944
654,1.1928537284888385,1.2974505878319156,0,1,0.7429929344374705,-0.05345643640466163,-0.5074775433708729,1.0077892852177526,0.015034154357779052,0.1438172160816186
655,1.2858893079255993,1.3169107177677764,0,1,0.8436882489813199,-0.144143442640763,-0.09810448174704296,0.902115283244551,-0.9826438451321292,0.19147403314670508
656,1.3694546230009144,1.3048597231821921,0,1,1.0357893612038678,-0.1901958240107392,0.3725954807909036,0.5603881929462503,-0.07396241015057954,0.5197194533713754
657,1.4376211346802523,1.2641266789035244,0,1,1.0578694061279417,0.3077650686530922,0.8106977519792284,0.3632651096744671,-0.3764112535091486,1.0279197398062472
658,1.4850151105894938,1.1996867559367328,0,1,1.8826612313268996,0.8600997156299601,1.0199906812920312,-0.40537056622418016,-2.088722532468879,1.6104308814700061
659,1.5074972243493492,1.1182415563256856,0,1,1.7009077019007932,0.43495967358826043,0.04003029435781992,-0.325598685213833,-0.0642073565121208,1.314836869271816
660,1.5027313776831028,1.027553455086336,0,1,1.1994028703373678,-0.33814344599661733,-0.0036565762249355324,-0.43886545102837365,-0.037217476979638314,0.39302245966724025
661,1.4705075900865119,0.9355425455468962,0,1,1.5026951981462124,-0.5825110199219055,0.1371783601556435,-0.10894439329460152,-0.1579334681696922,-0.35967541565185235
662,1.4127726173222719,0.8492918409077166,0,1,1.2195918974513829,-0.13758634038312964,0.14908984756396815,-0.15911895039233478,0.41257153184128886,-0.432340959491527
663,1.3334050901801444,0.7741944294216575,0,1,1.3098205611073412,0.18877857623796557,0.21966095998893315,-0.49794144233390514,-0.2300430814820262,-0.14550793222877909
664,1.2378097317527816,0.7134492357707382,0,1,1.1912897807053482,0.30509177701394347,0.159841623224574,-0.20433203247903362,0.49674053858743883,0.14731632010107343
665,1.132404852260107,0.6680012311110012,0,1,1.137508831365004,0.23012900010297613,0.16714043892808955,-0.4036490241726653,-0.039170856530854954,0.41761471065886346
666,1.0240639394944149,0.636897348525484,0,1,1.033737025099657,0.03284123762249699,0.17646611181941732,-0.5468033372112536,0.5303902204650438,0.31731032978443846
667,0.919562229776271,0.6179331629631092,0,1,0.8046318248537682,-0.053681350223051316,0.04173744127786163,-0.7240980124167223,0.4554305559032256,0.06316625440636567
668,0.8250766140788619,0.6084111038105564,0,1,0.7266735192156716,-0.11533853605124471,0.06048264372395621,-0.8830862669211829,0.23910549910662263,-0.08442815182651695
669,0.7457861496498749,0.6058258062359583,0,1,0.6442701916186607,-0.11115335241910648,0.03755223136890304,-0.8013653465144482,0.2824344828466238,-0.10026450455272637
670,0.6856107376792263,0.6083380649837328,0,1,0.6185974338593627,-0.07444193895553529,-0.029370000681208024,-0.5175521809752185,0.13693501335643873,0.015321738656626687
671,0.647102509226396,0.6149812097765393,0,1,0.7055898462126801,-0.06680402543208878,-0.033539218297191815,-0.2666781843235095,0.11781614693939829,0.13376592241030158
672,0.631473666160583,0.6256296038526407,0,1,0.7153869876015884,-0.050334617813689704,-0.05369914026974983,-0.1463418223688351,0.3473134098456047,0.19521154329846369
673,0.6387180680357888,0.6408100327708262,0,1,0.684271191104297,-0.06209763870990192,-0.045844281129338034,-0.2169326781058883,0.6225105436382923,0.19353129038534667
674,0.6677727446367288,0.6614336501781077,0,1,0.6967964038679016,-0.06700417091566742,-0.07821326669922311,-0.2680204077959132,0.8906521464719155,0.15462645797806582
675,0.7166728673393734,0.6884864778039173,0,1,0.737038004336473,0.006367144487996967,-0.16767169396463605,-0.40646107901920925,0.5888357581641476,0.18696248159535353
676,0.7826734389019898,0.7226824559857208,0,1,0.7954304910201413,0.07701814521041214,-0.1420451744348756,-0.6696204947714631,0.116628329424076,0.2987978997992829
677,0.8623335556545996,0.7640844778804606,0,1,0.8026508057542375,0.005814757594141776,0.002104547474642405,-0.6386874170958906,-0.45289509798509836,0.29290630275591534
678,0.9515779732084363,0.8117309019078556,0,1,0.9240419527787922,-0.152489499612687,-0.03691204824589033,-0.5136189558782148,-0.7079826878670022,0.08408184745148749
679,1.0457627105048917,0.8633438584967839,0,1,1.0540604740496227,-0.291618348134002,-0.07641772517364129,-0.20460377260349574,-0.5817937689965659,-0.0826515684436963
680,1.1397756952743097,0.915223164000664,0,1,1.1432023235422923,-0.2009827111622532,-0.1684145549149798,-0.18963939497826943,-0.2635946767755786,-0.07132629190736317
681,1.2282026258173968,0.9624328033183694,0,1,0.9711147620410467,-0.0968059925423399,-0.15271023039564588,-0.5533978905158327,0.025093211617910633,-0.019162531310813156
682,1.3055853577335823,0.9993460629922792,0,1,1.0084811022352718,-0.08296370045091783,0.08923523115844703,-0.6192966321827315,-0.4247669368479206,-0.31243441376731995
683,1.366789710194303,1.020516933875475,0,1,1.1775058865574521,-0.21037052006126064,0.46713300216842574,-0.6786868278368778,-0.8063825724710515,-0.800284105752166
684,1.407468866932618,1.0217112502813264,0,1,1.5827832655151128,-0.5641664229537853,0.7128041993694401,-0.48906431229610475,-1.2875117657419328,-1.423780333182916
685,1.424558270418712,1.0008241659415966,0,1,1.5205024017465687,-0.5559131055580848,0.46156585763101604,0.28538857217590735,-0.06246609021832893,-1.638052578219148
686,1.4166967586102825,0.958402146590903,0,1,1.2265090667740628,-0.06841605701768759,0.15574016605071644,0.29231794375385406,0.06723391348838884,-1.0446789490357846
687,1.384470309707061,0.897605409312065,0,1,1.5030158918942207,0.18814061642161,0.08905060179923774,0.0600111544789832,-0.11225197196080897,-0.25597413473681957
688,1.3304191135233778,0.8236411520563217,0,1,1.442810695757037,0.061226160555908266,0.09577753327170639,0.31174594424113167,0.7466241771626643,0.05511448268392886
689,1.258803572885909,0.7428667070656333,0,1,1.2275306698503168,-0.16272874196632736,0.17520223494419718,0.3135176487219054,0.07367838805359449,-0.018488589540040696
690,1.175165911225531,0.6618264385110795,0,1,1.1181036281555419,-0.3275477815910612,0.2720765597964512,0.22941963526873677,-0.05820255807051623,-0.19272727716229554
691,1.085752420435032,0.586443565443613,0,1,0.8900639977518575,-0.33403369542007516,0.09305777591427294,0.33071163173904805,0.5146880162966787,-0.3039524343573571
692,0.9968824897223902,0.5214864126992121,0,1,0.8015779348660798,-0.20191183318717942,0.024602119931167024,0.4774851821085134,0.1982115090178216,-0.22635021154856708
693,0.9143587497832575,0.47031924331895936,0,1,0.8817887614410924,-0.09048024983649193,-0.038028339333340364,0.5949064214856017,-0.017428179151951172,0.005103708992148635
694,0.84300008999405,0.4348677934705226,0,1,0.7659996575855238,0.0036400162390370365,0.05009052264381298,0.6572832730845857,0.39456621256804497,0.21627442777786768
695,0.7863477320467943,0.41570008502927064,0,1,0.7556401625779513,-0.010642477627645334,0.11193645128114901,0.31193209768175406,-0.058346980622767254,0.32940197276655947
696,0.7465553865258384,0.4121448347269522,0,1,0.7780318074105305,-0.02967559985029549,0.033965521389530594,0.14936148530267676,0.08067500715325725,0.2511248163893252
697,0.7244403853454682,0.4224238269435939,0,1,0.7445310976941086,-0.07926058062894936,0.0012136220669880097,-0.09713893333053408,-0.004383179811467835,0.07134617127487276
698,0.7196505541072952,0.44382819458310946,0,1,0.809253316157537,-0.08590866706407083,-0.046975510881040156,0.09062369127697104,0.11041648572122786,-0.14522355414857027
699,0.7308933391137254,0.4729874958757477,0,1,0.7786506244693605,-0.008659224076049344,-0.07608377519962586,0.3279695490107399,0.4632373435133269,-0.30689059282500075
700,0.7561789875945403,0.5062519471619671,0,1,0.770204754079125,-0.04472727110170902,-0.10275692884022664,0.4112143790973121,0.3332275562928397,-0.30849311769094107
701,0.7930457170619282,0.5401542022568926,0,1,0.735877087422373,-0.12867901848371446,-0.04535360201297615,0.3491157434353738,0.39195414660888145,-0.2511404365892143
702,0.8387554528133657,0.5718762808078683,0,1,0.730816080464707,-0.16055678254100247,-0.0953609276543225,0.3452694121288437,0.0429658025647477,-0.23632769831779885
703,0.8904647053776784,0.5996389851829473,0,1,0.807930051081827,-0.1252612473941367,-0.0867418074712525,0.41603232955618913,-0.4271188580328599,-0.24187735408031374
704,0.945378620864587,0.6229430927463746,0,1,0.9933379115240877,-0.0043617994308549,0.03448649824409536,0.3123428237399097,-1.0916954053846477,-0.10314780169450538
705,1.0008862107180394,0.6426069342074785,0,1,1.185642848767525,0.09862991464912248,0.006507011920889608,0.06972670209495266,-1.0085614614368124,-0.004815263843138489
706,1.0546604528150785,0.6605717105246276,0,1,1.1261189963125466,0.06977725437395486,-0.023754935362079573,-0.10014285192802658,0.016425128664944933,-0.13019992651248183
707,1.1047035044074804,0.679501841996952,0,1,1.0557730850497464,-0.0010182625703371452,-0.16417187872080033,0.20243367551159358,0.3606679965045366,-0.24448977734051516
708,1.1493331884751827,0.7022774925505093,0,1,0.9879872020901912,-0.008966851871839251,-0.14323490926568772,0.4732343449046751,-0.11445682677433819,-0.1535411017241337
709,1.1871334842988401,0.7315113539583645,0,1,1.1006389865161816,-0.030491144526812,0.18920095140298246,0.1761431204509772,-0.6601406983791492,0.17206741185051078
710,1.2169086013259596,0.7691932215897415,0,1,1.1371155493350547,0.03990366728242462,0.25096186527891085,0.07787829943345938,-0.2533831108139132,0.5284380275345191
711,1.2376740131046684,0.8164962623573356,0,1,1.2135360063139704,0.17455134758363927,0.48670045353610314,-0.2492097223243421,-0.7523013134487294,0.9122708913780485
712,1.2486940966478695,0.8737123234864038,0,1,1.3389866460750168,0.20160760165125097,0.35073326684422784,-0.3361474632130308,-0.6612868961216527,1.0139452963343518
713,1.2495529157062257,0.9402522822830529,0,1,1.0623082795795136,0.13458631142713476,0.08657407301438155,-0.33027546010282116,0.23234081795391048,0.677334050980602
714,1.2402364576801077,1.0146645672436754,0,1,1.1599066925063706,0.05623623443445344,0.14095862505377776,-0.5955657856418474,-0.39969126203779504,0.25491554965731916
715,1.2212092314268908,1.0946773597388024,0,1,1.3005166446419558,0.11094129180212005,0.11557655708111964,-0.8245525654592574,0.11518048781141053,0.0437562152629236
716,1.1934714321460382,1.1773149434180172,0,1,1.221570732979755,0.198727194318527,0.11884005843076466,-1.1504461951904217,0.06879709299021666,0.0672309500265429
717,1.1585775673035419,1.25913648127895,0,1,1.2192065867399053,0.19245778235556388,0.18053680629288935,-1.353782385845908,0.13896560742671404,0.07528655801569668
718,1.1185925157851861,1.3365983124478746,0,1,1.1386841825688745,0.13475239106760192,0.15640249898074823,-1.3532542701169703,0.4110804224460935,-0.023510913769397665
719,1.0759684617963894,1.4064865584005521,0,1,1.0696531859924208,0.07686644534063287,0.1011973459303967,-1.4045268079884787,0.31912351767945013,-0.08820977353715662
720,1.0333459737807251,1.4663390935201008,0,1,1.0129251310938228,0.027715143418215887,0.08143661793387168,-1.4482218436088061,0.385439528233619,-0.10461450486223194
721,0.9933049425889793,1.5147798645112613,0,1,0.9558545634894942,0.002783361496447439,0.08701618448639821,-1.5237219433409475,0.4027152720353727,-0.10780290468849771
722,0.9581068666731232,1.551709495362983,0,1,0.899627919048947,-0.018332528353926687,0.07861445160718625,-1.5753512982112534,0.45123202136338897,-0.08341123181141882
723,0.9294749424947395,1.5783206336561058,0,1,0.8530560454635345,-0.01801695363732076,0.05488118098626624,-1.5956166606108853,0.34343256010312617,-0.04721446751831299
724,0.9084525535686765,1.596931261416332,0,1,0.8334630392290429,-0.002517115861747857,0.049896480917541834,-1.5824392861705316,0.24802731544866735,0.017156322303395605
725,0.8953656101794292,1.6106552402497192,0,1,0.8538809086429123,-0.007602153359941846,0.08136803433652391,-1.5777081315220207,0.2441834461382938,0.09644842339896458
726,0.8898920628302585,1.6229544351775815,0,1,0.9334801561322784,-0.020216813991231694,0.06545808778810631,-1.5400893059209748,0.28139647113274335,0.12484127746189022
727,0.8912172550095991,1.6371350457628688,0,1,0.9815839775821968,-0.013928229852931927,0.07062155303405968,-1.504003217515331,0.451484493968753,0.10708343842867862
