id,ASVM,GSVM,walking_nonwalking,normal_abnormal,ax,ay,az,gx,gy,gz
1,0.7522558741805612,0.012722694865579252,1,1,0.7486216424643269,-0.06385126521950385,0.03771508775198713,0.0067934269926526,-0.0004329718842207938,-0.011059627518058173
2,0.8126602260286317,0.015043749148171175,1,1,1.0632322626345305,-0.09066027289159517,0.056298945795082,0.01728187137071497,0.012126061496275034,-0.01566868183521643
3,0.8696538826657432,0.017239146180925275,1,1,0.9625572854579996,-0.08052905360769604,0.0565255063523254,0.018069139974345005,0.010189351703678375,-0.012986556546451594
4,0.9202591778794085,0.019147089856074374,1,1,1.0157194258075977,-0.0858497410678813,0.05692594395918355,0.0177633992650245,0.005018767219496628,-0.013684232160416322
5,0.9622821298119126,0.020648887124938363,1,1,0.9804105481110773,-0.08352388817838975,0.058738716227904574,0.013813691718939413,0.008963327111578427,-0.011232159269864692
6,0.9945083106232712,0.021682435658327743,1,1,1.0006689402297262,-0.08389837795441721,0.06148844647660713,0.024045993171002086,0.003120255542807341,-0.010945100878388084
7,1.0167337217955241,0.02224569340944342,1,1,0.9893892629183697,-0.08031885360426619,0.06096151146282957,0.022425802589831432,-0.001478954561940378,-0.009884325107431867
8,1.0296527263271276,0.022390727808601966,1,1,1.0005874462959476,-0.07978768475685703,0.05541900920929312,0.019306947704834692,0.0014063983905370416,-0.006091613951411341
9,1.0346458893926984,0.02221031138535803,1,1,0.9959072464768661,-0.07665641615740282,0.052236033072491334,0.021252032009173038,0.003523688451398079,-0.0060709093033400096
10,1.033517147846027,0.021819995882279043,1,1,0.9980168740621068,-0.07809664830474307,0.055555722858512416,0.017525213563379164,0.005248683068599043,-0.007391604833733634
11,1.0282262999030234,0.02133915994879505,1,1,0.992283805362868,-0.07944845964786741,0.05850743323924472,0.011987318514321778,0.0081268122680359,-0.008745591124903767
12,1.0206533384078669,0.02087457235652066,1,1,0.995810950043653,-0.0813725202985365,0.05949203083658929,0.00322603660979056,-0.008863206568141541,-0.009804748686347817
13,1.0124187876603945,0.020509469495468804,1,1,0.9949436837125193,-0.08440320674885098,0.06110728026882067,0.003766091534254176,0.0005693705235192998,-0.011251540428340857
14,1.0047713446457274,0.020299926628109873,1,1,0.9938758106183626,-0.08472362936946512,0.060321477102010135,0.010315273704896726,-0.008745888608026487,-0.010468905513435552
15,0.9985426112157517,0.020278367524411228,1,1,0.9994572825625255,-0.08203675615148376,0.05520362799328404,0.02503440524682702,-0.001678104199898815,-0.010765913005613968
16,0.9941598320467089,0.020461740308864645,1,1,0.9973577558239807,-0.07865978811407578,0.05664093529836445,0.03039596864020615,0.006072673603723188,-0.005743301536993904
17,0.9917019937170614,0.020860076506463425,1,1,0.9969992326647233,-0.07819196222096525,0.05582107173063771,0.03197337749931257,0.006522862940374486,-0.007986555802212848
18,0.9909824424057702,0.02148091578832515,1,1,0.9969658618745358,-0.07697886366997264,0.06000626781600686,0.030282005540751344,0.002747029170102978,-0.00552988761218161
19,0.9916418575984633,0.022326919579641183,1,1,0.995570170963253,-0.07738090940485429,0.05661845250964351,0.011078914361420186,-0.0021717984652360424,-0.004507167002300306
20,0.9932381183964679,0.023387304771112463,1,1,0.9950542094881808,-0.07925194904261713,0.0584549326587425,0.010547631534818205,0.0038618987609400557,-0.005229931129309293
21,0.9953233489847063,0.024626917025374163,1,1,0.9914899320909756,-0.08441867321018624,0.057698204013991394,0.005620417591756086,0.010679426277198244,-0.007929555821427455
22,0.9975023725369938,0.025978127499798904,1,1,0.9948374012316625,-0.08156775970355024,0.05940484100920918,0.012626987950860459,-0.020310782236200448,-0.013400347830422918
23,0.9994702847090112,0.027339642759542298,1,1,1.0014198454734098,-0.07823906970773567,0.05124881932578647,0.007356392634477252,-0.021915387269031784,-0.00971990706682431
24,1.0010295534917375,0.028583654096599687,1,1,1.0020920642610234,-0.07844877719961825,0.04504780737234099,0.013674103083452923,0.012666189926612979,-0.008427533497158513
25,1.002089077846596,0.029570032953909326,1,1,0.9893504270640018,-0.07910864466164524,0.061116041454088804,0.012045531146990605,0.05014642125069034,-0.007775300794500273
26,1.0026492948870185,0.030164468108857066,1,1,0.989453347018589,-0.08215424331701145,0.07614013644393385,0.01844371297198545,-0.007022935997617795,-0.006291239838528749
27,1.0027786404468337,0.0302568208652394,1,1,0.9932153373274998,-0.0834501550490218,0.06215451201832732,0.010441294222357119,-0.03437377499459599,-0.007487666065436058
28,1.0025869144060446,0.029776507101654043,1,1,0.9961897587012035,-0.08338248383450413,0.046297295214244305,0.012216739345984003,-0.02631582751671796,-0.0064978833762141044
29,1.0022001054229672,0.028702957416089307,1,1,0.9984836401081308,-0.08007389237602627,0.05040703914086336,0.019623021908738054,0.007551759642784075,-0.008567246516117474
30,1.0017394907618444,0.027070391398811282,1,1,0.9975094697120137,-0.08213962999434568,0.057235803748368515,0.01899501971123083,0.02372156004823667,-0.011034386751773526
31,1.0013062160523332,0.02496677361049954,1,1,0.9948804523715278,-0.08443655559955027,0.06514364496499285,0.016710770582968933,0.01935502397466799,-0.00810286619668554
32,1.0009715865153257,0.02252698559735261,1,1,0.9910528561995767,-0.08381475031321663,0.06259470020818014,0.0235399249313842,-0.008693959391601688,-0.006550597660238615
33,1.0007728823403563,0.019920397501059874,1,1,0.9974888288648313,-0.07841023809961885,0.05835944619630455,0.019861002168645246,-0.015687584001506903,-0.007032499709395338
34,1.0007142560508493,0.017333576997277417,1,1,0.9973454516734154,-0.07709517275157517,0.059243017582814375,0.007511976018472812,0.005505992682575659,-0.0037404028618277466
35,1.0007719189930422,0.014949878309733175,1,1,0.9943923224172004,-0.08300284081145053,0.06508169816559557,-0.003236147287019075,0.01459859214241855,-0.0026323230377469507
36,1.0009024543828855,0.012928683505508028,1,1,0.9929319586355532,-0.08345457935618103,0.060634243955936785,-0.0012038784333128776,-0.002028699392388314,-0.004605863075546018
37,1.0010528824939062,0.011387521316975891,1,1,0.9983808462733946,-0.08405985853838588,0.05604404357658649,0.009091663402607033,-0.003215383432884739,-0.004413490852161097
38,1.0011710236467861,0.010389851882295634,1,1,0.9992692531097075,-0.0852504908695874,0.054913956162957446,0.00828392304092896,0.005823339514893647,-0.005087475349832148
39,1.001214662386729,0.00994018540078749,1,1,0.9995824349263845,-0.08176024273454761,0.057710096938393345,0.002770186661644549,0.004100270404678221,-0.0008067515997968397
40,1.001158137733956,0.009986913960871653,1,1,0.9953520713996377,-0.0796676723545126,0.05955163053584812,-0.0007222341278510868,0.0116459356009659,-0.0007591231374129392
41,1.0009954742130298,0.010432167598987038,1,1,0.9940492437840982,-0.0816609719880707,0.06133808306424264,0.004267890663777585,0.004147087282966017,-0.00411233942589445
42,1.0007399358495712,0.011147209160586922,1,1,0.9987651166050392,-0.08376370948519295,0.05934248626204391,0.00953742557182156,-0.0009607840135229584,-0.005387152082961433
43,1.0004205722538166,0.011991232319416338,1,1,0.9934405580691295,-0.08421808233161947,0.05970119814114119,0.0072665602074607274,0.008387228252492008,-0.005055024486402918
44,1.000076706923757,0.012830868611278112,1,1,0.9929529799619784,-0.08174915286958143,0.05899618118982984,0.01741727232510833,0.007891815482655674,-0.006340778394434216
45,0.9997514515460308,0.013557364932005836,1,1,0.993539561043664,-0.08245003455770732,0.05887937690583238,0.019180897888966816,0.00778497532707003,-0.003340612747752739
46,0.9994853032262698,0.014098561193623184,1,1,0.994742352012666,-0.08300800800707882,0.05984460323203298,0.014197138147074217,0.00021919702790089112,-0.004815512586145538
47,0.99931067408665,0.014423760784536164,1,1,0.9959632397406533,-0.08273575270654614,0.05925712713969593,0.013823135508205735,0.0008798297893402668,-0.003926384780584292
48,0.9992478739600734,0.014541223058770428,1,1,0.9925262972769421,-0.08035800942157581,0.05703334356821589,0.011860952923487465,0.0018509059632865062,-0.004246968983500056
49,0.999302814681545,0.014489696989021432,1,1,0.9935285816306149,-0.08092209461582776,0.060524211778583456,0.01027585063790704,0.008187738254647694,-0.003781249038912833
50,0.9994666235675719,0.014326513265290988,1,1,0.9921340196313774,-0.08146565980880158,0.06017502788550485,0.007017219926009728,0.013103578193175583,-0.0037206934991423175
51,0.999717301011312,0.014115085705511036,1,1,0.9933594560673895,-0.08158735401374946,0.0644411307094549,0.0035002336767871434,-0.003720255381167167,-0.0032506464972554393
52,1.0000233360472255,0.013914464324543296,1,1,0.9956873011543826,-0.08324887979657894,0.05976570463360851,0.0015705085311272045,-0.013595926621268985,-0.0013074578299296308
53,1.0003487833754334,0.013773013032990913,1,1,0.9959378353649457,-0.08609274015723037,0.05146104726678832,0.0015673779632317368,-0.0022324978557085456,-0.004097664367887145
54,1.000658877629719,0.013727314125668726,1,1,0.997382213910391,-0.08743098500660668,0.061101946603973604,0.01138713720204564,0.004776020114783777,-0.0036724410363189845
55,1.0009250370569347,0.013805989401828471,1,1,0.9973423595533498,-0.08594376412155252,0.06250776266299801,0.01774975151221929,0.0017633106313561051,-0.0027131925375972737
56,1.0011282216894786,0.014036505078535873,1,1,0.9964497460002597,-0.08584174424045882,0.05913782800345091,0.01673954778044392,0.0011820809821801582,-0.004825122344179872
57,1.0012600544096741,0.014451726692024186,1,1,0.9983164124800872,-0.0837750905727916,0.0622703339466292,0.014973226195200183,0.014690609678554904,-0.002796009037792562
58,1.0013217670083085,0.015092603057174378,1,1,0.9920656695800235,-0.07969070474595845,0.06272347206129465,0.009682267871603211,0.02866833376207841,-0.0028352269448873695
59,1.0013216948474193,0.01600423268333809,1,1,0.9896443731838594,-0.08003451625160612,0.07011949443846152,0.008728434921927033,0.018361982793755987,-0.0028070244540237634
60,1.0012724298349047,0.017224698574402165,1,1,0.995778621490075,-0.0828493076090646,0.06924533401857783,-0.009274444774500741,0.005401839223987866,-0.0005071898328157282
61,1.0011885770261792,0.01876900755023369,1,1,1.0002314345024126,-0.08261886070764923,0.06384380085826366,-0.005052776364074091,0.0006346187752082664,0.0014074926211182983
62,1.0010853729747808,0.020613160166365035,1,1,0.9985324388792625,-0.08719108002475835,0.06101053197159514,-0.0039587094062891355,0.013515025366393062,0.0058228071351820836
63,1.0009777184740447,0.022684419872803147,1,1,0.9926403566780738,-0.08862969619962476,0.05472127901558222,0.006573863033461199,-0.0018799348955401164,0.00427917929522564
64,1.0008790224967352,0.024862549450427502,1,1,0.9965882556824174,-0.0852519618280991,0.05326238890417378,0.018856967010525603,-0.007506214353180345,0.004358082365836764
65,1.000799665851237,0.026993616271508678,1,1,0.996617983780556,-0.085393025934016,0.047460866415685456,0.015360003848206022,0.0008056520691107482,-0.0016144627987556303
66,1.0007454016072344,0.028913986812892162,1,1,0.9951448596727686,-0.08845829554677316,0.055755698300469655,0.021622127817615445,0.04004142493079006,-0.0032953296832201385
67,1.0007162669651621,0.030478413433771202,1,1,0.9889863075444921,-0.08318191353251535,0.07501746062936178,0.044600586684346584,0.06460341868143887,-0.0015015305507149101
68,1.0007065843440202,0.0315840630362058,1,1,0.9942939272630201,-0.08057211944795878,0.08131953081062583,0.02439764688089374,-0.0025634269442622207,-0.002015379768811881
69,1.0007064126915999,0.03218357309384606,1,1,0.9958504841286595,-0.08405962269059605,0.057638023515863286,0.0005018656946545539,-0.014283751578770603,-0.0014001954141756785
70,1.0007043399209279,0.03228483290473668,1,1,0.9968159615282653,-0.08645356460918505,0.05426170983321597,-0.002096695324970889,0.023045429713030353,-0.0014535320975552252
71,1.000690925507268,0.03194042303358799,1,1,0.9993978947108905,-0.08558314341485738,0.06666168630641481,-0.0008791366056763189,0.05111403803340505,-0.0030914301162931227
72,1.00066175396925,0.031232217631625106,1,1,0.9929450737638208,-0.08009953509487297,0.07146488065454731,0.003920477718143025,0.021875956500268818,-0.003813561430218907
73,1.000619178761766,0.03025624660395624,1,1,0.9950397748140314,-0.07999282100149294,0.06462973652257611,-0.004014495605563695,0.003590439868178995,-0.0054121706605864
74,1.000572315792789,0.02911153772641885,1,1,0.9959522308860731,-0.08219264779788074,0.05868216799047019,-0.007272844298471991,0.015845643217349062,-0.003005380851820618
75,1.0005353530579029,0.027895134087110324,1,1,0.9963506163825788,-0.08684804787389298,0.05791022192339436,-0.005868200168439773,0.035655578806731064,-0.004293344029417452
76,1.000524539037772,0.026702979928008467,1,1,0.9940848667950674,-0.08858117765364548,0.06455069083654587,-0.004053338135362689,0.050317525341821996,-0.006959955025937796
77,1.0005543384072704,0.02563317130437441,1,1,0.9947468975513082,-0.09314106527216698,0.0687833001711934,0.0024893169137571044,0.030207117587440383,-0.0056839728026799145
78,1.0006333684772937,0.024786378608517658,1,1,0.9961346575129352,-0.09099856912642715,0.07163480144785313,0.0065764858619235655,0.028173160545908033,-0.002555347455588542
79,1.0007609231342043,0.024259670538139353,1,1,0.9877493207199991,-0.08765903145940424,0.06542113651571997,0.007647228043262827,0.024274771412988443,-0.004863109079195263
80,1.0009250718970806,0.024133617104783178,1,1,0.9895096765954072,-0.08602230994771282,0.06928176141944004,0.008835039004152662,0.012985498602496603,-0.005255902666631599
81,1.0011032641704336,0.02445615116935445,1,1,0.9962446350399881,-0.08713791403778813,0.0692929145830966,0.0014817172605241377,0.006478347075903032,-0.004554858176124275
82,1.0012658100988705,0.02522853682052561,1,1,0.999687323754833,-0.08540716253516127,0.06410681967465372,0.008784424229610076,0.012967064398310395,-0.005489321390911919
83,1.0013816182097461,0.026398374263305168,1,1,0.9962077304245954,-0.07919985470483261,0.06887103427706172,0.008668697118971447,0.03613810968909578,-0.005882614027793057
84,1.0014247000022547,0.027862242827994817,1,1,0.9971380062600504,-0.08093340605127632,0.07140495337503443,0.007145184723577504,0.0214609833831089,-0.0033007361377337015
85,1.0013797331984167,0.029477601067810687,1,1,0.9969851804962852,-0.08471643067797292,0.06484993016554112,0.00811759862774045,0.02227654710003454,-0.0037419153950390828
86,1.0012453884085755,0.031081333334426236,1,1,0.9971853797378436,-0.08494125135102269,0.0609121119787775,0.021548536889116607,0.023243111577565034,-0.003219578491205079
87,1.0010347856059296,0.03251123013937004,1,1,0.9964345798762169,-0.08414526213560641,0.0689097962376201,0.01342242552365483,0.04462657533543099,-0.004703470375900107
88,1.0007730942393576,0.033626237820046284,1,1,0.9933809654473126,-0.08688601203628395,0.07940268787510209,0.007251417865713206,0.04733484844886474,-0.005005923985581153
89,1.000492874514586,0.034321530639910086,1,1,0.9936183537985243,-0.08720201348100298,0.08181539792276027,0.008856972940342227,0.030123986858921696,-0.0066308463207620984
90,1.0002282450521467,0.034535983898103466,1,1,0.9875117623324748,-0.08720702778212741,0.07030315824253643,0.012445745625495596,0.018909824485063648,-0.00940345961889267
91,1.0000092259253532,0.03425231213040628,1,1,0.9921237050159871,-0.08594296568458999,0.07005261297147573,0.008215262883060855,0.02835850144760883,-0.009033375846174927
92,0.999857465792608,0.03349251293754666,1,1,0.9956891466198065,-0.08261344615623657,0.07335053609362656,-0.0004649242732473711,0.0288464169333807,-0.0061969169743922295
93,0.9997839677306803,0.032311900260447494,1,1,0.9996249164493409,-0.07853114718649151,0.07572019157773452,-0.0024131579384780214,0.0273073975080954,-0.004904276926669278
94,0.9997886780715245,0.030793906760046105,1,1,0.9919105348764993,-0.0808194192457399,0.07277808817294212,0.00031841757428304385,0.04114268470058345,-0.00805632590475922
95,0.9998614124187485,0.029046080320910262,1,1,0.9874279490215147,-0.08483209055866403,0.06914466595923267,0.008110062737422168,0.01154187220830283,-0.009492171446686288
96,0.9999837393157904,0.02719632941685193,1,1,0.9960392200166535,-0.08447839763608317,0.06615173191200385,0.027332376198750334,0.014556669171830645,-0.00911522177265578
97,1.0001316961501765,0.025387821171401627,1,1,0.9970983132318437,-0.08490140008327204,0.0704663858973932,0.02234902422385811,0.031614564876227456,-0.009443814659233545
98,1.0002791111697027,0.023770878103209714,1,1,0.9961467449371335,-0.08495122183557138,0.07757300816953872,0.019187469660582296,0.017093037459222755,-0.006348384527703703
99,1.000401001867365,0.022490795847250313,1,1,0.9936667131566449,-0.0842899656410552,0.07257615778714314,0.013260312542220399,0.012746590102277277,-0.0072001305691426175
100,1.0004765135601184,0.021671927084883382,1,1,0.9906433574094887,-0.08108608640442884,0.07538266349092743,0.006638478287327701,0.01169762448330108,-0.0088177384474733
101,1.0004912467109977,0.02140026354426816,1,1,0.9906878192082235,-0.08443317155699269,0.08251254619014393,-0.02024632235560733,0.00784923854365406,-0.0077168499796202
102,1.000439156948849,0.021708075243489815,1,1,0.9965324405670528,-0.08415101891027539,0.08008790258098511,-0.012163509962643823,-0.014917476154633763,-0.0019012993760437232
103,1.000324103701037,0.02256433036664374,1,1,0.9976778678217437,-0.07889493031116564,0.07346760957894476,-0.0065486818164623645,0.0061882963460561345,-0.0007846138267285828
104,1.000160692879017,0.02387385252593295,1,1,0.9903398427018019,-0.08268747329678662,0.07405272935962338,-0.012543556519785809,0.011011317744867842,-0.0042454604253525235
105,0.9999737573868507,0.025486768209192382,1,1,0.9959444390051534,-0.07961032066647485,0.07506420272783328,-0.002202891850443056,-0.026677458682680098,-0.006745992318340076
106,0.9997958876206208,0.027217714591861685,1,1,1.0044783245520086,-0.08105654067788907,0.056800007583306625,-0.006855083384246568,-0.012588752703940997,-0.005025300533482619
107,0.9996627770282145,0.028871714696793595,1,1,0.9939378002639694,-0.0865311597809145,0.06687689679958,-0.013473833690306544,0.055035334461853255,-0.004282574387295497
108,0.9996067592261687,0.030271405031080025,1,1,0.9830133385763641,-0.08709398566060161,0.09727475984084634,-0.012305702547041488,0.03684445980376638,-0.0047636546653855106
109,0.9996498184150545,0.031279533523364135,1,1,0.9859363638133992,-0.08833003874069872,0.09157705653464125,-0.01775455528883538,-0.027701504639429643,-0.007615425159842663
110,0.9997981409943671,0.031812068879412715,1,1,0.9888143562621693,-0.08345699276425268,0.07277209715687262,-0.02035673901849612,-0.021512869854201103,-0.006012750616041459
111,1.0000401777086052,0.03184046764619174,1,1,0.9937227099560256,-0.08464912386004039,0.0748246058220072,-0.026666205983473988,-0.01387079073675241,-0.0060899110353886616
112,1.0003489592108599,0.03138504768284087,1,1,1.0004177537609578,-0.08942430785549337,0.07676009203993296,-0.019665055749544403,-0.017988489823886,-0.0025242410299978475
113,1.0006877374296188,0.03050349381359862,1,1,0.9996625211667953,-0.08437898475132796,0.07680974025885458,-0.013010228167249996,-0.0057476053166976,-0.0020726856503948624
114,1.0010169468118097,0.02927879543536054,1,1,0.993581052160087,-0.0744516950954395,0.07890418099732678,-0.020293474352267613,-0.005902735422696232,-0.002760220608410706
115,1.0013005584109298,0.02780958035253819,1,1,0.9892764445781567,-0.08019266930057868,0.08086209987178694,-0.040784763529669456,-0.010048548425597353,-0.005374432310505474
116,1.0015108196774822,0.02620335972495931,1,1,0.9932295277987826,-0.0923739279990781,0.06776754216587634,-0.03489258537020695,-0.024062917259360536,-0.010517355977531485
117,1.0016312277655666,0.024570850576151475,1,1,1.0035059533779054,-0.09361632150419079,0.06583845310495266,-0.012717209603681438,0.0002470641079027049,-0.00806434288198824
118,1.0016577647770268,0.023018905161999004,1,1,0.9953081246675055,-0.08910091356789882,0.07593709714122707,-0.005252539211850157,0.03272111370932709,-0.005227353215768023
119,1.0015982177450897,0.021641095879840394,1,1,0.9937316314168617,-0.08664887750983898,0.09073048912169893,-0.0054182978339113175,0.007993856591843932,-0.003117944384720536
120,1.0014695234830686,0.020507359025673248,1,1,0.9957266830276624,-0.08451008381386638,0.08503851735684685,-0.010698871479389211,-0.007056928932684678,-0.0010122213303246333
121,1.0012937131047468,0.019655578530605067,1,1,0.9850606032140478,-0.08575718551779739,0.07000877833084963,-0.013096859958600394,-0.009289514866380437,-0.0009383114736180344
122,1.0010936824824157,0.019087844655231896,1,1,0.9920372855317127,-0.08703308578205607,0.07821961522092849,-0.019853036263929053,-0.0015853304753491615,-0.0030053911971891
123,1.0008900746709186,0.0187726442114608,1,1,0.9990607285504602,-0.09043814631485593,0.0808282906918133,-0.02216309450476321,0.0035759298509366573,-0.0007013370215528203
124,1.0006998715751523,0.018652335616045415,1,1,0.9973658597618341,-0.08683645669453112,0.08014528199076458,-0.017009905737386158,-0.001920786841528412,-0.0008426649030504525
125,1.0005363300787455,0.018653906537130793,1,1,0.9925953303437522,-0.07898415495020228,0.07542497167180542,-0.020450966375735048,0.004383769094167147,-0.0008844125160866565
126,1.0004094061980955,0.01870060114948786,1,1,0.9919811066125709,-0.08398571627044756,0.07465245555265797,-0.023059884129889806,-0.003945510347138569,-0.005003438073420486
127,1.000326032854708,0.018722301939816246,1,1,0.9936643324392614,-0.09035038065452088,0.06854052732168779,-0.018020458801691404,-0.01429868247683575,-0.0035077159904622827
128,1.0002900687183465,0.018663239118330843,1,1,0.9971469274788815,-0.09460329435894688,0.06567751093914023,0.00444651821313146,0.0027723692264877676,-0.004473035007849321
129,1.000301915654159,0.018486510274630857,1,1,0.9968385340730167,-0.08664633771008737,0.07798405021843664,0.011821243325537259,0.0254894273242391,-0.005178646929160659
130,1.0003577996665387,0.018175740280228437,1,1,0.9902313528559389,-0.0846985336843548,0.08808761111737512,0.0029198064846713114,0.011867580839806689,-0.007281783309116481
131,1.0004489085324373,0.017734653522937877,1,1,0.9904031753004632,-0.0827206874693174,0.08548612913455912,-0.010702608572892645,-0.0022150481951987563,-0.005292542222166051
132,1.0005610105227247,0.017185342849037846,1,1,0.9881129746046866,-0.08794879497746545,0.07451673787183613,-0.01934129604642588,-0.0033925956274494674,-0.008275194734539732
133,1.0006754038617227,0.016565796707712306,1,1,0.9929950845401645,-0.08917958118969795,0.07462379323469559,-0.014756510792659971,-0.0024755756914919816,-0.006303008771049588
134,1.0007716439796916,0.015926896303013506,1,1,0.9990474516503693,-0.09073518277956284,0.07469677798244467,-0.014491570388700024,-0.0013321572076077134,-0.007983703516373201
135,1.0008315645627297,0.015328761201566921,1,1,0.9992035352755674,-0.08840305251226739,0.07453513814515614,-0.011442350566858427,0.011391958097016304,-0.007932852019828731
136,1.000843276292494,0.014836237979405573,1,1,0.9940391586289999,-0.08454489405391216,0.07945747072273028,-0.01087013224850875,0.002401259148080073,-0.0029064420784249583
137,1.0008037293868188,0.014513534529166866,1,1,0.9922330999176743,-0.08706672691784474,0.07880306625288654,-0.017032140094970956,0.0003302971173177581,-0.005446124411221824
138,1.000719111818067,0.01441831528690895,1,1,0.9924581437345308,-0.09343501548188844,0.07685115747678124,-0.01193754705574687,-0.005829333581446226,-0.006139891044595371
139,1.00060325158212,0.014595826003375018,1,1,0.9928496053331393,-0.09704281760973794,0.07370461492658399,0.0011736694311337338,-0.002214049637831445,-0.0069869686520904585
140,1.0004747025260614,0.01507374399898562,1,1,0.9952389502419521,-0.09338803971332453,0.07063924733883768,0.009939104938171538,0.006901007862644908,-0.0071459825819117926
141,1.0003532270067588,0.01585834721129342,1,1,0.9960830166840926,-0.08662343434164337,0.08013564342399457,0.01462069853011073,0.019415887509671534,-0.006650486050269706
142,1.0002562701671078,0.01693220396662149,1,1,0.9876094053304412,-0.08522644341987078,0.08284904141662973,0.0053153327110266125,0.013851736861858085,-0.0075400850393114675
143,1.0001960285073408,0.01825320885218344,1,1,0.989673055116282,-0.08360269104916242,0.07576015409604336,0.005533982031418897,-0.018309982533140732,-0.00879370308344517
144,1.0001777611796803,0.01975493253503224,1,1,0.9978959489882734,-0.08991705765867218,0.07266532910609386,0.005362862886348386,0.0020797545065896466,-0.004214307679248937
145,1.0001997687168185,0.02134888723441705,1,1,0.9918580815229524,-0.09685778853129456,0.07387516225967823,0.007617187495959977,0.01847070983763832,-0.005685312297281848
146,1.0002549196831134,0.02292969025715286,1,1,0.9900929245641896,-0.09365080440191485,0.07745913467357297,0.01954534102698633,-0.012658810408016806,-0.007099600972503425
147,1.0003330748018362,0.024383616538803735,1,1,1.0010968587159224,-0.08567408413920599,0.06911344989831161,0.011086976309788232,-0.026741111517954413,-0.00768370103880148
148,1.000423542703778,0.025599934597240945,1,1,0.9982771607503877,-0.08335450079741143,0.062016162959352125,0.007654048773039955,0.0023404472847245866,-0.00547242962560748
149,1.0005168506579032,0.026483480582196905,1,1,0.9872175472365046,-0.08986065955049306,0.08733236969846199,0.0044401458102555,0.044284464696321205,-0.0019643055303035437
150,1.0006055822894107,0.02696646188410974,1,1,0.9873823344319639,-0.08824705898551098,0.09398167897633196,0.014337010739249546,-0.00709304884560752,-0.0035884992123869455
151,1.0006845986803332,0.027017319343680946,1,1,0.9949123734067947,-0.08297417283973398,0.07438549310031484,0.02060589711387944,-0.04390119138378126,-0.007820902997211724
152,1.0007511366183233,0.026644664208828796,1,1,1.001094852816428,-0.08193225710666885,0.06366543277137322,0.01681604663882333,-0.007658767925528262,-0.007580052292415739
153,1.000804862656433,0.02589520025833361,1,1,0.9977855804337318,-0.08625123314651273,0.07346984729558619,0.013076857880088142,0.014730070967569769,-0.009264436148219023
154,1.0008474612278258,0.024846095481507288,1,1,0.9938102126780248,-0.09086462116981481,0.07861209814388911,0.005720165740099253,0.017115902403585334,-0.010259537242007968
155,1.0008814269878095,0.023593700081280863,1,1,0.9869666874251132,-0.09517879275559679,0.07956311382528145,0.010109086464317454,0.016752936966810465,-0.011902024231739862
156,1.0009084169907503,0.022240960769903218,1,1,0.9890003994937586,-0.08827730019645218,0.08038625945771953,0.02591293016537875,-0.005468229116460484,-0.010264286822421047
157,1.00092809681965,0.020885339889560553,1,1,0.9973398744713241,-0.08776093536683931,0.07693235909700283,0.018330173501366398,-0.009624244700824812,-0.004675028245216038
158,1.0009382605918078,0.01960833696772529,1,1,0.9946674660455835,-0.09023510127450778,0.07386351001994841,0.014705477814331276,-0.004188858253055998,-0.002339967688262455
159,1.0009362242383275,0.018467533394084853,1,1,0.9981177566501288,-0.08231337004781693,0.07477053875623486,0.018659191859319437,-0.007846732841194479,-0.0007373923852299494
160,1.0009207632143664,0.01749233478416277,1,1,0.9940518318899308,-0.08185750790796677,0.07549018829230611,0.0012591848028129617,0.005938491459748821,-0.002057081264440064
161,1.0008937060012841,0.016684643413109445,1,1,0.9905808900467731,-0.08675233372208405,0.07744596094537913,-0.0007647178737685428,-0.005713869895710116,-0.004737493273637594
162,1.0008606134765112,0.016025013043697633,1,1,0.9980890000152506,-0.08733039729830354,0.06865875209691505,0.015218021264084515,-0.011334841194748767,-0.006486175352370773
163,1.0008303380590586,0.015483282566609443,1,1,0.9986013356317014,-0.08625677269772859,0.06656319031863511,0.018297478941005158,0.013033903198312623,-0.006528204194884243
164,1.0008134415457017,0.015030746589859478,1,1,0.9927249713719374,-0.08601520164272754,0.08161299232285113,0.0153358123070027,0.028161754187369804,-0.006704255958135538
165,1.0008196302345425,0.014649767083022671,1,1,0.991488970396595,-0.08714641329729805,0.08270957708082381,0.006521704876991258,0.013927648947256942,-0.006092176760020733
166,1.0008547327427713,0.014337457467622827,1,1,0.9916274542985658,-0.08769517346698155,0.07773943899652531,0.004174289680558874,0.0036278781961289115,-0.0073279531216232825
167,1.0009181208034974,0.014102585290828449,1,1,0.9942682323128743,-0.08590948557873063,0.07400842677502714,0.006816372248263945,-0.005066315268948966,-0.004113766935041668
168,1.0010015010700235,0.013957693779004991,1,1,0.992448778306393,-0.08781340720102865,0.07219757343638715,0.0007897475714901085,-0.0010443938869300483,-0.0052745603550854855
169,1.0010896059005714,0.013909989708955822,1,1,0.9949113693820367,-0.08813929142129887,0.0741588570364695,0.011353129635674171,-0.005153135109581246,-0.006479725376694372
170,1.0011627176594997,0.013954216965864087,1,1,0.9967744091120051,-0.08557196070033055,0.07637387794205874,0.016615482439239063,-0.0018544304149325647,-0.002780224877979448
171,1.0012004469254658,0.014069230599420121,1,1,0.9938549047176674,-0.08356170166959122,0.07608552780343035,0.017657537866653552,-0.0009317340438114509,-0.0037745185108336798
172,1.0011859066293771,0.014218496905220515,1,1,0.9944995100348303,-0.08336620408889875,0.07959687716667929,0.009871360069515988,-0.000851781655023654,-0.0034238165815308106
173,1.0011094050461733,0.014354052125978107,1,1,0.996610045021994,-0.0871334995740255,0.07779198213092708,-0.0007173542799913861,0.0038098667851658766,-0.005212095258690008
174,1.0009709270645293,0.014423440771160112,1,1,0.9947105118234759,-0.0904270370429014,0.07678367036436935,0.0018864014305761598,0.012988724171658401,-0.005633552521248605
175,1.0007808906795566,0.014379072223698594,1,1,0.9950745916548103,-0.0885872833368734,0.07765314561598113,0.010564037592406603,0.013561992018070106,-0.006030149829674644
176,1.0005589631381449,0.014188784527951106,1,1,0.9933420367845708,-0.08502215862385964,0.07644865732794459,0.017053533860691587,-0.0011954052618744814,-0.0028613215109731366
177,1.0003311166522773,0.013845535061569521,1,1,0.9935746447701762,-0.08207488115933796,0.07292583171737868,0.01582290726214321,-0.0025083848459300936,-0.002659275478801861
178,1.0001254994960407,0.013373795905722342,1,1,0.9948168416205759,-0.08637535910297654,0.0743663287289779,0.01281889765559955,0.007873832526806072,-0.004272267371589124
179,0.9999679502057207,0.012830723212731859,1,1,0.9887846596486656,-0.08697520954517378,0.07901528797271343,0.015311015488208105,0.0057076833277162585,-0.0044538813961511456
180,0.9998780274456907,0.0123012225258454,1,1,0.9947723753354176,-0.08283023821831031,0.07746090120252963,0.01619412947651868,-0.004890738298331696,-0.005341361450467557
181,0.9998662787632843,0.011887294960479957,1,1,0.9915404447905645,-0.08665153675252521,0.07553908887518028,0.0013675656110434342,0.0009948251082253837,-0.004330787795356038
182,0.9999331634222995,0.011693328251645521,1,1,0.9938025555149068,-0.08617729749601685,0.07475536705204915,0.0013612372690771804,-0.004060401909550484,-0.003637160493690804
183,1.0000696565478295,0.011809988303970453,1,1,0.9938813491371853,-0.08644736468632139,0.07401443969448838,0.004157125985646825,0.012853825766890982,-0.0026291593874695172
184,1.0002592154250614,0.012299607480139602,1,1,0.9926292287683306,-0.08448584245100632,0.0774800580464331,0.01236070256941579,-0.003350235432974807,-0.0020856875898180114
185,1.0004805650204713,0.013185357680981724,1,1,0.9967142106089117,-0.08220657499343825,0.07351705428441464,0.0057121889065163975,-0.011665993328743997,-0.0014690982703405265
186,1.0007106680680637,0.014445576545771664,1,1,0.9974078721799302,-0.08424155729775439,0.06992393364235441,0.004297368921508982,0.0019900682202638503,-0.003222923100896846
187,1.0009273023447167,0.016013925527670832,1,1,0.9955274918327376,-0.08671410927032396,0.07555307770102758,-0.0030844506626177305,0.01579152237986695,-0.002921907452221976
188,1.0011109323864633,0.01778550661590186,1,1,0.9860358735065855,-0.09057874669421043,0.0806906109612008,-0.0003292106649398004,0.015126647729532048,-0.00680476649599297
189,1.0012459791988173,0.01962826591535842,1,1,0.9937976625996588,-0.08518867003145533,0.08052986804685822,0.007021660689461371,-0.021403218577612803,-0.007284436538538632
190,1.0013218483939157,0.02139800881274694,1,1,1.0009605106921795,-0.08075993721514377,0.06032973410410554,-0.0009204483882939309,-0.01844282574265479,-0.00560954686977667
191,1.001333885646164,0.022954602196506264,1,1,1.000058089806491,-0.08161124302459932,0.058359956907581445,-0.0010770527293508577,0.026156905793348163,-0.002891468921555902
192,1.001283994865369,0.02417677029266936,1,1,0.9900238828327879,-0.08707236335303321,0.08444718892967261,0.0029493047247578976,0.041808463416500116,-0.002480018699224933
193,1.0011805238150704,0.024973349562442845,1,1,0.9896604953257868,-0.09370986863912453,0.09183743735063753,0.004796843620449958,-0.009439840067044587,-0.0033014871616779897
194,1.001037331566732,0.02528995009012339,1,1,0.9952566360096252,-0.09290361630237225,0.07573089875876833,0.008538936339085092,-0.023256623777970692,-0.004003684982482277
195,1.0008722464104678,0.025111408462433732,1,1,0.9975309804973913,-0.0881954473599403,0.06594983110742153,0.013667848216072098,-0.003884012005869199,-0.0029980038777494243
196,1.0007050583442392,0.024461373925977185,1,1,0.9976798073098143,-0.08385662000662225,0.06948679525368767,0.009423618186058719,0.027514936993401833,-0.0016875455833902393
197,1.0005550175283997,0.023400104682078805,1,1,0.9908073028822924,-0.0880590690156859,0.08108597741258043,0.006768810979989795,0.03398893008745916,-0.0024800309581178934
198,1.0004379445857874,0.022020420402277165,1,1,0.9906431647081818,-0.09117851111453541,0.08825254752265993,0.013755255413173045,0.006488455422081639,-0.004772767841466488
199,1.0003634751696766,0.020440956197231526,1,1,0.9915561671497861,-0.08424336287017199,0.0770701701279135,0.022159788534531894,-0.017001730250518564,-0.0027832965788297677
200,1.000333244696274,0.018796141313102678,1,1,0.9957774945884115,-0.08525699621589022,0.07098366154778052,0.013089670787713115,0.008642198831933474,-0.002943810103429569
201,1.0003406801375276,0.017223373236562936,1,1,0.9903007005751763,-0.08761727843105606,0.08245882781838229,0.004156256623458412,0.01966047484280167,-0.0032732875044519183
202,1.0003726068169445,0.015848943148154774,1,1,0.9918059625750283,-0.0897776927647269,0.08032379924823119,0.005582068665289256,-0.0030509917550662676,-0.00016453141549782044
203,1.0004123639410323,0.014774946374573336,1,1,0.9962822805903989,-0.09054239527874658,0.0735336935980215,0.009727975509964177,0.003246966422812203,-0.0010492598887870473
204,1.0004436919585826,0.014069466359180676,1,1,0.9959228491281118,-0.08665648787211237,0.07711883630428401,0.01661729124806583,0.004568607223788367,-0.0013043900784355307
205,1.000454374990156,0.013761629176047943,1,1,0.9958160737413945,-0.08355162016706165,0.07682021021263359,0.010128101859096671,0.007636031167008694,-0.0026585819205217857
206,1.0004386372299034,0.01384193901116408,1,1,0.9948385959063251,-0.08662182836137564,0.08041047650064706,0.010709756337457164,0.01151354569345685,-0.00492730450269691
207,1.0003977008813931,0.01426725943195977,1,1,0.991385532386149,-0.08759231662604366,0.08288377937840388,0.008241168164907156,0.004420739249500786,-0.004546588714746555
208,1.0003385703375167,0.014969317648687072,1,1,0.9930696236429122,-0.08579165412265351,0.0795275325470705,0.00041746876448262553,0.007056797981421173,-0.0021215707338277014
209,1.0002716998022783,0.015865461000750695,1,1,0.9914664446464252,-0.08686323617784297,0.0803646224953463,-0.014948462897262964,0.022268028986696668,-1.5057441315814112e-06
210,1.0002084762527876,0.016870130092429818,1,1,0.989040351836619,-0.08966613750416211,0.0841439496051458,-0.015488506459221006,0.016875626173018923,-0.0007778550530283012
211,1.000159327437116,0.017905168666041475,1,1,0.9939765628110322,-0.0874130025318692,0.08072407603516513,-0.014964416501811881,-0.0036274582694614615,-0.0032863337314766976
212,1.000132814833911,0.018907237895404223,1,1,0.9962007397648258,-0.08928656809644465,0.07096796643352395,-0.009203405976769502,0.010889891169040308,-0.0038158615903178842
213,1.0001354927203698,0.01983149503807038,1,1,0.9967466500405627,-0.08947567906799045,0.07994904848190564,-0.0020826882668969417,0.029597266845561642,-0.0025402510277050963
214,1.0001719304130154,0.020651813917131064,1,1,0.990715490314949,-0.08931024997151801,0.08860550814967331,-0.005225938653926388,0.018664786723749865,-0.001115900228778305
215,1.0002443776069951,0.021358614625607165,1,1,0.9906722205583877,-0.08927103480921984,0.082925073881895,-0.005574809463780337,-0.001209297297751678,-0.0011006825188894379
216,1.000352028080626,0.021955777174339587,1,1,0.9926588160044919,-0.08863948142876613,0.07827068729963417,-0.003971405653561379,0.017325414310239796,-0.00347747825813778
217,1.0004902891561192,0.022458000132083523,1,1,0.993250140248564,-0.08964357168510659,0.08160991114336952,-0.004108415242653311,0.029402973062746016,-0.005028238980258338
218,1.0006505483967918,0.022888982985445706,1,1,0.9928257189872928,-0.08893906252014708,0.08493772330455537,-0.005436478273464443,0.03619718009081274,-0.003002442976293866
219,1.000820685119354,0.02327939354619715,1,1,0.9939507813094983,-0.08797910038033403,0.08165431664997091,-0.004236767688338817,0.019203511953163686,-0.0016537397967032988
220,1.0009862756531263,0.023663038983276718,1,1,0.9940797508877262,-0.08945326245918298,0.08136715979927771,-0.01257140461129658,0.02209810774553903,-0.0018918255770506587
221,1.001132273719171,0.0240706717806848,1,1,0.993457487414323,-0.09373052815490229,0.08494968888955634,-0.007431463464438571,0.024716621433554298,-0.0044550638101940035
222,1.0012449188522772,0.024522658414461964,1,1,0.9890077700046772,-0.09475040117178159,0.08644747436577209,-0.002997777633246989,0.013565675246425211,-0.006620425985798741
223,1.0013136455165161,0.025023078861458853,1,1,0.9952511946091905,-0.09476134370617617,0.08570358022502578,0.0029976996778966823,0.003909827789916941,-0.0030613909870790355
224,1.0013327149504962,0.025557967178943913,1,1,0.9969124260767483,-0.09146316856024729,0.07692041689910277,0.013735086397903013,0.018270706324953107,-0.0006386020781479946
225,1.001302147969283,0.026099024347356628,1,1,0.9969903328143984,-0.08935828018825571,0.07972950065193984,0.021014756570885612,0.0348250532562828,0.002729401196881275
226,1.0012274899220481,0.026611501578622607,1,1,0.9934745430102455,-0.08760472536045315,0.08153930132988842,0.018502790938677478,0.03916729755022828,-0.0009972073399748226
227,1.001118229695222,0.027062515169576962,1,1,0.9928446875749889,-0.0828175415830786,0.08634274047954472,0.013685602140200617,0.02657137126647677,-0.003030531542811782
228,1.0009852774158,0.027425728406402207,1,1,0.9899280899546351,-0.08506485702228785,0.08927118425829203,-0.004600962478819092,0.029865132503221745,-0.0018074691899200152
229,1.0008384129507661,0.02768060617185258,1,1,0.9922443875191069,-0.08714130373924293,0.09184107743612982,-0.0028257742198590534,0.012742780974291441,-0.0017012485347037553
230,1.000684699484035,0.02780775405129104,1,1,0.9912445926264366,-0.0926420559100511,0.08866860432209263,-0.010579229279354199,0.027601006794392355,-0.001146076553101023
231,1.0005284625938622,0.027784077910710712,1,1,0.9879283207094383,-0.0958747970610362,0.0831288184490589,-8.136633360217898e-06,0.013113975473788113,-0.006178024486205951
232,1.0003727629087016,0.027581612666927272,1,1,0.9993289230651533,-0.08981241589474377,0.08080330584441696,0.01175569858214535,0.004029763935816206,-0.002786310930505573
233,1.0002215938087997,0.02717209014635802,1,1,0.9999472116063661,-0.08565140320980807,0.07236210637098227,0.001794353012350035,0.029217532146212397,-0.000917894102330209
234,1.0000816038423945,0.02653637030182285,1,1,0.9927780849920208,-0.0902890702443643,0.08543202823529526,0.004317095909818845,0.05796764924848552,-0.0021520712982442017
235,0.9999623047516323,0.025674842680848693,1,1,0.9856587149724881,-0.09113406583943626,0.1028851795673416,0.014571266727045375,0.03228304749531835,-0.0032446282676103083
236,0.9998745244357474,0.024613564453885,1,1,0.9922270238460781,-0.08975014361490943,0.09609539530703995,0.015111829690879777,-0.017298969925786698,-0.006197140574466967
237,0.999827795074066,0.02340260685321678,1,1,0.9905469594224424,-0.08819872988280675,0.083217894309042,0.004883285834656428,0.007391135493492609,-0.004613207522966283
238,0.9998278024951515,0.02210700034038026,1,1,0.9891397707886666,-0.08991041868997862,0.09010993649814937,0.0019347668227668435,0.02004176495677192,-0.0048021806655267054
239,0.9998748287644244,0.0207940920155124,1,1,0.9910919180471544,-0.09425596235017601,0.0957913427843096,0.007531368698081318,0.012081895281476136,-0.004458325114625644
240,0.9999635911024887,0.019522074005435784,1,1,0.9923677268878633,-0.09481186634636454,0.08952442351417311,0.010915150144080791,0.00023532603033336562,-0.005033959266068791
241,1.0000843134502504,0.018333114975237905,1,1,0.9930178574375262,-0.09433795867731665,0.08932474244418977,0.01389944140832961,0.009954164271968508,-0.0057022760418777825
242,1.0002244509626053,0.017252247372168242,1,1,0.9926144363554184,-0.0949056013296823,0.09087503901493243,0.01960282343126812,0.0030578247503334956,-0.006033486646809972
243,1.0003703660105694,0.016290965303755074,1,1,0.9936036127815979,-0.09069512708890415,0.09391513428564033,0.025059024681967173,0.005007364428155267,-0.005550560852051451
244,1.0005084599888794,0.015453018213779719,1,1,0.9912306620956336,-0.08783214888371473,0.09356220800104774,0.01935081266180104,0.0003037643594255099,-0.004110248289990472
245,1.0006256772288824,0.014739655873278327,1,1,0.9908269463653733,-0.09021770171491526,0.09259980102723714,0.008553295804944898,0.00214985222185097,-0.0007335482361872118
246,1.0007097087961594,0.014152620474918566,1,1,0.9890691341163096,-0.09368569103662253,0.0926329878584634,0.011754613283404502,0.004815152159298226,-0.0027797208441327466
247,1.0007494208263465,0.01369472917039155,1,1,0.9932227249499741,-0.09315153937818679,0.0934801578350285,0.01567143258679541,-0.004261288767471962,-0.00523486428715489
248,1.0007358931432928,0.013368948658132596,1,1,0.9928945460740422,-0.0931446250328278,0.0882612177378922,0.007211934923782115,-0.003552631793456792,-0.0040962703927449225
249,1.0006640659231867,0.013177080991509483,1,1,0.9914585680283827,-0.09359005454618968,0.08946909432480969,0.0049911495330859585,0.005717643764958841,-0.002961007237401099
250,1.0005346025340143,0.01311886849998432,1,1,0.9915486568367502,-0.09320234338661501,0.09299216392760386,0.013615054599631768,0.006556969639826568,-0.0035873604185652705
251,1.0003553620786692,0.013191782326434353,1,1,0.9940932638543988,-0.09318041061509087,0.09455470452312906,0.0162659407263304,-0.00468628900422998,-0.0030161626386813667
252,1.000141832094868,0.01339111463449188,1,1,0.995960713396191,-0.09108822979278434,0.08986896044464317,0.01610774622518209,-0.009154954720556087,-0.0006272933397010547
253,0.9999159864119866,0.013709593687928876,1,1,0.9917602828374152,-0.09078416620292562,0.09108544431794373,0.01299503419694066,0.0006037386681661446,1.24644042299172e-05
254,0.9997034000600811,0.014136005569035093,1,1,0.9888901516669276,-0.09194550726903256,0.09446996756522762,0.010730135163016288,0.00225017448572031,-0.0014278581255979786
255,0.9995290769251597,0.014653153795211312,1,1,0.9884787544695653,-0.09190884503807134,0.09582044739699402,0.010857187225558868,0.0008479964397520287,-0.001149337058692279
256,0.9994130419412719,0.015236275073596971,1,1,0.9875700367466187,-0.09136417283498309,0.09418710148545817,0.008492095415248221,-0.0064894345915838866,-0.004832348033221829
257,0.9993669280611963,0.01585314034351888,1,1,0.9917227255775432,-0.09109697161596052,0.08619301007529567,0.009453696146971256,-0.013708106528152058,-0.0061748890016447905
258,0.9993924180135766,0.01646642747403076,1,1,0.9924271820122542,-0.0913481172266347,0.08711670148427793,0.010735453143598653,-0.009265514795725807,-0.008307783364902697
259,0.9994817177862347,0.01703799361540054,1,1,0.9927188544141297,-0.08929743498690829,0.08975812480254285,0.011758891452106844,-0.014272432972577007,-0.00709805827524507
260,0.9996196385950757,0.01753395999446455,1,1,0.9920277775475908,-0.08867737416886087,0.0874624950799938,0.009441410849870428,-0.01759552648601469,-0.006804536178545988
261,0.9997866123726465,0.01792936280037637,1,1,0.9893691018727898,-0.08976160270906394,0.09281801323448492,0.00030280556495447514,-0.013637137328640817,-0.0056761917284741835
262,0.9999620357633592,0.018211478239175235,1,1,0.9918731317385072,-0.09193194087638748,0.09512653153972551,-0.007419834109664258,-0.014318363887563652,-0.00542170936396146
263,1.0001274903691295,0.0183814868112461,1,1,0.9919936376275535,-0.09238343379524312,0.09302922607987973,-0.005478821475781815,-0.01901455108878347,-0.005993416233004891
264,1.0002694309090105,0.01845453213484395,1,1,0.9937537063794822,-0.0948366704179246,0.09082159559466627,0.004589836149762726,-0.01583801177603258,-0.005983555267199491
265,1.0003809039222036,0.018458309460709785,1,1,0.9929713655587675,-0.09206232193644631,0.08431164863606228,0.008048316446186525,-0.012237937631252645,-0.007084353808721771
266,1.0004619345827321,0.01843023123405027,1,1,0.9930823344702857,-0.09131184854922568,0.08763523882073465,0.007213356691036841,-0.019459652656657715,-0.005982476374940702
267,1.000518489319198,0.01841313608345888,1,1,0.9917277036210673,-0.09032461993338221,0.08756066390126152,0.010996464277283518,-0.018312034965992808,-0.007985341144645594
268,1.0005602972192786,0.01844953238345851,1,1,0.9929582979024936,-0.09296369112906216,0.08274508533756707,0.008173187980583698,-0.0188725682536597,-0.0074536050299337
269,1.0005981245075963,0.01857466390016026,1,1,0.991664136047162,-0.08966621676350522,0.08397890327263113,0.008636930795681525,-0.005538315282302892,-0.007253846325784511
270,1.0006412306107029,0.018809348539901922,1,1,0.9901444842745327,-0.08754644395504156,0.0900490188322456,-0.0036755457868194,-0.009431094680498303,-0.00750549365442619
271,1.0006956590768208,0.019154228711676925,1,1,0.9923896087939206,-0.09156968882112965,0.08815986711902252,-0.012303317645004716,-0.013735501895782237,-0.0035956461761502325
272,1.0007637371345943,0.019587152000052704,1,1,0.9950097307003332,-0.08875701993855425,0.08349098333186508,-0.0013886451863211985,-0.022557458766446402,0.000781471151765836
273,1.0008447351875858,0.020064655799841753,1,1,0.9917138237842982,-0.09210566274741656,0.07704684844701022,-0.0020345636448559786,-0.010721903421250335,-0.003928938615650099
274,1.000936227093765,0.02052742023038062,1,1,0.9957298606012948,-0.089966677743875,0.07633450825348802,0.0007005181644757865,-0.027828887319218995,-0.0050593150502214225
275,1.0010354562176265,0.02090865649931929,1,1,0.99977343303077,-0.08691663123975951,0.07142602929267408,-0.00973870322249446,-0.02161573313722975,-0.00619578994405596
276,1.0011400284865368,0.0211439375901316,1,1,0.9956279493102536,-0.08920610840488735,0.07491452213572518,-0.01164584080901918,0.004826654560459867,-0.005279975197449423
277,1.0012475706382276,0.02118095981385703,1,1,0.9890993342065667,-0.09296495232218532,0.0882008752673029,-0.005442289154950859,0.0215308569178629,-0.009112594033777528
278,1.0013545930748526,0.02098798958287292,1,1,0.9874625223243021,-0.09436194673355837,0.09423184062645018,0.0017359014087448535,-0.005196602833856825,-0.011573140764638386
279,1.0014553826755117,0.02055989698610698,1,1,0.991988638945377,-0.09189961814259351,0.08428952595199045,0.005029529447510692,-0.03482980113581088,-0.0083646283060465
280,1.0015418258888398,0.01992049426065328,1,1,0.9982794170356618,-0.08665268440628426,0.07492624218328475,0.0034609019743522852,-0.02942885508441902,-0.007682134670656969
281,1.0016044660582564,0.01911988548796259,1,1,0.9976089161834522,-0.0890124168693203,0.07180297552993527,0.005496257686649661,-0.009605649058919672,-0.009658456731409297
282,1.0016342867540653,0.018226491486507505,1,1,0.9962189469111209,-0.09141148312660886,0.07677460414940976,0.008323164778545502,-0.0036836796922297545,-0.010277952742633326
283,1.0016243350080603,0.017315320161715535,1,1,0.9947893743825846,-0.09514544338799734,0.08242191074753508,-0.00028339848982260546,0.0015015711103028475,-0.008290377299319963
284,1.00157058637082,0.016455730339149027,1,1,0.9896051331780923,-0.094356693604025,0.08196452819188842,0.0038654974137242817,0.0007097934141334858,-0.009024079526738235
285,1.001472091056505,0.015702132241144643,1,1,0.9909503481872322,-0.09453364918525574,0.08565975873465866,0.012213267470749781,-0.010051064481806678,-0.007607354729035575
286,1.0013309040798222,0.01508964373544408,1,1,0.9947729450613876,-0.09313398725021943,0.07724671177398824,0.014675982872609626,-0.009273407581021426,-0.004106261290493744
287,1.0011522679813314,0.014634631406302985,1,1,0.9949792630748437,-0.09376533678417946,0.07813358507647894,0.013442270351115707,-0.0018155303155562494,-0.008468716540938774
288,1.0009450740038517,0.014338453435271441,1,1,0.9944817443025242,-0.09310122388888491,0.08030289564650535,0.013063458215061517,-0.0007307637763127737,-0.006816389188746104
289,1.0007221783053126,0.01419214478465573,1,1,0.9956073408449557,-0.09273932964393736,0.08170503147928464,0.017248569680814597,-0.0038461770701295967,-0.009801317198098665
290,1.0005000453941648,0.014180091671422403,1,1,0.9913896641159101,-0.09155936896896476,0.08535162645517491,0.01612551418554452,-0.0013567110782410994,-0.007826756063740599
291,1.000297466331978,0.014281554592632894,1,1,0.9910042165576314,-0.0878810749673221,0.0847889357498945,0.008334938600923903,-0.01303642266945277,-0.005910084744216815
292,1.000133521261439,0.014470030727072505,1,1,0.9922730638919768,-0.09215664354483864,0.08319311147163834,0.003846238955441892,-0.0060351007015012476,-0.004023772516436417
293,1.000025232447754,0.014711713786061729,1,1,0.9918150646961285,-0.09473445245196836,0.08221604836791087,0.00178099626727972,-0.00389674259422227,-0.002323407374458607
294,0.9999853404136324,0.01496518146066147,1,1,0.9941714261757948,-0.09301104327909084,0.08331739908185205,0.009446653845332189,-0.003347357682594164,-0.003701968283217328
295,1.000020435729784,0.015184237203230243,1,1,0.9925615533157189,-0.0906558930706579,0.08005786190078079,0.012542811172660881,-0.005068564721781016,-0.0036933598457326725
296,1.0001295302194801,0.015324383784370527,1,1,0.9932078436709982,-0.09010400522883885,0.07792791434098878,0.01755192273345617,-0.016036878173701846,-0.0057394086102322515
297,1.0003031918913439,0.015351420364913335,1,1,0.9923898306563746,-0.09076885528979647,0.07833472948035386,0.018434795774048832,-0.008395495125438624,-0.005637977158061989
298,1.0005235324966746,0.015249314160078072,1,1,0.9899579535007456,-0.08975382986059323,0.08456910772976911,0.01612964313537589,-0.007172453909628534,-0.005097588864714552
299,1.0007654403671624,0.015024584705019528,1,1,0.9916303299966466,-0.08975162048079892,0.08768499714275509,0.006421925778956478,-0.010869040312360375,-0.004749122397723701
300,1.0009993264105734,0.014705775821758556,1,1,0.992013709689944,-0.0922652889381088,0.08280237102950562,0.0002876444025515662,-0.013651730486182068,-0.005544648754613695
301,1.0011952481211335,0.014338281947051628,1,1,0.9968863756175754,-0.09317171746203948,0.08033501909972582,0.003985215052263313,-0.012393820626425946,-0.006775222731818205
302,1.0013277271086618,0.013976013950809087,1,1,0.9955662647473001,-0.09312523956972131,0.07554737008158918,0.0070671383940740335,-0.009210001903490153,-0.004946358575765596
303,1.0013801640902433,0.013671904742207336,1,1,0.9954357345608238,-0.08938712166332358,0.07687587498165656,0.006977524723024605,-0.0007826513265809277,-0.005390663032020079
304,1.0013477334148289,0.013469255776343862,1,1,0.9959644010238093,-0.08729474053350796,0.08040517274519207,0.009236600724925456,-0.007982426647517598,-0.005435303182876106
305,1.001238027848146,0.013395575148380466,1,1,0.9956344829177588,-0.0881928922365122,0.07867141971017391,0.007004061643172603,-0.007432264259186093,-0.006798850034941527
306,1.0010693338585808,0.013459909285108021,1,1,0.9924857390898826,-0.09283116760424369,0.07923379996220785,0.004239767350497994,0.0014996698558472589,-0.00868026574563362
307,1.0008670334302658,0.013653843013880788,1,1,0.9901045288281319,-0.09423268178587547,0.08268746328825162,0.005033784489488286,0.007429086682347883,-0.010832524289604574
308,1.0006590845443186,0.013955518567762025,1,1,0.9912659089772413,-0.0939630112074838,0.08051977542736119,0.012909156169596463,-0.010775914354094045,-0.009796695854454909
309,1.0004716682283723,0.0143353641842918,1,1,0.993270206708545,-0.09016522162960994,0.07615952725672173,0.014287051521513421,-0.009239908898876619,-0.008418418071964289
310,1.0003258251776272,0.014761955219446874,1,1,0.995536078334172,-0.08899596264889134,0.07539047365129875,0.0025635656067120017,-0.007744340378457703,-0.008057742511738894
311,1.0002353908327217,0.015206770056337316,1,1,0.9940423051727152,-0.08963876434158215,0.07537102834733275,0.0017970313683607472,-0.010028245225889815,-0.004777844996358709
312,1.0002061031878453,0.01564736704106335,1,1,0.9926626120710962,-0.08936600209619201,0.07543408699107783,0.0072409450660948504,-0.01573370374418724,-0.007035995729283314
313,1.0002356323835424,0.01606911684344615,1,1,0.9928263997078479,-0.08547140600495316,0.07945401681770331,0.0060880840832147004,-0.016421476784697374,-0.007764217069061571
314,1.0003144046229213,0.01646574617371208,1,1,0.9909367127857166,-0.0887785940510397,0.08202081068196276,-0.0038494397283475985,-0.011565063625878495,-0.00649792867264439
315,1.000427215143345,0.016838858244584,1,1,0.9945063052856095,-0.09168934174330401,0.08158113179418594,-0.007285624331459678,-0.011894039350436756,-0.00795248834241551
316,1.000555566893597,0.01719664677499775,1,1,0.9921846564596065,-0.096065790594556,0.07579649257663715,-0.005302637352108007,0.004049979697192045,-0.009764151552446941
317,1.0006804631920831,0.017552104908269545,1,1,0.9932428342446502,-0.09104686994870245,0.07546288085303907,0.013752640225131934,-0.017717910492088543,-0.01067464250338737
318,1.0007851754188484,0.01792086725612374,1,1,0.9988030419162037,-0.08700456455819543,0.06990700597896918,0.003501555770506305,-0.020775969452247023,-0.009605400857253315
319,1.0008574273264603,0.01831854337395148,1,1,0.996449601803821,-0.08745057983408096,0.06479570703888858,0.002348551285084421,0.0007945441038801898,-0.009674643232798917
320,1.0008905655562574,0.018757447906482146,1,1,0.9907299805325301,-0.08925974493182823,0.0794173446231407,0.009769905135469537,0.02104127085826787,-0.005394776633062917
321,1.0008836425820804,0.019243089404698693,1,1,0.9885828573634274,-0.09301413386231158,0.09266874389444117,0.006242685923821912,-0.005289334451825027,-0.0058793277168573445
322,1.0008407499048138,0.019771175127064455,1,1,0.9953884132841412,-0.09296369337232123,0.08362544553337799,-0.0022706197050751786,-0.027083590010772943,-0.007509468739091976
323,1.0007700770780728,0.02032583381593551,1,1,0.9957504224752757,-0.08859734421006571,0.07308947129093439,-0.00458148220554708,-0.02316750526529587,-0.006293601679939708
324,1.0006829386196747,0.020879461815387385,1,1,0.9940593970997035,-0.08786312079831776,0.07267183077148837,-0.002513474651716398,-0.0036310208179691638,-0.007952706169812848
325,1.0005927115229072,0.021394497890104214,1,1,0.9911790339563952,-0.08936315396222948,0.07583307462705767,0.007909557005107409,0.0011264378602809965,-0.011543300546298756
326,1.0005135626741282,0.021827442265693345,1,1,0.9954916638831163,-0.09352800201427354,0.07435287339159385,0.014178524560812379,-0.02244736592399421,-0.01235450244872622
327,1.000458954764841,0.022134965993169987,1,1,0.995619137585943,-0.09127505766331591,0.06798646393553297,0.020662354257563048,-0.009289246533958339,-0.011193163442507014
328,1.000440000292618,0.02228090440457932,1,1,0.9920476905634821,-0.09081700551905819,0.07270721340792177,0.021068446817400038,-0.0074588704794912985,-0.015105145994495018
329,1.0004637862505443,0.022242129943426784,1,1,0.9932412652231511,-0.09173710867833204,0.07624927125324364,0.022201885281351814,-0.0003983601051493443,-0.012180888780806476
330,1.0005319095140321,0.022011569484038835,1,1,0.9935266783981118,-0.08968864178399254,0.07705864287809179,0.02042545957885072,-0.002703222318217874,-0.009851018435462046
331,1.0006395879804355,0.021597838492950237,1,1,0.9921800773715309,-0.08845561979675438,0.07703769687062727,0.009928212938436367,-0.00420219316142481,-0.007932346163408108
332,1.0007757136864188,0.02102231136810087,1,1,0.9915910976531427,-0.08780704077216478,0.07992618062074809,0.00879600653232381,-0.012708133112854236,-0.006478461208454581
333,1.0009240495244422,0.020315159033669178,1,1,0.9949873734119786,-0.08889489637681981,0.07277455311841245,0.0025936486630678277,-0.02407069876241936,-0.006871676514423363
334,1.0010654710809757,0.019511636527390568,1,1,0.9974213854031573,-0.09042011239279553,0.0677723265040917,0.0005758658384466955,-0.02265875109762459,-0.007472332366914834
335,1.0011808083066474,0.018649074652420147,1,1,0.9954060971661494,-0.0898747246214403,0.06985711953835308,0.00018903998187191096,-0.013799198672190531,-0.007680533789877708
336,1.0012536375195602,0.017764437860101994,1,1,0.9941387557309954,-0.08897486378910502,0.07166381528924554,0.006361907956962787,-0.010641611572325507,-0.009108121657268748
337,1.0012724691707342,0.01689235087611332,1,1,0.9935793085289042,-0.09050451758257969,0.07748480309810603,0.008308392391429883,-0.008252718987024977,-0.008599531802304
338,1.0012320894561906,0.01606375732108774,1,1,0.9951888767595488,-0.09270850498341894,0.07310623537601108,0.011180146909408665,-0.01195820285697155,-0.007508768875948145
339,1.0011340956514285,0.015305295738388375,1,1,0.9925257671248263,-0.08794231870619314,0.0695209569529242,0.013933098450198389,-0.005296310973538933,-0.008829049520161305
340,1.0009867637222074,0.014639077274065715,1,1,0.9952485405021351,-0.08856405716244932,0.07323191088682549,0.015943565917925766,-0.003673043614178642,-0.006457304091949239
341,1.0008043288158344,0.014082287078675865,1,1,0.995961805337077,-0.09083424010428191,0.06884075881904629,0.010820954875625136,-0.007685347776554475,-0.005606311032672611
342,1.0006056485755943,0.013646235492768242,1,1,0.9964172127847938,-0.0888395470072097,0.06833827338896149,0.0114646094919821,-0.003865887998966821,-0.004527757221318541
343,1.0004121889429705,0.013335058939323923,1,1,0.9929122560400648,-0.08748517940419355,0.07250011936332888,0.007878477315348367,0.0013738595421905202,-0.005693929428550984
344,1.0002454363061077,0.013144828076108535,1,1,0.9900835069294108,-0.08715888644648147,0.07790476941597188,0.0021581328665539416,-0.0034169614823789662,-0.007633962998997682
345,1.0001241375868806,0.013063966648150826,1,1,0.9933140736266183,-0.08600330799827018,0.07459993741604347,0.003556841419900389,-0.01188102746760395,-0.006111332796922182
346,1.0000619375767192,0.013075452955090062,1,1,0.9945730473703471,-0.08512530941696086,0.0704438404812294,0.0003174105942615138,-0.014313891383260557,-0.0073404766328155685
347,1.0000658255269297,0.013160469786108997,1,1,0.994844575023788,-0.08307110035908756,0.070261313435592,-0.005075351912754921,-0.010824198711798107,-0.004246036875585753
348,1.0001354407487417,0.013302470546762878,1,1,0.9953839833786052,-0.08787835411237026,0.06895462049462235,-0.013226669098280864,-0.012428261150242656,-0.006288095691969381
349,1.000263030722453,0.013490450854356375,1,1,0.9964367858683731,-0.08937563416365556,0.06475653743837344,-0.009882142125553224,-0.0016493948830513963,-0.006625512128397606
350,1.000433897210627,0.013720602803892272,1,1,0.9892102774099937,-0.0893994209787868,0.06954426168557178,0.0017317969312097233,0.0037106032511099465,-0.008435467685258942
351,1.0006274385640477,0.013996182300709663,1,1,0.9909501344671197,-0.09077622083817849,0.07345754023334206,0.008376218467003227,-0.004966990545821509,-0.010853200663102898
352,1.000819121990508,0.014325899531584236,1,1,0.9956720070808394,-0.08791057802276189,0.06858062823512226,0.006961034130142501,-0.0089317965539238,-0.009551713178149105
353,1.00098359733422,0.014721175314175685,1,1,0.9947037414374238,-0.09238908883005087,0.06454639592230559,0.012200510245834286,-0.006795626521235916,-0.01057405446696325
354,1.0010986680108753,0.015192345884933312,1,1,0.9973571705447849,-0.08832851866527287,0.06637905902148958,0.01682788021992194,-0.0021523304758963263,-0.011137275265006947
355,1.0011493002581875,0.015743814147544007,1,1,0.9965573434770821,-0.08672917702530394,0.06851908763861793,0.01581268612991312,-0.004232821968547355,-0.007461546664920765
356,1.0011306553535855,0.01636858366211334,1,1,0.9962425848465905,-0.08568708341109806,0.06996216268473887,0.0048668225181967345,-0.006622514661317513,-0.004750409955690204
357,1.0010493661234794,0.017043476408404475,1,1,0.9939358339820804,-0.08540924105280698,0.07006018436979658,-0.0119030327084598,-0.004237906372443605,-0.004471836296970274
358,1.0009227772809783,0.017727084613335192,1,1,0.9938385394649554,-0.08735627253920002,0.07680142706987994,-0.010451996431437913,0.008047040618425117,0.0003612601026423948
359,1.0007763651911972,0.018362493261298966,1,1,0.9911793718054329,-0.09014760640967999,0.07538342636227946,-0.00642415210164274,0.0024147274976310793,-0.004327593549060494
360,1.0006398293009442,0.018885766857460233,1,1,0.9982610138608513,-0.08848224354681257,0.06663883484776323,0.003601053162518294,-0.026107895268197377,-0.0037353987558541384
361,1.0005423535430016,0.019239404634851125,1,1,0.9989860320543582,-0.08502559666914443,0.05528110163710907,-0.00044784457685831847,-0.00978224700849664,-0.005062064506812269
362,1.0005074645134282,0.01938803632826032,1,1,0.996967066538507,-0.08590276527889643,0.059878856873525364,0.002359571789494982,0.030023395007478876,-0.008207692476516282
363,1.000548086105547,0.01933220350504595,1,1,0.9852525781200329,-0.09241661821938678,0.07790435098283441,0.0042845793314689115,0.03218596118591612,-0.009131032934898415
364,1.0006628864286398,0.01911570240628457,1,1,0.9858251742806924,-0.09144225490628495,0.08309543792309342,0.008529232067845841,-0.012901058984210238,-0.009137356155967542
365,1.0008353816579743,0.01882302309857018,1,1,0.9919997568181504,-0.08564777382843444,0.0700139853435543,0.004888072479135957,-0.03438850763760778,-0.007062125545224814
366,1.0010368388705266,0.018565875574130888,1,1,0.9980791823504835,-0.08656566858203575,0.06726093676915383,0.005663790165658452,-0.011947370587635776,-0.005757482034374407
367,1.001232684226945,0.018461037872501973,1,1,0.9998484336297622,-0.0912041766315282,0.07250728381893282,-0.00796394255798903,0.0037373575857917035,-0.003264961916914725
368,1.0013905917934138,0.018604786942761898,1,1,0.9985630106808824,-0.09133035047635255,0.07072467991253316,-0.0022124920145883404,-0.0014271500821286059,-0.0019106037631725647
369,1.0014876661773842,0.0190508696483253,1,1,0.9982228424366473,-0.08825383038282095,0.06757078977626346,-0.0034630756557516938,-0.0057516607621412,-0.0027285146527708335
370,1.0015145421940708,0.019798435239141116,1,1,0.9958607225734061,-0.08469716197191876,0.06575912215807928,-0.0073436572750631346,0.008418248253608804,-0.001531238158469229
371,1.0014754595428512,0.020793445702342973,1,1,0.9955878528981291,-0.08824669671403491,0.06892562285305823,-0.005029588426574346,0.01865621532484519,-0.0024085222392176892
372,1.0013847606968027,0.02194275667038967,1,1,0.9928442863772137,-0.09211699979433222,0.06743574466028535,0.00923097671338669,0.031478233693719285,-0.007115693611332944
373,1.001261292245636,0.023135926791128494,1,1,0.9921106521334577,-0.09241021428379263,0.07125916466450231,0.020736978349554402,0.03699839882447975,-0.007458336730185183
374,1.0011226544690857,0.024267474130437727,1,1,0.9885996472700951,-0.09074116975524835,0.07375906272063913,0.019473677401782952,0.037835785754151724,-0.009015948184111782
375,1.0009811144335603,0.025252863323028354,1,1,0.9920151591020597,-0.0851433381713806,0.07474874600807128,0.012660106808065424,0.006787333429074597,-0.009018435477011422
376,1.0008423088720966,0.02603494553646433,1,1,0.9975948730483164,-0.08699713734293762,0.06167716088138512,0.0007635644129547236,-0.000633829239335881,-0.0074880386584253
377,1.0007067725469372,0.02658216762253175,1,1,0.9980072232126384,-0.09043522028939074,0.0644135097094947,-0.0059477539203673015,0.019754381054986378,-0.003176820329053997
378,1.0005732425428786,0.026882930802016144,1,1,0.9958640820064952,-0.09364977572566018,0.07508559273595507,-0.011833053270079767,0.030974263590075192,-0.0024641789012202413
379,1.000442130236041,0.02694047701843443,1,1,0.9932272637203623,-0.09310801243326579,0.07519249738263693,-0.0030754871006466638,0.02318322490225616,-0.0012007126719248394
380,1.000317756288992,0.02677053473109235,1,1,0.9952900177444243,-0.08736725281955977,0.07110451892288223,0.006893685504556702,0.01969606434512596,0.0005648881531561638
381,1.0002086651637767,0.02640172267781062,1,1,0.9951981327162125,-0.08395710359455634,0.06949096195779524,-0.0028995677218390916,0.03495239554744675,0.0007417120619735625
382,1.0001261247403281,0.02587742069853234,1,1,0.9901154379963332,-0.08575255004903172,0.06890109805446366,-0.006877014828524108,0.021008086240965205,-0.00029986370022897933
383,1.000081479864552,0.025257247727315555,1,1,0.9940560446799999,-0.09199387583520682,0.0659637490249497,0.00368722827195973,0.02384201371473101,-0.0016950842850909696
384,1.0000832679721894,0.024616101457041763,1,1,0.9929285366366408,-0.0900421850385995,0.0676118275393852,0.01733822353401917,0.03875866853666793,-0.005312320344709308
385,1.000134916489421,0.024038958364691533,1,1,0.9943803763756447,-0.08776699524361986,0.08267300423245627,0.017726746129503746,0.030268950601327758,-0.0018724422917622678
386,1.0002335422945525,0.0236106147913931,1,1,0.991952378662216,-0.08811676089974578,0.0833284596135664,-0.0018251908674708549,0.010197542717430352,-0.003378567154797944
387,1.000370081541922,0.023401509439811726,1,1,0.990506206426593,-0.08723556031474816,0.07407573010914627,-0.006463529076709719,0.0027882937342110035,-0.004411417335882446
388,1.000530798491533,0.02345307479195803,1,1,0.9909080867835686,-0.08920868878884634,0.07279961483687222,-0.003546968011925517,0.023360617864894163,-0.007598708640522888
389,1.0007000136495472,0.02376715241566834,1,1,0.9967201452538463,-0.08871262770233428,0.07947744480268958,-0.009341700353178821,0.021173340388366223,-0.00979578701514903
390,1.000863477022113,0.024302988771231163,1,1,0.9986393317086351,-0.09038677651294784,0.07588156406283265,-0.010025285703758956,0.005684211462200651,-0.003670030429058494
391,1.0010113212189775,0.024983043974954555,1,1,0.9978109415928831,-0.08925129683631641,0.06614219925955171,-1.6258209131114815e-06,0.01846626375488992,-0.004676201825989239
392,1.00113940262838,0.025706580900290772,1,1,0.9961089707583625,-0.08719387302487143,0.07304726811131529,0.006655699253075678,0.04509168809735113,-0.001100265694725457
393,1.001248382725278,0.026368211071511768,1,1,0.9897311338043173,-0.08738271450117086,0.08545520915398999,-5.6145901566645645e-05,0.036882187878124646,-0.002993781041334335
394,1.0013408934909152,0.02687754997161698,1,1,0.9902928900212313,-0.09035972163822736,0.07773961252723705,0.00149046723609807,0.0039037094988127454,-0.005355137842116536
395,1.001417957601209,0.027176442084700377,1,1,0.996514877426491,-0.08651443568906056,0.07280917488503799,0.011429190802441197,0.011374614450741206,-0.005037044892892183
396,1.0014760152814504,0.027251446651099544,1,1,0.9979600541748119,-0.08610476737915249,0.07913580603077562,0.002799740880172314,0.047232533437898114,-0.007610666615778471
397,1.00150550763606,0.02713992473964331,1,1,0.9897628906031191,-0.09189265337274236,0.08366764387532266,-0.006268719049466845,0.04830632238274923,-0.007218534722035796
398,1.0014914612779087,0.026927814511800083,1,1,0.990220950534395,-0.08707441878471371,0.07773095382640165,-0.004352885406916618,0.012194057508701995,-0.008813058177302834
399,1.001416215004571,0.026737687124778413,1,1,0.9937246289390647,-0.08810574914097663,0.0749424488577925,-0.00835129850509241,0.017593409575011695,-0.010838513908428892
400,1.0012641223056558,0.026707956125846928,1,1,0.9971248655354361,-0.08983713771898906,0.08017917693544319,-0.0038989160817965466,0.025989497993928787,-0.004525734365394263
401,1.0010274782274007,0.02696676815025872,1,1,0.9955446027638428,-0.08962141939548474,0.0833902821678005,-0.00985778950947209,0.02815916164587302,-0.0026362375547108545
402,1.0007122449747354,0.027605308495186723,1,1,0.9916142825427844,-0.09129386726407596,0.07768295384185937,-0.0053549359044505074,0.014204860746308407,-0.00511235023075962
403,1.0003418437190605,0.028654912465548143,1,1,1.002742673515072,-0.08541458991816117,0.0759284960356456,-0.0011813530612712231,0.012900571677704309,-0.001225039912580038
404,0.9999575326416362,0.030071248209520497,1,1,0.9962938722817353,-0.08371377769702563,0.07124491307639824,-0.014061546084245147,0.038281895012433495,-0.0018663569498928087
405,0.9996146038657514,0.03172714307645096,1,1,0.9875047387191673,-0.09104530888127316,0.08144395726306705,-0.014940116144700862,0.05039601025846003,-0.0031496645665999466
406,0.9993746493120331,0.03341370822480286,1,1,0.9863092288836703,-0.09787615406024897,0.09354585908299441,0.0070101719058716086,0.03850622772495132,-0.004334476748950519
407,0.9992951490510018,0.03484864444800028,1,1,0.9910723020745271,-0.09313994498725182,0.0901143793284632,0.023081007413343287,0.00448550812620065,-0.0034368158762386625
408,0.9994181135740874,0.03569203905849018,1,1,0.9950700734430725,-0.08763207235572364,0.08291290500610166,0.01432770270536764,0.017330332404112928,-0.003499122338406901
409,0.9997592727360544,0.035572503011242484,1,1,0.9917325891911914,-0.08723061880184184,0.0859550004133854,0.004215216926986167,0.022392114326628416,-0.007223018204293082
410,1.0002987824206633,0.03412766949742374,1,1,0.9921380883845866,-0.09257524058824303,0.08714665442807466,0.009789633798201443,0.020880310875277575,-0.009238048529927828
411,1.0009741623133515,0.031061452380566925,1,1,0.9939823979362886,-0.09569245412863475,0.09137410065247668,0.006726890765665197,0.014048346643348572,-0.005442844497043379
412,1.0016762873493814,0.02621657130010304,1,1,0.9941568479926753,-0.09485125825487305,0.08362410660485929,0.010195269691026573,0.014042612787940358,-0.0045550587042572
413,1.0022495173582406,0.019655997234372894,1,1,0.9921020065733709,-0.08988431404134378,0.08513393088106286,0.01945425228264939,0.02138108051504166,-0.00040553683589440135
414,1.002497288899612,0.011742220239509688,1,1,0.9886302236507248,-0.08496507186031564,0.08994767830403042,0.009192357971041816,0.021262202180204446,0.0005667926469114323
415,1.0021945541601696,0.003199583892530886,1,1,0.9884625836031006,-0.08372907367765803,0.0874256387414655,0.0012927777587498598,0.010945595131561814,-3.889933771434418e-05
416,1.0011080453266124,-0.004856549213932498,1,1,0.9905308473648217,-0.09295117998500728,0.08325905795626252,0.006147027554057103,0.009382159627259305,1.6613858046517598e-05
417,0.9990242209468633,-0.010938775631436038,1,1,0.9909458610897787,-0.09288977172007182,0.0855243816919783,0.016595927052588482,0.024782200631011057,-0.0017205191367516473
418,0.9957830438989114,-0.013265876327860629,1,1,0.9873847940832128,-0.08798999524166909,0.09180512578442487,0.014783598868454026,0.011556744914198575,-0.0036904179729896434
419,0.9913139794185425,-0.009904910633673693,1,1,0.9895778107162874,-0.08600030034613863,0.08013942567849633,0.004694507630310477,-0.018140278468605598,-0.000519498274912468
420,0.9856693716145257,0.0010276411667910922,1,1,0.9855349786597978,-0.08914197407391858,0.07228753267508789,-0.007102978984440385,0.011140935717601143,0.0067940789159269075
421,0.9790500045951641,0.02112243355151446,1,1,0.974687602810226,-0.08365991911285726,0.07694121286588591,-0.007616576951627744,0.013883431866969416,0.011360149258051669
422,0.9718182482420153,0.05142060137316741,1,1,0.966230872351332,-0.07713148465019183,0.07363062801951874,-0.02495028420145859,-0.0182520100483457,0.018393531527461055
