id,ASVM,GSVM,walking_nonwalking,normal_abnormal,ax,ay,az,gx,gy,gz
1,7.330366677777815,0.026268938796876348,1,1,6.985557283007177,-0.2474014321744481,2.20777345909286,0.025540784110463993,-0.005504323089823,0.0013863945507075507
2,7.934340180568401,0.025742948918194775,1,1,9.966884179776033,-0.3509667420168116,3.156058650176026,0.032368442983452136,-0.005605113272768373,0.005418162286296093
3,8.504259093547384,0.025015204672881312,1,1,9.037848779019274,-0.3179375851664423,2.8625068311247044,0.02982748704959601,-0.0047783845410739895,0.0026196176001695272
4,9.010427357202435,0.023963740795429535,1,1,9.522023451233304,-0.3459583586365236,3.002990391988039,0.032171778706796765,-0.0009212891443010126,0.0008955375358447776
5,9.430929805977211,0.022529578444407283,1,1,9.213873815417267,-0.3031199971378813,2.9176658167889125,0.02765969339752575,-0.0017116745433053038,0.0008396537758570092
6,9.753581005885806,0.020730154057667708,1,1,9.417078243656585,-0.326619888867567,2.972875136681466,0.025634256103754957,0.0018702674790030986,0.0018013505073033625
7,9.976240996854903,0.01865893846425346,1,1,9.289252847783278,-0.3211017405845742,2.9395006611688412,0.01867593679617312,-0.004846534191742381,0.001567731068377426
8,10.10571585615731,0.016471538554055053,1,1,9.374470100404045,-0.33392043352165907,2.9796765678620307,0.014095532357095798,-0.00879905843798118,-0.0017428348045826617
9,10.155667112448674,0.01436091607215557,1,1,9.3440201519616,-0.3245921037847607,2.9537563933844195,0.011783293107447725,-0.004867799678113321,-0.002723187909196832
10,10.144018637286436,0.012526038595233895,1,1,9.39113370613817,-0.3396404408169909,2.943284263282653,0.004636667265464852,-0.010527656998697415,-0.0024020634633996657
11,10.090313666885786,0.011139173201321618,1,1,9.374157456079216,-0.3168814591924744,2.9714927469205974,0.0008316344672473396,-0.003018779999274687,-0.002924810860713778
12,10.013378360422871,0.010317185984586441,1,1,9.358405874095437,-0.3112074822853738,2.946201452723175,0.0004654884155452555,-0.001489768140462608,-0.00016935535953764254
13,9.929525966349557,0.010101641859418581,1,1,9.348692765198065,-0.3250722580221364,2.9156659395627855,-0.001999556106313092,0.003874277809443955,-0.003279853426573509
14,9.851412660404597,0.010451131243163839,1,1,9.354457932890435,-0.3164914890612415,2.9453086924182452,-0.003646096466297522,0.006154039966500329,-0.0020220949120052147
15,9.787548503605972,0.011247139843814659,1,1,9.34866905600317,-0.3200554460348237,2.938920693161424,-0.0064166173011001035,0.0066009177673370415,-0.0021730539542402626
16,9.742383682117916,0.01231234464812485,1,1,9.354639997629345,-0.30038112135834016,2.93844960666084,-0.009145430771913524,0.0057311162714404895,-0.004969647332880323
17,9.71683568283509,0.013438057282664478,1,1,9.336900343481409,-0.31558817863667377,2.9393542401894415,-0.014367215328850793,0.007251647449024205,-0.0069228399455473
18,9.709097885349166,0.014416051369953628,1,1,9.342723980120063,-0.29305494049778563,2.928771226664341,-0.017700377003784573,0.0044425984935889075,-0.006222261607626168
19,9.715570549815856,0.015069371793493515,1,1,9.40379458770673,-0.2728730463789759,2.9334051494812545,-0.020325969065965406,0.006407881446306299,-0.008160658787777567
20,9.73177495823697,0.01527702189654998,1,1,9.37170250182413,-0.28646232488989576,2.9178147284768094,-0.015611214421685077,0.0057909254438633095,-0.00953574827407955
21,9.753144184848729,0.014988666881508607,1,1,9.329379288900046,-0.3003368218117474,2.9203932406950077,-0.015845282191120337,0.0022600015381937363,-0.01187234057230526
22,9.775623958163187,0.014227460985463177,1,1,9.329712773459542,-0.2900459472336344,2.9382670735946657,-0.009293899731894142,0.005960229805352781,-0.009348848240799878
23,9.796057510272627,0.013081352638277451,1,1,9.375602875405379,-0.3035869046810527,2.922013108164407,-0.007343995620196553,0.0039579155672353735,-0.007140124914674727
24,9.812361748389693,0.011685221077115414,1,1,9.362233212752905,-0.28800619186934,2.9312078767081755,-0.006688925014720653,0.0026625829881667834,-0.005453889280836073
25,9.823524633384409,0.010197523328340079,1,1,9.352900092776368,-0.2850880531416991,2.9212014484010003,-0.0063805536717386644,-0.0026386244469455175,-0.0037731514185009923
26,9.829466630743745,0.008775582402505037,1,1,9.364637293854189,-0.2770532483555103,2.9394524228734653,-0.003381975278960536,-0.000786302893792098,-0.006394709255787473
27,9.83081542817192,0.007553321675813885,1,1,9.324566142913175,-0.2682106564038892,2.9357539582972785,-0.0010759928539681662,-0.00033736615589282574,-0.0035860614570432953
28,9.828643885638792,0.0066244435514481725,1,1,9.320725808990654,-0.29066515422170225,2.914638645476496,0.0012558671787470845,-0.0008997252350533836,-0.001887892209755621
29,9.82421602916679,0.006033018282122384,1,1,9.336189039975688,-0.28211452938410175,2.9353987507322676,-0.0010035113767712185,1.464995822431228e-05,-0.0045025901613056215
30,9.818774743394993,0.005772280637174683,1,1,9.385740606995702,-0.2839909952708959,2.914867015151222,-0.0019685794751748507,0.0036926511226322675,-0.005349167960302012
31,9.813389370707037,0.005791192777119531,1,1,9.375036782098112,-0.3031130760369584,2.9226138796432704,0.001968746228590272,-0.001216898253485315,-0.002002031071363166
32,9.808865921223687,0.006007210260583779,1,1,9.347987958478727,-0.3020001916140506,2.9318977377828985,0.00433737867935475,-0.004520333532844761,-0.0049222399662075915
33,9.80571182153775,0.006322890836291154,1,1,9.35835437723791,-0.2937715521568075,2.9344003268972996,0.007024164780011054,-0.006023187646957865,-0.0028053758941800917
34,9.804142728175925,0.006643587730848319,1,1,9.357559985931116,-0.29625046165718405,2.932993046057354,0.007864012242380362,-0.0015759287452448345,-0.0016701307899614148
35,9.804118784899556,0.006893480230345063,1,1,9.353505656367144,-0.29335941177615077,2.9510673252154094,0.007896332994956339,0.001889811628508249,-0.0025397293388528574
36,9.80539908940189,0.007027621070926377,1,1,9.357304015016197,-0.2975468846191874,2.939577424616702,0.008913690886458188,0.002924810736464294,-0.0013306130638649056
37,9.80760504562205,0.007038428333581535,1,1,9.34423014133755,-0.3056775814376126,2.941981545682859,0.0076887164417759335,-0.0014168161527095826,-0.0015868428240324137
38,9.810285634616703,0.0069559228181797945,1,1,9.3477361576515,-0.31031080903092867,2.9575966242115372,0.006096191708419375,-0.006215872469037866,0.0005037659601950889
39,9.812979925620853,0.0068418634680712945,1,1,9.353284498199951,-0.2682317875623583,2.941680337426246,0.005462370847209147,-0.006661736752001393,-0.0011059679500420667
40,9.815273525487804,0.006778723550531486,1,1,9.362386175637933,-0.2571432855638731,2.9307789716627464,0.004933869435158787,-0.004710615825044047,0.0002973221183273898
41,9.816845796532975,0.006855172925131248,1,1,9.36475489674568,-0.28164709271950605,2.9609156031760127,6.349518237270301e-05,-0.0042066995510926745,-0.0012163314767044818
42,9.81750405934405,0.007150327451331285,1,1,9.36629619823692,-0.30395077463978937,2.962070655146954,-0.00032173851354924633,-0.002860649450891587,-0.0005439620064426196
43,9.81720065889021,0.007719327926698235,1,1,9.37653241340344,-0.28854774740201855,2.9793897713832282,-0.0029534473821818375,0.0006068722141807657,-0.0033500679249369083
44,9.816029786947533,0.008582609994793426,1,1,9.346886326021153,-0.29069282558226145,2.9703530147950423,-0.007004250575045962,0.006908286693698627,-0.00343365153313612
45,9.814203881601541,0.0097204955979748,1,1,9.34331070918759,-0.27420961224110574,2.948056985088359,-0.005460360707505171,0.004639410923880519,-0.00433385496277004
46,9.812013589405348,0.011073757403584652,1,1,9.352818973989606,-0.2882473372326661,2.946568980657776,-0.006315060017486802,-0.002817187528699601,-0.004180582053474369
47,9.80977879391496,0.012549947409264626,1,1,9.35407496104906,-0.2950500173650489,2.944287670089615,-0.008086674256668857,0.0025094366244104594,-0.003141545761464211
48,9.807799473542826,0.014034622667549032,1,1,9.334260103974085,-0.2576539093960324,2.9408395588584924,-0.013667201681418347,0.0018960704773807566,-0.006410569269774867
49,9.806314162598145,0.015405952306870387,1,1,9.33244195912289,-0.26164512061486933,2.9411147779184628,-0.017628027475406653,-0.0006778636037266135,-0.008751808007734901
50,9.805471477925957,0.01655050722095406,1,1,9.354767388567023,-0.27262676361340954,2.975636494871878,-0.018176297509327193,-0.004030489284211443,-0.008067959070023476
51,9.805317093321003,0.017377646137743976,1,1,9.362937819269568,-0.2935143912969158,2.945847502658851,-0.017100963550129907,-0.008863795293468082,-0.006821396854107984
52,9.805795361702343,0.017830195238465938,1,1,9.348049824766134,-0.31495125586632405,2.9274600163454316,-0.016055020294439497,-0.0036244550688120766,-0.005827722385860794
53,9.806762930541447,0.017890052893546154,1,1,9.337919448093965,-0.2989174813391954,2.9368386998455547,-0.015903489074103057,-0.003015412691098301,-0.0024805679313477966
54,9.808011891897703,0.017578495660552473,1,1,9.349180543833889,-0.2923205477758251,2.936043845569102,-0.01611611878334321,-0.007525669909043549,-0.0018294546323564076
55,9.809300908215539,0.01695181753878503,1,1,9.353341479813263,-0.30883290033706035,2.9174808491449435,-0.014448082005676058,-0.0056409594673896835,-0.005321706271428484
56,9.810392386867976,0.01609329678471767,1,1,9.348320531022996,-0.27267733279872053,2.9378788880751614,-0.01680480536530761,-0.005693046053148348,-0.0032321643597176676
57,9.811091698165772,0.015102507630359203,1,1,9.366563965052288,-0.29652356701414445,2.932773084179779,-0.016407758604094096,-0.006750568526306232,-0.004220727355063823
58,9.811281729871844,0.01408299761784186,1,1,9.398172311572624,-0.32062037013090977,2.907361969458225,-0.013005805098236152,-0.0021393317785417636,-0.0024760566863425535
59,9.81094432097406,0.013129567303041035,1,1,9.408006343407674,-0.32455135236023275,2.903559222339552,-0.00843610560049708,-0.00283950906374101,-0.0029420077805470176
60,9.81016108523227,0.012316780533457364,1,1,9.375254550626769,-0.30613393267698724,2.8987199252221356,-0.005485697324229227,-0.00014112641603551704,-0.005819545054750191
61,9.809091147425729,0.01169056558934773,1,1,9.341700384899193,-0.3005808379032183,2.8802788159264434,-0.0007239740291081102,-0.007431198987375078,0.0022295410327797267
62,9.807931395263981,0.011264448397033257,1,1,9.32068775173594,-0.3103103849718944,2.895511323775898,0.005263789129555404,-0.011229498450208392,0.0035598216330449727
63,9.80687188599533,0.011021018195406749,1,1,9.336559332346852,-0.3004341821891624,2.9017104314223023,0.005468552418529771,-0.008418940791886844,-0.0001423158612599416
64,9.80606035099609,0.010918028420354556,1,1,9.373487996927064,-0.2834241484175419,2.930941028592763,0.008727699546346343,-0.0084532104625226,0.0030830859670572764
65,9.805584244673849,0.010897583179086833,1,1,9.361550923741978,-0.31656566519993007,2.9503512281075697,0.005346299146402378,-0.009931772718564597,0.005636466589073849
66,9.805470359361026,0.010896425317217701,1,1,9.352732065749695,-0.3017992123487486,2.9256284438967333,0.0063090959801777305,-0.01164618404187006,0.005586481521689167
67,9.805696074410406,0.010855416977038037,1,1,9.353188201545688,-0.3001875964263808,2.9219359828404095,0.010047767782810071,-0.005823287167176414,1.933635667769426e-05
68,9.806205076507469,0.010726776428769244,1,1,9.36611775094405,-0.29305012172278255,2.922168763796334,0.010260088862997695,-0.0065320220146773515,0.0025990764653916506
69,9.806922156353032,0.010478370675039142,1,1,9.379011170844526,-0.2916496164926257,2.9160300453948116,0.007145793010233427,-0.003748768584172395,0.0014889761009555167
70,9.807764045140027,0.010095148736003277,1,1,9.358889015418107,-0.2709533650592523,2.911676424497933,0.006178636985709474,-0.0037881281472882337,0.0015064500731620343
71,9.808645630975473,0.009578362270102173,1,1,9.325416575506503,-0.25166426419692606,2.9342797029543957,0.003276889501961424,-0.010999356024452235,0.0014432617329883757
72,9.809483381270384,0.008943375907615951,1,1,9.343101368889029,-0.2792824791187168,2.9474187549715296,-0.003385127234770816,-0.008947330475208497,0.0007778286092904523
73,9.81019919219866,0.008216686779680417,1,1,9.358514116479007,-0.2860831101203802,2.933215755386778,-0.005630403428989469,-0.0026175919893990113,-0.0010919810288097804
74,9.810726649516463,0.007432523214393897,1,1,9.368279882517205,-0.3036185019699604,2.954943912464015,-0.0069389692035750445,-0.005649676174893562,-0.0013207728352630092
75,9.81101842249855,0.006629278464762218,1,1,9.381884318330954,-0.2886933398059008,2.929308192224614,-0.005469280169716555,-0.0017151284241087672,-0.0026083458950724027
76,9.811051027556973,0.005846036319722784,1,1,9.360153579945223,-0.3047041657626883,2.90096492772319,-0.004406746037253236,-0.0035075213494512314,0.0006043426571932331
77,9.810823754397465,0.005119470065486469,1,1,9.363605938726062,-0.32076997799483464,2.906822301833619,-0.004740978969741141,-0.000926289168553034,0.0009713805651706011
78,9.81035175027944,0.0044814131447214285,1,1,9.366227045125733,-0.2995987904043341,2.9080602803656412,-8.206989252295226e-05,-0.0019278096084671622,-0.00041448323065656394
79,9.809656750592685,0.003957376422302135,1,1,9.33032903237274,-0.28608110982582485,2.9131282868326727,-0.00041395371117430337,-0.005418492777292865,0.00025291918352637416
80,9.808760583937985,0.0035661610802291814,1,1,9.351533055913512,-0.2898311519986406,2.8953914128153375,-0.00015339845628599356,-0.0014486253753477245,-0.0008151230803040475
81,9.807685518097712,0.0033204769768819596,1,1,9.380179348555902,-0.28867872015339396,2.901014482095237,-0.0014748482980006757,-0.0021170082767287754,-0.0013786475560627915
82,9.806462047124645,0.00322819010402781,1,1,9.381495211926438,-0.29659519552480373,2.892143643806669,-0.0016095401705162752,-0.005392115588285346,-0.000770757806612067
83,9.80514045007975,0.0032935754874034943,1,1,9.3739642512753,-0.30910884459109716,2.8791762789582194,0.00019534258777157378,-0.0037471286602447883,-2.601716999083011e-05
84,9.803799948778178,0.0035178371806607123,1,1,9.374512668352205,-0.29800257040391664,2.8834951375043403,0.001888364029485062,-0.009379604002167702,0.0008590609027346185
85,9.802550075279964,0.0038983065855757526,1,1,9.365832702329794,-0.29314219633857747,2.872589961089643,0.001062817808205538,-0.0026866847945064,-0.0007596093507919732
86,9.801522015796085,0.004426241965206191,1,1,9.359864767105986,-0.28074139484324995,2.8835123281872965,0.0005847715889224082,-0.0011204197409686058,0.0009899746383595198
87,9.800851119945289,0.005083912273340815,1,1,9.36675877741744,-0.2846450224395203,2.891075742070987,-0.0002243723931302822,-0.0010990059142574676,0.00011324220749043394
88,9.80065407701455,0.005842262066101255,1,1,9.359587345150034,-0.295357722186971,2.8779874871651487,-0.0007508357239410402,-0.001149327453914613,-0.0014196713451029258
89,9.80100532034006,0.006660474610832537,1,1,9.361618529902978,-0.2926322927943459,2.876894645121579,-0.005887658283596986,-0.004991761802250909,-0.004010103229696133
90,9.801917490626549,0.007488078180454455,1,1,9.358255879432198,-0.2934738325812555,2.87076811384733,-0.005631152673667218,-0.0077121848858275706,-0.0009402525527877834
91,9.803330551331948,0.008269269662081281,1,1,9.362543554254044,-0.3057201476271803,2.873123851829198,-0.004751649338672324,-0.007005184979270551,-0.0008546908500170396
92,9.805113214156357,0.008948434598751219,1,1,9.34397476435592,-0.30904867221649157,2.8653449228263197,-0.002631123152871142,-0.009367368772067074,-0.002366732889589249
93,9.807078337877915,0.009475711495546683,1,1,9.383665201459054,-0.31596167747766923,2.872752472705337,0.0033078305241898104,-0.008591005099836027,-0.002615926682952562
94,9.809010822556306,0.009811734134434055,1,1,9.378245235579566,-0.32802220615043765,2.874391588716584,0.004647934055703052,-0.008676526858667839,0.0020390026657889867
95,9.810702880538772,0.00993107379396329,1,1,9.393924548988384,-0.31130750763677445,2.875228445103856,0.005744220179745622,-0.008392611038293843,0.0008224537077689234
96,9.811988948379348,0.009824206579968943,1,1,9.374383500518737,-0.3110763497456341,2.879918298423921,0.0036208302344085323,-0.007782808836172014,0.0034278776775691837
97,9.812772341875425,0.009498021768468567,1,1,9.384388207937018,-0.2904982424556544,2.8726823145083333,0.006662774802284547,-0.007404045673680541,0.0006135229913748981
98,9.813038029180863,0.008974990326711717,1,1,9.399820199808937,-0.26643927870912537,2.844243977415599,0.005723308884056849,-0.006802316549109528,-0.0018841079666413508
99,9.812849267797054,0.008291159843759242,1,1,9.379806140917369,-0.2918212496594657,2.8728712763183495,0.0037628641637121635,-0.008421124211825693,0.0017097453798165677
100,9.812329135315562,0.0074931784896224134,1,1,9.382071017497566,-0.31149121238637967,2.8638252467234566,0.004740766429301692,-0.004169195815342447,-0.0001677704429535893
101,9.811630868435355,0.006634617809745375,1,1,9.378821211134268,-0.2971279752485325,2.8781483003879145,0.006090331882156375,-0.001133919889900876,-0.002779441689952595
102,9.810903367551228,0.005771949619542578,1,1,9.35056533281614,-0.2802708697606841,2.87204956670489,0.004146932424776114,0.0009980608970215933,0.00012467368711956882
103,9.810259787269233,0.00496056227464299,1,1,9.346681451104601,-0.3051768834382116,2.8900427481996567,0.002746395707194133,-0.0013981306431127137,0.0026448601460311973
104,9.809756953968405,0.004251107164794312,1,1,9.37646918959734,-0.2871713075646655,2.901218894448936,0.0050063156219416205,-0.0033654062492171725,-0.00036486466802322073
105,9.809390749897437,0.003686262155194861,1,1,9.365098172002105,-0.29406703905695153,2.8608834634953744,0.0022973492310633097,-0.004992845394025868,0.0009776932292012092
106,9.809108102485201,0.0032978141801849182,1,1,9.380669852394089,-0.2957850479522038,2.875366456026178,0.0011578335210596076,-0.0036250386261483963,-0.0006981134969631872
107,9.808831627391276,0.0031039757920133873,1,1,9.383783420191829,-0.31111015828648514,2.849636375555754,-0.0018254558099595859,-0.002899863582646743,0.0005773398411522014
108,9.80848992191186,0.0031071236883340137,1,1,9.384409692104779,-0.32848535777496757,2.8618976483780836,0.0006088171071151301,-0.00044492914806048504,0.00012444071432244998
109,9.808045407574403,0.0032925277472365256,1,1,9.396112912690043,-0.2924504321276748,2.8550864565444902,0.0006262559402713597,-0.00011713288884535153,-8.132320187487998e-05
110,9.807512272190781,0.0036288483455739627,1,1,9.381087168037864,-0.30279325122764317,2.8813903899213793,-0.00016778024026805458,-0.001322921210184496,-0.000210145078569493
111,9.806959341625765,0.004071004593562674,1,1,9.378343635074353,-0.2914254882756427,2.8599247795004783,-0.003167562773007517,0.0007781896965320487,-0.0007652783230846786
112,9.806496367988913,0.004565447166956375,1,1,9.3854972028356,-0.28771403501476933,2.8290998600579655,-0.008145310516210487,-0.0006415606332237959,-0.00177094893588883
113,9.80624645268369,0.005057139246155901,1,1,9.376590001205853,-0.2827455068729503,2.8731422132941327,-0.004846633365509986,-0.002326960391975114,-0.0025470071726876715
114,9.806311010538037,0.005497026608955152,1,1,9.37187216548506,-0.3251910779851029,2.852462842716051,-0.003918901042044526,-0.0018040359725649427,-0.0012944366614013616
115,9.806736078121947,0.005848704282152271,1,1,9.346547536662007,-0.3178361847075443,2.8451757648974825,-0.0030850512559403845,-0.003840741890113498,-0.000510084061707218
116,9.807489541029534,0.0060932594622771785,1,1,9.34889269973059,-0.3044176875790575,2.850935250656612,-0.003910595961181523,-0.007445823892875837,-0.001071277242839629
117,9.808457354771306,0.006231575757171255,1,1,9.372631023669989,-0.30589653611517903,2.882871928429607,-0.002126642415990976,-0.007779588913118522,-0.0005729910206077964
118,9.809462340911045,0.0062835812950851515,1,1,9.388316779857714,-0.31928072472568775,2.863749374867924,-0.0039562806288981215,-0.007877049736672106,0.00023035523388226527
119,9.8103024567166,0.006284177280344003,1,1,9.35530191895673,-0.3011758480667719,2.8609723158673623,-0.0027763781632471037,-0.008447543134634939,-0.002048836493484426
120,9.810799145969035,0.006276103673274062,1,1,9.407455865455631,-0.3200557875399634,2.869275864290945,-0.0014280537307623667,-0.005278668846309227,-0.0004271023331424774
121,9.810842710230036,0.006300775829352709,1,1,9.446169051348797,-0.33003836495415223,2.8213784338936514,0.0023426374113306803,-0.0011812748724844716,-0.0018176057084254844
122,9.81042138217902,0.00638890962077458,1,1,9.413107288635318,-0.3234413121584726,2.832182161326712,-0.00032387607997505155,0.001016346463846265,0.0009491254455969253
123,9.80962459620516,0.006553165143226369,1,1,9.372429387034982,-0.3035213311960219,2.8371021993541445,0.0004309276113371686,-0.0015656930895656027,0.0011958515018134172
124,9.80861912160726,0.006784761662945429,1,1,9.352221884550437,-0.2950960118046034,2.8603536883497824,0.0009237490478128666,-0.005084234035707705,0.003002370488513025
125,9.807606638735555,0.007055014644009313,1,1,9.34439808828611,-0.2893400771952164,2.845651439149555,-0.00011094175721789308,-0.007059859668331653,0.0018316113063890868
126,9.806777799955285,0.007321359558237486,1,1,9.343898667005227,-0.3061818538894241,2.8541357770420226,-0.0027763724430518617,-0.009016902017236834,0.002823992032487561
127,9.806277183047131,0.00753619838116527,1,1,9.394149321176112,-0.29932180053332763,2.8678999154143696,-0.0031137249216020443,-0.010576009646494196,-9.83372199044461e-05
128,9.80618664261139,0.007656274908657842,1,1,9.390691218671948,-0.31792772657280177,2.865282900579641,-0.0031271972345197734,-0.010673409490724803,-0.0034113454846198413
129,9.806525800889325,0.0076504127760832815,1,1,9.378605937133148,-0.2778342109713107,2.8687231668368907,-0.006278561373643425,-0.004440678997340481,-0.0013947143908991273
130,9.807262648652435,0.007504208763956805,1,1,9.383735697823068,-0.31277512986985445,2.864001827011846,-0.004621893802565457,-0.00334413668051864,-0.000287780194416091
131,9.808326558179,0.00722131450156345,1,1,9.385691280528144,-0.29709062521958507,2.8450852827838737,-0.004698696872909935,0.0006484720926973902,-0.003945580812795671
132,9.809618993029591,0.0068218113775413425,1,1,9.391953398158837,-0.2796209707539395,2.852142341640847,-0.006880861554563075,0.0013762170932437232,-0.002986195464550846
133,9.811021104972102,0.006338584404035195,1,1,9.361397412518405,-0.2986832420034208,2.8267571027392804,-0.005516267151292399,0.002035440149449889,-0.0006409756711457536
134,9.812400455197375,0.00581257722868926,1,1,9.361274061915926,-0.31826775011331065,2.8552568166205607,-0.006399427243304682,0.0005553561495426757,-0.0011720213568387646
135,9.8136202638187,0.005287640391164484,1,1,9.391771375949075,-0.30714053524867674,2.8608536444087806,0.00012478789212730815,-0.0032800423580828797,-0.0009196916106312703
136,9.814553137450712,0.0048055696443020275,1,1,9.406123981962352,-0.3034120219841367,2.8416757634614624,0.004467143200539001,-0.0026222094520822214,-0.0006968960910217826
137,9.81509780174945,0.0044018625458942294,1,1,9.389804126878749,-0.31739983587566173,2.846560672565624,0.0019704611398257657,-0.0005630869546502525,0.0016184343373944116
138,9.815194431591443,0.004102601465180492,1,1,9.38902778797388,-0.30452342432207724,2.8489112671816432,0.0037520114241510723,0.002134751203028383,0.0016466121132254193
139,9.81483381002215,0.003922661676610155,1,1,9.410601173251486,-0.29346157135535367,2.839728845224738,0.0024124298575052415,0.003847892452895466,0.0013423435346716888
140,9.814057549745424,0.0038652031866349685,1,1,9.378749992325142,-0.27017330362466285,2.8517028226068852,0.003136754678002998,0.0022391439069101436,-0.00233791362319081
141,9.812949486608263,0.0039222414356431656,1,1,9.378929031748916,-0.2960999645645779,2.8567183198167734,0.0025271397025538453,0.0004201023234603718,-0.0012269746571143447
142,9.811620996788772,0.004076073298639123,1,1,9.367517807028095,-0.3161986242176733,2.83177927785451,0.0029822858637470855,-0.0036149121896204795,0.00199682594336315
143,9.810194575239528,0.004301419165059225,1,1,9.382113719140234,-0.3290814494406117,2.8499019019705694,0.00014006783797316854,-0.0013106185355450221,-2.2871785752989497e-05
144,9.808789709091092,0.004568205201434888,1,1,9.397685124466154,-0.3009582231909382,2.82899731301557,0.004931932814928504,0.001257224279928455,-0.002150555829058761
145,9.807512974502012,0.004844851475842255,1,1,9.380955673055364,-0.3287588671743095,2.847870545033569,0.004484525648666345,0.0008404168686051639,0.0020921588850793776
146,9.806451864972198,0.005101752767443544,1,1,9.374011940619923,-0.30925941831126785,2.847700388608183,0.005701009323424733,-0.0019398050478569775,0.001754805034586505
147,9.805670706407733,0.005314451796936684,1,1,9.383637065538567,-0.2941846486920775,2.869733489496097,0.006486333551431733,0.0020645897434564673,0.0012369312062718663
148,9.805207357640905,0.005465962338222598,1,1,9.37638442354791,-0.30259142851693405,2.8516824143569934,0.0037475312344807,-0.00026736908056370235,0.0040647954358255045
149,9.8050704324383,0.005547874627890385,1,1,9.364899619573148,-0.3231968071131913,2.8558111657764456,0.0024218031461452805,-0.003366261288395553,0.002696846575466263
150,9.805237840486747,0.0055601972943736975,1,1,9.376484465803257,-0.2926509550448398,2.848328190558818,0.0033544615413808065,-0.0026694800803879586,-0.004824509028797129
151,9.805658136454774,0.0055102042488379965,1,1,9.372722683911165,-0.3087452917854862,2.8426234328304965,0.0006559461826627496,-0.0017025796306765326,-0.0025229708626079107
152,9.806256056523848,0.005410729827078656,1,1,9.382395935743158,-0.3248881079222581,2.8584252131095575,0.00011542971400747068,-0.0031068382546874406,0.0004018610628626909
153,9.80694262786454,0.005278327871024743,1,1,9.368787816552627,-0.3026167216539606,2.8364404921307202,-0.0021061151290657507,-0.008174358940378787,-0.0013629091685548266
154,9.807628865287757,0.005131490841332791,1,1,9.384554424846202,-0.31122407949207226,2.8375896426909692,-0.0016636314263026248,-0.006299869912039014,-0.0019844124817290955
155,9.808240821419576,0.004988854068803541,1,1,9.398020375066388,-0.30517354542537345,2.8531569804071704,-0.00186756203562911,-0.004395939689780808,-0.0021045896066178094
156,9.808732817612574,0.0048672320009476985,1,1,9.382223729750494,-0.3275928195942383,2.8363173759311,0.0005253472257114744,-0.001169073163762036,-0.0004193426981186362
157,9.80909541335173,0.0047795345413759955,1,1,9.394928203669371,-0.3325162276402921,2.8375126542965456,-0.004598830531341244,-0.0029382856827301173,0.0027613847947084475
158,9.809355620681009,0.004732866348185891,1,1,9.379736618058626,-0.32602145483426265,2.832250303970796,-0.0012601606842728263,-0.005971102333676542,-0.00040751374400708047
159,9.809568935652063,0.004727168951326115,1,1,9.385721478961788,-0.31655082484707314,2.839320339845484,-0.00014729253943462846,-0.004131365270819051,-0.0019229294261551213
160,9.80980498923731,0.0047546750238906315,1,1,9.375616302142628,-0.33476924485559034,2.860252118865385,-3.3940776247693325e-05,-0.003181187377841569,-0.0010436616162168434
161,9.810130093676959,0.004800406776996936,1,1,9.379837382050923,-0.3180461478698167,2.844557985498097,-0.0007621103851863477,-0.0020741142775461546,0.0006013099744411778
162,9.810590438996323,0.0048439616078130125,1,1,9.376607182976446,-0.2999772717791147,2.8657639848282095,0.0019566596192436675,-0.0026418850009486293,-0.0007975475834110211
163,9.811199431284626,0.0048626788206956135,1,1,9.380952149903592,-0.2864706672246391,2.8395228191816013,-0.002433737449011211,-0.0040602830939712,-0.0022166461165183766
164,9.811931931404912,0.004835863653735992,1,1,9.368808045519863,-0.3006808427114899,2.855979279568128,-0.00445498811492542,-0.005599509247412689,-0.0008592016770985785
165,9.812726977881875,0.004749225448578368,1,1,9.389097142740082,-0.32558953189253326,2.828506294379434,-0.005296299937232293,-0.005104376979960693,-0.003075924722192652
166,9.813498834867428,0.00459838926045695,1,1,9.408825981224398,-0.3276710670840971,2.8335508217770173,-0.004205002098726893,-0.0002316247535172898,-0.0016440567374618861
167,9.814154100927116,0.004390489159064027,1,1,9.382701075107896,-0.3265336087990393,2.828911001478453,-0.003261967235657515,-0.00022851929901470045,-0.003696570737144967
168,9.814610971022773,0.004143390258334325,1,1,9.38336533789522,-0.32903597640681226,2.818708561116374,-0.003463296446938973,-0.002805080956864602,-0.001535605267689908
169,9.814816236346443,0.0038827351526113307,1,1,9.414777784073973,-0.330765586878067,2.8400647179923975,-0.0027784858425070947,0.0018419504505697724,-0.0019800023325161303
170,9.814755929570431,0.0036375141865083033,1,1,9.407065287216277,-0.3356122741777007,2.8391243465738496,0.00029314848406840045,0.0014440665953867325,-0.00043675753115460014
171,9.81445629431393,0.003435134679900858,1,1,9.401411904444135,-0.3141914702331087,2.821329722261599,0.0007410561176372422,0.0016157099057074625,-0.0014225963469105777
172,9.813973652510922,0.00329701402328397,1,1,9.387799362422944,-0.30411173171450917,2.808663793651809,0.0007769736068314416,0.0031410389310654583,-0.0016843733902726094
173,9.81337526164895,0.0032355460282949056,1,1,9.380386412232912,-0.3306560155853671,2.8062447224203635,0.0008411701206819485,0.00044931953047337464,0.00018036905658257084
174,9.812716968368417,0.003252939014475934,1,1,9.385194067642608,-0.3010631132988486,2.8230876131324436,-0.000710009399234051,-0.0017450164332130334,-0.002826483744837679
175,9.812025010282484,0.003342010186437288,1,1,9.402141246254173,-0.29268315845732623,2.806066778377189,0.00010364271181762482,-0.003511939748190032,-0.001066439807003041
176,9.81128785688243,0.0034886381871565737,1,1,9.37823091565756,-0.30825336024523337,2.8118100217538724,-0.00014209278217386975,-0.0039008148620022598,-0.0010070953808258133
177,9.810460751546518,0.003675285479386046,1,1,9.38582723893045,-0.30693032014962907,2.8093680293744017,-0.001937335548251146,-0.0036060261524449556,-0.0022582465457551787
178,9.809482224470914,0.0038848673095578288,1,1,9.39853747514743,-0.32482491723743034,2.83408586317365,-0.0009166968370345115,-0.0024197573882513523,-0.002518494333665138
179,9.808298906780589,0.004104289061820729,1,1,9.3902118009936,-0.3337709053383021,2.825456517763059,0.0008218804248191704,-0.0028977393298712977,-0.0029899636234721663
180,9.806892665667982,0.0043271348660815015,1,1,9.374793227743744,-0.32140156985014734,2.8357941549673384,0.0021754343846926007,-0.002309372884303661,-0.0024944816890099283
181,9.805302873755512,0.004555160468977055,1,1,9.385523073473001,-0.3109840391068272,2.8329947782126004,0.005113924960007458,0.003949762983350456,-0.0022986171958873495
182,9.803636731748503,0.004798371362995903,1,1,9.448039512806293,-0.3032969270674733,2.8092906628261654,0.0033794119127701482,0.0035538866511400156,0.00016933912119048295
183,9.802061887508017,0.005073601207448825,1,1,9.41203021953024,-0.3092023416322415,2.8064624823054203,0.0004255245836243392,0.0051985622440569364,-0.0012423289938836835
184,9.800778968263847,0.005401724138626619,1,1,9.353521544433562,-0.2861813746995553,2.8132684269292327,0.0016476736416197798,0.006874007914179015,-0.002232047056725379
185,9.799978083546627,0.005803939900145109,1,1,9.34070039708164,-0.29732033578148676,2.83858467965864,0.0019276879559892198,-0.00011841557549093164,-0.0007056964635074672
186,9.799790932498743,0.0062978672303433325,1,1,9.335511420855832,-0.28716174927181315,2.831949544867975,-0.0006363543626932054,-0.0008805977344799142,-0.003485049331106073
187,9.800253841144519,0.00689431081006084,1,1,9.369287495114863,-0.28221875374140615,2.8439717560134166,-0.0006416809327994816,-0.004806288211660976,-0.0033473611161895884
188,9.801293512471796,0.007595368873872462,1,1,9.395309905620307,-0.2926131925426562,2.844541480929515,-0.0028291081538624526,-0.007286692366671421,-0.003311917440519269
189,9.802738491115345,0.008394017285344491,1,1,9.376453121545255,-0.29756521221994586,2.841536206850186,-0.002066322907044872,-0.012829285292470925,0.0010836331544466543
190,9.804350714209193,0.009274728659005159,1,1,9.392608472818,-0.3128667359623812,2.8314050501518055,-0.0018508309284998058,-0.010186137633904224,-0.0016601194367140088
191,9.805867094494683,0.010214474326588707,1,1,9.40139133952626,-0.3256185543161299,2.832888939329798,-0.0029425424920265643,-0.006370452335180236,-0.0013627652722496726
192,9.807041253599962,0.01118376081854648,1,1,9.376972693425365,-0.3132259166254388,2.8481610561189297,0.001109213629545336,-0.01053755078654473,-0.00035878748432167413
193,9.807678435696362,0.012147879268906562,1,1,9.382236506409287,-0.299122719272821,2.832847070499438,0.002382568299228782,-0.012689523570180572,-0.00144950210460876
194,9.807660391640418,0.013068856150425199,1,1,9.393221199119429,-0.28829217253958106,2.8230205915895272,-8.571378043484647e-05,-0.011478894054250061,-0.0029206914141809747
195,9.806960292214566,0.013908538149473152,1,1,9.371965216178026,-0.2842495349486549,2.822456354039681,-0.0041097045244920406,-0.010032629763282803,-0.003986894740206052
196,9.805649582516345,0.014632984536869967,1,1,9.368819929427742,-0.2866620132113253,2.808693503620254,-0.0062180864432979325,-0.01040326491289757,-0.004673042655434516
197,9.803898686575671,0.01521800414640597,1,1,9.390761116729243,-0.30677656749087373,2.81827088138999,-0.004858732403807891,-0.014946677083239629,-0.003662501118644564
198,9.801971629671755,0.015655248544130813,1,1,9.413550856062697,-0.3290284559621901,2.826255856338042,-0.003959703926334158,-0.021254468908037703,0.0002628664997220435
199,9.800211873836846,0.015957857715263396,1,1,9.404992976734016,-0.3097267363449023,2.8117418515229136,-0.004490149939211882,-0.0145567618942887,0.001306370897253363
200,9.799015235206689,0.016164542634721793,1,1,9.375901762798101,-0.31952170831557203,2.799441666081996,-0.006726318814648849,-0.012528227765923747,-9.718546027253626e-05
201,9.79878776498277,0.016341330036952536,1,1,9.37893656660539,-0.32857301940687494,2.7900796938126993,-0.008966218262433849,-0.010113979488789207,-0.00044859917261598763
202,9.799891270230852,0.016580702981718612,1,1,9.40401919778185,-0.32449443128593103,2.772734099767278,-0.011977984157801621,-0.013172791124693401,0.00020478846323260775
203,9.802583707149184,0.016998084422539028,1,1,9.40485422358377,-0.29542550217571023,2.7583869979160087,-0.012043812274087854,-0.014208386026114054,0.004767126458857825
204,9.806963953447413,0.017725424718481472,1,1,9.405539822129299,-0.4078966208054058,2.673677413832004,-0.008458697264406546,-0.0157483484971751,0.0015353075841459671
205,9.812930856946826,0.018901402817684293,1,1,9.42314463103371,-0.36844389946970213,2.622676097463065,-0.0021216423161468413,-0.01896666585166892,0.0011384431978410014
206,9.820165747361285,0.02065778126611916,1,1,9.472449543635266,-0.33156734043001124,2.648016873072834,0.0009944553592113198,-0.030536462823165893,0.006792782547983869
207,9.828145462183732,0.02310187490136738,1,1,9.43413054140427,-0.36835357880306546,2.622515417181266,0.005572834524073707,-0.02818204697133421,0.0073567840185428356
208,9.83618919878241,0.026295986710987627,1,1,9.429454391164727,-0.3467279576824618,2.614566728026687,0.009763129303770886,-0.020612358202738927,0.006110602823890819
209,9.843537705058353,0.030236146664338725,1,1,9.442924471141215,-0.3706911589523449,2.6770676999052014,0.014055210604551675,-0.010402631881903797,0.01157097012432028
210,9.849457166626324,0.03483422944810184,1,1,9.473367447741593,-0.3821071066266696,2.6920065267204274,0.021183632801730176,-0.011929055867690148,0.012612851230966657
211,9.853351832642,0.03990855181941204,1,1,9.508176674614516,-0.37410885944714417,2.730139183860528,0.02832402606297264,-0.004081357621361841,0.00511699646951752
212,9.85486079646223,0.04518745087413354,1,1,9.625008531082182,-0.3526247623195888,2.6960000261483805,0.037928303202842836,0.005005760943122934,-0.00486970222720559
213,9.853911195491106,0.05032805835287157,1,1,9.556177621848148,-0.3487679945484073,2.6610600310901122,0.0500761372663654,0.0024595009732840778,-0.0023717589251677244
214,9.850708786214227,0.05494925077352396,1,1,9.388388182214467,-0.4159268106784741,2.650414412931093,0.054852028993678796,0.008705144128238237,-0.0024267360423889913
215,9.845667968627655,0.05867457301567527,1,1,9.365887720221842,-0.32393328036157376,2.68734100403734,0.061224609464790726,0.01634254508187444,-0.002768958111827601
216,9.839307199940254,0.06117865655081088,1,1,9.412150393312086,-0.28848448797305665,2.6862650461282205,0.06407978812400504,0.028597116920022123,0.0037253242432435775
217,9.832147410374116,0.06222976683243042,1,1,9.456532799110043,-0.29923261463271356,2.6711516286413555,0.059994925309668254,0.029544511454119845,0.007919257786738979
218,9.824643544005928,0.06172168649271327,1,1,9.431090258361827,-0.29895547850524723,2.7252764997757293,0.06449914792119232,0.02255341866400424,0.0048057774178306145
219,9.817160010216517,0.05968991613182161,1,1,9.438866540277855,-0.35842074342232955,2.765175032050996,0.06048661040505852,0.021928915102550628,0.0030340483912635716
220,9.809982718244218,0.056309684269765355,1,1,9.428522974686425,-0.3374445438960241,2.7423422899829806,0.058402002189525314,0.016689372947453103,0.004733289999213214
221,9.803350929139082,0.05187598983419811,1,1,9.41883053013523,-0.2604525366197217,2.7258382330128157,0.054201032731333434,0.014676298725706846,-0.0006000167606413658
222,9.797491150356514,0.04676849715535419,1,1,9.418020970194103,-0.21264100094818847,2.7554163764530086,0.04092661942624625,0.02066917175676532,-0.0031513207383137157
223,9.792639210611496,0.04140637214438708,1,1,9.424674672476682,-0.234101065874856,2.747844407572111,0.026878915455184758,0.019033356845538023,-0.001154522240453736
224,9.7890425100601,0.03619984196254626,1,1,9.399443395971728,-0.32114790332288634,2.776669149862543,0.019561032964829334,0.015582989016079386,-0.005536856409952779
225,9.786941001587076,0.03150591433826438,1,1,9.345875110138735,-0.3708576932564515,2.734573779682974,0.012773906036423775,0.014258311475103279,-0.00995777902434074
226,9.786532135813589,0.02759482240827844,1,1,9.370627851290289,-0.3513409150852343,2.7339790046181482,0.009903203059504592,0.01772610840464823,-0.012085174966828876
227,9.787929993475837,0.024631345102304233,1,1,9.411496074756192,-0.33299081326103547,2.749318607300633,0.014688476816461677,0.01631942166006206,-0.011530679820672594
228,9.791129828857358,0.022671883492632796,1,1,9.384423829093102,-0.3043246403736294,2.767147741634277,0.013121850899863048,0.016459809234247703,-0.005266689379688657
229,9.795986501019442,0.021675113130165492,1,1,9.346731573214042,-0.3108220670435493,2.7711894980985643,0.012914154480813733,0.023108672597934986,-0.009111824425635257
230,9.802211568791572,0.021522002477947434,1,1,9.400940495474726,-0.25871781401092003,2.760201941382834,0.011324623149584934,0.0254808956114217,-0.009441111081165318
231,9.809390629492247,0.022040299903145405,1,1,9.410119908560356,-0.2785594964930152,2.7547942442152107,0.007465026741541336,0.022226210076474254,-0.009772051720119941
232,9.817018729219486,0.02302919310389039,1,1,9.424421454365486,-0.2650471956655797,2.7798763344662656,0.0022011543697829142,0.01807819263394905,-0.014293267767363246
233,9.824547143575693,0.02428139987522963,1,1,9.453000444155844,-0.23625482405711468,2.799725414970424,0.0005479915646424597,0.01690976632325796,-0.013392077363920082
234,9.831431828473788,0.02560177601669116,1,1,9.419539659963124,-0.245034732793851,2.8244147382707356,-0.006084266934568891,0.013008752378859024,-0.012650778213694154
235,9.837174752862067,0.026822794861583208,1,1,9.415804356604962,-0.24602518746987545,2.841649937024278,-0.01286082139140347,0.014680018628929163,-0.012036483982612553
236,9.841354039379652,0.02781744112584085,1,1,9.390301635817778,-0.2825025018003881,2.8087303031275344,-0.013660344590254876,0.0215623530998767,-0.01701540051451716
237,9.843644555098818,0.028509249565299075,1,1,9.389181605227368,-0.28034844217196453,2.8439898536560313,-0.01394004074133513,0.019529709044599886,-0.02127365911219
238,9.843833505028627,0.028878048404548468,1,1,9.435229509164618,-0.2812380970596829,2.8773705822141213,-0.014175256123625185,0.025821675603072216,-0.021448566560943245
239,9.841833733889214,0.02895930470718422,1,1,9.46871816168627,-0.26382125956135893,2.8550040064421407,-0.009746797765868995,0.03019659181941952,-0.018161340638710458
240,9.837693004475321,0.028835416666884817,1,1,9.39878226780001,-0.28494893746229316,2.874318876375279,-0.005186195721189677,0.028636221562824114,-0.01514930383858939
241,9.831595407657495,0.02861889641869325,1,1,9.370356183631431,-0.2943346115723896,2.8584014707922085,-0.00011361606886330372,0.024799314621723963,-0.009473284211042743
242,9.82385379390139,0.028429640764396028,1,1,9.361507399598608,-0.28287378127833346,2.9066406637328837,0.007190937397997186,0.01829808125932143,-0.010929508162843243
243,9.814896614938268,0.028370564506742347,1,1,9.35275721466967,-0.2336232792908895,2.901375885986779,0.009519190156154957,0.017484578901069754,-0.00925996967251383
244,9.805253597321512,0.02850693126712786,1,1,9.36565763341978,-0.20931741720082953,2.91329256334768,0.009791075471182648,0.017006025522949695,0.0027490189261696286
245,9.79554068457787,0.02885430745649902,1,1,9.37341910810681,-0.24443323128664976,2.9248973853466675,0.014077939110931094,0.017077071323927228,0.004746367485551234
246,9.78643878746972,0.02937829906703605,1,1,9.352476488389474,-0.23634055192506068,2.912824921499391,0.02096229574626309,0.016105597694881655,-0.0007859030014578626
247,9.778657313428342,0.03000663048555466,1,1,9.3520062015414,-0.2093040016030386,2.9239700971591076,0.024874582849782074,0.0190462745676487,-0.0010174534244573187
248,9.772874428934484,0.03065138991652855,1,1,9.35147911463834,-0.1782894015720838,2.9121871963921846,0.025059645001336263,0.027143036556615173,-0.004601264281210897
249,9.7696511308834,0.031237121255508916,1,1,9.316615614793363,-0.1366846075821119,2.9547439678948604,0.018311818300974995,0.027471069173834507,-0.005355538380382094
250,9.769323602487571,0.03172943758152493,1,1,9.303303117012465,-0.16396208237866286,2.9414927822516845,0.012904044829475938,0.03302033422718729,-0.006864109701754578
251,9.77188592081344,0.03215908933994349,1,1,9.298641876101662,-0.18918819926572084,2.956165631019795,0.007249752715570271,0.03236813089796005,-0.009839511345927678
252,9.776880987905045,0.03263758625172762,1,1,9.327481475507705,-0.20805886686021527,2.9501483449223134,0.010376206196178465,0.030348399012783772,-0.018209906673625903
253,9.783320244714032,0.03336202034091479,1,1,9.342190652000028,-0.23372392931906633,2.9624038444129286,0.013769318993316544,0.031191189237843413,-0.01684074412347548
254,9.789652818102459,0.03460834624556514,1,1,9.339347582204113,-0.22892280369262752,2.9136501606639302,0.015091379578454247,0.0318328692399019,-0.01122161654903396
255,9.793804315899937,0.036713990001795586,1,1,9.242989706779083,-0.2403813177456447,2.909389399950242,0.014149731283730605,0.035186043087830014,-0.007062632933626248
256,9.793304923779898,0.040052269951310844,1,1,9.195678270575808,-0.12327264331097977,2.8651958814698353,0.0035003977214933877,0.035400161498020055,-0.008546563013052804
257,9.785521366421621,0.04500251221378676,1,1,9.35415439786037,0.14478340966991401,2.8057920978812754,-0.009104684564934667,0.012189018778829299,0.005063519187586197
258,9.767991251939444,0.051920372016636705,1,1,9.48818010968091,-0.09088503295010589,2.9169363771914267,0.00226108382365903,0.06443045751653623,0.01170911126853284
259,9.738832111077448,0.06111207287532393,1,1,9.228789943099748,-0.46405903477659693,2.917583775780259,-0.007166423196329771,0.07104191055883045,-0.008199534940587323
