id,ASVM,GSVM,walking_nonwalking,normal_abnormal,ax,ay,az,gx,gy,gz
1,9.668192557789622,0.013656761770407855,0,1,8.577231540253585,0.4246240639341434,4.520972102841088,0.02303913120461632,-0.014098310205676604,-0.011092821280328383
2,9.677446931519809,0.01793978132716124,0,1,8.643724965096265,0.41078606778811744,4.484839062011622,0.020119209363813034,-0.020915676532149076,-0.013176701758446879
3,9.706478160268734,0.026207756562585338,0,1,8.632158661307246,0.37653818816825135,4.466926937233879,0.020702395107678385,-0.01986940868051993,-0.015328296244015313
4,9.755769236868097,0.03886231198764837,0,1,8.592162051931195,0.28389166273284544,4.4567176137389675,0.016192402151974466,-0.010245785602119804,-0.008420819297548078
5,9.822915420455432,0.05605051089803254,0,1,8.121145312975617,0.20061791907979756,4.269639879432885,0.01978306959500384,0.029304395304513165,-0.021444756786874714
6,9.902500558503021,0.0775965101819121,0,1,7.4171893052667786,0.3827061564522811,4.21286019961934,0.002409412250883992,0.013568737498171736,-0.021274340004025536
7,9.986597377579791,0.10296429965453502,0,1,8.348837208980754,0.6553670611494168,4.316096645444867,-0.006258532905554456,-0.08263260046594353,-0.0010684688033187513
8,10.065910509379249,0.1312615202022658,0,1,10.385518983273338,0.7787173631465313,4.093251441602402,0.06827675119345844,-0.10506740152862055,-0.06554343421621336
9,10.131353407208572,0.16128544381663926,0,1,10.838556643699691,0.9188165951892838,4.088567586208325,0.14825751397845946,-0.04300299089047035,-0.15034856026655494
10,10.175638020857276,0.19160292975691443,0,1,9.78941398362286,0.4635100139577998,4.509520172006324,0.17269119117685058,0.04428785137338039,-0.14674382275199943
11,10.194412302716605,0.22065184526621506,0,1,8.917944217243893,0.30022078648358186,5.029413326851161,0.18688406727670978,0.1039306256063484,-0.09525429583175
12,10.186663499500105,0.24685524319205107,0,1,8.603107493560254,0.6744263198448163,4.927585714206477,0.144124177166648,0.11099889178052554,-0.038613807494614974
13,10.154408329179823,0.26874890085629105,0,1,8.199014870166662,1.25081632648912,4.766308089667085,0.028616755332740485,0.11738828102822495,0.01573029353688927
14,10.101940254032437,0.2851292067640178,0,1,8.063436491684904,1.6873313412862838,4.302820341464509,-0.16898598176025473,0.08218529630492112,0.05028320800772675
15,10.03499193815607,0.2952223239770951,0,1,8.447566957123621,1.438903867954008,3.481442494775117,-0.35723745841384785,0.05696287998087559,0.06600175691325395
16,9.960089596869384,0.29885451445504907,0,1,9.37827011921329,1.251861867159736,3.150160602999878,-0.442359139477498,0.02574525519376699,0.05093732168703619
17,9.88417742208471,0.2965777976074046,0,1,10.867588923460277,1.0401061698235665,2.61058060926295,-0.444721835370767,0.014065569338344117,-0.054744937473615356
18,9.814367469219206,0.28969353123608166,0,1,10.95332097300513,0.9988013123832169,1.9543443203182091,-0.36254318698865534,0.0856316572271491,-0.1836347688168715
19,9.757548356098443,0.28013220462974786,0,1,9.585092168267066,0.6796039245475223,1.6195568939695997,-0.2434871246035291,0.10787714128028347,-0.18756603499373942
20,9.719658710287202,0.27018788476917066,0,1,8.766905611557872,0.2874923134288031,1.3179232988907406,-0.1583304906300668,0.03845798381070589,-0.11667353748167732
21,9.704665223859445,0.26215413143935495,0,1,8.581620573957775,-0.5062502864900037,1.909558599468047,-0.05291069755686761,-0.05054605671012049,-0.01985533893758165
22,9.713515203413973,0.2579448355018843,0,1,8.916333512501621,-1.0657982145277318,2.401300480594587,0.045556309440629605,-0.119868231356426,0.06303572324576624
23,9.743397706286633,0.2587932034346835,0,1,9.908353658794338,-0.5981603439039033,3.462256592283354,0.10151726273827204,-0.08607679388298484,0.06967637734885015
24,9.787531452997058,0.26510101494136795,0,1,9.996676639977391,0.41964514162754274,4.642840282926888,0.1611065646679928,0.13153481788831103,0.03858958908511488
25,9.835538162613144,0.2764675187966764,0,1,8.148253241814142,0.6340583725853579,4.69393970820231,0.11457312614525687,0.297300198613575,0.01597278846888252
26,9.874407415883226,0.291879690473076,0,1,6.492791904537353,-0.3055798902014399,3.6161599387137366,0.11924882962342416,0.27405173177419434,-0.09424408972308788
27,9.890120065103652,0.31000821364675474,0,1,6.769279837810347,0.14688040550336062,3.3431186264305843,0.313854194924271,0.15034818345899745,-0.22063073337058947
28,9.869998195250801,0.32953484066365174,0,1,8.883426251157061,0.9963119636242744,4.5303371801251435,0.37032061619543066,0.10556237795182279,-0.271903729632923
29,9.805605618259506,0.3494384852877282,0,1,11.923923443029299,2.4025675010358203,5.123742639053135,0.23552369257428177,0.1628729090104639,-0.04568482378735245
30,9.695586251403165,0.36918603818626555,0,1,12.191090275547683,2.0596341861065475,4.835390769172539,0.03940991419646341,0.3183985625972166,0.20902844774119783
31,9.547532518298466,0.3888010728981219,0,1,9.08704219044808,1.414320504601238,3.908095508481828,-0.0802190742758297,0.39156834391810674,0.29636408663333336
32,9.378153175868144,0.40880909669725746,0,1,6.570507474085766,0.4235896330539808,3.105771132498747,-0.13058731788603573,0.3762654725351453,0.2776055462775603
33,9.211631727527905,0.4300776776879361,0,1,6.433014051604771,0.05398454374370514,2.8144312030877323,-0.08597952127841504,0.23412113791813233,0.2732632073183534
34,9.07671857812669,0.45358748962858514,0,1,8.197794837060801,0.08313593551794396,2.3957397718312214,-0.026240484797470626,0.07417600182496574,0.3457002868247273
35,9.003351223358736,0.4801873248504951,0,1,9.61257942938408,-0.7541590548706412,1.8333445122075853,0.07791442824898485,-0.0447462905572159,0.3960374135372481
36,9.019378891492476,0.5103943745655464,0,1,10.163404015485336,-1.2250129602395206,1.3106349821879424,0.20516099600672466,-0.05189348435259425,0.3823201313207792
37,9.147577433528864,0.5442921477985608,0,1,9.404599652086098,-0.9771786943188393,1.2151271048584968,0.27049456315208953,-0.07896453031772559,0.3866299699021471
38,9.402917940258147,0.5815537940044492,0,1,9.280041071570901,-0.8634507902189102,1.104944388345735,0.34864214450633,-0.16550344671027728,0.3898529721315552
39,9.79010837118858,0.6215871405554707,0,1,8.802377934471778,-0.3006009897381317,1.5462680091396956,0.3873530499072798,-0.25563940710050737,0.37479635911568454
40,10.301630470014308,0.6637675753027635,0,1,9.712900874557436,-0.7289009077661709,1.4271471115113903,0.36446145935819757,-0.45541517826669986,0.4385015856348724
41,10.916648112429348,0.7077010664015486,0,1,10.765677541700414,-1.1446875496932283,1.7018751077684033,0.40635448383503125,-0.4378564989822479,0.505715797500236
42,11.60116696571545,0.7534462208397541,0,1,10.662854918948122,-1.4614214454929193,1.9292240351073495,0.45474685981631335,-0.4366957907494738,0.5199006205616985
43,12.309704299200396,0.8016247299974375,0,1,10.967682273765023,-1.8638974998008466,2.3027163710872096,0.588220566402467,-0.4485565416605399,0.4358734182278336
44,12.988552740429107,0.8533640896331268,0,1,12.39390730998588,-1.6818512113978095,1.8984755793288872,0.829472150046083,-0.4159914957874239,0.4082031364345525
45,13.58052251553417,0.9100421617762599,0,1,12.397260281185535,-1.3219768851693947,2.423140625950331,1.055707998542821,-0.3771821745149342,0.41435503108605637
46,14.030811189731178,0.9728391065427602,0,1,13.201736199693121,-0.5897324967500925,1.166778062387877,1.1470667158619394,-0.19525106780031387,0.4386520639635118
47,14.293375913241784,1.0421531965060202,0,1,8.704884940419774,1.272172884030676,11.885083408376962,0.7708957161145928,0.20167720395251154,0.2214529481957042
48,14.336903960783568,1.117003860376179,0,1,11.764920651686982,9.297325571488278,8.833955221076646,0.012729440765300632,-0.5362363971011751,0.034863555087847956
49,14.149282725240253,1.1946066419450483,0,1,18.73061968994518,5.89740066416041,3.6599085819965556,-0.5467703752818973,0.002769902195114601,0.09705994264476261
50,13.739538641826744,1.2703156824240538,0,1,11.949687654546675,0.883864684154361,5.2514513912381835,-0.8007323767850452,0.5001006406616852,-0.17454430925132136
51,13.13672191117333,1.3380534572608582,0,1,8.073555702763944,-0.01857943659907369,4.887585717324096,-1.1747244835325907,0.48620632350231174,-0.7486093749407132
52,12.386073092417265,1.391197412782015,0,1,7.836418456761275,0.9684229661643885,7.047672801188955,-1.46539402047872,0.4449917247116438,-0.8999721594353925
53,11.54356342062408,1.4237338626382736,0,1,9.516544703165666,0.046128215279794625,5.4301787069664345,-1.5694896487586274,0.5579295512984717,-0.6953087444569342
54,10.670088483859667,1.4313960124103202,0,1,8.556142812067055,-2.5038962436696273,5.982921497992992,-1.472480887521739,0.810921169642256,-0.5896703894705374
55,9.826202828505606,1.4125112678180824,0,1,7.8290609165391585,-3.2890770942148086,6.373437299689881,-1.258931642982768,0.8152549719052636,-0.5739612883844518
56,9.067712684385084,1.3683758793330876,0,1,8.532914675973833,-1.7513571393574068,5.80847044153047,-0.979538404000923,0.7819613760850377,-0.5722075350642932
57,8.442082110768927,1.3031048399282932,0,1,8.709122951194049,-0.701672846267688,4.7790783680481335,-0.7783191433140225,0.9078170128065883,-0.48358659073166527
58,7.985579931248953,1.2230248167621596,0,1,3.6659108839611747,0.03127781401380974,3.775545040267447,-0.6790876085191403,0.8802477307454932,-0.34922834783333023
59,7.721304739304139,1.1357594441694943,0,1,1.9333493108262896,0.4387946889394933,3.0746000359859718,-0.811024301517016,0.1249255796851888,-0.3933391592825414
60,7.658424176648896,1.0491922566582677,0,1,6.8216495699348245,-0.42252449137480863,1.8438419601800584,-0.7827241217717763,-0.28923434634255346,-0.527012154078448
61,7.7928570722163615,0.9704890350797062,0,1,10.43486604071307,-0.7586777819785424,0.9754824534202914,-0.484967391026206,-0.16160513162040188,-0.6453009828957759
62,8.10913975604195,0.9053290484296757,0,1,12.23258055355704,0.026854879851567093,0.808668366274196,-0.03725824955010977,0.06860574849704697,-0.6688531223130041
63,8.582683950630031,0.8574443087084791,0,1,9.644879256857303,0.397650697170121,1.2710615042193056,0.24812343004257276,0.2911341962723768,-0.6291803805444578
64,9.181538083718037,0.828505638724363,0,1,7.516453716743577,1.8448781073696356,2.033406681698807,0.33063854349421634,0.3248171967292243,-0.7146136897173734
65,9.867250511429889,0.8183296629713065,0,1,7.76317148776412,2.8383923493046437,2.175512021086945,0.48466518802067743,-0.1153324866652642,-0.5051144669557924
66,10.59515506619754,0.8253196312223051,0,1,10.148858071858884,-0.7435441548621864,-0.16881312564893794,0.7554492159556303,-0.6745392756599413,-0.026650227050137126
67,11.3148781134175,0.8470070377797573,0,1,9.869630526670583,-2.601523044929378,0.016994469336205843,0.9888256568766995,-0.5277071748657227,0.4283488825889235
68,11.971906444383354,0.8805425631756959,0,1,9.815694272598884,-0.3512789203171158,1.552157768314946,0.874135994283637,-0.5731264102981279,0.7208812680301522
69,12.51077183043388,0.9230059530785469,0,1,10.96655362222036,2.568378972163644,3.1422516862196526,0.605833231323171,-0.3930324919722836,0.894674454131517
70,12.87997100765844,0.9714727108826745,0,1,10.997833952496803,3.193815741196466,2.873822294638697,0.21618634133451436,-0.4185361681481525,0.798617522542411
71,13.038226440950988,1.0228798367751493,0,1,8.847129478997807,4.381786034537066,5.850503691104591,-0.1699952091227799,0.14835339880998896,0.45808457490387006
72,12.961146493978184,1.0738347068432308,0,1,3.226522591492327,0.5386404560211909,16.608419950640005,-0.2267181499817507,0.18478604867664208,0.2535171263573229
73,12.646866401693796,1.1205571550044748,0,1,10.219278845829995,-8.791964042374488,13.448977442285955,0.2797873743425026,-0.3295053252073664,-0.5635053256999861
74,12.119062222251642,1.1590972825287502,0,1,15.354278273575503,-3.7755063787215124,4.345648466861156,1.1095593220870583,0.36801579243511695,-1.2872660281892794
75,11.426120917614996,1.1858426414821934,0,1,7.411482442189193,2.9200897653116975,3.28922492065416,1.1342793090986503,0.7058555403633502,-0.7231352740545588
76,10.636305012157024,1.1981880431456085,0,1,3.4497433742980093,0.78792985062035,4.101037150041778,0.7510037221400274,0.5474252270877713,0.39056906131855496
77,9.830035043211538,1.1951689046501117,0,1,4.822193165780133,-1.5542070316939116,4.2694371428187035,0.5499317137140509,0.0857268362108135,1.1947650645540062
78,9.091160361302972,1.177874634042661,0,1,7.989845445964003,-2.2079614773785075,3.9111046167242436,0.6964091973132638,-0.2277748710215135,1.3222321523036564
79,8.498864266782153,1.1495183834643439,0,1,9.183989724000474,0.4158528764762233,2.569981749689112,0.8892192114887164,-0.20034948130501432,1.1975654939915397
80,8.120947799185146,1.1151041671918998,0,1,10.01974968996455,2.2926798367550485,2.4624231611240153,0.6793264258157269,0.17007105152871868,1.0989353639947501
81,8.008362241571161,1.0807052691088201,0,1,10.294685306060162,2.8714371487128045,2.428935474534859,0.31439304092066517,0.29964449959793904,0.9072866518592605
82,8.190531934624111,1.052459632837544,0,1,7.738596401613335,3.141875526911822,2.1858546060104738,-0.11886761082458851,0.22777439948315253,0.5920048138882067
83,8.671297077653898,1.035476563362163,0,1,6.010627271702272,1.9319792975497196,1.4493412447684426,-0.4222292963941162,-0.1840706017857476,0.35025462305142047
84,9.425936221992009,1.0328907125089677,0,1,7.306903530349208,0.21518078718838124,-0.053269991614558795,-0.6066510422351866,-0.5436883600026737,0.092221645152079
85,10.400279027683473,1.0452658133143258,0,1,7.643467341269934,0.03321214811487326,0.17048843854468893,-0.8062542160871685,-0.8706693779085527,-0.12334514849923175
86,11.513036906077204,1.0704550750079178,0,1,8.517777292227002,-2.701924210978811,1.5706072137712332,-0.7373952053033241,-0.9141122572802154,-0.1843646340277124
87,12.662054157182,1.1039164990556611,0,1,9.057167906010706,-3.688256026777969,4.763799052336804,-0.17676954569723966,-0.9118049052210929,-0.3675334343616685
88,13.734358110505676,1.1394080263040818,0,1,11.596722316914285,-1.0186595589889729,5.99707406085209,-0.04023862063301441,-0.739900765049948,-0.4457361025166418
89,14.618915019248087,1.1699581239514345,0,1,7.122624931942042,2.1694278327276635,16.807524867857744,-0.3262310283472574,-0.4374922381120457,-0.40474965566373167
90,15.220151734492882,1.1889890898228892,0,1,14.234517912916287,11.945297714181232,10.713791625870629,-1.1735990357569754,-1.1509064049046278,0.4283290462373765
91,15.469890501405992,1.1914302968226176,0,1,18.37064204294673,-1.820055389504906,0.1924005206081949,-1.8733799008093763,-0.11370380005312167,1.020084267811761
92,15.335641962629953,1.1746126174174223,0,1,6.398434501800256,-6.587218696285022,9.353953125060963,-1.149648571236588,0.7703214561086082,0.3121634878396157
93,14.824193610946192,1.13874438093308,0,1,5.62511449315393,0.08401630377973819,8.711761786183917,-0.8897672420101805,0.19865920484871127,-0.28801494955625817
94,13.980628342338228,1.086870632392879,0,1,12.840632279507169,0.9089841884409368,7.814265972991159,-0.8108172647625927,0.1281776287129887,-0.23920114846153875
95,12.883645437968537,1.0243668260956298,0,1,16.75949159403891,0.2500235141497499,5.401433622172501,-0.7723487594534638,0.4133742624351762,0.036749166657650406
96,11.638113304096025,0.9581270502729258,0,1,9.100950123536181,-1.7924532482471223,3.8168224821080394,-0.43593616868495977,0.8273737044790922,-0.1254736977315766
97,10.365564904420783,0.8956304721015385,0,1,3.6858089680215618,-0.5143291275930506,3.4628326781707326,-0.24025585951332956,0.2805317506295024,-0.5526520582303492
98,9.193297951692092,0.8440310987156762,0,1,9.76102607731974,-1.5180839720497565,1.8540271153547776,-0.17613549261686362,-0.05631816432340722,-0.8926977990760001
99,8.24278458428765,0.8093594662477261,0,1,11.787169436686781,-1.654442265267156,0.9205978886745164,0.22891125233027174,0.40312062913884117,-0.7342286218657936
100,7.617932330437492,0.7958766056897685,0,1,12.44901065955364,-0.20700027672831436,-0.20247092321285734,0.6084818897899265,0.3604289286638268,-0.4346425250629186
101,7.39350835363526,0.8055904456006818,0,1,9.237891088582673,1.3622981070503428,-1.3369828961716512,0.8341195158575044,0.5693301868611885,-0.18291376602955267
102,7.60423999378546,0.8379379068800332,0,1,4.570495053488226,3.00267705683553,-0.7265060720096221,0.7670209980276407,0.4533781029694482,-0.030401789272078115
103,8.235906871837134,0.8896526210723317,0,1,2.3328050997764946,3.163940729862275,0.3891924208068922,0.630815990370005,0.14854090023602615,0.2339599274938275
104,9.220686055314038,0.9548690338366684,0,1,1.1724941233100545,1.0428677905002324,1.016867183353016,0.23135563429470563,-0.27022874856367524,0.42082513012772693
105,10.439389338020284,1.0255369336315643,0,1,1.5542883375602168,0.007157034198875856,2.474803606462691,0.020670221064062237,-0.713862815175853,0.4027226300016474
106,11.732565596073554,1.0922086105650715,0,1,2.906185958429061,-1.6975862511289823,2.083580245641785,0.19562582632401324,-0.8512435204457376,0.29519952446744036
107,12.920685119698746,1.1451995883838666,0,1,1.775729708714145,-1.350284220305603,13.004892705717232,0.3926864555442585,-0.25230974679687246,0.08320666147359364
108,13.831129766053248,1.1760224617228563,0,1,2.1368964494269154,-6.74032955793182,19.087736901231708,0.22871222280963532,-1.0859972978404246,-0.4512571675222219
109,14.327199296865544,1.178873256520962,0,1,28.002807388204623,-3.9021592550484194,5.918488303939172,1.5294067638958373,-1.1496279211590845,-2.051083876554402
110,14.332806317934368,1.151845850426668,0,1,27.710576783634366,10.565678536460487,5.080641623297715,1.6596494200826637,0.4119657073505528,-1.314004179275986
111,13.846898642394416,1.0975304756416884,0,1,10.779340025345185,5.889604726551568,5.553161374652858,0.6759114601258606,0.5233922005365094,0.13905653934910478
112,12.944162887829261,1.0227823184298273,0,1,4.76837569146771,-2.00704431214421,4.4219280029492705,0.5028121916180132,0.35935709113746694,0.2591171110022233
113,11.762318040711207,0.9376939835943081,0,1,6.815358856768248,-1.1838807443854937,3.523498854699024,0.46956969162382267,-0.10035462255188288,0.30090096965061974
114,10.479585230810637,0.8540341040222609,0,1,8.403985064707037,1.2105959043260337,1.939760319339649,0.1921892470561301,0.02547126331550415,0.4684058235804081
115,9.287401725905335,0.7835059817821161,0,1,7.205185471720852,-0.2347445630982184,1.8071194310837002,-0.012388104982888578,0.3192259463726267,0.7768417120403689
116,8.363139873978927,0.736133754213595,0,1,7.228939163211105,-1.3904280735993313,1.6226846295000128,0.03586211970320072,0.40952069929699886,0.6919828768363896
117,7.846446065229356,0.7189781621855605,0,1,4.5887181651024935,-2.868112269934128,1.0611578661021708,0.1842281377446508,0.1905959451871519,0.3549342383972114
118,7.821664843717494,0.7352907799327362,0,1,3.905418051145202,-2.3339371969443468,0.5796627008966736,0.13231940880588494,-0.46894902377856346,0.04901363712012117
119,8.307885699272324,0.7841549016537055,0,1,6.826643110372123,1.7666074304529364,-1.079511412894932,-0.12490164809634571,-0.926806900158442,-0.20035498038316432
120,9.25730851881772,0.8606157488936893,0,1,8.863176734467293,2.384673783929245,1.0977936751508781,-0.27280124879411327,-0.8244855059285583,-0.2817361485312013
121,10.561758306247656,0.9562578113568941,0,1,10.452653132988928,0.8079379645971959,2.41188762205555,-0.11401947035160238,-0.8028152566103428,-0.4421975043000968
122,12.06636790515364,1.0601524129799038,0,1,9.966945235343736,0.4374047910026188,2.934214566418519,0.0637826645381141,-0.8297148748578858,-0.5950357267406909
123,13.588833463634971,1.1600857085005754,0,1,8.893905686450319,2.077648287329303,0.7025281151633785,-0.009202137505422014,-0.7797928412233698,-0.4575099158831394
124,14.942210687605836,1.2439750553405455,0,1,2.8988047230356133,-1.34322276642647,13.433758196973681,-0.4659310894484475,-0.02675563573957307,-0.3318400480372212
125,15.958751985867586,1.3013620246219815,0,1,5.189263313455474,9.3691727619804,21.100884292577327,-0.9694328351348414,-1.0101381535554983,0.4259669925029867
126,16.511708717842673,1.3248141497887873,0,1,23.674264227258558,6.408419224484955,4.488125156295468,-2.002233546005831,-1.2447265164164258,1.783390539785079
127,16.531717339509697,1.3109975234460878,0,1,19.67190669689681,-8.897640510121896,3.6697720395311264,-1.4062196074248632,-0.0024584720377135087,0.9932565745387055
128,16.014975836025442,1.2611737260543436,0,1,10.469316082029628,-4.811195854520067,6.809868019028784,-0.6801043158393267,0.4363128265422468,-0.3422322090767475
129,15.022060976250662,1.1809899393520622,0,1,11.695646662618636,1.6549711224618981,5.616773738410373,-0.5924072127743023,0.40234026214039215,-0.6060182103005161
130,13.668277128194427,1.0796284515442272,0,1,12.703101462163273,2.371927688893195,4.26145613657647,-0.7008592023769554,0.6131907216689351,-0.04336041252880294
131,12.107907846677895,0.9685383944654928,0,1,8.58614215080147,-0.9990895215595738,2.434932845368502,-0.5901671168903567,0.4613362280383524,0.018329515223895435
132,10.51522372421493,0.8600125774425661,0,1,8.159450988760247,-0.8941991053039624,1.1704524959795621,-0.41110170359978015,0.21178602903972932,-0.5579464892043391
133,9.064806553492252,0.7658210872713751,0,1,8.389935926571694,-0.42712437945144927,0.5100073065222753,-0.35540465131436755,0.19242355562264524,-0.7119818742425461
134,7.913092802821776,0.6960337063405778,0,1,11.144719884894762,-0.10387884030719356,-0.4825314505341039,-0.08480883163365034,0.274207981651886,-0.6130870355384936
135,7.182327597014784,0.6580943487836719,0,1,10.179477287439274,-0.20829208531419144,-2.179193512380061,0.18657867429353026,0.5588968666616244,-0.3801723506628632
136,6.947644411851082,0.6561665257243247,0,1,5.505805267094058,1.3023408567581554,-1.5862412615927968,0.3689462339644906,0.8030976294503652,-0.08087817898239948
137,7.227984862625037,0.6907522756009123,0,1,1.39298280916946,2.900499947707736,-0.4252579938619941,0.4320259939240303,0.5068306893554868,0.16777257683327917
138,7.981955436375666,0.7585945585375897,0,1,0.9242157611278518,1.1191122209137458,3.4956335923370805,0.0578990512649153,0.12751345236076964,0.23932718841150305
139,9.110001136647144,0.8528923191853458,0,1,1.6593841872694062,-3.230596826596809,6.070162917101788,-0.08564116641427026,-0.4368277208475078,0.5205860506976819
140,10.463972546258855,0.963863508901744,0,1,3.2438164787845207,-3.017199698019599,2.2933454119718575,0.20599024401927124,-0.9552451479285634,0.5405606023204356
141,11.864175224947425,1.079662418832687,0,1,6.909350539886717,2.5056780475379483,-1.7478867183318352,-0.05321667934501162,-1.1986104189585622,0.2441471963853357
142,13.122552601095416,1.1876020689694728,0,1,6.3930617038648165,1.8060287689258807,10.85858784821389,-0.538189579478681,-0.06341822206923207,0.10698017936493129
143,14.06904300154753,1.2755800090562492,0,1,9.564774445986544,-4.415358377658194,17.54229190347673,-0.3015330825151823,-0.6661668683005627,-0.3060102704066818
144,14.576697380427548,1.3335626341864597,0,1,31.263329217296057,-5.892179068928238,12.753304906237181,1.1701352767544024,-0.2881196844735605,-1.830468433418816
145,14.580477224892421,1.3549289059421195,0,1,21.678562316049693,2.5399800242937958,5.132763780080528,1.7844348956522136,0.4797046520658765,-1.7329376503861087
146,14.085572102765047,1.3374259140524698,0,1,7.5491750069747505,4.057213063644295,2.994951962520309,1.095470416879869,0.4566906704816742,-0.18813973295482123
147,13.163764000466442,1.2835159013304684,0,1,3.1268881233622365,-0.18471514819664323,2.9441739467885055,0.8591808606088572,0.5377622595900249,0.43553102676637195
148,11.939714197277913,1.200029719484421,0,1,6.559530866689233,-2.386850583541286,3.1431808588066117,0.915770893661953,-0.13553446900829927,0.5998822481750891
149,10.571262321908337,1.0972146168650947,0,1,12.30820484175169,1.4088665420639643,1.2272105742255948,0.8833990323763491,0.0021159310444507575,0.6117835372753683
150,9.227984414858842,0.9873745972897581,0,1,8.961446715249552,2.1399527122375455,1.2040484239636204,0.4395036498007032,0.4064980470060412,0.6663667577788136
151,8.071021292998664,0.8833232781640465,0,1,7.6031638963932835,0.9560706368494816,0.5492963984551282,0.2310466368935034,0.4975996175191042,0.7086550805057411
152,7.235872872953451,0.7968443778405216,0,1,7.168373191146572,0.35985003539193106,0.5708814771298807,0.1563214778343603,0.6075279075836086,0.4671567494089947
153,6.819153704743984,0.7373249372926916,0,1,3.581211200918517,-1.4117192733292465,-0.4330241553580626,0.1285265451445796,0.42395999256753386,0.1542597353731241
154,6.870068156159786,0.710701425861648,0,1,2.2454000319064025,-3.7702614329746913,-0.16025641199654916,-0.12685358755220644,-0.22488158826653404,-0.12263029496931034
155,7.3871544152130175,0.718828361134524,0,1,6.431645985538722,0.9752495026038024,-0.41099600713848194,-0.09561139901889727,-0.8088410674873785,-0.2835803080916378
156,8.320403953549855,0.7593283960647624,0,1,8.876492848601945,-0.47874630157857456,1.3164932148330883,0.17660725530753618,-0.7340817667683501,-0.17967529019576
157,9.578209839143735,0.8259136703083415,0,1,10.771808169095596,-1.6061924897872248,3.7763432266030503,0.514025897338161,-0.8423701894247779,-0.24632856226807773
158,11.037976041471143,0.9091067913400696,0,1,13.260539395486697,0.9998185113512313,3.2439470006402558,0.45082969392177,-0.8435388007501239,-0.275036216319356
159,12.55892105477347,0.9972645142779408,0,1,11.566699199443917,2.3300006702884435,1.3961772661059058,0.20806686376302008,-0.9068588982555537,-0.16115902655383338
160,13.995743375386915,1.077819823546988,0,1,7.568137957568382,0.8166731749541849,0.9780769719045393,-0.04095502676259383,-0.4279044536919674,-0.0058119315597296205
161,15.21217826608956,1.13867947150225,0,1,0.027830086122128388,1.1686625495018141,16.087704873356802,-0.34793255102775883,0.33667872490901046,0.007535288801327147
162,16.093651901586618,1.1696999309355702,0,1,5.177294321442638,10.546069957901981,16.888254498279874,-1.1211397988149296,-0.9117238159427289,0.5516697706450355
163,16.558016872799076,1.1640886072507133,0,1,20.76922284669281,6.765118578248083,4.627417701788253,-2.1047932615860763,-0.9941040914317073,1.1727888244048295
164,16.56306053514258,1.1194748883654368,0,1,16.295532615301596,-3.627135524013405,1.1920387140774864,-1.61308200127313,-0.20063516510809767,0.5429940957050569
165,16.10969677406035,1.0383666603635895,0,1,10.111595859788633,-6.223505528628283,4.841069059980122,-0.900296725046829,-0.11473946158321381,-0.34013326559321266
166,15.240602306338099,0.9278269963630632,0,1,12.340123318395898,-2.5655382995557106,4.649916608232453,-0.4587656454406837,-0.07709634760336996,-0.5345916884834888
167,14.034995951435855,0.7984296290021371,0,1,15.353012546874966,0.4628857494143807,5.0204765070457,-0.36059559180973527,0.08914786568761418,0.00922969399317541
168,12.600688702825643,0.6627506165311776,0,1,13.134913574353188,-0.06324357077791583,2.802645932912165,-0.21578534071788658,0.19652441319413863,0.2846249410701264
169,11.064427823825099,0.5337317833256182,0,1,8.334765187345225,-0.0868871939214276,1.6665668545279868,-0.10768443525491628,0.14074293834737292,0.06322062625298709
170,9.561323744984907,0.4232084262268791,0,1,9.0911964912587,0.39726317417416074,1.1544679280346706,-0.13582595159023816,0.20326096294104784,-0.20188432460565234
171,8.224033856816437,0.3407840804766747,0,1,8.14653250649147,1.9861678893865489,1.6883315438380326,-0.1482570675081271,0.41728018469314676,-0.19463353778852646
172,7.172289101740402,0.29311421555545286,0,1,7.904123048078579,2.472105984029056,0.9274870218538032,-0.2693095322652516,0.2425794262516811,-0.06413524202094967
173,6.503186572615831,0.28356693179421383,0,1,7.9919374994459185,1.895735748685946,-0.38416703674084346,-0.2817514295681836,0.24783968881323418,0.07625339977321827
174,6.282554150607519,0.31218207672387593,0,1,6.878407477907587,1.5181523178101541,-0.9181057476443163,-0.22145890792411638,0.21409969107592025,0.20202455436756098
175,6.5377930502009765,0.375849174871507,0,1,5.203407527565406,1.6707387758215235,-0.018822842361956298,-0.16979825382035268,0.23374072122346162,0.33803667298769946
176,7.252914768894285,0.4686507234177213,0,1,4.332056408813789,-0.3387231479669271,1.3093784680661436,-0.30131496759749704,0.08800481533086697,0.3073573786667788
177,8.366807664261515,0.5823500493879636,0,1,4.855522350453711,-1.7401975375301244,4.687751717831286,-0.2634973840034501,-0.12063676261415322,0.27514530960829975
178,9.775837763465272,0.7070276002640195,0,1,5.795145069811566,-4.162290465038574,3.7939691584365436,0.013163825062007634,-0.49982685441326824,0.2850208300847327
179,11.341572006889695,0.8318758609269871,0,1,6.864140175076404,-1.0233192595685494,-0.1308756666067385,0.23364696955739292,-0.6978177042052145,0.18615529926202434
180,12.90375293914353,0.9461451040611774,0,1,7.741044352417353,4.796293686469831,-4.253184393861083,-0.3249057131596211,-0.8795142072651846,0.09528168963554066
181,14.297749955862841,1.0401944563309113,0,1,7.257323748190469,2.8566327649782544,8.182649736170319,-0.8926062596301736,0.07019581668086208,0.1934877422082556
182,15.37461540601087,1.1065588747948245,0,1,2.8978617037192165,-5.415845580885321,19.830777348851683,-0.7794699469442066,-0.43139456325766495,0.15422865463025257
183,16.020721577469896,1.1409025254537548,0,1,18.85678290424111,-8.24103702677382,12.78751568759166,0.1232467211724044,-0.6789709403881313,-1.1213641521269786
184,16.17317414579724,1.1426947237302107,0,1,27.956273301174264,-1.7458266245838223,10.001855525379959,1.3436273172956157,0.2654948030347687,-1.8324652523547793
185,15.827430224945354,1.115428921787107,0,1,15.192957931095737,4.304946717281848,2.3669794277283716,1.2354565051010167,0.25768565707869834,-0.986753760053233
186,15.035178681314381,1.0662466430458573,0,1,9.594565884124238,5.030306010390766,2.2516904995198663,0.7018426181193331,0.3574016680713565,-0.25630272137317933
187,13.893155838475787,1.0049559231605059,0,1,7.417621324122618,0.7459706212223668,3.7048012587561616,0.5049948158861611,0.23715708259317841,0.14043627726181138
188,12.525994985435386,0.9426094024992768,0,1,9.133016688421645,-2.284175270759151,3.4260082988331493,0.5860910086132021,0.11557099408491532,-0.03402568222722455
189,11.06732720551001,0.8899352712385451,0,1,7.494637658499094,-1.1118897285142753,2.523487107946806,0.6560469688727781,0.10097823494262984,-0.0868028357786722
190,9.642949888528717,0.8559286767221093,0,1,6.421839114144924,-0.4154176171274478,1.6494871932434443,0.6614647032547766,-0.11965351505031412,0.1158836245341559
191,8.358576120495352,0.8468280983433022,0,1,7.1123121047737925,-0.7606018969911488,1.5269847425177587,0.6801497255150704,-0.09265933573286485,0.27254284108961446
192,7.2931900047669975,0.8655821699220011,0,1,6.873777152004514,-1.8337560365905925,1.9197260967834715,0.8119228578480754,-0.023187355829095962,0.2583117447268219
193,6.497737380340856,0.9118055768764817,0,1,7.429010242576695,-2.1870600764707553,1.6818351931110251,0.9814360849305956,-0.08170936444104439,0.2121047932051154
194,5.997926424852874,0.9821466190001659,0,1,7.271453343382347,-1.6604370020287382,1.5387103731165084,1.0939771687904492,-0.02325504800667273,0.23026413118706168
195,5.799396363886647,1.0709477188700391,0,1,7.103868877830496,-0.8948259037441806,1.2096354855375668,1.1196246208913017,-0.07800505970168359,0.2869250882143934
196,5.89346740923205,1.1710730629982973,0,1,7.475764039580779,-0.8576722131696263,1.2534269085962644,1.189236523602347,-0.04220309566093991,0.3037629300128205
197,6.262024871252278,1.2747982092931072,0,1,6.643894778781246,-0.09343657230462028,1.6890344074071224,1.1808300762300667,-0.0654737847818343,0.2844043938636813
198,6.880650741954049,1.3746904172828052,0,1,7.139599433407627,0.12161641060188921,1.6292086819796465,1.1914609843419375,-0.14731219391202674,0.2419573203245226
199,7.719730222306296,1.464437349077132,0,1,7.8974508562847,0.461216840208042,2.114348053683601,1.3606264577545464,-0.1481608788166925,0.14410869142770039
200,8.743803061010887,1.5395911334045882,0,1,8.342347328310614,0.5446319850487186,1.6809261039064471,1.5782007443429447,-0.19144353468947065,0.0886216309979101
201,9.909832246063507,1.5981815134273383,0,1,9.176157773249761,-0.09426840893223527,1.4015310181572354,1.7238737791489145,-0.1770265898406298,0.1573067452592729
202,11.16530904982589,1.641128067765373,0,1,10.248411087018031,0.2994264070089679,1.3592358481043887,1.7540039904197704,-0.08909452420699475,0.2729412594769449
203,12.44720471342887,1.6723683061318488,0,1,11.10895456865317,-0.11120004186366308,0.6985947188644935,1.7641599055118404,0.016945095488030682,0.3952315160154605
204,13.682707597872907,1.6986309885699478,0,1,11.56192985789496,-0.6667745565763858,-0.18932499757457746,1.790208036085133,0.061046778154660586,0.5540532440157504
205,14.792435940377073,1.7288230866228391,0,1,11.276592937301402,-1.5226799903578419,0.8203201859927328,1.8389868101109559,0.5203312183985795,0.6603673073209657
206,15.696368680392998,1.7730569565573755,0,1,9.649932473258293,5.4124266408650925,9.382628751816737,1.6435795892433724,0.7715824857542624,0.7382100031439762
207,16.322074303289835,1.8414154043831872,0,1,12.682408336362363,6.731966950023663,9.747784144677825,0.8661545540189838,0.41119883081842407,1.0022360529373986
208,16.614014612872648,1.9426268354166618,0,1,17.778105207579927,4.360766509782407,12.47031915275367,0.3474042070599177,0.40795619652061055,1.375882103996028
209,16.542023016675337,2.0828734516541476,0,1,21.881542717565914,-2.989414645915899,2.4171815322242463,0.6798245523256566,0.4789147283512167,1.3545792969954844
210,16.106909453180734,2.2649437589787134,0,1,14.350688211225767,-7.404913349395408,4.364226533075163,1.7344959658219872,1.2418349536144193,1.0323067411203077
211,15.341779089553972,2.4878521653045818,0,1,6.977740548488337,-1.4972680006550372,8.175290158954855,2.1696344184886227,1.2618323420085844,0.9593910740090215
212,14.308846459825283,2.7469197978236313,0,1,12.311130771986045,-0.026065569219652453,5.519673651111377,2.3821775424249143,0.9684455427796995,1.0895333155219906
213,13.092629067182049,3.0342060577922636,0,1,15.3985162870167,0.425594653828761,4.419828721388137,2.6787951885917636,1.1448615700373161,1.1470423894462958
214,11.790881890556287,3.339139480589597,0,1,11.153679215314366,0.020643155748387588,3.149521529539888,3.0946354774944678,1.3198004362577243,1.1628636159413013
215,10.5045594401672,3.6492123828251404,0,1,8.00256566136572,0.249857795261233,2.4746053107428008,3.430195366296604,1.2433244385885032,1.282129548348062
216,9.327916756819896,3.9506498231294915,0,1,7.505846144790721,1.3823378768231418,2.5218099473273305,3.5552452253660456,1.0929274085852505,1.4435546892553488
217,8.339795823718216,4.22902278117068,0,1,7.43841609797241,0.961074943139552,2.362568134441665,3.6102170726585663,0.9174003187014463,1.6344320435378596
218,7.597025759933284,4.469837815222096,0,1,6.932198098359569,-0.25698256135893427,1.6104865020385624,3.7077510592882716,0.7803447663471936,1.774666802676095
219,7.130551754801255,4.659180960327244,0,1,6.576509477048702,0.07879769304955231,0.8635713108911361,3.8624921696095993,0.6277709539933989,1.866777324636948
220,6.944493122350205,4.784497335730342,0,1,6.652672179997521,-0.028691281209675172,0.9550443794325195,4.058242969908792,0.5632078086521873,2.0444948125870153
221,7.017969501668763,4.835539077738756,0,1,6.693971027138446,-0.7949621070760412,1.9450443697053805,4.189699203317216,0.5931843060553459,2.304720110705447
222,7.309275868091107,4.805426906779842,0,1,7.0371611311293245,-0.9512805225982572,1.926474677248274,4.254069993309438,0.5659377045937796,2.577167383463073
223,7.761812950857097,4.691678271455986,0,1,7.687200255172698,0.9188812461675403,1.503516666243081,4.211784711802247,0.5845171136244784,2.71187594036878
224,8.311074714448273,4.496995530937905,0,1,7.384191172052431,2.8896534426335663,1.7524346037823402,4.025734895571404,0.5958706580404209,2.675388654461161
225,8.891948680401272,4.22960780996319,0,1,7.495577065117957,4.146717288028074,2.38638004692973,3.6412600466643577,0.4635002955839611,2.5800413483962763
226,9.445576014945336,3.903024539726598,0,1,8.384326467697207,5.3294663643589155,2.1172355733643573,3.1724302101387907,0.24381637760912186,2.3797114955042757
227,9.925028537218395,3.5351674306986425,0,1,9.809182820318048,5.927194445859215,1.7405198902053847,2.7942575897908535,0.1284779535323628,2.084035977456134
228,10.299112367997608,3.1469649983329973,0,1,10.627816491172144,5.451561695907457,2.4032795174109105,2.4291698713390826,0.10495345396302716,1.7708545708824197
229,10.553775738447536,2.7605844757900107,0,1,10.094495294800767,4.462368283378324,2.6300735848964694,2.1404306771811443,0.12354825243184983,1.5714117795657057
230,10.690945353901906,2.397520412866949,0,1,9.122639436804825,4.147808199144234,2.9012331449159703,1.7251319911721708,0.15420968082279604,1.5436129505460061
231,10.72510711336277,2.0767589164006073,0,1,8.896672780106286,3.085856260964288,3.6533575647553116,1.2333155156945308,0.1557637260678264,1.5285376800810977
232,10.678431025106512,1.8132069989253408,0,1,8.18664386211449,2.6476347941927245,4.108025428759073,0.8572852498414257,0.22295825123928567,1.4687502589441246
233,10.575539173408014,1.6165349952245096,0,1,7.01558062412898,1.881256147052653,5.007614130810348,0.5811488290058759,0.21235979747444866,1.3646986417005964
234,10.439034172656811,1.4905357688467786,0,1,7.096038720345864,0.002298461942008158,5.464436076965094,0.4452294906693328,0.1970024307089441,1.1755603748447243
235,10.286651867481009,1.4330577467262748,0,1,7.784810245671312,-1.5896252111888096,5.871916419599076,0.6081838413235809,0.17449399472685753,0.9882888859925713
236,10.130451459646837,1.4365147344503477,0,1,8.191230205202482,-3.351931645782863,5.028911261162201,0.9543472887012358,0.24625782232407692,0.917398671401377
237,9.977929252741928,1.4889095825122827,0,1,7.331861054102771,-1.5726295579988672,5.018199872496435,1.2876008205831064,0.19528779602759572,0.9021806759578779
238,9.834472406539444,1.5752357901402465,0,1,8.899908928265395,-0.8344297495551677,4.967693074133581,1.540572370953581,-0.041339020190326765,0.9425489073836265
239,9.706238324506987,1.679060199791038,0,1,11.049629251728081,-0.6024522741186894,5.410471094393268,1.7264913885689586,-0.0933657079675595,1.07182207592008
240,9.602380479874624,1.7840671147459024,0,1,11.942193066915754,-1.1553141253329846,5.655404430470215,1.8342374451722159,-0.039329573361292745,1.0214858300352034
241,9.535606978494586,1.875375768791787,0,1,10.115699101766417,0.6779594051592284,5.695879526044815,1.795469443798366,0.09599741732069904,0.7973308450609058
242,9.520472648441402,1.9405236528254026,0,1,8.09887610143679,2.6745183964897725,4.788623520476085,1.5813474800095912,0.07690466988971698,0.6479876673868468
243,9.569580305845836,1.9701090996783412,0,1,6.751537182102174,0.9239989978811272,3.5861590313895704,1.4711857394231522,-0.0261308290272857,0.6155150877051828
244,9.688764956504263,1.958164802934348,0,1,5.79324091450738,-1.0670975132006228,2.358470338367915,1.6535614583904983,-0.18054171857691137,0.5833997403551838
245,9.872961597673234,1.9023534727790135,0,1,4.513290931926132,-1.5414974713682417,1.419424893880611,1.9145057600452575,-0.3037689269671055,0.46951338958846184
246,10.104488785018907,1.8040336094822143,0,1,4.851176769192013,-0.41880391073118484,3.8916701524355517,1.8940408433902418,-0.2990539404851461,0.32939730220640145
247,10.354812684383221,1.6681719879479138,0,1,8.319196121062648,1.1429179589960146,6.700032767083433,1.7821850621464175,-0.497104846156571,0.3016637550099123
248,10.589653602817236,1.5030285860675714,0,1,13.678028828659171,1.0770507527556468,6.543712929658178,1.7121135891578785,-0.4591912211460034,0.29676937595949004
249,10.775997607984339,1.3195388234526242,0,1,15.618508766340389,3.0172393465217833,5.864429322502178,1.4601246119782045,-0.20025870250954522,0.31811114982286703
250,10.888786695144365,1.1303664121438943,0,1,12.670238472889167,4.75058303565297,3.9641440810667774,0.9494740326497072,-0.09669129785552329,0.5024680697729934
251,10.915236659096538,0.9486776472272862,0,1,7.965675823887828,4.013908757469685,3.478898603829886,0.6127559910108435,0.13869210910885754,0.5039234208521705
252,10.85581100966681,0.7867658992762684,0,1,5.380116820025026,2.1937279665467906,4.822585518449523,0.5401577002135667,0.0487789523840031,0.3067013977201146
253,10.72224696390938,0.6547048123978698,0,1,6.863621389160136,1.049404329386149,5.999571127680465,0.5233743422105946,-0.13679845900716792,0.22492762332028096
254,10.533938409027275,0.5592152233415458,0,1,7.834962360077482,0.8979701166808846,5.717409927880259,0.371301331212832,-0.18698547560432624,0.2501704957494018
255,10.314087697749558,0.5029010614939431,0,1,8.121003264502578,2.047471422737706,5.0769772396688335,0.11987915993887313,-0.1326988211706746,0.2668125974986474
256,10.086554515306153,0.48396263141131385,0,1,8.354545586623917,2.5882078353967732,4.2160566821640675,-0.040904752894716984,-0.20416117199747788,0.18167940066455346
257,9.873697685818769,0.4964443250669234,0,1,9.055426356292852,2.2421205699000795,4.150241841394051,-0.12239864579814021,-0.2979078545025753,0.061903942638382926
258,9.695019033588764,0.5310171484831775,0,1,9.890253011264486,0.926278645406887,5.295236123845731,-0.2872628868858484,-0.2315196698363544,0.04815110069366011
259,9.566157809132841,0.5762299747905382,0,1,10.128783701984657,1.0513584183107572,6.441438783980418,-0.5273042479387445,-0.006706938508606801,0.030253670419148705
260,9.497767325888724,0.6200904444675098,0,1,8.744083611423179,1.4700780362196342,6.251035382056023,-0.735816941224385,0.1527736550899341,-0.10669236666065764
261,9.494062959799443,0.6517697188576363,0,1,6.6921306029849275,1.5001976337698772,5.123796892680581,-0.8528207793774556,0.21607329548022086,-0.22269537787652183
262,9.551318444901899,0.6631826627306487,0,1,3.6901263891527747,0.19354078702639163,4.260894044843991,-0.9519653443485021,0.1976962154317804,-0.2559732333371028
263,9.657080640646322,0.650193584865085,0,1,3.575624998113328,-0.598396590841014,4.181779606210074,-0.9553631326471547,-0.08750859416015504,-0.12039987255748796
264,9.791020290367761,0.6132462871570589,0,1,7.687354534272548,-0.375124434279703,4.461537809542342,-0.7870023556178138,-0.37515668567345967,-0.017463845311481974
265,9.927904397527854,0.5573102203408173,0,1,11.551508396353103,-0.9786674748888559,4.812977181620276,-0.5548649126666813,-0.2678878742996439,-0.07106725896671759
266,10.04230226561351,0.49115205535646017,0,1,12.42908958535041,-1.2347194873900986,5.29701983719994,-0.3609616982533198,-0.112248782001279,-0.12347962589904189
267,10.113818227218998,0.4260558744915817,0,1,10.945055056708231,-0.8230975746169782,4.644336662399261,-0.29837683441322865,-0.04578629273076576,-0.0952342320196965
268,10.131382564550018,0.374198540777651,0,1,9.10594986674858,-0.9675371255561995,4.095650731371246,-0.2628047906350294,0.01566914710799068,-0.022772577456601172
269,10.095539656503819,0.3469243425342907,0,1,8.609870195927915,-1.3707770511388921,3.6822981739693663,-0.1697471565872488,0.04247609190881798,0.03778273836781298
270,10.018417143648572,0.35315658101352426,0,1,8.928964285822502,-1.9964979681277808,3.533533860073255,-0.03556340105539218,0.10670938656920725,0.08387955021211613
271,9.921692987401002,0.3981461016756917,0,1,9.12287283767918,-2.116115706280534,3.6206106774379188,0.14808240158562908,0.11426380130501683,0.1348342833784965
272,9.83317985061741,0.4826998129781255,0,1,9.226581438181903,-1.5050818932146224,3.07960611703565,0.33826977187475354,0.05193772497904233,0.18399754721882813
273,9.782685864038584,0.602963731178985,0,1,8.856708873069868,-0.87639100175783,2.416750245490434,0.5145498548548123,-0.007379308406163508,0.2243661803192655
274,9.797752683798315,0.7507636744193286,0,1,8.82948663659217,-0.4571712902491753,2.2212795374377197,0.6537166724528337,-0.07487614955878925,0.306500524488558
275,9.899799584441707,0.9144435788164539,0,1,9.289732146345589,-0.25107310923142095,1.9323754596303908,0.7573820353063256,-0.17680953387640302,0.4010385052256892
276,10.101101305997263,1.0800944697723822,0,1,9.791891377322232,-0.11704960303495912,1.6834708252871384,0.8841053313304648,-0.24645094542329876,0.4841856468042896
277,10.402871884843906,1.2330362934695092,0,1,10.215756242573365,-0.10452414068284889,1.4824200427652983,1.0616558692479612,-0.284791829643317,0.5576103182543332
278,10.794540916822662,1.3593945465264778,0,1,10.836294160078397,-0.0917241022488333,2.07161774628631,1.2707838768154418,-0.2788837745279362,0.6579457310151546
279,11.254148787579341,1.4476002888687018,0,1,11.564121700166936,0.4727393127142331,2.465172000410827,1.4302352896278967,-0.3002879013027597,0.8045166971132085
280,11.749699038823866,1.4896393807690986,0,1,12.070027205123303,1.0887494305882122,2.8359453239605608,1.446947431055639,-0.31788991511109815,0.8852100284384409
281,12.24131131882041,1.4818943795332447,0,1,11.833843487770789,2.47634008146356,2.5119393296972703,1.387843237282187,-0.34034142811927237,0.8908056400861177
282,12.684114368949711,1.4254682232906009,0,1,10.239294699431289,2.4350866641053064,3.066991052967482,1.3193859036351374,-0.2733193770027821,0.7816837041846079
283,13.031950048370918,1.3259501125519446,0,1,9.335609445581973,2.78293302945762,1.5878821751413257,1.3466279842231508,-0.33529349618153587,0.4880610866147487
284,13.241989021948667,1.1926676251001778,0,1,8.474615374909265,0.3196076877523641,6.2839735967903865,1.0868187205283535,-0.16886679145039904,0.1499304646166202
285,13.280116942099992,1.0375476285096588,0,1,6.834891515580305,3.165367757066049,15.52864820755454,0.5053386618448522,-0.4549382041174797,-0.08013322964148673
286,13.126414976495665,0.8737645604393158,0,1,14.15239066718022,10.605795780112379,5.838209832555149,-0.32662036232362934,-0.6772977837693008,0.2030036561948207
287,12.779527869864552,0.7143724177460452,0,1,13.385330184627977,-0.5805779681269633,3.3123852208144475,-0.6443943089495197,-0.16104308815251542,0.421554349781681
288,12.258663034858575,0.571092120290404,0,1,7.320752472675391,-6.0592698321881855,5.096879498297485,-0.3264160362689449,-0.014774008436117423,0.29814733274824984
289,11.602575014272903,0.4533758541630831,0,1,5.687267890688536,-4.3256396073487755,6.141872523735031,-0.1734780694401679,-0.12219738790864451,-0.0891647366647886
290,10.865772763105662,0.36781926959247035,0,1,8.382445024056794,0.7957102547634952,6.456017779143933,-0.09457636088324274,-0.1333447266250173,-0.1217629718489283
291,10.112753164969856,0.3179478548530345,0,1,11.05631351989966,1.6887482181775793,5.414659877762764,-0.29958856810623785,-0.005367767545615437,0.1391779196568973
292,9.411113765238976,0.3043557622965908,0,1,10.322986476297224,0.015733501240080487,4.780109361870565,-0.3370155621592748,0.20611113062770406,0.1493787613320878
293,8.824234342536498,0.3251232906236169,0,1,7.245762709977556,-0.29039381235433476,3.6621334063040383,-0.15631499465616988,0.39370210727664756,-0.1252352417944097
294,8.404229964407259,0.3764005361432379,0,1,2.895949247728285,1.2060311614926353,3.184609418277739,-0.1543527967765134,0.29947645591792277,-0.3388059614029309
295,8.186108794297345,0.45303641196530287,0,1,3.940290935014813,0.4873841345982569,2.944884757604192,-0.4041986890136,-0.1498143514067853,-0.33857676722328917
296,8.184180661325662,0.5491544937894487,0,1,6.076070499368761,-1.2245660346004934,2.721184510023458,-0.37999670811970626,-0.25934003874574596,-0.4788924284202988
297,8.391411984550817,0.658617306603191,0,1,9.087329697365627,-0.6333794564909876,2.3707033897924883,-0.1761300751257228,-0.2368548904411383,-0.6518161547565421
298,8.781631717006384,0.7753657004062672,0,1,11.984548123648159,-1.0961229906196763,1.2767487595675977,0.04147486470373759,-0.17278003019366706,-0.5644693910987896
299,9.313669301039411,0.8936599128302813,0,1,12.381439396062508,-1.9337177882055878,0.24620522017968924,0.43318851173302864,-0.044742126321721906,-0.3509700899889885
300,9.936124254058553,1.0082709539477,0,1,10.843382101004108,-1.4087038733728472,-0.4248139805086745,0.9326181915398883,0.05553344680682058,-0.1346361149650193
301,10.591734070841259,1.1146605384486392,0,1,9.422329239275747,-0.5571344010034015,-0.16509246920658438,1.321414117842111,-0.06510404917145929,0.07488920342932609
302,11.221038206123723,1.209145530723678,0,1,8.695898498755614,-0.10170033193006418,0.33082241871411655,1.5062863546197485,-0.16463694006533627,0.2400993474650774
303,11.76578232437516,1.288997301649829,0,1,7.3928904866390015,2.7189543811635906,1.7036569380927171,1.4003952471486432,-0.28577777717351366,0.4205200082965411
304,12.172828949072004,1.3524170174688073,0,1,8.036763722118254,4.146390152252274,4.0160536554790305,0.9450679114188661,-0.615306695087757,0.6631997075189661
305,12.399044793132285,1.3983693319580466,0,1,11.76625287814781,3.121837054449497,5.075624236818031,0.697338281185208,-0.7494288503399233,0.6451278595875112
306,12.416855143654148,1.4263238416847004,0,1,12.044168671595862,1.260547820808563,10.707124180089465,0.8948082196968578,-0.6298798637734835,0.46933414337126084
307,12.219291924597815,1.4360020186153524,0,1,14.254817683071682,-2.888815601880648,7.875152255938351,1.2258271137937518,-0.5290091617955955,0.11000037350299999
308,11.822908781795265,1.4272289914718295,0,1,13.845101163800223,-0.3221549062494423,6.5372553524388355,1.3925311216998169,0.23240093663698383,-0.05064775678717412
309,11.26721837306327,1.3999487844839384,0,1,8.756596822008284,1.994406035104737,5.554392320291987,1.2320957059590578,0.6347984255874373,-0.0646579874810089
310,10.610258444526336,1.3544050823872213,0,1,6.15546982367503,2.4702486551164475,5.331949186390882,1.188405275360815,0.6611697494160625,-0.06315074859140858
311,9.921067359199792,1.2914431136721816,0,1,5.469066422353343,1.2994094069682756,5.823458802129244,1.1649181615567321,0.45251003920540955,0.16624072084124894
312,9.270692870605147,1.2128613980957914,0,1,6.4729772972217665,-0.3866112360549021,4.380241045607564,1.021872404763116,0.3266488819596249,0.5632518142193428
313,8.723560921330082,1.1217301534283586,0,1,6.196763186396709,-1.5760169463001734,3.053196213462627,0.8908157528588325,0.20364245304486628,0.8367655624569779
314,8.330666545062579,1.022589273268472,0,1,6.226606376280103,-1.1723081338858286,2.476460627529731,0.9186184152465682,0.15752335901160125,0.82059692636247
315,8.125396145692527,0.9214438095226644,0,1,7.414853006727499,0.5590394314855756,2.75989647916308,0.8792698785565441,0.15869609537957788,0.6943819575614286
316,8.122091016819192,0.8254973254305841,0,1,9.400675653578434,1.2341164320170974,2.4026153224533395,0.7689866496707076,0.13266973633339202,0.5437445897219549
317,8.316866418628582,0.7426099622405669,0,1,10.341622963167517,1.997821438334045,1.683266984152701,0.6107215907432517,0.1977627083400585,0.3982857099276035
318,8.689848667794116,0.6805326079079448,0,1,9.047280429573073,2.6000292285308286,1.2802466363351337,0.3525114721180462,0.10376617105807634,0.2790989416370457
319,9.208002923570001,0.6460306781441101,0,1,7.887323877578824,2.157610003546206,1.1161739693075368,-0.013426219381750419,-0.13768282597810974,0.14926884417854971
320,9.828063446532289,0.6440437910815718,0,1,8.505871742694701,1.4688142520469079,0.4731141519936584,-0.3755230839513963,-0.5325383451277472,-0.044331583860703225
321,10.499510876616823,0.6770124545613142,0,1,10.01682852813297,0.725316786929688,0.45987153748109844,-0.5222423121520561,-0.7558085776325877,-0.13583709437596314
322,11.16778926221751,0.7444474225213727,0,1,10.843156881422187,-1.2799932325204906,2.589074301858871,-0.3962301284928107,-0.6959417500520149,-0.20716286718829266
323,11.777919227337463,0.8427587239186723,0,1,11.399095142350756,-1.4565463192790744,3.41640065723543,-0.08607452865333859,-0.730451305914058,-0.4188727844824661
324,12.27846247483879,0.9653373999815822,0,1,11.950483241641892,-0.36895655369498925,3.663440799752766,0.002015789488493135,-0.734345889372777,-0.5349244275662862
325,12.625608370311342,1.1028968966190342,0,1,11.19658691462034,1.8849192982295127,4.230222341555971,-0.24214228566218718,-0.595531156790308,-0.4047771652814014
326,12.787069786885183,1.2441018279487133,0,1,8.98779550900084,2.306010321788057,7.995489090617294,-0.7723780454232325,-0.2716659596186604,-0.18612833481607335
327,12.745457397699752,1.3765038290858036,0,1,7.474176553469371,4.0980561211287485,10.492720249473411,-1.249418991725925,-0.15816593726131103,0.20367267629710342
328,12.50077989400463,1.4877507866945698,0,1,9.581390542265565,3.493302529188044,8.248486463789046,-1.7053135820608714,-0.15649864382098508,0.5548698375717784
329,12.071681637195862,1.5669501544246367,0,1,10.988842040465364,-0.2624916217229948,5.3149490372971755,-1.86519615289303,-0.0472330338913784,0.45947288732142566
330,11.495036519239555,1.6059917268840511,0,1,11.138271387209766,-1.7788695508076047,4.436478304142653,-1.6926968524083779,0.2513848782507522,-0.0602580221508441
331,10.823615196147788,1.6006152371803821,0,1,10.274434028959094,-0.22549569738253114,5.907593760764645,-1.5229656976343926,0.5452305668568238,-0.4530903821475261
332,10.121725431303636,1.5510531037169992,0,1,12.452674495794495,1.5066458286004072,4.385443403153041,-1.3993834998922374,0.6105731923212359,-0.5596938907441734
333,9.458987275437735,1.462157278962497,0,1,8.199073188316822,1.4437924682685268,2.5248805533633663,-1.2734970089903874,0.7906478087738253,-0.5971668198683898
334,8.90277489430393,1.3429940891382965,0,1,4.678482255794603,-0.23020438827667306,2.456902806668492,-1.2130500877642216,0.3982796284618928,-0.7684113827703365
335,8.510282254878028,1.2059497837569488,0,1,6.896290738782891,-1.956047380166671,1.165184421538651,-0.9739262084812852,0.2535814313385529,-0.8316927080507782
336,8.321423489378049,1.0654406356419752,0,1,7.770034895182644,-1.8482312465483044,1.1145123077753942,-0.607413730059223,0.43396658010657085,-0.6702307172858974
337,8.353639959080997,0.9363711372027582,0,1,10.30983897239342,-1.3377184935788604,-0.13281463730443904,-0.2905285171271904,0.31280370243106964,-0.3019553640609983
338,8.59923393208073,0.8325225423923037,0,1,9.186194403400888,-1.891931529953159,-1.0332054930859282,0.1611096197329827,0.735281112682913,-0.0009297110052887359
339,9.02543120197366,0.7650619474733167,0,1,5.962736056183094,0.04104849321179065,0.36977283355862495,0.5453562188367115,0.6421611339207407,0.1708165231903727
340,9.577232324187442,0.7413305432476308,0,1,6.497441400165288,-0.2596792466824949,1.7956115314543037,0.6435801574866479,0.20255212490956387,0.30959198178698005
341,10.18311314624126,0.7640166758886469,0,1,7.246718749863491,0.16096958957178945,3.2835109523263175,0.5486561251743881,-0.08900912557844147,0.3581056334989488
342,10.763433507057194,0.8307753353193391,0,1,10.239982086847611,2.0952489275912463,4.619668530264249,0.33487018246425204,-0.5565787834068999,0.40087407872910374
343,11.240841690848809,0.9343325182117557,0,1,13.266648505156628,0.4811141700863401,3.8156693664991965,0.5340731091540186,-0.641567735136787,0.35126003285679375
344,11.5512368740841,1.0630982996668692,0,1,11.440676346199247,1.969165526673828,5.599163498377662,0.7030663236392977,-0.38411522347481636,0.26452100362520936
345,11.653380776236327,1.2022907087529546,0,1,10.783179162814358,-0.8456794625675667,9.138444604878513,0.6325244068258384,-0.22310737819217177,0.1449438862610667
346,11.535292092828275,1.3355339319160036,0,1,11.94671237920892,-2.5749707987609516,8.966218716923413,0.9906145282284512,-0.061534497613016464,-0.00782214853222993
347,11.216094483413261,1.446827931090755,0,1,12.610506547400124,-2.6326779870681314,6.220758428172102,1.5464894248295324,0.2762561899559564,-0.30950411163990077
348,10.742868050855789,1.5226876006701213,0,1,9.118387292678955,-0.9559785416660789,4.01841825927687,1.8993330023342414,0.6709391893042848,-0.24735268853804845
349,10.183116025609081,1.5541440329162173,0,1,4.956181660673599,-0.6791854712693494,4.549850106058136,1.8833549783639756,0.718777104948797,0.35215701389371995
350,9.614465866847379,1.5382441521889598,0,1,4.382824372822072,-1.849567558300473,4.3414188827151765,1.6223944822076313,0.5760308280819787,1.025561355248563
351,9.113817045137141,1.4787232316718413,0,1,6.273693218001875,-0.6460995166450463,2.95170813353791,1.5756033326455672,-0.03756695800233163,1.2997794583688982
352,8.748051941631761,1.3856575140098504,0,1,6.78094029657362,1.4292646776468414,1.9591661278957535,1.415172686984746,0.2159297910941002,1.0623119387228257
353,8.567701106486064,1.2740951777747374,0,1,6.011352950779359,3.900402036019582,3.154887283750177,1.0094321284459498,0.35405090995516164,0.6691009842330513
354,8.603946604928225,1.1618695142536124,0,1,8.03317224515244,4.6524649882604905,2.4145789941933926,0.46002497551088817,0.12619815700301248,0.31445325649253353
355,8.868429519118715,1.06697329670221,0,1,10.459224697583005,5.116975843121242,1.4755025977148475,-0.09488051173464108,0.19017772672951555,-0.004049475264565864
356,9.354743292600974,1.004965206764684,0,1,11.369886054147548,5.0863939323079945,0.2265963335570284,-0.5850679697230905,0.0922198633986736,-0.096510718627407
357,10.040379038336336,0.9868461970799942,0,1,10.777947420343367,1.7224882312471153,-0.9109596574847538,-1.0100437730511351,-0.10976317534532443,-0.14156540285207064
358,10.88827245385316,1.017695385616954,0,1,10.573832161925981,-1.049885457024117,-0.3670381306054805,-1.1307382730984932,-0.38492363727062123,-0.3934092183581881
359,11.847833023729647,1.0961637719020796,0,1,9.981232720046881,-3.0869642101529426,1.4248895517255904,-0.8396983986109691,-0.5056759925122866,-0.5859096206562731
360,12.856088151866347,1.2147779400928735,0,1,8.710553651059564,-4.384074352617665,2.7696946848829516,-0.27388632164338933,-0.6553864875794365,-0.7586273958867801
361,13.840008313179247,1.360943724066074,0,1,7.853946208698718,-2.317109332979578,2.2886954366612717,0.1658885863492733,-0.9124244436166112,-0.7419722442077463
362,14.720986328753325,1.5185323351815325,0,1,6.601382363191104,-0.458150291656214,6.85379873145253,-0.3567081875665727,-0.4383744861923234,-0.5372938894382193
363,15.421763870922744,1.6699184691292253,0,1,2.3606171368899163,7.193553739356791,21.955255046191812,-1.1069691868216052,-0.4523230447237871,-0.23244825277077846
364,15.874986638307618,1.798276965382554,0,1,15.089151193288158,15.495147057360997,10.156373518913501,-2.515304957448706,-1.2664028000469925,1.0384282003386882
365,16.03156950582034,1.889835908096695,0,1,16.94947253607142,-3.9605294824133876,-0.8240891121842933,-2.87478893956257,-0.06452652163496357,0.9116728432741145
366,15.866912497428254,1.9356994159074554,0,1,6.716237601145347,-7.9975080290834,6.771032882824753,-1.8422571805195138,0.6534491179082492,-0.31816398587256833
367,15.383952000521237,1.9328886859437877,0,1,6.78132178259879,-1.726672006713409,7.098013334438979,-1.6282872317896955,0.11390755875573856,-1.1341239512375318
368,14.613341460253126,1.884427723240036,0,1,13.61103555730485,4.194880386016888,5.359047150145643,-1.5376334112565118,0.1868272855952203,-1.0126858247672816
369,13.611719939211136,1.7985304291915125,0,1,11.424450101174285,2.8232097405560417,4.258836393827871,-1.766963945798306,0.18342820838822865,-0.38553655702152473
370,12.458721316675799,1.6871171511731151,0,1,12.263564207013744,-3.525483761723237,2.237835911226902,-1.4975880352328002,-0.1477289082593107,-0.5846632232638732
371,11.252592008347108,1.5639672019675117,0,1,15.129203810596373,-5.733992107298162,1.440631285057119,-0.7538518442275629,0.28246480757582076,-0.8304703657314669
372,10.103686726036452,1.442826690896796,0,1,13.376440127014469,-4.391532408817795,0.19242456823223925,0.09852592235502906,0.35064325241857736,-0.7227978584958693
373,9.12508087883466,1.3357587577800984,0,1,12.392029734548961,-1.8416073870288239,-2.121755815604485,0.8623580542745761,0.43960961820330785,-0.30280240945854153
374,8.420173827593533,1.2519404812943495,0,1,7.520427436630519,-0.18519456370833978,-2.5216292703147496,1.4219484069429749,0.7617113845717064,0.005503684090294472
375,8.06831668499896,1.1969821431965897,0,1,2.718865178070516,3.3936224323821773,0.5184701137443902,1.590829711469228,0.5523475025432474,0.2995190933082156
376,8.110756162374496,1.1727168451128784,0,1,1.6509161000795076,1.594774793569598,3.7855811633208747,1.0467361148095606,0.2516532524396411,0.5500491292382009
377,8.539977752041313,1.1773465434055443,0,1,1.8157201873775768,1.332898630319111,3.3952650155574218,0.32402656695883436,-0.4396812553575907,0.7353104090478144
378,9.295475714958654,1.2058545638691534,0,1,3.1822988414175133,1.3759387659906517,3.0491893065983735,0.46713052210710815,-0.641941088735014,0.6197513311826534
379,10.268058588194936,1.250656210914672,0,1,3.251030036652886,0.5292187880908983,0.9435779420400985,0.8246872569936177,-1.284025863837734,0.24025911939676314
380,11.313246196942261,1.3024936523896584,0,1,5.674954694151379,-0.7011183311064766,4.079565601767802,0.6215208997644618,-0.23491542737012425,0.057117114205626644
381,12.272375443312077,1.3515670098227588,0,1,2.453257115552916,-3.464168960702875,16.439251376997415,0.5079019454904582,0.0205080277946756,-0.11783144300451559
382,12.997984217520099,1.3888400850025335,0,1,14.914614576652431,-5.325482670665639,14.328078343111734,1.2026794615364578,-1.005328829114559,-1.0764283043746448
383,13.378424472301864,1.407370536100281,0,1,30.342069944565008,1.7257193034457696,6.702170774430131,2.1625807378251,-0.11169996307592162,-1.5167983423473808
384,13.356285948452852,1.4034134639824347,0,1,15.918465893153494,5.028624424251737,2.307427402950274,1.642561400419073,0.5843958871213959,-0.04067110279018721
385,12.936685744374447,1.3770105532085382,0,1,3.1697731525711044,0.6945483444957427,3.471979715770768,1.2361687691384429,0.8494816121934967,0.6036861102976929
386,12.184438499302118,1.3318723914315032,0,1,3.2810178744220426,0.3671463071218174,3.5573329078965505,1.0118123227262126,0.2892939631601021,0.779054137265484
387,11.21212028121723,1.2745589561117727,0,1,11.857297465593328,2.660140409107792,2.729374089277025,0.6599150442658731,0.045704210888869334,0.7350149969326096
388,10.162539469921304,1.2131567330932622,0,1,12.73088453656946,4.585519746878225,1.631265122032387,0.07858654876945217,0.4826433517085519,0.730403516171609
389,9.18885508022708,1.155759035668758,0,1,9.734833335614123,3.444565086139551,0.5190141834268651,-0.43963739276715375,0.5856637388520187,0.6712964117137692
390,8.43461915369369,1.1090646835359472,0,1,6.1862058754342995,-0.10002817723047241,-0.6087449840511766,-0.6202966948754409,0.47837794645920917,0.38320889080910053
391,8.01549054984553,1.0773467623767912,0,1,2.1180388116220037,-4.020677776014666,0.16576227739401012,-0.6379105180731851,-0.0155828404789179,-0.03952364810943216
392,8.004396668685986,1.0619433106165024,0,1,4.682143879074683,-1.861390332894024,0.29107592249580877,-0.6774596943258575,-0.7506918293854908,-0.4296829855357074
393,8.421914994354312,1.061311025800687,0,1,7.405150290206606,-0.46973713857452876,3.2203624908926956,-0.5316357726780068,-0.8606954579314485,-0.5660314321829619
394,9.233171784871924,1.0715778556770779,0,1,8.255201652189545,-1.208993363439658,4.3417247141474045,-0.17222036805765703,-0.8908278571896107,-0.6644107631828936
395,10.351710584560635,1.087449387427938,0,1,6.969542371138192,0.5991063600480586,3.85196646943332,-0.2921302170373985,-0.8947050355919804,-0.6369780321516401
396,11.64992664938326,1.1032838872413844,0,1,5.970263557055425,2.034076325819447,1.8219040678483138,-0.7248861571910183,-0.774618506897635,-0.3685418102967674
397,12.974964274833923,1.1141487879633145,0,1,2.0993607451737617,-1.979657434504273,13.90638006506811,-0.8348787948101395,-0.13823702328435056,0.11536004071261136
398,14.168306529087365,1.1166860357550972,0,1,4.844339134306546,5.8884540245267205,16.229919355995236,-1.211520523392907,-0.9578372061103058,0.8225071872471679
399,15.08657131659795,1.109629852508523,0,1,19.329091586578354,2.112366007554901,3.172646700325951,-1.52990272656074,-1.277972570266143,1.3867151105035533
400,15.62054597587022,1.093855304100985,0,1,17.19987275011936,-7.171678441256468,4.138300731556507,-0.6926869044147224,-0.14246000764424496,0.39755221389293205
401,15.709672519930777,1.0719312598679869,0,1,12.795132118324128,-1.8615911328594172,6.795608660271966,-0.12422519106623121,0.3007110158829298,-0.305640966858203
402,15.350101856290431,1.0473109685561706,0,1,12.780597322507314,1.2765053321991162,6.458656708342777,0.06284317640969624,0.38345891062471715,0.11677806541570071
403,14.595630154494433,1.0234367915531473,0,1,14.19112151534324,-1.0763921670372756,5.63039600902896,0.1356869493221991,0.3130140220866136,0.41776057088367213
404,13.551761783307072,1.0030576667784363,0,1,15.838131869883162,-3.7281249299540535,3.4624629168028167,0.5977792051751569,0.344336558007417,0.1294488950229633
405,12.363614753629214,0.9879359408104306,0,1,13.060197647361738,-3.4414265103735135,1.9803228519633445,1.0901259900753015,0.5413801599841622,0.12358406156931022
406,11.198640286505794,0.9789277789691492,0,1,12.616557134071405,-1.4037417872097113,1.1121887451195986,1.409927566449502,0.6198485119927016,0.27485605125164037
407,10.225512353476807,0.9762580570343006,0,1,11.224437574734084,3.045017273810216,0.5894922715597224,1.487574564836002,0.7405607959462435,0.3617551008728739
408,9.591154250464152,0.9797480940007122,0,1,6.790687466073177,5.057113721678965,1.0329696816253358,1.1636721114456658,0.6098778735498709,0.39979246026592813
409,9.398553222890184,0.9888184500745869,0,1,3.4864139711641,7.1741351853765405,0.2547726855696969,0.7026497639804465,0.3079423394909718,0.4332063562603045
410,9.688551674818031,1.0022490057067177,0,1,0.8473374909759688,6.531843418106015,0.21224620981219522,-0.0942605061713135,-0.030947213822651084,0.2746721646957895
411,10.42900547309958,1.0178539987702602,0,1,-1.0495260775554223,2.0202139381638977,-0.25524709358868286,-0.4510872885719233,-0.3055179772850524,0.01610927822914563
412,11.514384842280204,1.032327727595396,0,1,-1.1531544645750949,-0.5326440547316372,-0.3923848280788538,-0.2510544669321018,-0.4610614615573585,-0.16791394188243033
413,12.777843290762009,1.0414859045176066,0,1,-1.563316127896426,-1.0270309227537644,-1.0104161524271313,-0.37139219405085494,-0.5010721910788709,-0.2808199828487326
414,14.015778026361922,1.040984964239177,0,1,-0.024169852080258587,0.7022950113906776,11.541404316870182,-0.40742143463704333,0.6341499126946785,-0.35081110773943586
415,15.021976059313083,1.0274080810251334,0,1,-5.317869116088124,-3.9141795042184953,21.7069812999809,-0.12918660823947775,-1.1250449500984543,-0.6194079248595354
416,15.625201446173644,0.9994271041542886,0,1,39.081706943775075,-6.336402351955009,7.49080650054524,0.9474744888728815,-2.325228679617693,-1.4489209879304525
417,15.721846238713393,0.9586454068968046,0,1,37.43162904565071,4.658274436672607,-0.1662791829201942,1.2850714514017798,0.6386772193484054,-0.8908995503042708
418,15.295559971304344,0.909763162447248,0,1,3.104408767412837,6.567502732667738,1.8076520980652155,0.4236231454308159,0.4289214712963001,0.11365495035367716
419,14.419176402531855,0.8599108886661337,0,1,7.981673360766257,3.5593801125750386,2.8828066858973562,0.08981034646009561,0.44588220258276723,0.33779917800782344
420,13.239444544454818,0.8172919743453805,0,1,8.174332628359245,-0.24429519927141938,2.1197080344212527,-0.10601470617245545,0.13846930576432215,0.12548630350333442
421,11.949425573241252,0.7895075743532749,0,1,11.229887388104938,0.8416633779236035,0.21729256915583103,-0.1777096875543895,0.04624597026167108,-0.1914083268068863
422,10.755169866913098,0.7820030517116022,0,1,7.149194707080967,-0.1732332895674928,0.5981933554516675,-0.5131229150911025,-0.08997521513707564,-0.1591740873080519
423,9.84276301235446,0.7969846943942058,0,1,7.502802188789728,-1.67813275925024,1.709622411810814,-0.6436405541888407,-0.34345133844680653,-0.14413888236168365
424,9.350422193827386,0.832987622704533,0,1,4.805103162741206,-2.738422134450055,3.582421696492728,-0.4038998450189483,-0.5071240562846893,-0.294701844051532
425,9.34895108881743,0.8851076914764081,0,1,4.3311123098647135,-4.229081048986374,2.676573082120419,0.11178421976917133,-0.9084471139904101,-0.5121214213245896
426,9.83265968473566,0.9457866966803661,0,1,5.012986168109055,-3.5085845979549206,1.9598545084675216,0.40306214586899175,-0.876355339362944,-0.4341718305221129
427,10.721688528389045,1.005973735062956,0,1,3.6398744886618792,-2.340027168713231,0.8523466741776679,0.23401160107741042,-1.1625803838376259,-0.20621452914011243
428,11.875416846068198,1.0564685756680434,0,1,4.881402780696862,-2.256234571745283,2.551018028743178,0.25036195950281925,-0.2532557472363092,0.08618752036648672
429,13.115162074809684,1.0892651735523304,0,1,-1.4055084823499318,1.9973757775153735,18.587943450519756,0.013626106518737371,0.9350787809759199,0.40989382579042555
430,14.252702083916722,1.0987226513523376,0,1,7.196595278944029,13.55143789163793,13.697466229224286,-1.1699947404839564,-1.5806564409313923,0.9301073002566173
431,15.119676080659282,1.0823786594223515,0,1,30.09717422262783,3.5576355163242863,-2.00252299191845,-1.3859249339816124,-1.3031511686891761,1.2280711337897992
432,15.592442197434309,1.0412245396427435,0,1,15.04693440757256,-6.707730499942316,3.305257003418933,-0.3693670736850287,0.6059714150845639,0.2057090024645333
433,15.608091430158455,0.9793556271952889,0,1,5.838925489990828,0.6270843325898668,6.80965194372325,-0.24316050252256236,-0.1427278324163849,-0.26391749574792894
434,15.169729665828658,0.9030966797792076,0,1,16.935142401330353,1.4236292685086303,5.508341502001218,-0.4419541048974605,-0.08552369515842362,-0.037050925120147085
435,14.34165141109578,0.819874716289028,0,1,16.86390369404442,-0.6671010273269267,4.048875514269794,-0.016548498678039644,0.3567473266390685,0.23802793981128859
436,13.236574882586368,0.7371550503884816,0,1,10.790271190550008,-1.6132664216221912,1.2618586097798963,0.37983084079898854,0.44100266085448236,0.108242460172039
437,11.99763843064526,0.6616614613647516,0,1,9.1949536224419,-0.1319170915674169,0.5692678691885045,0.5975261643095316,0.4707513826384351,0.08681742609766474
438,10.77796597760618,0.5989475846704003,0,1,8.120340507914593,1.9232124138601305,0.501222430602387,0.5702874587805149,0.28028055854984757,0.32625994350156196
439,9.72056916154664,0.5532558821549859,0,1,8.511262121659911,2.0918623075983347,0.5037552095999613,0.47805060057367305,0.11502608656633079,0.5935280639486646
440,8.941008831711182,0.5275327931465476,0,1,8.440336966335096,0.8481452132621061,0.6391496566597961,0.39098594167204015,0.08963455651348544,0.7149364197356224
441,8.514558610170868,0.5234669551390236,0,1,7.694251868415245,0.2631069149378144,0.7981643144504014,0.18002687216230032,-0.02969006129033151,0.6281846784513534
442,8.468852604349795,0.5414658785052653,0,1,7.000098912512084,0.4729962135062079,1.726080077864077,0.018469582308539012,-0.18656930513569556,0.5010380858307094
443,8.782383782557021,0.5805616221914734,0,1,7.108276312009608,1.3683366897616087,3.3024869953110754,-0.04597426473597714,-0.19330729337883187,0.38074128391307327
444,9.388761560889604,0.6383099519657028,0,1,7.013788514085964,1.7706331101000823,4.1935709691127645,-0.1350364967663223,-0.13975474409621366,0.2573632509221956
445,10.186233959063562,0.710791760814966,0,1,7.429239520885012,2.7252716112568787,2.341349784271642,-0.3071440119498047,-0.3370592611033196,0.09097318531518857
446,11.051548215492014,0.7928212449421598,0,1,6.018144878792443,1.6172123371982055,5.020328810485199,-0.6405576548254858,0.32330233879217884,-0.010572778597373206
447,11.856715993643345,0.8784128176328961,0,1,6.451505313158987,-0.9992297474684627,9.956768857453488,-0.5372372418426908,0.5235293886618758,-0.3488350253279836
448,12.486639359561064,0.9614781083552224,0,1,7.87882138342943,-4.59487534457828,14.957532813804837,-0.04342557145575043,0.037195758170147426,-0.6658124022732084
449,12.854947883689622,1.0366430565402127,0,1,20.97903687307278,-6.228355415667819,7.730350530893007,0.9027889660597604,-0.3159721196809438,-1.3850430821301971
450,12.915177604721036,1.1000147942396843,0,1,19.506196290557476,0.20719621498660873,0.3424890760314735,1.4713640765414446,0.20651903912184955,-0.8086148224729846
451,12.665103329966403,1.1497090427011003,0,1,6.359687894185658,1.5333060256622038,2.101876872474614,1.1712469226522724,0.4076190150424651,0.2586070510440626
452,12.143728828097693,1.1859940753321963,0,1,5.523305267441067,0.23768509050372705,3.1793169319627124,0.9824957810440517,0.29558540509495085,0.40803015827359873
453,11.422439563100976,1.2110163728955117,0,1,8.251014585010095,-0.4216018899968213,4.517062561117193,1.0370964041863981,0.2842756816499564,0.24190685738266846
454,10.593012446854516,1.2281996581414172,0,1,10.731744816420568,1.0159540608709599,3.5546414419350105,1.0413377147010927,0.3026693136964161,0.051933274724742524
455,9.755039297464162,1.2414931983861983,0,1,9.804228566750954,1.0093374795502208,2.693017399852254,0.9212298038615124,0.36711325241310583,0.10824086224221215
456,9.004369342753172,1.2546628290918769,0,1,9.236744431634868,0.3209300135559876,2.0683551949271948,0.905235719661735,0.4780038410309484,0.1393228626111775
457,8.42329234654016,1.270782551835673,0,1,7.229656823951025,-1.23201343855836,2.628400637019049,0.9630189438154827,0.5006388326962674,0.12041403425854313
458,8.07278497561766,1.292017447051096,0,1,5.7873278956855465,-3.377007732822107,2.6187883862189834,1.0986375352864726,0.2512470127493236,0.1875383679928888
459,7.987087940818318,1.3197059905109378,0,1,6.9054572101464915,-4.419013189706151,2.255677484103534,1.3894415331427108,0.13740090731399252,0.31274168517773165
460,8.170884502159378,1.3546673542118581,0,1,6.720959395383267,-3.355864477324511,2.3530946641919344,1.651609122140472,0.07373484517764277,0.46775017560408577
461,8.599281088790164,1.3975978556075783,0,1,6.49431071655849,-1.602551186010856,2.3138534235344146,1.5965161508786798,-0.017496745945693108,0.6484562323921498
462,9.220664494208057,1.4494037737947856,0,1,7.49445849020152,1.1969994876461945,3.252480759291271,1.3826592438560603,-0.04240330365687559,0.7072233288597766
463,9.962344771637996,1.5113572641261628,0,1,8.410871157036599,1.5584239258308732,3.696873518199486,1.2148452187101477,-0.09045652620200781,0.591505522966126
464,10.738648073107099,1.585041937040521,0,1,9.027147303079648,0.2556251224079714,3.3350737994518824,1.3508680207313635,-0.0959008612286451,0.30245566445752914
465,11.460777290413992,1.672133073276946,0,1,10.013657779521372,-0.7512376467471921,5.0417047552350285,1.6328950835860914,0.027211068201381337,0.16898411761998539
466,12.047364919249112,1.774095918413181,0,1,12.466242143146234,-0.24392179263690544,7.211898207232468,1.7753969941385586,0.17966773089803556,0.42371455676649905
467,12.434309936208468,1.891877729450274,0,1,13.934387300445218,0.19868434132978863,7.679850925458194,1.6570154485023312,0.3523402122190752,0.8822730781777647
468,12.58236826226661,2.0256400483316437,0,1,13.314082982736911,1.195994294607624,6.707907674958215,1.5630902285082018,0.4054610838184177,1.141598010749786
469,12.481218501613313,2.174554794700793,0,1,12.705364899866911,0.11128537294408476,3.339893825562451,1.7319902762891364,0.32946749476651505,1.0605353474563064
470,12.149392506153653,2.336678251464411,0,1,10.982804709506983,-1.2783387004984448,2.770736992576171,2.0681447370740313,0.44843029294529596,1.0243475021866106
471,11.63034268555154,2.50891050414208,0,1,9.100349479297908,-1.229938163874945,3.8130641801450698,2.2865770322545513,0.5471850787840072,1.1175235206966059
472,10.985663383087168,2.687036610473343,0,1,9.357356330308331,0.1282670576604471,3.0540130948529427,2.4703016099337636,0.4828037563641759,1.1275781931821907
473,10.286828433359512,2.86583542479317,0,1,10.166269758136668,1.0233105958637805,2.167468395946197,2.6151555765466568,0.376320648509108,1.1381172981102163
474,9.606729120225747,3.0392430713346825,0,1,9.334073114593961,0.22626678181824908,1.7655249432517572,2.7309227550684683,0.2672695627591773,1.1664591137839257
475,9.011980789061337,3.200571268248054,0,1,8.283615680704758,-0.0017209354390366844,1.6407086681523126,2.9066874325921037,0.18218136914908659,1.1918375461370498
476,8.556638203414717,3.3427950923881635,0,1,7.61628766647931,0.5344812734605349,1.5997821201933928,3.063051239974936,0.1063507721648706,1.2417137123546569
477,8.277725121344243,3.4589288324232452,0,1,7.485943742465556,1.1224463857197007,1.4776635649345085,3.139204642139271,0.0238308007957316,1.329190027522448
478,8.192804344247364,3.542499534056369,0,1,7.7345103413385665,1.839061023874162,1.6217661648750508,3.143747570788861,-0.04889425834055482,1.4489192895950187
479,8.299620710217367,3.588110007940447,0,1,8.041142120820744,1.9562198328437217,2.0820002926764927,3.1136750307478693,-0.04953130348150891,1.574733794332573
480,8.577640211367417,3.5920605235474414,0,1,8.043764367682657,2.1950957914987073,2.4686204978268065,3.100836487891376,-0.10579738906315064,1.7202461092169605
481,8.991141397593667,3.5529719804256037,0,1,8.554035479258237,1.7179489084754203,2.6745341750857494,3.0863448015466846,-0.1473845787932218,1.7689567185602943
482,9.493435344564466,3.472324380499656,0,1,8.788376974371184,1.625099519416573,3.039014819039369,3.113268086070858,-0.08304057752530651,1.763118562231666
483,10.03178893065582,3.3547992488141922,0,1,8.727876042752058,1.4678083144186385,3.9630393124276724,3.126005958999495,0.0015806224037895093,1.7262920417928995
484,10.552655919612535,3.2083044284336157,0,1,8.759976039408311,1.015194638076244,5.30750160088858,3.2079416407863883,0.13679834972696614,1.5613628649864075
485,11.006832600090315,3.043577050998631,0,1,9.946139909050968,0.5517842383692557,4.823587301118285,3.1771469192810744,0.2966936292255153,1.340440244009225
486,11.354127363459453,2.873315755393496,0,1,10.442810105862085,3.0307915721764744,5.951693420264206,2.77171568686294,0.602537419531223,1.1269323120593244
487,11.567090364593112,2.710887998131813,0,1,10.730483395397716,3.5977200811155927,6.2008629415367675,2.2435842765555676,0.6545910218088997,0.9196069733849863
488,11.633360498936145,2.5687754348272156,0,1,11.331632757676248,1.4069739209435257,3.390129145798718,1.939678382682259,0.6260940887221182,0.6224707685404418
489,11.556321510371804,2.457020199275727,0,1,9.997401796060558,0.5025345754473579,2.1300951198785745,1.8179616879545264,0.5695226330171872,0.7726716435053389
490,11.354002269496759,2.381971542666127,0,1,11.43460188363169,-0.1734565229837385,1.969728358563341,1.724840983751733,0.38736752628583554,1.0014708594673603
491,11.05639102385164,2.3455832357888062,0,1,12.848825191898054,-2.1705149894581544,1.4118471007900608,1.7867990506332823,0.4491269801850729,0.8946576634232515
492,10.701463017959195,2.345393150676981,0,1,11.174371201720517,-2.541618190479013,0.23660121015397498,2.0085196230155193,0.4889694795023952,0.8360360536461209
493,10.33030135088078,2.375167287855532,0,1,9.317540221838259,-3.109671854204575,-0.3920990924272094,2.308927339967001,0.48666556488902285,0.8439830020834109
494,9.981854396188671,2.426051687095298,0,1,7.675400568522525,-2.398458088487303,0.35742225716275,2.561009819814984,0.46429442014917355,0.8916182721674736
495,9.688109924770062,2.4879789114875015,0,1,7.1189419222197134,-1.82241319801505,1.4126911580415795,2.7130213047941654,0.3777821723127013,0.9092946978275944
496,9.470577671857622,2.5510438577152543,0,1,7.604141783445756,-0.5169304050902878,2.582609051765787,2.758313708422581,0.2958589284949635,0.90162581461409
497,9.338769032333737,2.6066050187084953,0,1,8.403739310921518,0.9027552101613223,3.53338908347966,2.6014840272249984,0.22283091652628484,0.8782099179496261
498,9.29085588788114,2.647968493638052,0,1,9.222957610070074,1.1475189921079911,4.64902033726822,2.3239318313548423,0.17019871358213137,0.8663592967093308
499,9.316090253417483,2.6706377201102502,0,1,10.27560119818279,2.0634779806904118,4.11428178796682,2.277099929391044,0.12173398020318675,0.9572370316292571
500,9.39814033031661,2.672217181962064,0,1,9.683285522017616,0.8242232666147047,3.793833602347752,2.3626671030517055,0.12419842748016229,1.0286425646395694
501,9.518419026188235,2.652109714913476,0,1,8.98506765004893,0.022604935617404846,3.55929203332091,2.332868604648755,0.13654636615888008,1.002464674135062
502,9.658737539779853,2.6111402424454337,0,1,8.742053301998464,-0.30079401335354367,3.186058119846387,2.3400321589159963,0.16632635079617308,0.9870520420727823
503,9.803033386578955,2.5511963998201024,0,1,8.461784081051496,0.4171913931176686,3.445185528193451,2.356081895440253,0.18287512284410967,1.0061417321236228
504,9.938276400617877,2.474926850197908,0,1,8.879755114309612,1.932685330974628,2.965474968218093,2.248396701883683,0.08287163752842885,1.0865925617108882
505,10.054814529595859,2.385498636007742,0,1,9.493084820902093,2.651595249777531,2.3422794781508305,2.111203968091028,-0.008408888426723011,1.1558309615482674
506,10.146390962213648,2.28639175454193,0,1,9.581372736441912,2.851574330831743,2.707366714427369,2.0549267601043937,-0.07408650516993454,1.1428824553208434
507,10.209944488421236,2.1812021906141705,0,1,10.123662799783759,1.7841662396413436,2.808809138391029,1.9906566708751485,-0.1355497767501587,1.0358299735922103
508,10.245205566744499,2.073430611197221,0,1,10.352347650029762,1.523656929692005,2.386145516698582,1.87875886667932,-0.09780586527787502,0.9054072765951605
509,10.254085044200572,1.9662485649159454,0,1,9.64056026348596,2.287582402128262,2.247281167003623,1.7472390562860547,0.05867045939975137,0.872269537083473
510,10.239922506381037,1.862252629160811,0,1,8.697351263491647,3.066193270865358,2.308803653070025,1.587940501906437,0.14657955782689566,0.9508912142430637
511,10.206765526169011,1.763233742491499,0,1,8.437777410007367,3.247657352607449,2.61622500374313,1.3859407144847684,0.16030900377492968,1.0322657468265484
512,10.158907995066183,1.6699989265684634,0,1,8.346689182598656,2.916342306892302,3.5853789147930253,1.203256676090846,0.16457843301404476,1.0858222670118411
513,10.100856782322008,1.58228416071902,0,1,8.58836323222865,2.0849813918116302,4.208514090273721,1.0301274932522921,0.17433861017406682,1.1183283476449317
514,10.037715084886527,1.49879146812109,0,1,8.96496610734165,1.6944482411700361,4.914894779018134,0.9143659994579248,0.2019829423183827,1.0973391791723146
515,9.975734403752954,1.4173714572046847,0,1,9.721218307970272,0.8209949456178185,4.801065623507866,0.8382409728150572,0.20304333893108453,0.9601443931168938
516,9.92259758963697,1.3353545672827842,0,1,9.852870950469473,1.322887657476649,5.988443645460916,0.9078863326194487,0.30055488188176754,0.7598669120541579
517,9.886950999267912,1.2500090143957092,0,1,10.487301140013491,0.7055089479146607,6.6041382250878575,0.9945288541758324,0.4131975888798038,0.5508457639080947
518,9.876878476929525,1.1590707468609125,0,1,9.71659404560566,0.1688705375341005,5.117784503748092,1.1140992235499758,0.6584763056164026,0.34234525788536113
519,9.897427246612978,1.0612563454172104,0,1,6.862672209271979,0.6742510622397899,2.9507173154427258,1.130508007587602,0.6443900517546479,0.37767140763630624
520,9.947862517226111,0.956649178017937,0,1,5.108923996675709,0.9646499378621038,2.5231237990448707,0.9153357923772348,0.5728087585733189,0.46398088403010934
521,10.019777905311141,0.8468610827765746,0,1,5.647807156641095,1.13269648821144,3.608702612550626,0.6766305914138817,0.4811846630710874,0.3281534843867725
522,10.097181391730686,0.7349225776182384,0,1,7.589608880456428,1.7638776860649763,4.603133249532383,0.5722188236083352,0.3572337178739359,0.023651652246751562
523,10.159060954672919,0.6249271012676437,0,1,10.465944729986623,3.127291158626176,4.670179292220088,0.4624193989505355,0.12012749869231767,0.012454352310703428
524,10.183944240850344,0.5215176531131601,0,1,14.002533498035639,2.5594905150484473,4.406805241944374,0.2641623051350437,0.09602300233197877,0.13728230932296145
525,10.155116268144258,0.429331978165758,0,1,12.023610378426765,0.7414912138302732,3.974280842747248,0.09295395293061892,0.24875448597886055,0.20732565799029745
526,10.064912784282797,0.35250885482110256,0,1,8.73958665197955,-0.5171677856419145,3.5457355609779846,0.04274791295403174,0.28991241983081606,0.26037705687153423
527,9.91697090261791,0.29431557941775127,0,1,7.856379236797039,-0.23263933453270455,3.642367019509934,0.046986835673325185,0.22872965504575424,0.26763630990568427
528,9.726161998202748,0.25690855611213614,0,1,8.434218534170164,0.24577338761475975,3.408961008304068,0.052357338697980246,0.14227812576053803,0.2517579158309265
529,9.516638266550828,0.24120650244287595,0,1,8.787076335539883,0.23382473469406131,3.186543567399447,0.10677786126022823,0.07146805894180483,0.22592819449404597
530,9.318694457191558,0.24684725365142995,0,1,8.800672607459813,-0.07935274942018007,3.0744029876257035,0.1551143707787436,0.03473484709631486,0.23182901073212178
531,9.165054861291017,0.27220781080295975,0,1,8.25058658030043,-0.5096439532980861,3.233047235508133,0.20183068666520323,-0.0019451896594297,0.18808820317489053
532,9.086989251189005,0.31448160369023,0,1,8.724057105380737,-0.29147662127393503,3.3456807630829757,0.2355194748472486,-0.08071576935067803,0.15690946905286882
533,9.110505125081998,0.36981938903415246,0,1,9.462707741639532,0.3661661244822103,3.172127781759621,0.23980856042624332,-0.08135769324324238,0.16630592400313798
534,9.252795905225948,0.43354723905270476,0,1,9.20271841751002,0.6258333008527943,3.12588542712242,0.2346633338577484,-0.1184677506265747,0.2048377934897432
535,9.519145545339756,0.5004736074643724,0,1,8.733748055742502,0.5409845401405126,3.057998048346217,0.22423156017193036,-0.20320272113455953,0.2806229775427464
536,9.900595303187629,0.5652845772743448,0,1,8.605017915420914,-0.2300386599714771,2.635756559807448,0.22784603864825095,-0.3388591472290774,0.34517601997784075
537,10.37281894826941,0.623002440601832,0,1,9.401996950016219,-0.7240605160787531,2.2452393548973015,0.3089701535929151,-0.48028267404806835,0.39810225933337084
538,10.896726659194007,0.6694541303080677,0,1,9.28045801648069,-0.4321912187129167,2.060293519487751,0.4373615080989794,-0.509628949165998,0.42535852020398834
539,11.42123664445357,0.7016744941739613,0,1,9.079955511358577,-0.4586101421823196,2.2040284981760436,0.5184968295219423,-0.5785700231996035,0.40474041152406987
540,11.88838845737207,0.7181671902368647,0,1,9.51754774447211,-0.3580321817108853,2.725060455748175,0.5273826647196261,-0.5906571687874403,0.3671811850339733
541,12.240531358603906,0.7189692242751383,0,1,10.129523176793949,0.502743371085648,6.507660555054972,0.37134003949181005,-0.5891994357514554,0.27351720106079347
542,12.428739836315122,0.7055097705296858,0,1,12.905256115816641,2.575632003939822,7.236240973436909,0.02866071691899134,-0.5772095044853949,0.17352765121339844
543,12.421012567515852,0.6803053992173685,0,1,15.008774066864758,2.7762283504182674,6.61564853686947,-0.27177257074228756,-0.33288461456207485,0.016582557289859214
544,12.208460203451333,0.6465712207232394,0,1,14.38057772946896,1.6401710192652206,6.743186335940488,-0.5214988020570255,-0.10419768153009606,-0.010998975130067569
545,11.807863649334855,0.6078328790796933,0,1,11.680143385910497,-0.9074291840462141,5.973533804016674,-0.6641934089016903,0.11048173925870151,-0.0231062302766459
546,11.259770933789044,0.5675957970442695,0,1,8.93950599843299,-1.6226836520719612,5.374186562248821,-0.5956321420295171,0.22858709770430327,-0.13100995222998985
547,10.62245247512116,0.5290845429195652,0,1,6.614806226002881,-0.3909650882842332,4.836529267254789,-0.5302004306507642,0.259190498431075,-0.1657633514051586
548,9.963090053263826,0.49503409268288223,0,1,6.307947594854586,-0.15985987824699227,4.312793698989305,-0.4865054626686265,0.2287953539257561,-0.1766726125371607
549,9.348128751592922,0.4675112598838994,0,1,6.795777606124883,-0.3122403396904707,4.111738839227509,-0.37302322337802174,0.24345250482855987,-0.14968664852674385
550,8.834643320023787,0.4477636571706769,0,1,7.437983025959607,0.009487869299538813,4.291070748823245,-0.2582655694234225,0.28620423340267126,-0.09909571964581577
551,8.464030276399708,0.4361194366760326,0,1,6.783133161488506,0.381476839480343,4.863248610360269,-0.19900621362673904,0.23973263152992763,-0.07312363015291896
552,8.258653383702235,0.43197865859127277,0,1,6.465625962071298,0.313287779577787,3.9401303488682813,-0.17326556662366305,0.01909161555656875,-0.16530838428998096
553,8.221502653271836,0.43393633367547335,0,1,6.028170911682859,0.08456402370303467,3.1986238248540806,-0.16909897032561094,-0.07152873784447622,-0.2649537670330905
554,8.338544611200371,0.44005385558064963,0,1,6.527937492973143,-0.13818127574202022,3.22520989061891,-0.19880520135373125,-0.2458244717899643,-0.392742869729423
555,8.583150045719309,0.4482545757792485,0,1,9.314235301089985,-0.05564730997724073,2.5199023266524088,-0.1822725647462687,-0.3394899064389173,-0.4967448449524268
556,8.92168596778393,0.4567768316639144,0,1,11.30125752338182,0.3321639268200389,2.47303056724674,-0.02263951323791813,-0.0783075159081242,-0.4802240125265131
557,9.319098894543684,0.4645944079636839,0,1,11.360722190796904,0.18814564418419708,2.559573984577641,0.16524827690855506,0.038517068925789655,-0.4364163955394819
558,9.743284915679373,0.47171953421734564,0,1,11.330445387706712,0.2832293415438807,1.5198604991414946,0.3514084647676159,0.09081284591570273,-0.3702113007145778
559,10.16739017772944,0.479327587185875,0,1,10.594276774338379,0.5838995257283977,1.2642860782728416,0.4853530234186817,0.24798395096990686,-0.21014969576164577
560,10.56986004122385,0.4896696870176565,0,1,9.463331590111425,0.8867795949199341,0.368972908982289,0.6003088442027881,0.10796559496335872,-0.0328231319339368
561,10.93280930464706,0.5057640362950211,0,1,8.622621063333115,1.4565383710410527,0.3813305538782397,0.6337745303624849,0.012653715580530658,0.10205207753388043
562,11.239828586794223,0.5308852841213344,0,1,7.888239604202691,1.7718041094351138,1.6465396991409984,0.5052140824863831,-0.1588601638979787,0.18735098451037288
563,11.474468516278844,0.5679085430233387,0,1,8.692269018102527,1.7283239259405527,2.9905697392601005,0.2691095226380321,-0.34360217582714103,0.3155420053286846
564,11.620294152928905,0.6186064916156752,0,1,10.716873600548523,1.312795898506688,4.17802262801822,0.11835834796574018,-0.3170095894788706,0.338611736848649
565,11.662690136521615,0.6830314389290614,0,1,11.059334487068506,1.1862780619029762,8.879483923551678,0.06642510778522426,-0.1376131519399078,0.291462794386682
566,11.591806388732497,0.7591236371334875,0,1,11.224260017461203,-1.965295156552901,10.050847365673983,0.34791394494103334,-0.2782645525562393,0.027375131542081134
567,11.405533552645604,0.8426597328372697,0,1,10.830269862582465,-1.7078143254090177,5.744911838341767,0.8647690997580183,-0.09008558886868989,-0.23304935163383786
568,11.111444342047859,0.9275897190495578,0,1,7.4919751718415535,0.02090594971464234,5.584489216730135,1.0183127089931099,0.1295754913607563,-0.14114833176330135
569,10.727171893235239,1.0067263993379083,0,1,7.254521919533425,0.34918668219302323,5.272775547998406,0.96393644770018,0.17700622483513256,-0.12617746489634962
570,10.279337681938568,1.072681700229336,0,1,8.422579016298236,0.371931679438871,5.794204266274286,1.0551124161742496,0.09118017033175331,-0.08713006936790565
571,9.801479698972813,1.1189107008186558,0,1,10.55787876129911,0.22759594333121005,5.149162001760076,1.0749377627803238,0.0999871039044228,0.22760189533176997
572,9.331378217890167,1.1407202389966102,0,1,9.793802566216332,0.2845308061758944,4.242900231956312,0.9957546150101264,0.15010487628740662,0.6709790941977939
573,8.907996229556213,1.136104647318313,0,1,5.509883338912074,0.39785735045898674,3.555604188282975,0.873737604427739,0.07261016567283471,0.9528668197226813
574,8.568229015656932,1.1062783515652723,0,1,6.6268624088242145,0.43526154230157427,3.094388632706048,0.8594024072150482,-0.17260167318299202,1.1171903613781742
575,8.343783385087107,1.0557924203107538,0,1,8.396807056459968,0.45341665107182183,3.0720816974191716,0.7836669672967955,0.1754893201877398,1.1028949483790826
576,8.258552585550504,0.9921642572938537,0,1,8.257718940601674,-0.07424072719092102,3.4694471769957858,0.672651736520377,0.244050373505634,0.9650606000096607
577,8.326708309599592,0.9250238992564408,0,1,8.229906614628355,1.017095990693238,2.6447798019385416,0.6016582831034447,0.14028626534274172,0.707165573256992
578,8.551540426440319,0.8648778552576114,0,1,6.92222627997943,2.9645888920305863,1.6916882594091422,0.29843783194835705,0.07075719783403711,0.4529919324957839
579,8.925010100399517,0.8216846702591223,0,1,7.5570956722424585,3.8437927425657374,0.8163081209248345,-0.11944149819916758,-0.11463436226888225,0.23031733777905256
580,9.42802681353537,0.803487913921513,0,1,8.98704877093922,3.346626592791688,0.3154750753715842,-0.49954300242010347,-0.24483336058743832,-0.0049449858170338215
581,10.031483688436202,0.815333651055729,0,1,9.983314982093503,1.335125175256716,-0.2685887203361163,-0.8802586262119559,-0.4912354480898791,-0.14901797863258376
582,10.698029946652554,0.8586152968418296,0,1,10.677016880746079,-1.407657381054485,0.952305857442434,-0.9952167295539731,-0.41103288442490266,-0.27360272096941324
583,11.384476812965204,0.9308847540796179,0,1,10.506631326999763,-2.6884621429650104,2.9608442961425108,-0.6048545031979219,-0.31922192917236114,-0.4566762218329688
584,12.044686067323216,1.0261009498502713,0,1,10.870330474225208,-1.070584924516471,3.254881424625055,-0.15936578874442042,-0.4270765065725031,-0.6288618095487076
585,12.632773895934282,1.1352720520585322,0,1,9.815734333002268,-0.43831896875220666,5.472138153148324,-0.2742452447756867,-0.36546019718039563,-0.5976761580755462
586,13.106420625433444,1.2474496824697923,0,1,7.496556840125847,2.473682859860794,13.100698058600384,-0.7655882805510583,-0.4637845077712241,-0.45377063388397265
587,13.42997894275991,1.3510043968116938,0,1,11.746608466751098,7.991986630681759,8.475203789966887,-1.55223039544983,-0.6888547347898943,0.11964995807694621
588,13.577000365559062,1.435041590153381,0,1,12.532867760796668,0.8311007240109414,3.534695470331001,-1.9701201222375888,-0.10867746293859562,0.3246173423480594
589,13.531915892508545,1.4907457194497002,0,1,7.599513682080332,-3.9901581204687417,6.164875661596515,-1.70028726262996,0.3592342846034395,0.03370862405062414
590,13.290939079590322,1.512425590792329,0,1,6.587060779777829,-3.0332924274620168,7.63108831693133,-1.4549866741265554,0.25885062804302134,-0.37506952500759033
591,12.86254510251219,1.4980978795033646,0,1,11.240405561307215,0.9479131948283428,8.129763639283574,-1.3764273907557816,0.1462002755532219,-0.5196520192958501
592,12.267804333779358,1.4495567319261813,0,1,16.70002794387301,0.5626597312101519,5.587025879971889,-1.3399117237733482,0.40631806451437547,-0.44535886895107196
593,11.54046679135465,1.371976876217434,0,1,9.545781514230256,-0.7113865759931136,3.410217498824031,-1.054906419152814,0.8047957530188927,-0.5159913988780167
594,10.726421046271662,1.2731553108446996,0,1,4.218831957508822,-0.20468392304684244,2.9744320716622386,-0.9279970419919724,0.2785676377024268,-0.6877942895447337
595,9.882241314859796,1.1625193391603912,0,1,10.377194870677684,-1.7903051468888624,1.612053152628838,-0.7326607663045192,-0.020667182694998315,-0.8542956619682871
596,9.072725710851525,1.0500343600642592,0,1,12.081524483025575,-2.668296590715442,1.2895316324720383,-0.28465200643593397,0.14144878574875425,-0.8171238153722548
597,8.367238239572131,0.9451398494959372,0,1,12.22363019924934,-2.2703662471493162,0.40922965477716833,0.2398238056476479,0.11010763922258826,-0.7183750751017942
598,7.8344245567586075,0.8558228090850541,0,1,10.513311744768627,-0.44029615233103564,-0.24389168382445628,0.7120662752156652,0.3986163097979369,-0.44741677650932443
599,7.534995813847134,0.787903435079671,0,1,6.3542410821519955,1.2302072258519368,0.599608941539898,0.7697633609811202,0.6008593091641103,-0.18174629589741748
600,7.51299430939785,0.7445682860732089,0,1,4.077914779223911,2.7975355993994753,1.5561723703310437,0.6551454557998941,0.2198501135552815,0.136632937205656
601,7.786919998790201,0.7261608806793024,0,1,5.058279785302791,1.8443518703567763,2.4150932777292415,0.4056138882772357,-0.15053436645896043,0.4193494278793271
602,8.342745798768643,0.7302381792519056,0,1,4.998532567089505,1.0213050872159228,1.647029999659179,0.1323256785617211,-0.3457015494525364,0.42515907726994095
603,9.130865958382387,0.7519100251907552,0,1,4.801969556669449,1.4025853716923364,2.397981186912527,0.11688828518103311,-0.5221615695696623,0.27588316814179803
604,10.068440716427178,0.7844720468986337,0,1,4.545659329202333,-2.5979728698907336,3.22284010618779,0.4149288845962694,-0.48907285622711716,0.0762329058037706
605,11.047609687211471,0.8203079490111932,0,1,3.248290155570836,-2.009485531432204,9.76923325717694,0.419052414535082,-0.19933895537169985,-0.057747355667287045
606,11.948823067360173,0.8519791298373355,0,1,5.324558056690222,-3.185802884213917,12.887767396925868,0.4497504661109598,-0.5201431736805961,-0.5189162038988354
607,12.657307239215456,0.8733494752642519,0,1,14.777532414643844,-1.238862698113672,6.91818693387532,1.166592303125643,-0.610578355508273,-1.3114569739128308
608,13.079794367241616,0.8805324346824788,0,1,17.702725468721276,5.104065141161552,4.227063309195603,1.2385321019046394,-0.2725147241153348,-1.0229515846830692
609,13.158469510005927,0.8724401025184219,0,1,13.117844506816201,6.113389276174739,4.6315830384641705,0.6482988629795798,0.005867363921160941,0.13131820694207608
610,12.879750166633038,0.8508015117559109,0,1,9.780870445800018,0.7846762383919011,5.004501630319319,0.4449116671063618,0.2005497276935841,0.40382000158616776
611,12.276754050898463,0.8196791620023423,0,1,9.531117821796405,-0.06995319299480568,5.497017304214084,0.4538203653311225,0.0872283682474315,0.056451969830531946
612,11.42558361251948,0.7846594798680686,0,1,11.851034989872042,2.777874551788409,4.230862984627984,0.12172036621764036,-0.010654737203154026,0.25428976209485216
613,10.436370415275512,0.751942727783688,0,1,12.047122230566695,2.619925251880854,2.96942457035547,-0.34713374709851574,0.3791310674184286,0.6148210681244537
614,9.440314037596176,0.7275030026173943,0,1,9.172442331123689,1.5315229664024237,2.4205235343413727,-0.6149761346222662,0.627649374230476,0.6814203242976873
615,8.574053999185649,0.7163850726598376,0,1,7.891983697907518,-0.46982693349480725,1.5008143597046106,-0.6658665856083538,0.5767695548968982,0.5540465201227737
616,7.9629329784268,0.722124282552943,0,1,6.036014010596978,-1.5095555963470717,0.207390157136101,-0.48709021010446557,0.409532367471695,0.30777139744101845
617,7.705007056235838,0.7462645714183003,0,1,4.440766320146704,-4.198467936304079,-0.523244460383354,-0.4060167041061147,-0.03573150719691859,0.11899544513261562
618,7.8577880727214096,0.7879980634856653,0,1,5.605907241487897,-1.9270034568151673,-0.6287797624674519,-0.3943036043383979,-0.5261149848931924,-0.15986116501816447
619,8.429506626119165,0.8440030324553667,0,1,6.753240213677989,0.5812236617717949,1.5822264148903586,-0.47482519197759576,-0.575083892967973,-0.20731665986541384
620,9.37619133939775,0.9085674454832484,0,1,7.333773646586501,-0.3365832797960596,3.466169303235931,-0.3200460331297745,-0.5921130970638822,-0.39617876198681307
621,10.60519749829622,0.9740494054510261,0,1,7.967989766303302,0.9270706422209731,3.2088551258019744,-0.29512483590030103,-0.7153505150418273,-0.43450112885340786
622,11.985096203160571,1.0316704077896377,0,1,6.90588434935411,0.033249059275520965,-0.4842191309117647,-0.23387384267524414,-0.7621610948849744,-0.3577978850310012
623,13.361073992648615,1.0725824303992693,0,1,2.8639081726526197,-4.0915889249112585,11.669725485213583,-0.41937391744871233,-0.27751016362883174,-0.17201820709271287
624,14.574133891898942,1.0890937452649083,0,1,1.2858988959249782,1.4704425737787608,19.453466890968304,-0.8006417327223054,-0.8744862464828149,0.316277983628505
625,15.481475269631481,1.0758719991376262,0,1,20.055020025691213,6.707210404862881,8.312403815596149,-1.520709518489674,-1.3731710954435232,1.4340005608417499
626,15.974819532134235,1.0308825104386934,0,1,20.973441641429204,-2.5639300319210716,2.4504760779388186,-1.2476504984936556,-0.41255061839033247,0.9913874153365145
627,15.993667852374719,0.9558231220225123,0,1,12.067958593744564,-4.489098235401406,5.323140338802934,-0.5170248713450198,0.010778960291836575,-0.23645434855847222
628,15.531681350196648,0.8559357681150902,0,1,11.156899949931754,-1.7896376728685035,5.828504140911039,-0.2939712426846344,0.03937186152096326,-0.4829188947004923
629,14.636024389104536,0.7392710908662606,0,1,13.556440854475595,2.509689209171994,5.9313754809284625,-0.3221847648708212,0.09470417786003064,-0.04701283556070737
630,13.400765098865463,0.6156385991594356,0,1,13.653675286543491,0.9431705101272568,4.40337544755436,-0.38457329582753785,0.12309575819281877,0.0557826099905568
631,11.955873556243844,0.4955075272865812,0,1,11.516181171958845,-1.0321935180667414,2.394181891397316,-0.0666137411965409,0.2157308215931432,-0.3003503256356841
632,10.453260981679556,0.3890494022827691,0,1,9.274975651570287,-0.2660664228818904,2.0855970269085544,0.07275761851405452,0.2858362156847126,-0.3500032484528075
633,9.051134034985893,0.30540262685063424,0,1,9.177766823732807,-0.14219727259347525,1.6559507196281975,0.08999156026048011,0.27138321877120486,-0.16138526480976417
634,7.897881944538123,0.2521480717765497,0,1,9.082749245660105,0.9518335419061104,0.00801170271597242,0.13195259615446087,0.2880949162740059,0.08714055848631728
635,7.1167053246497884,0.23493458929787955,0,1,6.790369549164994,1.893544721973792,-1.0471091494889067,0.13483775256653874,0.44831237592687734,0.2081210036923653
636,6.7921990931764,0.257183902855038,0,1,4.506264610279175,3.0379513648252603,-1.0150745521115,0.23672080602333193,0.21789660206661032,0.2935333278098886
637,6.960150123256354,0.3198279737484259,0,1,4.466902489477443,0.8936626074810887,-0.6982331243944667,0.15266378476915268,0.07781771065422784,0.24100762682574198
638,7.60184456437897,0.421080132448613,0,1,3.6586391779336713,-0.4542109187363426,4.121543131400365,-0.07189597981259967,0.0952605012034157,0.12575860647920115
639,8.644032079331986,0.5562972386318793,0,1,3.7571175445187057,-1.697989735699336,6.525442986891285,-0.047296669543547575,-0.3130758145065289,0.20476054083734568
640,9.965250932761123,0.7180261241972979,0,1,5.299086033166449,-1.5830979957360556,3.02256141790242,0.010343390658451244,-0.5103772318725364,0.20925549201185265
641,11.40851696645337,0.8963215617005413,0,1,6.578137748858642,3.629809931557236,-2.310320131038828,-0.3867391278563664,-0.9063074973052417,0.06704916078342577
642,12.799509148757078,1.0793782659455966,0,1,7.358987907377394,3.0038748032326303,6.048848745146165,-0.9288942627986628,0.04260558922320946,-0.053345864562600126
643,13.968365972128188,1.2544600393777856,0,1,5.071800038436011,-3.4186709416822976,15.711710790539323,-0.6118283280594825,-0.07997277531828936,-0.35101918029780177
644,14.772102235805288,1.40905312542898,0,1,17.326888988015362,-9.622959712847564,15.748852742072465,0.42851267789593944,-0.6418262783832884,-1.2407450705485534
645,15.113816943757035,1.5321147855817265,0,1,26.184514775926065,-5.067363374040929,5.208263513084654,1.7521435727095607,0.26519466949548737,-1.9446047385829124
646,14.95494309554308,1.6152326856508676,0,1,12.808939850948605,5.800781363489973,3.4808831575997172,1.5551107276578469,0.7165607240721626,-0.6525200936586685
647,14.318250385896606,1.6534927777545518,0,1,4.915272953065896,1.6438208275754533,5.161843057566574,1.1777416048067306,0.5865003034648618,0.42436918132081475
648,13.281752017427753,1.6459144524460403,0,1,8.143299321063646,-2.328561941366961,4.317271417572153,1.325919784805597,0.20112680872009145,0.5902550998087849
649,11.965839389768497,1.5954285970371982,0,1,13.45745903533612,-0.5919146156872458,3.7352164997257793,1.5218862144064056,0.2140416242837682,0.5120973908013032
650,10.516803362571418,1.5084682793466972,0,1,10.170599236230618,1.522660991702193,1.6486299123770576,1.2954361148063531,0.4019299653810353,0.6778720487320221
651,9.089464166074118,1.394267337155484,0,1,7.491592374041641,0.7185605158911833,0.5264202997965799,1.1253310605384776,0.534761373642468,0.8611248143230903
652,7.830813761449225,1.2639442689898737,0,1,6.069779670243461,1.0284435972209436,0.9461649265168312,0.9198946941568996,0.6580552890479207,0.8478166683049869
653,6.866012553161439,1.1294346724285884,0,1,6.363562796434168,0.08923723748734513,1.239661112155696,0.8466675312416471,0.582453546645314,0.6422965329913792
654,6.287745089725011,1.0023467984549224,0,1,4.934187330507989,0.6171909256639595,0.2969700612536467,0.7603797752478039,0.4355542651175463,0.40214683331842693
655,6.149576695029928,0.8928457979706759,0,1,4.859323266560486,-0.019455134892572803,0.35636960191538114,0.3097601247117734,-0.041487579685782615,0.19408392544214562
656,6.463501677000397,0.8087012595461758,0,1,6.213534412020435,1.801795420267842,0.474142147532384,-0.23886088126942823,-0.5062899809708455,-0.11254570104127418
657,7.201405951569668,0.75463084608124,0,1,7.139059643238774,2.72133991354932,0.7784197304819771,-0.48675364746179883,-0.669511422669817,-0.2657975502225105
658,8.299753670419872,0.7320237165106084,0,1,9.189506993851822,0.3692494707693327,3.48145293175814,-0.2836940001538296,-0.60315385887993,-0.34706069084267205
659,9.666529811506791,0.7390483076315559,0,1,11.434583854776273,-0.08973657428153364,3.573561228147674,0.04119427342116072,-0.7082344578597164,-0.4210145849131649
660,11.189432708812847,0.7710814605521277,0,1,11.94821930258143,-2.2084304190481148,2.4798329673039783,0.19613658102048,-0.7151790802409292,-0.44102211260297713
661,12.744565600903845,0.8213681093659033,0,1,9.303361634969352,-2.5362293480716214,-0.23430908035035292,0.45957738459386216,-0.7825268184852412,-0.3048559866723427
662,14.205324919207397,0.8818294608545777,0,1,5.603859464696916,-3.9307275452563153,4.247192732891835,0.43200133221836723,-0.20688876602178677,-0.0926085928840281
663,15.451522810840332,0.9439604691586808,0,1,0.7708121348209412,-0.5659322093774956,17.13431482297424,0.24890263433460139,0.07061194348965061,0.16605012030087846
664,16.378664974822975,0.9997651191630273,0,1,9.221799595187248,11.640152122675294,14.633887343284186,-0.5599675719793745,-0.9259051888385008,0.963038528032272
665,16.90673237840303,1.0426467911316644,0,1,21.747219492768583,6.046843722450663,2.3523577934315405,-1.4299154026098562,-0.8172725259638843,1.4439198311575703
666,16.987316517246928,1.0681174566659049,0,1,14.24557381661724,-4.949967787775902,2.633061554243061,-0.8791504109860412,0.1825452806403308,0.6886321212963569
667,16.60812288598768,1.074181251438501,0,1,8.69045759277613,-4.027373625552739,5.834038929287206,-0.5213023179186516,0.17889086169470098,-0.2693876521898424
668,15.79463596711318,1.0613320606641252,0,1,11.550387543326108,3.128142167482795,5.018908925234715,-0.5545171069499228,0.16940342864095612,-0.4590934834835465
669,14.609413550517564,1.032232195993782,0,1,14.322665397910741,4.544477798100687,4.694766818876505,-0.9968316963818903,0.040622263312457205,-0.10116216425107252
670,13.14942698456922,0.9912107347689432,0,1,16.242891732872483,-0.21203316451785323,2.6008072592264164,-0.957001636196712,0.1820709713757053,-0.2942946626489102
671,11.54121608953593,0.9436986961289773,0,1,13.454647048631243,-1.6098269907029814,1.9863173970427128,-0.5918425083359987,0.4728749894554674,-0.6262371870831875
672,9.933067010855263,0.8956525702513994,0,1,12.53618265481564,-1.648791246423759,0.7295470108842428,-0.28269366381640004,0.5501175664847818,-0.7404878217499932
673,8.483480230207059,0.8529684967691242,0,1,12.09865161609395,-1.2182321223295434,0.004005296378549464,0.2045344417675431,0.6999770586328857,-0.6517914052403073
674,7.345895091815125,0.8208770486919077,0,1,8.60802059350299,0.40745595514434335,-0.8951273558940133,0.5679094528123999,0.8075553283337655,-0.4442303331677905
675,6.650696012395891,0.8033260517534196,0,1,2.7741621357330257,3.4663952858565077,0.8392915732802891,0.5355163955768132,0.7579624880776675,-0.11092775788047195
676,6.48663810180856,0.8023979065475029,0,1,0.12938853823971674,4.0869767702917255,2.248172204017727,0.15965677219295082,0.40214583535893245,0.161343087053499
677,6.88469667265396,0.8178588449167361,0,1,0.03458487932006564,1.9459929210491687,2.824290686512212,-0.33053553040844896,-0.017138828025480776,0.15120397750068051
678,7.80768163724066,0.8469754076580859,0,1,-0.4911034221144759,0.5365479181025338,2.451734846015882,-0.5816829431609637,-0.280588549760938,0.04573740698354517
679,9.148613145927056,0.8847236205293854,0,1,1.0895414234452492,-0.8577977191280114,1.0968653900313188,-0.371028833430797,-0.6015405879637243,-0.17123034207369175
680,10.739826712660273,0.9244451299570751,0,1,-0.01833498026754641,-0.9231303213698631,1.4449136523937232,-0.32994236660755244,-0.5291465080482525,-0.24733699528490447
681,12.373085557942877,0.9588942880106652,0,1,1.7258485342769585,-2.396110785001829,9.982689771496556,-0.2547293972426793,-0.41692102379775664,-0.4158137095308853
682,13.828683580367038,0.9815055096238469,0,1,2.8162742221437886,-2.8241175732817205,14.261080474392632,0.24572242596146077,-1.3564532950912436,-0.9307022970897751
683,14.908968356671997,0.987616007493826,0,1,33.60487730836087,-1.7267907994728278,9.581085494478769,1.0022400829549933,-1.571828475522537,-1.5010747716949564
684,15.469740799055717,0.9753380454944528,0,1,33.38353173298944,5.103146326869458,1.709051057326306,0.9284115267856078,0.06420562335955439,-0.7248156606243081
685,15.442747300941251,0.9458378723893544,0,1,7.183246669094984,4.5190697969144225,3.655965620500932,0.2559249378414109,0.4424641127083519,0.2846953245579219
686,14.844631254175946,0.9029583490172248,0,1,10.381282759760616,1.5329093783630978,4.772798293688663,0.20856783427815087,0.3275497962649599,0.3450225109147425
687,13.771484515433974,0.8523385655971296,0,1,12.171704794215307,1.4613008991599097,4.3557000353674935,-0.011002075526035271,0.38601275731612283,0.15140964601370507
688,12.381585614841677,0.8003146645069343,0,1,12.576739293729105,2.127953575217066,1.2928129368682182,-0.3132166502214237,0.4704952704861843,0.1462807519521787
689,10.870589258707584,0.7528779341490823,0,1,9.758145171128639,2.188435297871425,-0.426375975686738,-0.5987855620059499,0.6318231118555994,0.13245117142846596
690,9.44352696468257,0.714863191643696,0,1,5.13634834943872,-0.8655414294591672,-0.5491489254951079,-0.6930951201281558,0.5596622693275733,0.01608237396945645
691,8.287485267766398,0.6894241913469834,0,1,2.7110988611082476,-5.256947564533263,0.049732203776068566,-0.6578762488271848,0.09668658839501376,-0.14905310673055863
692,7.548260224305276,0.6777806997291889,0,1,3.8286080112671415,-2.735920565508919,0.824498294601726,-0.5112630911711604,-0.28117275233151223,-0.21783242303052358
693,7.313558104441395,0.6792046014716275,0,1,3.9807174112906663,-2.692466330392967,2.7059046553412673,-0.25447376320232434,-0.39518743563248215,-0.15846411816838807
694,7.604320865732008,0.6912229833239943,0,1,5.27238084771995,-2.309588260748279,3.6920081046810886,0.10054956403595365,-0.5910232070018926,-0.24202787597832273
695,8.374641994565309,0.7100199809043151,0,1,7.40144176464662,0.467914629462281,3.5932970971611837,0.114709422412812,-0.6970962124340713,-0.2668442380386987
696,9.519729827486142,0.731002389179678,0,1,8.506833400929002,0.010286096459284765,1.5692250569337542,-0.0385637792488604,-0.8436278227973881,-0.18979208292858363
697,10.890606652573005,0.7494681010428215,0,1,7.8682553944698554,-1.4973704299150712,0.5417613206236995,0.06646060647621342,-0.7038864658482318,-0.022791430596893487
698,12.313686567649276,0.7613001320859057,0,1,5.656340697496489,-3.2587728587195897,9.040829558883749,0.13045693065487873,-0.07995386274711713,0.27517345857686576
699,13.61291679230988,0.7636052090550562,0,1,3.854328822229186,3.348149515179176,16.794995233506697,-0.23247831535589403,-0.17489761000476356,0.6799806084103608
700,14.631709312100991,0.755207574668975,0,1,17.654214247306157,10.023110069335127,8.031133489794756,-0.9518985116044868,-0.9820929582348508,1.2892065060144895
701,15.251623057623757,0.7368895368050375,0,1,20.94643354222046,-2.26487993041123,-0.35690097719410596,-0.6462417472215802,-0.40411028698663615,0.920078418880872
702,15.405105354191251,0.7112770398054622,0,1,11.0100667769483,-4.711721288828882,5.505019491414227,-0.06679204265071441,0.27422564293561064,-0.030913899114312558
703,15.080774657673668,0.6823478985147091,0,1,10.47327816217695,2.4703872591590024,5.955668838662556,-0.09742682549701334,0.2236642110087433,-0.20067184538481955
704,14.321322292427903,0.6546722006799323,0,1,12.677739860440232,3.811624265475332,6.101090770422039,-0.40159267720590147,0.16192021550160596,0.14281355434982693
705,13.21535648500039,0.6325904864219087,0,1,14.761000652593003,0.11343837712399846,3.599379551894639,-0.42650532412311026,0.22389263445504962,0.10462373025959407
706,11.884983298630967,0.6195340611263999,0,1,11.159499811648459,-1.0548937996117775,1.5208555262250203,-0.12215047353414689,0.4824054850355119,-0.20577108138730418
707,10.470864867455777,0.6176153873455322,0,1,9.132696372824574,-1.2511197910586493,0.812927572456953,0.05832456834114151,0.49953436530196377,-0.13374944274246842
708,9.11638566621078,0.6275244157804626,0,1,7.88477556579949,-0.8907301785665854,1.0437534532656823,0.25590126262314944,0.5085323711368975,0.15482048074887475
709,7.952534417256654,0.6486937347816912,0,1,6.840184999849962,-0.3324685639537834,0.900517354820006,0.39982687900074626,0.43972169492671753,0.39764796231423116
710,7.085011774263998,0.6796459514544076,0,1,5.753955550342145,0.1481751811075351,0.9515021388178025,0.540012190622444,0.4171695077941247,0.5073293932345656
711,6.58478391924854,0.7184088265171727,0,1,5.245152919578431,0.9552490582847383,1.0585455569613125,0.6300740367364281,0.3166293328712276,0.5606064560327946
712,6.482864166572607,0.7628809760499119,0,1,5.262307963257931,1.1151822976477606,0.9750259932604863,0.6772191338306951,0.10814948470521837,0.6131070764823993
713,6.769607721016578,0.8110573308849588,0,1,5.717635486757064,0.824311457457412,1.3005638862396915,0.5960062796784222,-0.14850762905359197,0.6554791708525115
714,7.398301009057182,0.8610745586873245,0,1,7.061591635845422,0.22493083162811245,1.8681554358188353,0.5249596392447728,-0.3725192218521739,0.6134882163213863
715,8.292352548232527,0.9110983645753327,0,1,8.654434019711552,0.11369202771272006,2.4129702618909667,0.4165174753345175,-0.47152125994978533,0.5777466816388643
716,9.355001022986572,0.9591299276731946,0,1,10.43180403344405,0.724812489072003,2.156984780430498,0.2539470120476585,-0.5274706280513592,0.5766049544300066
717,10.480222912565672,1.0028438573788223,0,1,11.700573856498947,1.9416061719046016,1.8754811489155105,0.03317794711576388,-0.44952591658669594,0.5516172786265898
718,11.56351520967775,1.0395755772786592,0,1,11.834091197514663,3.3308690013548947,1.2605105112784971,-0.3724660880298964,-0.34214867849086467,0.4352091203632102
719,12.511461140568821,1.066545255040775,0,1,10.314336135313944,4.189240407636265,2.647951249200084,-0.8171108397840394,-0.008067154708962377,0.2075859894043381
720,13.249370093946757,1.0813361301871722,0,1,7.8038698896002305,1.0031943458309214,8.470135203194825,-1.1826868045057801,0.29217552497277127,-0.12190514057313952
721,13.726633808942942,1.0825485769804428,0,1,7.433446842261105,-1.8517490921885826,11.610800366493855,-1.1259418001983037,0.24848713502393463,-0.6341944501083042
722,13.919585099780525,1.070458411107553,0,1,10.766933868477217,-3.925602960170689,14.066003624473906,-0.600490374487985,0.06444335587874693,-1.239765303106458
723,13.83159910320914,1.0474589854140988,0,1,17.716553647869674,-3.7045883232725205,6.651593748606181,0.324857254325916,0.07674597780948009,-1.8650292810964786
724,13.49022747027816,1.0180902029020558,0,1,12.247223845168099,0.6338435035734561,1.1013038496144858,0.6606104496138483,0.23990032474112033,-1.175460333115159
725,12.941628396925864,0.9885596060223528,0,1,5.921571905233989,-0.3927085805108473,2.2644308047564756,0.44147537523541225,0.2681902845657013,-0.16602083206266627
726,12.24337332011831,0.9658180300208502,0,1,6.716947124349124,-1.9197608835359843,4.221117097205164,0.3464412863420583,0.13157780342057232,0.2692669185117502
727,11.457285038377277,0.9564046443550525,0,1,12.016770552102932,-2.442617301773475,4.694711417076405,0.6190459465538546,0.09741807867387284,0.20643721066219103
728,10.643739068831218,0.9653482082642068,0,1,11.804129594037201,-0.7721661884239136,3.9592967655815094,0.8589224168624221,0.23051977312184305,0.10921780574074968
729,9.85796991863976,0.9953719373592665,0,1,9.433595232249827,-0.0018759093441402673,2.865712059051199,0.8482535846773546,0.1610481052410099,0.30478058339084135
730,9.148056456066213,1.0465392047320368,0,1,8.853637998747736,-0.528703961501859,2.770850580349286,0.8831710922003372,0.18899982239614194,0.41768700533237313
731,8.553917005463068,1.1163639452663439,0,1,8.15655688347232,-1.4123871202123734,3.0529447929819202,0.9532679386055746,0.19664565141194112,0.3180948359291694
732,8.106750621728157,1.2003296394897103,0,1,7.643129692927956,-2.2727780107725066,3.026387242990295,1.0952492577883683,0.17087020560451038,0.1920100605407037
733,7.828587877029925,1.2927111436446765,0,1,7.224051156024932,-2.010107562298268,2.8448998612718177,1.3279628986665557,0.14508606023585377,0.1990937014304108
734,7.73178884454497,1.3875594328965029,0,1,7.408360067830279,-1.8241099358912451,2.4865025722762044,1.5597899723946282,0.04739201831578156,0.31958199514048047
735,7.818457593894473,1.4796863321262,0,1,7.987899253974907,-1.192657559557461,1.853903458663156,1.7038046769142505,-0.009843818554449057,0.41342903181575225
736,8.079870084617982,1.5654842444615844,0,1,7.564337618032017,0.3358650496496069,1.2710402382399963,1.7450412909032191,-0.032872155066448076,0.4430935437299642
737,8.496136793676316,1.6434473012209554,0,1,7.1468667394960335,0.9971169238725772,1.8782259579894482,1.6852679719777977,-0.09769321676031355,0.4956537741666811
738,9.036411405970057,1.7143260497884205,0,1,7.86599182349641,0.5692169937009437,2.871920358019673,1.5372141024004444,-0.23616080632122186,0.4766576653333307
739,9.659960335706451,1.7809303911712184,0,1,9.438069853275273,0.4443116361674568,3.9235047262515406,1.542446979868148,-0.1762979515048202,0.3461844854272569
740,10.318296774588045,1.8476661115012372,0,1,9.61279909838845,0.719536855920977,3.969723961486285,1.6744780920244966,-0.023674225288120243,0.23095041738780264
741,10.958407802896074,1.9199237795244437,0,1,9.425081819212181,0.4168783854381588,3.0125976094852147,1.8070882565410364,-0.04456504128040727,0.2937949187169908
742,11.526954077047892,2.003427465059011,0,1,10.304185362369891,-0.9353298865931687,1.7312882690115214,1.9133122190623184,-0.06189612276177378,0.5120452281062996
743,11.975214833337649,2.1036083193715553,0,1,10.176292044653755,-2.5233543560234093,2.799051441690078,2.0708083610876717,0.13830081054450633,0.7347418042288733
744,12.264402794190287,2.225019862347203,0,1,10.916848699624234,-1.856723482071106,4.982278476761087,2.268154386718517,0.2992872815389003,0.9498579261050201
745,12.370717108830629,2.370781821787998,0,1,12.380822152017108,0.30109737958692256,7.832597302993496,2.3299574109887757,0.5515909862281432,1.105671470669416
746,12.289205922285202,2.5420431231593352,0,1,14.041766301615926,2.761767923198865,7.042326323835501,2.090237068227791,0.5362614577442559,1.2584031037476666
747,12.035377925069197,2.737494379170036,0,1,14.49785118009119,1.2060138257952988,3.773750759259668,2.029975502483456,0.5467519882611265,1.2835185318297062
