id,ASVM,GSVM,walking_nonwalking,normal_abnormal,ax,ay,az,gx,gy,gz
1,1.0322684113177498,0.16545164222454312,1,,-0.9878998434735614,0.1782153844585052,-0.2425467004532639,-0.09350586,0.09602356,-0.09741211
2,1.0326703558701202,0.15885161528805777,1,,-0.9878337356363459,0.17750272415013033,-0.24525640885144462,-0.09350586,0.09602356,-0.09741211
3,1.033095031850407,0.15211780471301656,1,,-0.9877676277989238,0.1767900638395287,-0.24796611725809203,-0.09350586,0.09602356,-0.09741211
4,1.0335483745754237,0.14486180425151465,1,,-0.9852538621821437,0.17733538455773523,-0.2587203948123067,-0.08657257701311401,0.09510789876124329,-0.10068567254955933
5,1.0340396865834551,0.13680399271620752,1,,-0.9801162867520681,0.17922922016639817,-0.27809818978450546,-0.07220703936578081,0.0932106783503004,-0.10746838805901472
6,1.0345783474713715,0.12782488639984535,1,,-0.9749787113219924,0.1811230557750611,-0.29747598475670417,-0.057841501718447604,0.09131345793935752,-0.11425110356847011
7,1.0351691429189893,0.11798361346919341,1,,-0.9791388689043735,0.1861628801134311,-0.2820569380757161,-0.0449854887112852,0.06220383230528972,-0.09780586008038941
8,1.0358066933149834,0.10750317452927691,1,,-0.983633594226232,0.19131590906060103,-0.2653857688997298,-0.0321837941764994,0.03211500105417638,-0.08052478644511972
9,1.0364697068447117,0.096730461592832,1,,-0.9862843029994065,0.1910046167851893,-0.2568022824584938,-0.014522430014080531,0.009750058439918765,-0.06476134024395808
10,1.0371160511589002,0.08608537420851839,1,,-0.9866619926293841,0.18395775220733784,-0.2581880436961025,0.009129185289585536,-0.0030940657851908204,-0.05086859099189602
11,1.0376799042711289,0.07601498731754626,1,,-0.9870396822581817,0.176910887651505,-0.25957380492938126,0.03278080051935009,-0.01593818997016783,-0.036975841783243056
12,1.0380724235659606,0.0669643584102833,1,,-0.9841400901954206,0.1760308279595085,-0.26447778343000644,0.053189223305826164,-0.01842101868881271,-0.025091053250167267
13,1.0381873158785682,0.059366615725298284,1,,-0.9809958361878567,0.17561114446132284,-0.26964441066207423,0.07335552904371635,-0.02013033602270271,-0.013356166864727927
14,1.0379122248324166,0.05364493172077553,1,,-0.9802459780303571,0.17710421115826333,-0.27243197406999076,0.08547782158910992,-0.019520613444480764,-0.003830128322127668
15,1.0371458378775056,0.05021190136218292,1,,-0.9828969752157558,0.1813140327654945,-0.2718404588037485,0.08617488324914052,-0.015617066559347583,0.0025585960007972436
16,1.0358190855448515,0.04945071875852785,1,,-0.9855479724011545,0.1855238543727257,-0.2712489435375063,0.08687194490917112,-0.011713519674214403,0.008947320323722155
17,1.0339170849984318,0.05166824137786216,1,,-0.9840341341875234,0.19179394089597837,-0.27266952670583394,0.05737389700308294,0.0013120889532112208,0.016812949797430185
18,1.0314971554403642,0.05702096477626065,1,,-0.9820358303728685,0.19830368332516032,-0.2743241629336504,0.024363467398008102,0.015398801936532187,0.02485037708942156
19,1.0286978803818156,0.06542751315486858,1,,-0.9814224899395031,0.19506402425744593,-0.2746689274437403,0.0021087884353963,0.020149642621936487,0.03178218039452754
20,1.0257350858285883,0.07649099711250981,1,,-0.9830839354365818,0.17581108884249794,-0.27286224319032804,-0.0024796976419880386,0.009566423765674122,0.03689800941200551
21,1.0228826773499051,0.08945788766141008,1,,-0.9847453809388518,0.15655815336739243,-0.2710555589312707,-0.007068183733709498,-0.0010167951236564248,0.04201383844546832
22,1.020439278370711,0.10323566626222691,1,,-0.9736714000460623,0.15346491033028048,-0.2629767064795003,0.02332804279374619,-0.01689756519690068,0.048564963825722174
23,1.0186851302852493,0.1164804847960881,1,,-0.9605425131982671,0.15297909063980203,-0.2538858175723305,0.05936917606127307,-0.033633113838955474,0.055347679335177556
24,1.0178369825342752,0.1277506002137713,1,,-0.9538015922250807,0.1551574350175051,-0.2495590262078585,0.10030812328040027,-0.05078740330736992,0.062263725377165846
25,1.0180104799840304,0.13570431508877417,1,,-0.9592587294839934,0.16242309964576676,-0.2543294561418814,0.15059962783729597,-0.06874129378532044,0.06943437096180463
26,1.019198674649961,0.1393065166766412,1,,-0.9647158667429062,0.1696887642740284,-0.25909988607590423,0.20089113239419165,-0.08669518426327096,0.07660501654644343
27,1.0212716343289356,0.13800055667361347,1,,-0.9673725712956032,0.18239593874288976,-0.26821065176373815,0.18694573232592626,-0.06581141720470762,0.04960613632608478
28,1.0239970008533288,0.1318063093844101,1,,-0.9694407096212297,0.196246754001869,-0.27823362475043684,0.15949967817472063,-0.03676514939441666,0.01542585540322659
29,1.0270766641780174,0.12132136673620547,1,,-0.9725769251094663,0.20931975843295467,-0.28103610969378173,0.12742604968601712,-0.016346655645116982,-0.010222161706100096
30,1.030191788701123,0.10762572395250011,1,,-0.9781020334308662,0.2206530883697905,-0.2676890386280981,0.08500225203842357,-0.015225295099731547,-0.0167866666780225
31,1.0330476062963898,0.09211286823716751,1,,-0.9836271417695298,0.23198641834203826,-0.25434196752071037,0.04257845425827321,-0.014103934550842327,-0.023351171670456274
32,1.0354103918788125,0.0762849481599599,1,,-0.9845892479499783,0.2273139592295986,-0.25262652931044194,0.014007029221237902,-0.007886897249594281,-0.011197940927589621
33,1.0371313343576392,0.06155360886974086,1,,-0.9843500526198571,0.2184276562554194,-0.25397335092122353,-0.01091748187011024,-0.0003283211992726659,0.00588310783815651
34,1.0381549879058292,0.049081525572240846,1,,-0.9841852605609247,0.2095755912272627,-0.255772735038949,-0.029116664291285198,0.006734914365984526,0.020427613878271626
35,1.0385129628673078,0.039685427393643107,1,,-0.9842173828128095,0.2008141396815077,-0.2587698626615452,-0.02951671720950596,0.012487191054159448,0.028258953244151296
36,1.0383058843504374,0.033804176634324945,1,,-0.9842495050645937,0.19205268816312857,-0.2617669902747767,-0.029916770126476724,0.018239467724360886,0.036090292585561276
37,1.037678060822971,0.03152072204611285,1,,-0.9820198023683172,0.1883131839755822,-0.2654110994630191,-0.021577345024386158,0.02620299302550955,0.04213703477596045
38,1.0367897567615607,0.03261841029457555,1,,-0.9790635020063446,0.1861869501472407,-0.26926304760175185,-0.010430415154277565,0.034876868672635446,0.04761048588559887
39,1.0357916447922788,0.036651120781650406,1,,-0.9776696453932956,0.18380284786721585,-0.2705533330556171,0.0005960252801913551,0.03687882238352467,0.04772723768989836
40,1.0348051134167178,0.04301147244310808,1,,-0.9812372407040088,0.18059989884977123,-0.2637092032513038,0.011239858421829164,0.017694464580945476,0.030834093192926484
41,1.0339107648757027,0.05098934605439783,1,,-0.9848048360147218,0.17739694983232662,-0.25686507344699055,0.021883691563466975,-0.0014898932216337152,0.013940948695954612
42,1.0331458459982479,0.05982102982648889,1,,-0.9834229700387003,0.1796380279637749,-0.2597641344553735,0.037359860433013065,-0.015482991107347122,0.015991961706595274
43,1.0325098176392715,0.06873420575389576,1,,-0.9801365760796722,0.18397394054875393,-0.2664123266252533,0.05469548789438737,-0.027478518038027058,0.025332591923409867
44,1.0319760826240552,0.07699402363564606,1,,-0.9777085290412489,0.18812785731013085,-0.27158696491131523,0.06709384666066844,-0.0384600307576129,0.03404520355008288
45,1.0315071735948096,0.08395184579729759,1,,-0.9786140686892705,0.19157495165480787,-0.2710387194912237,0.06031719262213482,-0.04550338727128096,0.04031876129064374
46,1.031070383382891,0.08909403097915877,1,,-0.9795196083344623,0.1950220459887142,-0.27049047407284527,0.05354053860477545,-0.052546743762941446,0.04659231901160233
47,1.0306508272753079,0.09208575895367056,1,,-0.9798532226209687,0.19908181327477742,-0.2672901712270979,0.04884300748900772,-0.056790158441958255,0.05352419554300053
48,1.03025930608629,0.09280454472127447,1,,-0.9799267432855191,0.20342020490365206,-0.26288379627518477,0.045090995920072686,-0.05976024785875889,0.06075545471447345
49,1.029933194497168,0.09135862751425791,1,,-0.9789675260791585,0.20858073433952953,-0.2589028358509082,0.04182852250627716,-0.060716531572411095,0.06737968669300216
50,1.0297299101894648,0.08808610443990236,1,,-0.9729671055295943,0.21775444455876786,-0.25699849262294716,0.04095567914708974,-0.05184263050939316,0.07104077793940626
51,1.029714129179994,0.0835317008934437,1,,-0.9669666849800302,0.22692815477800618,-0.2550941493949861,0.04008283578790232,-0.04296872944637522,0.07470186918581036
52,1.0299414126267996,0.07839995804983327,1,,-0.9659099699264702,0.22903745746452234,-0.25723877697287306,0.029944939885000715,-0.03064515823070594,0.07390845495559771
53,1.0304418192947087,0.07348655078731514,1,,-0.9674842438146715,0.22738715551279784,-0.2615382249285253,0.014876278886920665,-0.016485708295609858,0.0707443989834459
54,1.0312070646592262,0.06959303873934522,1,,-0.9693939332820221,0.22454303759587999,-0.26472773191322696,0.0007802216799791992,-0.004253424386474519,0.06729823889504966
55,1.0321839233043277,0.06743379599716243,1,,-0.9734473725875654,0.214068854347151,-0.2608232458791351,-0.00709960900233823,-0.004338284084097394,0.062049059832142504
56,1.0332752884664937,0.06754629870287476,1,,-0.9775008119057743,0.20359467106569448,-0.2569187598328432,-0.014979439709276872,-0.004423143781985422,0.05679988075283384
57,1.0343490426133548,0.07021683180778454,1,,-0.9800181284144309,0.19963019676754173,-0.2546692014390981,-0.006150565983262423,-0.004631605209336228,0.055532175163733245
58,1.0352538197439785,0.07543287210713041,1,,-0.9815856375913486,0.19969077131397076,-0.25344290916020057,0.013009545572864385,-0.004916491405168531,0.05672627321703043
59,1.0358397833794688,0.08287094139065947,1,,-0.9832169118035115,0.20068852153850386,-0.25259787627921737,0.03095485580971502,-0.00560610824340055,0.05900107522128322
60,1.0359816235783705,0.09192463550401986,1,,-0.9854185215219561,0.21006868084219554,-0.2551629535298625,0.03803458085671115,-0.009915769736220739,0.07094205059012915
61,1.035600166358275,0.10177206268073288,1,,-0.9876201312404006,0.21944884014588723,-0.25772803078050766,0.04511430590370728,-0.014225431229040927,0.08288302595897507
62,1.0346785737971123,0.11147575733900034,1,,-0.9842128983512209,0.22646866290006984,-0.26028085450095567,0.041893128454987605,-0.020033919720802335,0.10150862779329475
63,1.0332695103953164,0.12010232257288324,1,,-0.9767970329492294,0.23180155622026813,-0.2628249206473173,0.03130990940676087,-0.02691361793356884,0.12491172350920943
64,1.031491126971443,0.12684469470332985,1,,-0.9695843171749653,0.2365082448940627,-0.26517548244111744,0.02065726483778993,-0.032985745226310315,0.14708750303737095
65,1.0295120393962782,0.1311280062047088,1,,-0.9652546184026264,0.2323280907990721,-0.2647799088600339,0.009019360895821225,-0.02759715303691613,0.15184570878806933
66,1.027527927722685,0.13268137478516753,1,,-0.960924919616759,0.22814793669102026,-0.2643843352777144,-0.0026185430825111126,-0.022208560830684825,0.15660391455363518
67,1.0257341355377967,0.13156290491280095,1,,-0.9590014079854476,0.22915580564430288,-0.2620391804797071,-0.01231165364808358,-0.019442946862836423,0.14907833921821426
68,1.024299230009504,0.12813315689001697,1,,-0.9590588877777323,0.23443492556922063,-0.2580889536553065,-0.020403633971698656,-0.01883680639252471,0.1314396415216841
69,1.0233438717347125,0.12298178846400404,1,,-0.9591356623245387,0.23967835838469023,-0.25417643195505185,-0.02851257576285183,-0.018055962663299285,0.11361455599751825
70,1.0229278872114345,0.1168210158215757,1,,-0.9598137132379018,0.24380968504958728,-0.25143890316682266,-0.037150082457287986,-0.01183089622407335,0.08998112517019705
71,1.0230466653414345,0.11036601548496476,1,,-0.9604917641491462,0.24794101170157562,-0.2487013743871471,-0.04578758912473551,-0.005605829804298174,0.06634769441672055
72,1.0236363957132646,0.10422484183615799,1,,-0.9615330568087952,0.24843726348523876,-0.24891781852663253,-0.056891302443490596,0.0018118589889978534,0.04577833798143947
73,1.0245864970791525,0.09881807312283337,1,,-0.9629181820825268,0.24549267377020162,-0.25193039561564595,-0.07032944534829728,0.01035844465232721,0.028109332769220893
74,1.0257568926901661,0.09434151765826145,1,,-0.9643033073519304,0.24254808406436512,-0.2549429726952463,-0.08376758821111532,0.01890503028895202,0.010440327612210653
75,1.0269974963405304,0.09077547973648001,1,,-0.9663535608985772,0.24265929465561753,-0.25589248571932377,-0.09248901121133285,0.016315086821686097,0.006492685953179308
76,1.02816727956901,0.0879338730379833,1,,-0.9684062457006474,0.24278167516897267,-0.2568344575880401,-0.1011931931001152,0.013684435798136505,0.00259520024234978
77,1.029150539117226,0.08553856873505539,1,,-0.9694884410220227,0.24327709416668494,-0.2563994533178245,-0.10451744859639103,0.01109443166164239,0.0012265413148789257
78,1.029868474755839,0.08330056476697359,1,,-0.969515013780647,0.24417827524932995,-0.2544666820990061,-0.10198984090207469,0.00854864004681352,0.0026085423932266146
79,1.0302849277484933,0.08099027597579736,1,,-0.969541586539271,0.24507945633197498,-0.2525339108801877,-0.09946223320775835,0.00600284843198465,0.003990543471574304
80,1.0304060494026954,0.07848370533671842,1,,-0.9687069139679415,0.24202687082674065,-0.2540324446994039,-0.0881273151332018,-0.0011418635522675333,0.004031921437137869
81,1.0302745978203318,0.07577800296291765,1,,-0.967837871357879,0.2388165008805106,-0.2556679128950081,-0.07644092044618632,-0.008470106358932455,0.004019798651566062
82,1.029960298808059,0.07297723953744611,1,,-0.9674109275451985,0.23760845319984858,-0.25557043550506275,-0.06556237244832473,-0.01378142399790564,-0.0002146719596010318
83,1.029548109341837,0.07025547363842324,1,,-0.967537026624397,0.23890520784568017,-0.2533051321816931,-0.05569439917224439,-0.016569671829749406,-0.009731082865137165
84,1.0291262450215921,0.06780810731682452,1,,-0.9676631257039895,0.24020196249556364,-0.2510398288512453,-0.04582642586533071,-0.01935791967030529,-0.019247493800408147
85,1.0287755395982665,0.065803486870693,1,,-0.9684388793233836,0.23916070420303118,-0.2481070893087669,-0.04206550179366354,-0.015421110385492761,-0.030359490628008683
86,1.0285612318925061,0.06434486856256381,1,,-0.9692658754046289,0.23793503168510755,-0.24512170474823688,-0.038786280252370575,-0.010953852282998628,-0.041597341653006624
87,1.0285277628146812,0.06344903379989007,1,,-0.9701743881634664,0.23727609911857991,-0.24304730966381122,-0.03569571237993015,-0.006300422695212039,-0.050774893895363694
88,1.0286966952166952,0.06304321704301526,1,,-0.9712004368869159,0.23743432855101332,-0.2422864376226827,-0.03287715748484675,-0.001378559160536034,-0.05698177520326609
89,1.0290674704296694,0.06297788457507313,1,,-0.9722264856103654,0.23759255798344672,-0.24152556558155416,-0.030058602589763356,0.003543304374139971,-0.06318865651116849
90,1.02962040821094,0.06305022676801038,1,,-0.97298286662133,0.23580312302340437,-0.2431160138537497,-0.023557387984911617,0.004587830379719965,-0.06434472472551944
91,1.030321178407685,0.06303237343282425,1,,-0.973706650223694,0.23377825454577678,-0.2449906895375087,-0.016611013756121045,0.005163664146107694,-0.06489025107105643
92,1.0311259508231796,0.06269910455986609,1,,-0.9744204746394449,0.23201214572375206,-0.24620422263679526,-0.008272056452362796,0.005126125234273314,-0.06382283502387998
93,1.0319865468477403,0.06185158572789304,1,,-0.9751176854814507,0.23067769097737112,-0.2463148600974489,0.002389960768322611,0.004065378815367143,-0.0600647631545703
94,1.032855106472274,0.06033562483916174,1,,-0.9758148963256352,0.2293432362268205,-0.2464254975584483,0.013051978022322412,0.003004632393146579,-0.0563066912735182
95,1.033687961933613,0.05805445875771153,1,,-0.9763939147777874,0.23200948447175712,-0.24809370441035514,0.016619835217118486,0.0029209570061111386,-0.05315668910552087
96,1.034448509089795,0.05497678239915544,1,,-0.9769532794371681,0.23534099540939457,-0.25002091394492615,0.019008029734751034,0.002999755291086088,-0.05010780068871246
97,1.0351088885772015,0.05114064287232492,1,,-0.9769976904510809,0.23823637295233266,-0.2515023202405029,0.019681294287292976,0.0026931065412427358,-0.04749795087505448
98,1.0356503142068298,0.046653242255008866,1,,-0.9760427319540061,0.24028534729641238,-0.252118557085296,0.017026397684304313,0.0016384214999098003,-0.04574014239338483
99,1.036062028202141,0.04168605343222984,1,,-0.9750877734599153,0.24233432163408988,-0.2527347939281636,0.014371501089611103,0.0005837364618723193,-0.04398233391720761
100,1.0363391526685681,0.03646434208425011,1,,-0.9749555720736303,0.23988716448413822,-0.2526711706002529,0.011686684344649813,0.0008904068588027962,-0.0388834701541336
101,1.0364800402135834,0.03125045589548521,1,,-0.9750006971538314,0.23647096907229548,-0.2524610189700165,0.008995418987591638,0.001490486267913178,-0.033064518363587654
102,1.0364839277063214,0.026321142854837422,1,,-0.9756661381303282,0.23367678518343016,-0.25213480608285355,0.00652253361559551,0.0016797152625701664,-0.027006829098168518
103,1.0363496274917996,0.021940508815212218,1,,-0.9777429450016766,0.23229782511796299,-0.25154452628783375,0.004546514522437215,0.0009341620542725937,-0.020405955372290237
104,1.0360756294018394,0.018331645556318613,1,,-0.979819751873025,0.23091886505249584,-0.25095424649281406,0.00257049542927892,0.00018860884597502093,-0.013805081646411956
105,1.0356614663392816,0.015651023863698484,1,,-0.9795310297093043,0.23082370870636332,-0.2502651042772305,0.0023520860556670584,-0.0024721659474504125,-0.0073427151257517064
106,1.035109760279367,0.013970073490044392,1,,-0.9786057225061767,0.23107403543463398,-0.24954935730194774,0.0026066651933155174,-0.005648344004754861,-0.0009176221596167405
107,1.0344282267639229,0.01326770390765682,1,,-0.9774911011278974,0.23071925936963159,-0.24929354119553504,0.0014950066166632865,-0.00687275389523713,0.004830092355018461
108,1.0336311028857812,0.013435826442776709,1,,-0.975866152660871,0.22873333051462275,-0.2502775433932419,-0.0032995674660075574,-0.002835855919235937,0.008751823331453025
109,1.0327398148024796,0.014297530088109375,1,,-0.9742412041989217,0.22674740166581916,-0.2512615455878741,-0.00809414153369734,0.0012010420441516201,0.012673554295633804
110,1.0317829966526078,0.01563502968926768,1,,-0.9742666510455356,0.22518234009658228,-0.2513013942525125,-0.013222002732912724,0.0030464629602951904,0.014129873925756209
111,1.0307960655204322,0.01722248326823425,1,,-0.9748328209234531,0.22375516829836148,-0.25103190759845156,-0.018459059606108753,0.004173884918328549,0.014778444840740037
112,1.0298204314944739,0.01885775135913293,1,,-0.9750827989075145,0.22297088180166713,-0.25007346826683774,-0.021793312551336208,0.0039031534706214345,0.015660041174494484
113,1.0289021996726757,0.020387401677749512,1,,-0.974308340733664,0.22426949167969512,-0.24688287801234315,-0.018962634672060774,-0.0008974818905441379,0.01729662100047273
114,1.0280900886413313,0.021720718725613587,1,,-0.9735338825598138,0.2255681015577231,-0.24369228775784854,-0.016131956792785344,-0.00569811725170971,0.01893320082645098
115,1.0274323649232013,0.02283080541544747,1,,-0.9724569764656406,0.2265074410320182,-0.24311339580062505,-0.015500574546462052,-0.004467021440658945,0.01804821269521199
116,1.0269728440781156,0.023743466839366213,1,,-0.9712615669165795,0.22730601317369606,-0.24355780492616147,-0.015730908068187065,-0.0008726063225016805,0.01617523785541271
117,1.026746307148968,0.024516835888394362,1,,-0.9704351179417534,0.22763854661844607,-0.24409358126528394,-0.016122158569629223,0.0030436428110148673,0.013470858496840583
118,1.026773905700329,0.025216217673436177,1,,-0.9710742413826767,0.2261198972903332,-0.24499228328613648,-0.017152597925295762,0.008238269875123504,0.007464002900611512
119,1.0270592280117596,0.025889210834419717,1,,-0.9717133648255969,0.2246012479574752,-0.24589098530979703,-0.018183037284182,0.013432896955463203,0.001457147285613501
120,1.0275856887073076,0.02654582002743789,1,,-0.9713157778899597,0.22411760010461945,-0.24735262213145418,-0.017016889581117398,0.012058484943592056,-0.00595469509421794
121,1.0283158349773445,0.027147180758548467,1,,-0.9704386945901378,0.2241126582197296,-0.24907462597206056,-0.014834782616825793,0.007645779475481168,-0.014016368005021785
122,1.0291930605265658,0.027604941929977624,1,,-0.9701792827263251,0.22391704663105175,-0.2504216696566891,-0.012515515355585444,0.003990481235694052,-0.02147594766778794
123,1.0301460322402078,0.027791536419402265,1,,-0.9730144866456317,0.22276615455325283,-0.2498901132266273,-0.009509056867036562,0.004129893686872308,-0.02591896019913846
124,1.031095771970969,0.027559736988059542,1,,-0.9758496905649383,0.22161526247545393,-0.2493585567965655,-0.006502598378487683,0.0042693061380505645,-0.030361972730488983
125,1.0319647879307339,0.02676835556835348,1,,-0.9771564879214149,0.22394357650746485,-0.24832234871018688,-0.0016432413095421189,0.003736010120265093,-0.029765572712829137
126,1.0326870666123589,0.025310074573218228,1,,-0.9776367419168047,0.22815340217857533,-0.24701323124658944,0.004218140409395928,0.002838921681153717,-0.02644392071648526
127,1.0332173398452034,0.023137396664866496,1,,-0.9780035608490439,0.2320341552344572,-0.24614084170750347,0.009722818415484917,0.0018987415174613427,-0.02267858356999559
128,1.0335379701015999,0.020283397148617155,1,,-0.9776221850602055,0.2337444119716368,-0.24814902119048754,0.012874751006204253,0.0006743370365092561,-0.015986788853018647
129,1.0336620470052829,0.016874943752123672,1,,-0.9772408092701754,0.2354546687141602,-0.2501572006797463,0.016026683606772073,-0.0005500674482685878,-0.00929499411513261
130,1.0336317846572207,0.013136947515971121,1,,-0.9770671317887685,0.23451473034385764,-0.2505942433568356,0.013634427360338437,-0.0007170175571734307,-0.0032175654406231074
131,1.0335119815752682,0.009386896002670307,1,,-0.9770238700414962,0.2319107093682758,-0.2500447543548715,0.007760922439706367,-0.0002199820517994517,0.00247409697778776
132,1.0333790897338064,0.006019434270806418,1,,-0.9768633737860232,0.22934904074769485,-0.2496855219405084,0.002362084155126956,0.00022006995974636478,0.007652320514175755
133,1.0333072515294723,0.003481158115106858,1,,-0.9756104844407626,0.22718201206453242,-0.2510991035596989,0.0013861974307944184,0.00012914883330185402,0.008046312059453697
134,1.0333533844006932,0.002236147133697348,1,,-0.9743575950994166,0.22501498338814105,-0.25251268517447245,0.00041031070951112335,3.822770714143418e-05,0.00844030360350058
135,1.0335438845269402,0.0027233090872601884,1,,-0.9735069907406309,0.22261654694272012,-0.2528903031407049,5.971920392405736e-05,0.0023747166147786774,0.006737097112492066
136,1.0338656488210929,0.005307628141941891,1,,-0.9729482336883022,0.2200502301621085,-0.25251635638093417,0.000162763139812681,0.006472228479104253,0.0035124278975762454
137,1.0342637618803936,0.010228991437828665,1,,-0.972607406794073,0.21777417727459492,-0.25214567663512444,2.796923171965479e-05,0.010498878984022759,0.000533888823633941
138,1.0346472836456557,0.01755410606557116,1,,-0.9755532562754838,0.21987568951966738,-0.25182426778391714,-0.0036937354328719233,0.013456846211112275,0.001267319217758394
139,1.0349031163136972,0.027138577602196776,1,,-0.9784991057568946,0.22197720176473987,-0.2515028589327098,-0.0074154400974635005,0.01641481343820179,0.002000749611882847
140,1.034916118891413,0.038606981225241796,1,,-0.9814704469903898,0.22237592816652088,-0.25359198653894166,-0.012229426812451942,0.015833146611753196,0.009881853417436522
141,1.0345918999329298,0.05135825310620536,1,,-0.9844630860274693,0.2213520129470871,-0.2576950664465773,-0.017955992090160317,0.012294190273827398,0.02373468739487382
142,1.0338776123792601,0.06460150927993796,1,,-0.9871937504535935,0.2203859804160263,-0.2616181426552105,-0.023507930588160714,0.008556496536129193,0.037987967267950305
143,1.032776082838422,0.07742317461898529,1,,-0.9804132818484029,0.22152141087528038,-0.2590060850923089,-0.022719947341170766,-0.0023964683327604877,0.06677965668909598
144,1.031349930018741,0.08888035496919493,1,,-0.9736328132220259,0.22265684133808217,-0.2563940275212456,-0.021931964091718697,-0.013349433235873653,0.09557134620020377
145,1.0297146847675975,0.0981089012777478,1,,-0.9705921793951141,0.2206822073745026,-0.25360122988415307,-0.010848869308458563,-0.025976048601042273,0.11214415217933475
146,1.028022522626367,0.10442955738759105,1,,-0.9711527997793439,0.21571275324809067,-0.25063438954413614,0.010147848929372328,-0.04021429690056139,0.11695084867507995
147,1.0264401248233774,0.10743385833442308,1,,-0.9717134201653254,0.2107432991061513,-0.24766754919484898,0.03114456723280928,-0.05445254524456915,0.12175754518584406
148,1.0251249204844763,0.10703390630878208,1,,-0.968266200371305,0.2197723877787225,-0.24242761020851392,0.04559875971047297,-0.056459636382819374,0.10191551402936436
149,1.0242037048017612,0.10346631110191033,1,,-0.964786951379812,0.22891334770156768,-0.23716950544655407,0.06000066670762273,-0.05836898057243521,0.08187649922825008
150,1.0237568045188492,0.09724906604372713,1,,-0.9629962957610415,0.23819719821659763,-0.235604565813436,0.0623952689533636,-0.054710595158434225,0.05820623076700061
151,1.0238098299412997,0.08909915224826753,1,,-0.9630741912091805,0.247639167567443,-0.23812638132554767,0.05150291738243818,-0.04489111299395928,0.03051771661340434
152,1.0243336870036082,0.07982630591533195,1,,-0.9631520866570761,0.25708113688878614,-0.2406481968297797,0.04061056584554685,-0.03507163086016615,0.002829202546323228
153,1.0252520781815442,0.07022287927502834,1,,-0.9648406342429269,0.2532247324410314,-0.24322089830057947,0.038584916809908915,-0.020917446393577694,-0.0039227532755403745
154,1.026454529900751,0.060969816824666484,1,,-0.9666009579505568,0.24877570738832702,-0.2457958674305007,0.03695439807369153,-0.006570092859910631,-0.009741705145534407
155,1.0278123549026117,0.05257421580809676,1,,-0.9684292637070172,0.24668197493438865,-0.24632990995329015,0.03804139175609235,0.0001714250430129509,-0.013421849213457227
156,1.0291949421988205,0.04534593014288796,1,,-0.9703441023264622,0.2475862426518303,-0.24426610185949235,0.042587447269632435,-0.0027683580255808784,-0.014379551855692927
157,1.030484176362396,0.03941151909065259,1,,-0.9722589409459071,0.24849051036927192,-0.2422022937656945,0.04713350278317252,-0.005708141094174708,-0.015337254497928625
158,1.031585395971778,0.03475603244407635,1,,-0.9716846450330149,0.253807404837712,-0.2425934284224492,0.04739028177971847,-0.011841115254659824,-0.010618794095466972
159,1.032433982827104,0.031278500110321246,1,,-0.970901538545055,0.259494469371781,-0.24319050534641276,0.047287238398242074,-0.018241962450549442,-0.005424167047368325
160,1.0329973885428498,0.028846332406586576,1,,-0.9696856086333802,0.2619501718831032,-0.24341663038471165,0.041492932720387135,-0.014933030134755542,-0.001924391522832065
161,1.0332731179376078,0.027336813089031808,1,,-0.967834427156548,0.2596632295779306,-0.24309831223592854,0.027345605765002584,0.002626869808355637,-0.0009121363423603569
162,1.0332838053945494,0.02665922274038037,1,,-0.9659832456855003,0.25737628727990375,-0.24277999408814002,0.013198278853822585,0.02018676969659939,0.00010011883494847263
163,1.0330708610750041,0.026757004259460072,1,,-0.9704787304359098,0.24878545214092243,-0.24490431901297186,0.0025329390510141635,0.02577229276327403,-0.0021704888042867344
164,1.032688032592269,0.02759397322212704,1,,-0.9757757424145642,0.23939849166941918,-0.24733712792975676,-0.007692656895985059,0.029845559043652964,-0.004855692680701824
165,1.0321956218665254,0.02913106060032134,1,,-0.9788635682083128,0.23051923727653706,-0.24809980559309444,-0.013402009501443827,0.02643816585016461,-0.0066358512868461995
166,1.0316553626540201,0.031300925743633745,1,,-0.9781979125165462,0.22250259262266903,-0.24602487420756905,-0.011438113074685202,0.010320881218750192,-0.006878307594143019
167,1.031125603766235,0.03398786640666094,1,,-0.9775322568247797,0.21448594796880094,-0.24394994282204366,-0.00947421664792658,-0.005796403412664226,-0.007120763901439838
168,1.0306566686484067,0.03701981179971914,1,,-0.9748364107405885,0.21899358779175623,-0.24675057514875978,0.012052351193160121,-0.009466595906208748,-0.008531912771059226
169,1.0302867989695694,0.040176906706856294,1,,-0.9717910754453285,0.22565723347873032,-0.2503905164136806,0.036946555221268634,-0.010994070860660963,-0.010144247423134314
170,1.0300394621969484,0.043216728760818376,1,,-0.9701235705542176,0.22905529883414483,-0.252842313403673,0.0548599089252284,-0.009269242974346462,-0.011654820336736406
171,1.0299227444306691,0.04591061023827687,1,,-0.9711817415294515,0.22599327049984308,-0.2529436787540702,0.05896348226884696,-0.0011105874293965631,-0.012964084356415186
172,1.0299311113944192,0.048081288945438797,1,,-0.9722399125079915,0.22293124215597374,-0.25304504410478407,0.0630670556252875,0.00704806814104576,-0.014273348380184875
173,1.0300492032811008,0.04963124479901169,1,,-0.9727755207966918,0.23209150188250585,-0.25153731220622944,0.05887638988250718,-0.00025568197165917397,-0.011529745898657528
174,1.0302567322254115,0.05055385329715548,1,,-0.9731951759398003,0.2439638051274636,-0.24967253245028384,0.05284528827022519,-0.010990435905775421,-0.007886839598488989
175,1.0305331637179158,0.05092450688016051,1,,-0.9724917417661704,0.251105162486946,-0.24943546701955824,0.04730503027023333,-0.01823636979062727,-0.004169120714845453
176,1.0308608873410192,0.05087419397656193,1,,-0.969180638382693,0.24726187076025694,-0.25297774529702405,0.042904448183554926,-0.0173817113223025,-0.00027769665500812404
177,1.031226136205483,0.05055217500138007,1,,-0.9658695349992155,0.24341857903356787,-0.25652002357448983,0.03850386609687653,-0.016527052853977726,0.0036137274048292046
178,1.0316178447021682,0.050086592808772944,1,,-0.9684727016911339,0.23619190008576957,-0.2550150813559241,0.03717186943204484,-0.010413997548420583,-0.0007553289839334843
179,1.0320254858092044,0.04955196379419639,1,,-0.9727085046637999,0.22803123591839047,-0.2521168521923144,0.03668695681593605,-0.002849359982366586,-0.007404693833151463
180,1.0324372420915287,0.048950718048036974,1,,-0.9753682649146314,0.22555975543691917,-0.2491605192456288,0.037680614814732456,0.000694404540691051,-0.014452756292490076
181,1.0328395377754307,0.048212699518763634,1,,-0.9736857961531441,0.23876281106531583,-0.24604410182246103,0.04274795189544228,-0.006839926335727407,-0.022599289250488395
182,1.0332182758470025,0.047212502713198705,1,,-0.9720033273863996,0.2519658667349665,-0.24292768438955578,0.04781528899198544,-0.014374257235687533,-0.03074582223394126
183,1.0335614474227992,0.045800781117129645,1,,-0.9716804536054788,0.2513103246305356,-0.2487648715805205,0.026453098351848288,-0.005148399186719131,-0.033045355321016864
184,1.0338623061262266,0.04384329994998222,1,,-0.9718133579032143,0.24600895407143736,-0.25760358258291993,-0.0037690833419346914,0.009695989980352154,-0.03338479411150837
185,1.034122063396849,0.04126082726570252,1,,-0.9724709691881305,0.2404506648551989,-0.2639753087530487,-0.028651881108679358,0.021073428865170735,-0.03234727817229238
186,1.0343510572203196,0.03806317986685676,1,,-0.9748697682702662,0.23403981668662235,-0.2621605918696184,-0.03581646601796904,0.02094613911719057,-0.026740475316498574
187,1.0345675863511783,0.03437101642213343,1,,-0.9772685673449064,0.22762896853807701,-0.2603458749918583,-0.04298105090487236,0.020818849369608133,-0.021133672478223703
188,1.0347940821774042,0.03041962219380279,1,,-0.9785037321388106,0.22248549875801982,-0.25717240063867736,-0.03636623846231482,0.01771316678004619,-0.015500895399236101
189,1.035050957237684,0.026541073134732324,1,,-0.9792732484301756,0.2178491924703049,-0.2534551958273961,-0.024237360375758733,0.013415628456610231,-0.009857724258236897
190,1.0353492016976051,0.02312517998726566,1,,-0.9795831349118781,0.2151625044893264,-0.2498095279777302,-0.013672619727522456,0.009187289194719702,-0.005881296068818174
191,1.0356834147936618,0.02056443506833154,1,,-0.9780175295758605,0.22043111683276523,-0.246455762355187,-0.00949024778113658,0.005241312491759839,-0.008705912297101406
192,1.0360272496670944,0.019192055508319733,1,,-0.9764519242398432,0.22569972917620398,-0.2431019967326438,-0.005307875834750704,0.0012953357887999755,-0.011530528525384639
193,1.036333044786511,0.019223898981078083,1,,-0.9770957806685736,0.2277198552955507,-0.2448907949286662,-0.0031271063218845587,0.00124960039401984,-0.011698697420586457
194,1.0365366450249447,0.020714435740123056,1,,-0.9787819355901016,0.22820753021822546,-0.2491055624715126,-0.001890579095084711,0.0030437771959277308,-0.010613705430536673
195,1.0365671845633109,0.023534806683170137,1,,-0.9802625946609811,0.22939003864252663,-0.2526746904964066,-0.0025317062347196195,0.0039831348937845274,-0.008019515566933106
196,1.0363602250522685,0.02737795581541785,1,,-0.9806810345878011,0.2341641789611216,-0.2529064729999172,-0.012878530188938593,0.0005038864858945115,0.0023757996091727015
197,1.0358715606994955,0.03179208557475609,1,,-0.9810994745133137,0.2389383192647994,-0.2531382555027035,-0.02322535411082802,-0.002975361911124292,0.012771114752797448
198,1.035088602261011,0.036239236944408004,1,,-0.9798242697776401,0.23748663485212756,-0.252456671240098,-0.026502630494456364,-0.00888928578788061,0.025073527580099435
199,1.0340366898190356,0.04017104867794214,1,,-0.9776158143334056,0.23260432803024111,-0.25127179357686785,-0.025884367039952623,-0.016144791324978053,0.03842681034805415
200,1.0327788316842357,0.0431097403428893,1,,-0.9754083855681265,0.22851460977605814,-0.2502793942277771,-0.023779976335005677,-0.02278114159650958,0.05066607670200253
201,1.0314088542034505,0.0447203278104456,1,,-0.9732079910672778,0.2298552499800021,-0.2506057449638744,-0.011493501478053149,-0.025175398003478597,0.05527274673926233
202,1.0300393045055958,0.044860821251488284,1,,-0.9710075965664291,0.23119589018394604,-0.2509320956999716,0.0007929733788993809,-0.027569654410447616,0.059879416776522136
203,1.0287863295839397,0.04360076129089416,1,,-0.9685033015930284,0.23363709781150097,-0.25080789095524114,0.003521539854620807,-0.024510172052868963,0.053216259506619075
204,1.027754083518165,0.0412043435766737,1,,-0.9658047083851247,0.2367819513264122,-0.25039562433511564,0.00013927394079668562,-0.017963851159994153,0.03934775745807154
205,1.0270211046436788,0.038081447576758076,1,,-0.963573258910793,0.2392229714973388,-0.24988694067723718,-0.0033631481710843653,-0.01122494345904904,0.02549890711164163
206,1.0266306767653932,0.03471653386145505,1,,-0.965917697204006,0.2347696202838945,-0.2484338077804432,-0.008042555517635688,-0.002599559378553098,0.011842554227703198
207,1.0265864940354879,0.031589789199368355,1,,-0.9682621355045443,0.23031626905653532,-0.24698067487910877,-0.012721962878808224,0.006025824728893601,-0.0018137986989056913
208,1.026854046643575,0.029105700559448305,1,,-0.9701951701493688,0.22810298565850015,-0.24689860318781773,-0.012017575774640457,0.008238775035944772,-0.011484609677575692
209,1.027367186816124,0.027541282342130984,1,,-0.97182445288741,0.2275436128976688,-0.2478288279531072,-0.0073381684280891335,0.0057172292017135746,-0.018212773069060422
210,1.028038539132459,0.02702074168259663,1,,-0.973397730522696,0.22699880498088243,-0.24854558929358217,-0.0023422123214791417,0.003091453882239531,-0.02456542962595192
211,1.0287719623664033,0.027517397199562543,1,,-0.9740597000675679,0.22669099440846,-0.24578890052839883,0.007804585224262017,-0.0012303304025323906,-0.024807885739443543
212,1.0294752144554797,0.0288787175008008,1,,-0.97472166961244,0.22638318383603753,-0.24303221176321546,0.017951382770003174,-0.005552114687304313,-0.025050341852935167
213,1.0300712493408044,0.030867046432875758,1,,-0.9747344839494532,0.22825502658541041,-0.2430067699662044,0.028288210237184384,-0.007623027694277579,-0.02341871032779022
214,1.0305070115160158,0.03320691115553268,1,,-0.9741954944367458,0.23197964827477494,-0.24530298033093714,0.03878656958752309,-0.0077806241058237195,-0.020194041013564284
215,1.0307590052173619,0.03562964112441617,1,,-0.9736538279612724,0.23570989655082686,-0.2475135017414026,0.04892619495386245,-0.0077667864094191855,-0.01696291309696845
216,1.0308352184101923,0.03790740712655731,1,,-0.9729992712568816,0.23967742402306738,-0.24611043580955863,0.043937656078679485,-0.0005234034592733211,-0.013459419128806032
217,1.030773228529867,0.03987176497740123,1,,-0.9723447145504456,0.2436449515077048,-0.24470736987333067,0.038949117187909395,0.0067199795135051196,-0.009955925149696647
218,1.0306346042484857,0.041415954327077655,1,,-0.9720393627578621,0.242611046744478,-0.2455583556744379,0.03477609191928252,0.009376864897504398,-0.008607717141718187
219,1.0304960878223084,0.04248447195873384,1,,-0.9720752116769402,0.23669034863909333,-0.24861172760873174,0.03139988769617465,0.007552380802751892,-0.009365393325468502
220,1.0304384629801373,0.04305644304391409,1,,-0.9721110605960185,0.23076965053370863,-0.25166509954302557,0.028023683473066767,0.005727896707999387,-0.010123069509218818
221,1.0305344123171298,0.04313014219789589,1,,-0.9726320168889651,0.22612153847514846,-0.25031359563594435,0.029140935840851846,0.005622909148675003,-0.014703179878823074
222,1.0308369644472646,0.04271456913804749,1,,-0.9731586516877637,0.22148832290533887,-0.24891052970410038,0.030310787131284052,0.005538049451052128,-0.019328034392370925
223,1.031370237834701,0.04183082116935352,1,,-0.9736902285847063,0.2205994259796756,-0.24797360857527684,0.032385770124220566,0.00421398784776078,-0.02457248982132797
224,1.0321240199948867,0.04052208886805144,1,,-0.9742273547637609,0.223914871751055,-0.24756010243191154,0.03547708859811973,0.0014984769592072795,-0.03051266986521122
225,1.033053228668226,0.03886757272437353,1,,-0.9747644809411371,0.22723031751207495,-0.24714659628983823,0.038568407062359804,-0.0012170339208613728,-0.03645284989053387
226,1.0340825217677674,0.036993538491195965,1,,-0.9758916661529645,0.232169754544822,-0.2503400684091284,0.03559572897425933,0.0033916525713698106,-0.03531162386574751
227,1.035115396383724,0.035074827071513714,1,,-0.9770475001156532,0.23718804016496142,-0.2537086677877919,0.03232862962267749,0.008355946034305345,-0.03382657895872696
228,1.0360462646095947,0.03332257126137293,1,,-0.9778478737039777,0.23993984015706094,-0.25543862337880413,0.024695019529435827,0.011812721995377076,-0.028141643381425732
229,1.036773460476673,0.03195806488600145,1,,-0.9781890460440195,0.23976368221436306,-0.25505169809627787,0.011420535562868648,0.013322012473541237,-0.017031081942586155
230,1.0372110955390998,0.031177420807580958,1,,-0.978530218384061,0.23958752427166521,-0.25466477281375166,-0.0018539484036985282,0.0148313029517054,-0.005920520503746574
231,1.0372981462029127,0.031115244976982183,1,,-0.9785828626795151,0.2337830332513454,-0.25396885338714964,-0.007580807077374848,0.012001405353131867,0.005847324986061661
232,1.0370039350084326,0.03181665296177495,1,,-0.9786100633000362,0.22748221103124608,-0.2532456854972957,-0.012642082864608882,0.008788859033173724,0.017673132640667985
233,1.0363299747768655,0.03322506165930673,1,,-0.9785121586567248,0.22319347773004355,-0.2529794962848937,-0.014809058352359152,0.005452166917702748,0.026738522609775668
234,1.0353087249574822,0.03518909647597133,1,,-0.9782278382465436,0.22190290044032432,-0.2533942378981895,-0.012663319943403197,0.0019304887115965518,0.03169069332686344
235,1.034000032129489,0.03748733083326866,1,,-0.9779435178354738,0.2206123231465725,-0.25380897951278114,-0.010517581527742697,-0.001591189505513432,0.03664286405942469
236,1.032485926503856,0.03986591213999171,1,,-0.97552991003094,0.22521228719458197,-0.2551763272278835,-0.013994133186446503,-0.0026956580730530507,0.03937077292464067
237,1.030864199867095,0.042082008050610346,1,,-0.9728375144327751,0.23058350035964043,-0.2566683997471746,-0.018206811798831556,-0.003483641161146817,0.0418074589818009
238,1.0292410113456212,0.04394523775941505,1,,-0.9701197072984112,0.232589008363149,-0.2579620633871499,-0.02335121840726857,-0.0030285791475212743,0.04499353004365293
239,1.027722791524992,0.0453494781976915,1,,-0.9673580442424365,0.2287858876039265,-0.25891330738501384,-0.030103627384823528,-0.0004282348972257769,0.04947291082205643
240,1.0264079412400051,0.04628855591659311,1,,-0.964596381186462,0.22498276684470409,-0.25986455138287773,-0.03685603636237848,0.0021721093530697204,0.053952291600459924
241,1.0253791059332886,0.046851569881496684,1,,-0.9662657802963732,0.21804343693794784,-0.2586646019368271,-0.030792260066620072,-0.0010512128105613803,0.048498999855377936
242,1.0246969280734046,0.04719721398378249,1,,-0.9687202362969352,0.21054846087021778,-0.2570835228251487,-0.022457824005527195,-0.00530632132477737,0.041285923945933826
243,1.0243959879384135,0.04751126338466017,1,,-0.9704255982731542,0.20739485058926357,-0.2552189449979191,-0.010529900861115899,-0.010207653668395081,0.031000769043055848
244,1.024483196167705,0.04795617398365999,1,,-0.9706246104081051,0.21297127349901188,-0.25278428084893784,0.008624149600155347,-0.016408474675922827,0.014537984049605827
245,1.0249384334368143,0.04862463589194693,1,,-0.9708236225436778,0.2185476964261842,-0.2503496166923492,0.027778200121275076,-0.022609295702825574,-0.0019248009952835903
246,1.0257169667074373,0.049508411591724893,1,,-0.968664817721987,0.22802800097388154,-0.25024056119430305,0.0316176711781877,-0.019634209135998927,-0.017523332619812777
247,1.0267531809978037,0.050489843904421,1,,-0.9659699511813773,0.2383958729365982,-0.25066024469248877,0.03197529444496726,-0.014572933150144666,-0.03292537182994136
248,1.02796536662089,0.05135762141036393,1,,-0.964426870186222,0.24596275245678184,-0.2513775281037959,0.028199506860315374,-0.007272801342054401,-0.04527377011829257
249,1.0292615183178864,0.05184289807714452,1,,-0.9656049426345962,0.24691214120652474,-0.2527979068400939,0.014658320456584566,0.005316744186631558,-0.05040778243637888
250,1.0305461599751684,0.051668117358930114,1,,-0.9667830150792894,0.24786152995330113,-0.2542182855719538,0.0011171340951643635,0.017906289675980396,-0.05554179473842353
251,1.031728033875992,0.05059918786025258,1,,-0.9693597478544821,0.2440836546893958,-0.2547978250761645,-0.0074454078049466434,0.02093097490036405,-0.054898121515865185
252,1.0327281552771364,0.048491657360897555,1,,-0.972330914378424,0.23897265200144677,-0.25514024098994914,-0.014603930960664922,0.021258290707686242,-0.05262509335475242
253,1.033487381778566,0.04532287608564902,1,,-0.9751142493332391,0.23477371869822242,-0.2545001331436219,-0.019035212879661905,0.019936206741419982,-0.049186659106887666
254,1.0339724229199285,0.04120463636345452,1,,-0.9773703007999789,0.23313515979919935,-0.2511018703034431,-0.01581054357551173,0.013983903731905301,-0.04247667991362267
255,1.0341792076728091,0.03637419573803349,1,,-0.9796263522667186,0.23149660090017632,-0.24770360746326428,-0.01258587427136155,0.00803160072239062,-0.03576670072035767
256,1.03413277799136,0.031165445789006794,1,,-0.9786531579985408,0.2318803320467171,-0.24763037636752347,-0.00739156614693317,0.003935998703697944,-0.02734909878453795
257,1.0338833813144208,0.025965538017348695,1,,-0.9765763511271925,0.23295519201026751,-0.2486934932783724,-0.0015241230733856362,0.00047493454462291864,-0.01834790735821486
258,1.0334991218128833,0.0211647410054029,1,,-0.9745366040205835,0.23345850712324204,-0.2501650182139282,0.0034909047782356495,-0.001713723743771548,-0.009419938046931491
259,1.0330562424878846,0.017108110933436085,1,,-0.9726223932575819,0.2320257696239554,-0.25301998563098965,0.0056184589558955535,0.00040776914039362695,-0.0007400015035513215
260,1.0326286419025854,0.014056510668420763,1,,-0.9707081825005615,0.23059303212914548,-0.2558749530391305,0.0077460131269077295,0.0025292620179300142,0.007939935012707636
261,1.032278409402905,0.012161885325195203,1,,-0.9710478637542296,0.22837414520623414,-0.2568853193606635,0.007319525989007419,0.00465506191082491,0.01100356445776147
262,1.032048924982388,0.011458310795095093,1,,-0.9723056544732123,0.22583502500343686,-0.2571442984332455,0.005852665359654695,0.0067826162407332675,0.011779424720559383
263,1.0319614735441982,0.011867329692608335,1,,-0.9736232801208181,0.2237506181352064,-0.2569594308625967,0.004673873542113857,0.0076864634526720285,0.012250821941407237
264,1.0320155369966613,0.013214380875135639,1,,-0.9751907892977356,0.22356519213297735,-0.25492096410639814,0.004698119152981515,0.0034798461337627656,0.011450715908845483
265,1.0321921752728007,0.015252844776126982,1,,-0.9767582984746533,0.22337976613074825,-0.25288249735019963,0.004722364763849175,-0.000726771185146497,0.01065060987628373
266,1.0324593813100815,0.01769276192226593,1,,-0.977219223510833,0.22368724942969673,-0.25290673881647296,0.009473910778675123,-0.0027540785500178356,0.011190042308838893
267,1.032778093843759,0.020231803681744827,1,,-0.9771493484976826,0.2242311686842358,-0.25392040854347664,0.016493021600243005,-0.0037360267828980445,0.012372017004176887
268,1.0331076758959454,0.02258607271383502,1,,-0.9769472615931685,0.22495294945351038,-0.2546471108097076,0.02269957035104001,-0.004068693684049788,0.013742244880188518
269,1.0334100438317833,0.024517881126695118,1,,-0.9760430181800789,0.22661932468330295,-0.2538497741392522,0.02459073006436779,-0.000953129807562282,0.016112255716013924
270,1.033652143442482,0.025857357431413173,1,,-0.9751387747641638,0.22828569991830233,-0.25305243746630546,0.026481889783604665,0.0021624340786600732,0.018482266559244634
271,1.033806973500736,0.026515131761490937,1,,-0.9749204196817106,0.22844790167945844,-0.25302422696785376,0.02345737163382379,0.0032262368553342617,0.019422261919474635
272,1.0338537137424775,0.026484613593940793,1,,-0.9750860538400282,0.22776800363746832,-0.25342660576747417,0.017680849511650876,0.0031413771577113864,0.019561674251480754
273,1.0337776290840903,0.025834222798514033,1,,-0.9752010648191992,0.22716977775677935,-0.2539598285231799,0.01226129818658249,0.002461816038400877,0.019416109851773684
274,1.0335702906754078,0.024691788905782292,1,,-0.974957535212986,0.22714999806504382,-0.2554197585370601,0.009370006180827796,-0.0024297403933114517,0.017252186966529675
275,1.0332303607025624,0.023224572787379702,1,,-0.9747140056067729,0.22713021837330832,-0.25687968855094034,0.006478714175073104,-0.007321296825023781,0.01508826408128567
276,1.0327648506584959,0.021618584232937325,1,,-0.9743816603940334,0.22851213120139735,-0.2563603863527453,0.0054692142030478424,-0.010805184933842596,0.01436876362845165
277,1.032190483616337,0.020060062847303824,1,,-0.9739916565590457,0.23080401539147524,-0.254556177086866,0.0056813636463881375,-0.013375222236183688,0.014586974563906903
278,1.0315346337082425,0.018720550146927348,1,,-0.9734819650972678,0.23308396361457323,-0.25298655889386706,0.005621654379737853,-0.015389135888660541,0.014917920517408097
279,1.0308353073028853,0.01774552964856203,1,,-0.9717469989356388,0.23524172018070802,-0.25381851306290354,0.0027788537943387063,-0.011709861033156355,0.016402965424428644
280,1.0301397643620698,0.017245731698413577,1,,-0.9700120327685887,0.23739947675358497,-0.25465046723453955,-6.394679994301641e-05,-0.008030586166155956,0.017888010336089343
281,1.0295016197770486,0.017290154495703848,1,,-0.9691143927166431,0.23672823946331187,-0.25533402652575565,-0.004102116542953884,-0.003377691763859424,0.016570001361643386
282,1.028976554017931,0.017900475299433782,1,,-0.9688442498450803,0.23393693730501888,-0.25590637781051095,-0.009036103061821925,0.002004838933438743,0.013151367091103844
283,1.0286170339283256,0.019047369951140453,1,,-0.9686171344607274,0.23116116178844817,-0.25640310770409214,-0.013758629013569803,0.00718577503125,0.009509104225187788
284,1.0284666469973947,0.02064987925612762,1,,-0.9691400425938658,0.22865603526470532,-0.25558166111396796,-0.014795129864570995,0.008852662322916666,0.0019687121111810254
285,1.0285547587663588,0.02257911199734429,1,,-0.9696629507253705,0.22615090874878999,-0.25476021452641046,-0.015831630712333553,0.010519549609375001,-0.00557167997926513
286,1.028892202285408,0.02466723101285304,1,,-0.9705011162012344,0.22491210939515582,-0.25424075037406535,-0.012618013763528635,0.011258960962339817,-0.012965628400240466
287,1.0294686006526281,0.02672191778608478,1,,-0.9716112174785337,0.22476562301496614,-0.2539817713006741,-0.005738315113797628,0.011198346835671162,-0.02023325694423828
288,1.030251725026202,0.028545464153115846,1,,-0.972716516403392,0.22462559201076554,-0.25374385977639685,0.0011033998996596468,0.011116788474296218,-0.027422315003949708
289,1.0311890417747631,0.029956457168068325,1,,-0.9735806171285646,0.2248097825417721,-0.2545640668420066,0.006037386100735323,0.009983304944718751,-0.030665167989907025
290,1.0322113612189816,0.030810980375610714,1,,-0.9744447178537372,0.22499397307277874,-0.25538427390761625,0.010971372301811,0.008849821415141285,-0.033908020975864345
291,1.0332383136717425,0.03101972499660763,1,,-0.9748634136998325,0.2261574054900597,-0.2558553089353538,0.012523735888233568,0.007147154020703646,-0.03474325617991561
292,1.0341852562798772,0.03055771251059998,1,,-0.9748405271013224,0.22829167599317693,-0.25598016849508415,0.010723497726113492,0.004880187472664768,-0.033191535623503556
293,1.0349711258735264,0.029464566620067634,1,,-0.9748176405028123,0.23042594649629417,-0.2561050280548145,0.008923259563993417,0.002613220924625889,-0.0316398150670915
294,1.0355266437970787,0.02783520801393445,1,,-0.9760541542225164,0.23245917692553647,-0.2559565780772349,0.002508828896085691,0.0031338710634453903,-0.026405097833456313
295,1.0358021059112512,0.02580299292458228,1,,-0.9773101221151053,0.23449084656464875,-0.2558039062399399,-0.003976877989481993,0.0036975820027380243,-0.021113488723117493
296,1.035773779652126,0.023519089556349772,1,,-0.9781572874299324,0.23420430965045747,-0.25600688185295506,-0.00841699386357447,0.003178999649288891,-0.013611961189070307
297,1.035447801366218,0.021132761792550202,1,,-0.9785386632187708,0.23127640893293763,-0.2566150820567886,-0.010526363995263096,0.0014272526652076823,-0.003592453311824618
298,1.0348605819521621,0.01877687427610048,1,,-0.9789200390088009,0.22834850820626929,-0.2572232822625225,-0.012635734133542631,-0.0003244943243470111,0.006427054596727889
299,1.034075177096124,0.01656132200439862,1,,-0.9770582166769038,0.22505652891781464,-0.2560052284873914,-0.013478198048324607,-0.0009590604365456,0.009772270434557152
300,1.0331738103087604,0.01457462267874171,1,,-0.9750784651842126,0.22174540933143597,-0.2546911650922692,-0.01425405831112252,-0.0015348942408581316,0.012766606137534227
301,1.0322475661403163,0.012891409750268834,1,,-0.9736924393890286,0.21986616684087237,-0.25415722484282144,-0.014397849831894901,-0.0015861896313917843,0.012996624457006948
302,1.0313849265546895,0.011581953554285148,1,,-0.9730848710983449,0.21986431565940132,-0.25464613523671875,-0.01371291075881588,-0.0009497417403240365,0.00960223575761102
303,1.0306610647905934,0.010719661211556136,1,,-0.9724773028076611,0.21986246447793026,-0.255135045630616,-0.013027971685736859,-0.0003132938492562885,0.0062078470582150914
304,1.0301295704630835,0.010383659095133082,1,,-0.9719545669133854,0.22067302809274197,-0.2560211147572948,-0.010356802655047742,-0.000514613282214125,0.0016150629023990075
305,1.0298176977393645,0.010655434413924218,1,,-0.9714396792164048,0.22155875159243812,-0.2569439266981329,-0.0075018791957082425,-0.0007934380662697138,-0.003088589831372671
306,1.0297255324774268,0.011610345500655067,1,,-0.9714046833718527,0.22265773277331805,-0.2571175092974935,-0.005262055436898168,-0.0010191954239641028,-0.0075196690148070225
307,1.0298288351128746,0.013306015964513189,1,,-0.9720956966041197,0.22407934292567508,-0.2561576129692381,-0.003952791258323206,-0.0011646692083421945,-0.01153838266080271
308,1.0300848104448688,0.015769983954793836,1,,-0.9727867098385459,0.22550095308247403,-0.2551977166379834,-0.002643527075657335,-0.0013101429931748317,-0.015557096319355214
309,1.03043971073333,0.0189886638084515,1,,-0.9734674144061419,0.22669994958311832,-0.2545709185910318,-0.001601142453939618,-0.0018345857850686441,-0.018807197039955113
310,1.0308370151620259,0.02289910441968496,1,,-0.9741467210422354,0.22786875801900572,-0.25398929114529467,-0.0005949486825256269,-0.002410419589381176,-0.021953068138578433
311,1.0312249635065776,0.027384542180774633,1,,-0.974408222473569,0.22934379117186005,-0.2530266851464691,-0.0018300028814255585,-0.0015992335374014886,-0.025688973013772518
312,1.0315624500886977,0.03227443330476959,1,,-0.97393724463919,0.23135568517624847,-0.25139616288138533,-0.006994322805873903,0.0016436198956529063,-0.030459301366327806
313,1.0318226636591468,0.037349394107749234,1,,-0.9734662668062823,0.23336757917435058,-0.24976564062139628,-0.012158642714185885,0.004886473318574725,-0.0352296297039778
314,1.0319943036511106,0.042351159856342135,1,,-0.9735358585880377,0.23341682206665101,-0.2506273714496443,-0.015815608415830646,0.0067193868342325415,-0.03816447229027654
315,1.0320806025748381,0.04699730395573748,1,,-0.9737039636893254,0.23310839173840386,-0.2519432900810746,-0.019197874141602723,0.008295353134516452,-0.0407648162587115
316,1.0320966590932583,0.051000123392996304,1,,-0.973464584967209,0.23225075640717105,-0.25306470118087077,-0.022492532331590997,0.009152538652983903,-0.04283553258720302
317,1.0320657356214604,0.054088804463254044,1,,-0.9723921959461036,0.23027039325495655,-0.2537884847809732,-0.025608096366974684,0.008540336293335725,-0.043823542689918796
318,1.0320152422023117,0.05603363059319349,1,,-0.9713198069249982,0.22829003010274207,-0.25451226838107566,-0.028723660402358374,0.007928133933687544,-0.04481155279263458
319,1.0319731125922758,0.05667046152187253,1,,-0.9724438198423697,0.2271413945145442,-0.25506459536921966,-0.032719281179842304,0.013436996936917602,-0.043169225073547986
320,1.0319651038132789,0.05592298514666639,1,,-0.9740793002226295,0.22618644005221386,-0.2555769959294212,-0.03691983728869628,0.020371248297521627,-0.04091438095380525
321,1.032013174079114,0.05381947666599102,1,,-0.9757766913725283,0.22420546108639147,-0.25553362379080635,-0.040589790575912006,0.02556234506103703,-0.03766065063969075
322,1.0321346269525304,0.05050033758647532,1,,-0.9776229309644549,0.21975767150491343,-0.25415403990932933,-0.042984046593121626,0.026562477356588936,-0.03200535675280591
323,1.0323413842875087,0.04621299162013744,1,,-0.9794691705506129,0.21530988193733294,-0.252774456032163,-0.04537830260285019,0.027562609649015846,-0.026350062883591516
324,1.0326387519561755,0.04129218231582416,1,,-0.9794817964084918,0.21135252994945566,-0.25404523399607903,-0.03494875849894683,0.023856760132358927,-0.019819456013607146
325,1.0330233856362183,0.03612641964166598,1,,-0.9789663011043219,0.20753643479256229,-0.25607937457763624,-0.020825677357530673,0.018795484146504664,-0.013036739709670852
326,1.0334807097987864,0.031114745301504477,1,,-0.9784743395292054,0.20484773857192723,-0.2576397905052376,-0.007479750760250446,0.014337091750986278,-0.007166198973935021
327,1.0339825805499026,0.02662096007975015,1,,-0.9780497019939538,0.20538424498832952,-0.25784500024992746,0.003642933503884986,0.011603396553525757,-0.0039051614084071318
328,1.0344863070915735,0.0229335953027065,1,,-0.9776250644587022,0.2059207514047319,-0.2580502099946173,0.014765617768020418,0.008869701356065235,-0.0006441238428792428
329,1.034936120862079,0.020238511377016096,1,,-0.9785000231564724,0.20797091386086705,-0.2573532700101871,0.01830898146985223,0.006140501686926213,0.0010480034156492971
330,1.035267777931541,0.018607664513519938,1,,-0.9798276888872178,0.21054834987446222,-0.25634207124575925,0.01921213147770468,0.0034128680212857547,0.002193609587792007
331,1.0354162884856726,0.018003822647482508,1,,-0.9806138734905813,0.21288485354199604,-0.25632968398455774,0.019324068247453686,2.7249494032194937e-05,0.0038000770364362236
332,1.0353259749689223,0.0182982171213298,1,,-0.9795272664236041,0.21438805745446535,-0.25977183238284884,0.016699478318759654,-0.005634105907002258,0.007000500610546606
333,1.0349613908801087,0.019296765441989615,1,,-0.978440659353232,0.21589126137163156,-0.26321398079189523,0.014074888381864867,-0.011295461325726106,0.010200924194656989
334,1.0343172450855795,0.020770265122760305,1,,-0.9780177598742628,0.21556630566976007,-0.2635276490637252,0.011660259072154355,-0.015345690952408522,0.014125497346968118
335,1.0334254088881474,0.022484307685068688,1,,-0.9778700299218577,0.21448340501645027,-0.2625442666300669,0.009332678283760613,-0.018727956667612417,0.018350298943545205
336,1.032357283732958,0.024225318061054893,1,,-0.9780625330447471,0.2141792612608627,-0.2609959438786428,0.00743479962947521,-0.02136226495953481,0.020801143039398475
337,1.0312202188469322,0.02582012458519109,1,,-0.979709760495954,0.21720482496583762,-0.2570321228200697,0.007374185502995948,-0.020798554139414317,0.01566713034011337
338,1.030147293445005,0.027147903510282477,1,,-0.981356987947161,0.22023038867081252,-0.2530683017614966,0.007313571376516686,-0.02023484331929382,0.010533117640828267
339,1.0292807110616655,0.028145031813269446,1,,-0.9757089468106164,0.2233020661625236,-0.2520991894111847,0.009290143413075932,-0.01965890921397372,0.0026489036881956925
340,1.0287504036375792,0.028804748846229192,1,,-0.9665030658843096,0.22639623296117894,-0.2525905707490623,0.012260233633637787,-0.01907701391574699,-0.006576559796582153
341,1.0286510879588198,0.029173931090499688,1,,-0.9591314771174743,0.22879434929728132,-0.2535234672805304,0.014005712281535805,-0.016667116129492225,-0.016046007087411208
342,1.0290223756885772,0.029348515489872565,1,,-0.9617738462579424,0.22739251478593445,-0.25686672937231986,0.00906566442946793,-0.004277597495869223,-0.02684743624286228
343,1.0298367696089437,0.029467581091246885,1,,-0.9644162154066666,0.22599068027020747,-0.2602099914745557,0.004125616561964448,0.0081119211764659,-0.037648865432063354
344,1.0309990234417918,0.02970462751399909,1,,-0.9680486759736838,0.22711794527618281,-0.26321716627762154,0.003640571099618105,0.012994007209853902,-0.03879457038862405
345,1.0323577748147748,0.030254027722206485,1,,-0.9722442552306912,0.22968364633852717,-0.26603319001253994,0.005689327104827469,0.013606209172261626,-0.03444854133356935
346,1.0337275428667716,0.031311562145063365,1,,-0.9762708385652676,0.23107909860856668,-0.2679458654856398,0.008128217714549215,0.013219055217495326,-0.028632228782344782
347,1.0349170397915137,0.03305028595173049,1,,-0.9790590743885784,0.22389934579288043,-0.26323909673729706,0.01342588867708989,0.005508943951834829,-0.012042153741982349
348,1.035758772010145,0.035595756804179604,1,,-0.9818473102031773,0.21671959299962787,-0.25853232800366094,0.018723559623077535,-0.0022011672897347596,0.00454792124654296
349,1.036135102912473,0.0390062800199487,1,,-0.9835056271885976,0.21410746518523904,-0.255947880861507,0.025610415702695476,-0.005625958666221072,0.017017074535038007
350,1.0359969427135964,0.043263080388257914,1,,-0.9844191467655236,0.21450613352171238,-0.25476238343359875,0.033544799242808045,-0.006226038162724353,0.026769880683488883
351,1.035372540006234,0.04827226350954798,1,,-0.9850521320323434,0.21473462164594703,-0.253777398290116,0.04122724462586093,-0.007229115242879522,0.0359877708401136
352,1.034365185126968,0.053876585838871296,1,,-0.9826786905458423,0.21313932449333708,-0.2549412607903882,0.046209722406188335,-0.012551032091766747,0.03947307993474752
353,1.0331399772976075,0.05987232548503539,1,,-0.9803052490593414,0.21154402734072716,-0.25610512329066043,0.05119220018651574,-0.01787294894065397,0.04295838902938143
354,1.0319012096358384,0.06602602978092378,1,,-0.9770400777286209,0.20891274204815635,-0.25800832884135,0.053826713664553084,-0.020499182234473588,0.044625920050555205
355,1.0308633080086678,0.0720875026331458,1,,-0.9730966358691304,0.20549345999429428,-0.26047389597379433,0.054675310640781835,-0.021075015641545666,0.04491080660390392
356,1.0302193804170279,0.07779821459696244,1,,-0.9694688173638094,0.20206823393910442,-0.26283269127609626,0.055665951548104435,-0.021723865117641548,0.04414094847796428
357,1.0301119984625604,0.08289727363424934,1,,-0.9717613051119619,0.1985315132457263,-0.2631887135762719,0.05932098203560683,-0.02374231378784978,0.023586713021140192
358,1.0306106240050517,0.08712910424522881,1,,-0.9740537928529511,0.194994792563399,-0.263544735875335,0.06297601251168877,-0.025760762451751195,0.0030324776285395906
359,1.031699106798244,0.09025709344693116,1,,-0.9751956834376322,0.19976848840131387,-0.2614449420074801,0.07130160895979672,-0.025891591483709814,-0.020172183206934632
360,1.0332751802592643,0.09208514317262875,1,,-0.9753304510690146,0.21181632982799561,-0.2571955610167779,0.08371537316456333,-0.024370178418594072,-0.045696773554566784
361,1.0351622668947869,0.09248480093887695,1,,-0.9754219038794417,0.22385004737228556,-0.25307410069999575,0.09557115517125618,-0.022580602760533558,-0.07091633628050414
362,1.0371324301192186,0.09142130284467839,1,,-0.9728289940951259,0.2350084588883713,-0.25688030803638406,0.07284693432876632,-0.004172105498820597,-0.07723232444613486
363,1.0389379845339572,0.08897003428693051,1,,-0.97023608431081,0.24616687040445703,-0.2606865153727724,0.05012271348627648,0.014236391762892365,-0.08354831261176557
364,1.0403479696624167,0.08531706156137636,1,,-0.9757025355183917,0.2514665615344641,-0.2605748953902759,0.021394396137828457,0.025695003042228513,-0.07613374329125769
365,1.0411843329853139,0.08074251997839375,1,,-0.9892764350497959,0.2508725753257769,-0.25652207179498093,-0.013373841863975512,0.03016226074748219,-0.054906691134461325
366,1.0413515074837274,0.07559096978509784,1,,-1.0028503345811999,0.2502785891170898,-0.252469248199686,-0.04814207986577948,0.03462951845273587,-0.03367963897766496
367,1.0408528686248006,0.07023577813630533,1,,-0.9950139618744499,0.23168976570740757,-0.25432313062338424,-0.05796212676484193,0.02005408107717736,-0.0105197708724818
368,1.0397892963741842,0.06504428574421038,1,,-0.9867661585037237,0.21275514433035989,-0.25629051930854735,-0.06730275661360167,0.0051127095788460145,0.012677239275650261
369,1.0383390147859073,0.0603479283967378,1,,-0.9808247998908781,0.19539828999194797,-0.25678534300736816,-0.06361650439281923,-0.01117520411550062,0.025076610868140954
370,1.036722861418406,0.05641851283606284,1,,-0.9775501530352769,0.17986565008008526,-0.255577586847533,-0.044868569135095675,-0.02901999015985263,0.02499175117051808
371,1.0351630829409555,0.05345014669157675,1,,-0.9742755061694438,0.16433301011968948,-0.2543698306839241,-0.02612063381879258,-0.046864776259962215,0.02490689147263005
372,1.033845095861348,0.05154644875296295,1,,-0.9776730283822923,0.1781839561035389,-0.24982014744678782,-0.007263702265283649,-0.04118954832249787,0.005443834357575032
373,1.032890139064233,0.0507139746332415,1,,-0.981448344962369,0.19369867186397532,-0.2450812362071025,0.011599400922393116,-0.03418256024701849,-0.015116463213504953
374,1.0323432327112982,0.050863962671343355,1,,-0.9824773462378179,0.209229035933066,-0.2424858503122035,0.021305732761949248,-0.01933471317114229,-0.0315313773602054
375,1.0321767396689512,0.051824321197706226,1,,-0.9798516660774624,0.22478022416475807,-0.2427429782041179,0.01882661664961114,0.005947420868741157,-0.04242978883428396
376,1.0323064445868955,0.05336185570209001,1,,-0.9772259859253113,0.24033141234785912,-0.24300010609522882,0.016347500545019246,0.031229554829628393,-0.053328200274309484
377,1.0326151674783994,0.05521183028536246,1,,-0.9778500710671576,0.23562419023527503,-0.2504999057118957,-0.007285344587448587,0.040121417292355174,-0.043028675828487954
378,1.0329784975077443,0.05710953803989535,1,,-0.9787889886919164,0.22895436312062287,-0.25870136473409566,-0.03296753194279326,0.04742541439180227,-0.030675526506083024
379,1.0332878447450675,0.05881781802972862,1,,-0.9794305471014559,0.2189516594799768,-0.26416559999707956,-0.049801642481361194,0.046584018734081266,-0.01597053806800207
380,1.0334672608477065,0.06014564752436997,1,,-0.9796153411905351,0.2038294269053179,-0.2654252702526105,-0.05304449507007805,0.033230736363367,0.0023470380039920017
381,1.0334820970617329,0.06095549681579195,1,,-0.9798001352796144,0.18870719433065905,-0.2666849405081414,-0.056287347658794916,0.019877453992652738,0.02066461407598607
382,1.0333392607654892,0.06116021885915158,1,,-0.9808267082877935,0.19063674124524804,-0.26235301339861317,-0.044923163731479074,-0.010240965669262777,0.016965323245155935
383,1.0330802483068027,0.06071294890305092,1,,-0.9819714027558535,0.19495905554532927,-0.2572364531314954,-0.031509267631526006,-0.042711929945912636,0.010176546005260259
384,1.0327690230549713,0.05959491789539797,1,,-0.9806720097717532,0.20285673186879788,-0.2542866230002521,-0.023969241035453136,-0.05862272318572396,0.0020320927434270865
385,1.0324771994757833,0.057805807263110964,1,,-0.9750195871358973,0.21712228874236883,-0.2551958366561498,-0.02689084011357625,-0.04503910725084151,-0.008526880495236
386,1.0322691034583589,0.05535975487078821,1,,-0.9693671645177031,0.23138784557136585,-0.25610505030920666,-0.029812439182570573,-0.031455491358402234,-0.019085853700906666
387,1.0321892386200469,0.052288280992436105,1,,-0.9694117430430447,0.22710522199528568,-0.2555639715194794,-0.03156499721882173,0.0023132127362294917,-0.014569823108944058
388,1.032254402578582,0.04864956539751168,1,,-0.9705236671432691,0.2193475564139996,-0.2547511772812045,-0.03309853287088905,0.03986363707778122,-0.007229457715327556
389,1.0324519696928878,0.044541265437189455,1,,-0.9737823747089654,0.21080643485039308,-0.2549680003791619,-0.032227911453394306,0.06203611794614514,-0.0016277253478154362
390,1.0327446116389538,0.04011155047643386,1,,-0.9815029761535773,0.20063697146455478,-0.2573247893338743,-0.02636046853874295,0.05224694367007256,0.0003604165706387112
391,1.0330801477164118,0.035561797936186586,1,,-0.9892235775981892,0.19046750807871646,-0.2596815782885867,-0.0204930256240916,0.04245776939399997,0.002348558489092859
392,1.0334037802943166,0.03113622711926165,1,,-0.9877079128786409,0.19368176005053844,-0.25905776939743785,-0.008933345685115985,0.021308593306585587,0.0008812238664263861
393,1.033669313682554,0.027098473891167582,1,,-0.9839900761658243,0.2000870464259044,-0.25772330654960623,0.003983515213291866,-0.0025491098737603648,-0.0014099884460797973
394,1.0338464812978405,0.023700219028020924,1,,-0.980637324129864,0.20620775900829788,-0.2568622339732265,0.011174796956589343,-0.01903882248204757,-0.0021801239701809967
395,1.0339230099759942,0.021149585090404575,1,,-0.9781779262520814,0.21163212579099983,-0.25715953695805704,0.004355712693178083,-0.017499224543403323,0.000771781883984639
396,1.0339018149468293,0.01958614296812608,1,,-0.9757185283666141,0.21705649259065068,-0.25745683994381646,-0.0024633715915399947,-0.01595962659994847,0.0037236877473737595
397,1.0337950436930483,0.019066385869708758,1,,-0.9762916044938501,0.2123790858742825,-0.25483823632414543,-0.011315271290439235,-0.00784850866140064,0.006244674234135283
398,1.0336172678811852,0.019560465737894987,1,,-0.9777565087984229,0.20473082228242762,-0.25136208613752176,-0.020765006974640544,0.002195244707540572,0.008638930521932165
399,1.0333799993510504,0.020958846309437177,1,,-0.9793383686022894,0.1983860443953196,-0.2498234878057633,-0.02627060746854869,0.00962763405595921,0.010927927330595921
400,1.0330890359286786,0.023086347086147554,1,,-0.9812612479496811,0.19584197820638352,-0.2539344150866828,-0.020275874292550577,0.009445792070150609,0.01291000787576506
401,1.0327451112089594,0.025720836814839606,1,,-0.9831841272970725,0.19329791201744742,-0.2580453423676023,-0.014281141116552463,0.009263950084342007,0.0148920884209342
402,1.0323471979960368,0.02861459624269916,1,,-0.9824325678102652,0.1945171389857303,-0.2616718321068399,-0.007619876174556999,0.004559530804904036,0.019576084451045944
403,1.0318969622716525,0.03151754693439702,1,,-0.9807315872287526,0.19707232842385428,-0.26512634738032564,-0.0007219936046177599,-0.001750395491106108,0.025219255750941333
404,1.031402599740689,0.03420211381095099,1,,-0.9788102149716246,0.19896881941344952,-0.2674404816001277,0.005187552268129383,-0.008603305089133447,0.030425098165993016
405,1.030880687503094,0.036488827956390905,1,,-0.9761103660388718,0.19853862833378488,-0.2657265143985554,0.007606054166793924,-0.017374162993731526,0.03408618933969006
406,1.0303555420675363,0.038270197960792396,1,,-0.973410517097683,0.19810843725277608,-0.2640125471916276,0.010024556073015285,-0.026145020925734907,0.037747280524826496
407,1.029856512074794,0.03952886529007105,1,,-0.973119304399431,0.20327572306563474,-0.26002863904084467,0.016266819405702102,-0.027302458653033372,0.035888001707246715
408,1.029414257622031,0.04034559994226533,1,,-0.9738443437243823,0.21080469684755332,-0.255086997194477,0.024122404516875917,-0.025247641433796313,0.03169956787152437
409,1.0290571490326097,0.04089375274937919,1,,-0.9736720594308466,0.21833861145565994,-0.2526602275941683,0.029423396146140413,-0.01994971866264451,0.02892309075369099
410,1.0288085271100669,0.041419120493721026,1,,-0.9695703759739308,0.2258941620700082,-0.2612461369069255,0.02353776873681086,-0.000450167857857717,0.032329602050682436
411,1.0286850191592989,0.04220704666133662,1,,-0.9654686925298311,0.23344971266074854,-0.2698320461928553,0.01765214134587146,0.019049382886001047,0.035736113337029946
412,1.0286957133459484,0.043541128401908366,1,,-0.9659012994827383,0.23237807410926956,-0.26876184995621727,-0.002266589633343096,0.016439602884219782,0.02961972759705268
413,1.0288418745972754,0.04565951803780746,1,,-0.9685819884847294,0.2270291115783916,-0.2629041973397065,-0.02914287416725783,0.0028681099759725404,0.01878192968764573
414,1.0291169716187425,0.04871516366128801,1,,-0.9710908363887945,0.22235898324928605,-0.2573737678438209,-0.05211378484960302,-0.009811799515541479,0.00828592067399196
415,1.029506950326231,0.05274538753270716,1,,-0.9726348108516052,0.22150045227142784,-0.2536806689105312,-0.053156347586702055,-0.01748554244589774,-0.00029097206559652573
416,1.02999083233898,0.057654454406816505,1,,-0.9741787853144162,0.22064192129356958,-0.2499875699772415,-0.05419891032380108,-0.025159285376253997,-0.00886786480518501
417,1.0305417839553173,0.06321126295805261,1,,-0.9741890734644002,0.22508534295038285,-0.24807536999794247,-0.04939815519937499,-0.02076990161386466,-0.018124749324239617
418,1.0311287817679657,0.0690637141159611,1,,-0.9733132458894272,0.23259206609812097,-0.24719211744345884,-0.04122131478089658,-0.009410822594114496,-0.027774511665546533
419,1.0317189151426835,0.07477117137444726,1,,-0.9725016873386707,0.2391792964764784,-0.24681971024189567,-0.03627486445288566,0.0024204283493329624,-0.036806003926295544
420,1.032280240271124,0.07985525890978543,1,,-0.9721778115957437,0.2387892804905333,-0.25032367270856354,-0.05584108922635789,0.017834589292346145,-0.04114597188649469
421,1.0327849573142593,0.08386586394977469,1,,-0.9718539358518049,0.2383992645033696,-0.25382763518617985,-0.07540731406096647,0.033248750283522206,-0.04548593986025443
422,1.033212534113722,0.08645399029735246,1,,-0.9744615726516962,0.232498717895065,-0.2533107054582008,-0.08897112783532093,0.04040914058124536,-0.040602600093849577
423,1.0335522562401205,0.08743819460491027,1,,-0.9790311148702071,0.22291026624471524,-0.2501028064544157,-0.09851784719443829,0.04204572120170452,-0.029546591051048968
424,1.0338045731117953,0.08684941047983527,1,,-0.9832352298119263,0.21379955881875592,-0.2473195248710956,-0.1063133585766332,0.0426170166928379,-0.01847671501092752
425,1.033980610252849,0.08494151385468302,1,,-0.9833322851905835,0.21005824815271265,-0.249308544423318,-0.09442693663665143,0.031215507764690224,-0.00725098736736207
426,1.0340994343462113,0.08216157716925845,1,,-0.9834293405692407,0.20631693748666932,-0.2512975639755405,-0.08254051469666966,0.019813998836542553,0.0039747402762033805
427,1.0341831455104848,0.07908253532611272,1,,-0.9818628876620829,0.20474105874365536,-0.2529203305512877,-0.07217287802823759,0.012322334923958188,0.008492501207079589
428,1.034250555787403,0.07630946395014651,1,,-0.9790122301601625,0.2048368624503907,-0.2542603550757822,-0.0629777218214243,0.007849015385449534,0.007831807848855002
429,1.034310884413781,0.07437660461062665,1,,-0.9763473252303287,0.20510497598258298,-0.2553862043771963,-0.05374071255603358,0.004315539425250645,0.007133532131967038
430,1.034359275949639,0.07365440678597245,1,,-0.9774512288944205,0.2088691529930553,-0.25216656637143503,-0.043654529139660704,0.019850928204119878,0.005672732756366057
431,1.0343757769160784,0.07428405356986421,1,,-0.9785551325619616,0.2126333300152891,-0.2489469283556137,-0.03356834569177268,0.03538631703153077,0.004211933376200684
432,1.0343286175341906,0.07615169927143738,1,,-0.9794403889417737,0.216576239167073,-0.24903870261215325,-0.025401832198757312,0.0554736999966666,0.0017977192396844862
433,1.0341814359935337,0.07890683960710859,1,,-0.9801314426812938,0.22067789830682077,-0.2520716750937377,-0.01894037060626492,0.07960416674616923,-0.001463318421181112
434,1.0339028524117209,0.08202033232214478,1,,-0.9807748952412639,0.22477814286252004,-0.25515839036762533,-0.012718801381522786,0.10334638470399558,-0.0046981711697600586
435,1.033475964525522,0.08486981923458473,1,,-0.9775762602362903,0.22876421051700313,-0.2625829081189265,-0.025859934747860695,0.09575144114715649,-0.005819531639201188
436,1.0329051875817181,0.08683601016957324,1,,-0.974377625241311,0.23275027815903135,-0.270007425847029,-0.039001068073137996,0.08815649761404845,-0.0069408921051385295
437,1.0322184909687315,0.08739356506787888,1,,-0.9707789150218513,0.2328131910707338,-0.27243821977783506,-0.054472901129581475,0.07148472101405759,-0.0016520773545925366
438,1.0314643542371595,0.08618412184210161,1,,-0.96677183625507,0.22887162468475072,-0.26977177311773587,-0.0723237479273251,0.04554795416780838,0.010179791590735227
439,1.0307043053459843,0.08306396909457828,1,,-0.962764757500809,0.22493005831108334,-0.2671053264659683,-0.09017459466929222,0.019611187402600844,0.022011660499093293
440,1.0300031761092265,0.07812301664991382,1,,-0.9675576314704577,0.21585652221669852,-0.26504306719706494,-0.08273140453215468,0.02040232156438384,0.02075509408066202
441,1.0294196805055689,0.07167473274711589,1,,-0.9725530264418161,0.20666487961865473,-0.2629947126203613,-0.07470610062159579,0.021808568265877532,0.019197312062970175
442,1.0289993808737692,0.06421942652385335,1,,-0.9750191998107133,0.20364856299275685,-0.26201629505200263,-0.06233820273573222,0.019904179984368015,0.016019076086320548
443,1.0287708967571099,0.05638636562738182,1,,-0.9745179225524154,0.20787754858147495,-0.2622931985841238,-0.04487528552930337,0.014115535076623295,0.010939616021418689
444,1.0287450201822903,0.048863440549438364,1,,-0.9740166452941174,0.21210653417019307,-0.26257010211624493,-0.02741236832287453,0.008326890168878573,0.005860155956516831
445,1.0289157642717768,0.04232526237246967,1,,-0.9713943116978991,0.21331820151640465,-0.2679982346652954,-0.02581294003956044,0.00868706162769846,-0.0024080028533487847
446,1.0292623870278617,0.037370453633506925,1,,-0.9686432210898536,0.21434670497939773,-0.27373906841431483,-0.025176492108768645,0.009420492041684936,-0.010869729030694992
447,1.0297518678042095,0.0344759985410953,1,,-0.9675486162459552,0.2140523685396799,-0.2762791585837833,-0.025228514658607867,0.012255433378074764,-0.018168533060233805
448,1.0303418423956925,0.03397171949837972,1,,-0.9686914473803682,0.21197125574731687,-0.2744959644864994,-0.02621046287198718,0.017928911723577204,-0.023896563642879034
449,1.0309843503888048,0.03603306826067569,1,,-0.9698342785183519,0.2098901429484512,-0.27271277038364367,-0.027192411088434676,0.02360239008680692,-0.02962459424342199
450,1.0316307705617478,0.040687187134203155,1,,-0.9715939445153414,0.2091173012210313,-0.2714818476287049,-0.01804704189283285,0.021074942548912786,-0.0368497066479396
451,1.0322380154411555,0.047826382301502136,1,,-0.9734160822858479,0.20847695851178688,-0.27030685778597985,-0.007875998699389007,0.017716922007612053,-0.04422644043799557
452,1.0327755295661043,0.05722441072993698,1,,-0.9747014384973233,0.20915962572067331,-0.27095978802818343,-0.00319162160905846,0.015611576002787925,-0.05302871295391269
453,1.0332320490332667,0.06855318046543357,1,,-0.975149570248328,0.21190580690416905,-0.2744637465137125,-0.0070648615873203,0.015460041080820833,-0.06405441475519696
454,1.033620614069093,0.08139934149779358,1,,-0.9755977019993328,0.21465198808766475,-0.2779677049992416,-0.010938101565582139,0.01530850615885374,-0.07508011655648125
455,1.0339801551615604,0.09528107498813466,1,,-0.9773779880767516,0.21141200011123326,-0.2777158711633086,-0.034084758281409354,-0.016455455337923593,-0.08141582992015113
456,1.0343722342777932,0.10966515002299981,1,,-0.9793515419658703,0.20730354384156197,-0.27691915020061236,-0.060027585825292606,-0.05280572064490211,-0.08707112380703597
457,1.0348722807939084,0.1239834614386232,1,,-0.981436633139751,0.20094228229678052,-0.2711141194022347,-0.07078615311217162,-0.08617436490071989,-0.08776208417425668
458,1.0355558613734641,0.13764762394967597,1,,-0.9837235511334259,0.1905045677281037,-0.2562465478269671,-0.054068789105301066,-0.11414776361439553,-0.07947007898111803
459,1.036481941037175,0.1500608979621515,1,,-0.9860104691342466,0.1800668531268133,-0.24137897620524457,-0.03735142504619566,-0.14212116241547648,-0.07117807376207032
460,1.0376763205509605,0.16062944751367741,1,,-0.9901488179964993,0.17773087503645396,-0.23238439267090333,0.02373969076343303,-0.10641594215235307,-0.05624779420952478
461,1.039118976829682,0.16877880349844607,1,,-0.9946435838256109,0.1769545535289566,-0.22452041175287954,0.09337314984609633,-0.05845201938260991,-0.04003958759391057
462,1.0407385708882793,0.17398359622726553,1,,-0.9962169558767628,0.1813890946227207,-0.22507437705039923,0.15019190591936774,-0.01671048923979971,-0.020363896192193538
463,1.0424160242708689,0.17581581994848855,1,,-0.9916165066096888,0.1968358227495451,-0.2434181029203323,0.1799291754887142,0.011881173812197703,0.006639678171150739
464,1.0439972496324645,0.17400838701149013,1,,-0.9870160573569894,0.21228255082810482,-0.26176182873294884,0.209666444965144,0.040472836774857995,0.033643252450120016
465,1.045313334188161,0.16852029092004134,1,,-0.9851750649823631,0.22210402054641684,-0.2741151102475223,0.19545008743787287,0.04935090133756191,0.045274507291772195
466,1.0462050256800117,0.15958344346093672,1,,-0.9840074839125993,0.2305527155892699,-0.2850064979845725,0.17050739099782017,0.053418106138553155,0.053154337800090615
467,1.0465474489157935,0.1477130833529103,1,,-0.9834520138986713,0.23568732184797114,-0.29122802838904804,0.14470517922585588,0.053791999122157645,0.05744156741010049
468,1.0462707579405606,0.13367273762927856,1,,-0.9844211904386339,0.23256719396041062,-0.28581787560149247,0.11676208598645806,0.044966588980416784,0.05278034473845744
469,1.045373028229902,0.11839684746938524,1,,-0.9853903669785964,0.22944706607285018,-0.28040772281393694,0.08881899274706022,0.036141178838675916,0.0481191220668144
470,1.0439230659414092,0.10288488019218756,1,,-0.9828845485040197,0.22692828783600116,-0.2761104176769387,0.06208797720535836,0.021185460787181632,0.046492751002811396
471,1.0420526691375156,0.08808723669378943,1,,-0.9793354650080169,0.22459004715252714,-0.27214721232861416,0.0357208524461427,0.004389298177543757,0.04577750486649274
472,1.0399397678096018,0.07480445840870775,1,,-0.9766706266884945,0.22225865275130194,-0.26881400872522665,0.010701060301813345,-0.009046924381617414,0.045066836368389145
473,1.0377853366012426,0.06361727199519164,1,,-0.9766341701605045,0.21994760863040255,-0.2673534589458089,-0.010313842080728023,-0.012495865726173103,0.04436977470618052
474,1.0357877103449225,0.05485703496819393,1,,-0.9765977136326282,0.2176365645167242,-0.26589290917095476,-0.031328744397606516,-0.015944807059952274,0.04367271304614991
475,1.034117919180249,0.04861630904729431,1,,-0.9753302600089852,0.21584751171902092,-0.2623403068720158,-0.04212792654791109,-0.007161591803018786,0.04196965783088589
476,1.0328991624568247,0.04479035353035315,1,,-0.9736175323293604,0.2142472726815211,-0.2580309710958585,-0.04923189676881038,0.006046217140833793,0.03990271643573543
477,1.0321928784611285,0.043134786404400945,1,,-0.9728485086072688,0.21170963038264043,-0.25467486504428555,-0.051817737044532616,0.0174191521902651,0.037942316533477155
478,1.031993143426328,0.04332377315928887,1,,-0.9754846598843712,0.20578954798750432,-0.25475830593514354,-0.038100770709423686,0.022171296051627036,0.03636635123121862
479,1.0322302262088268,0.04499656762405602,1,,-0.9781208111614738,0.19986946559236823,-0.2548417468260016,-0.02438380437431476,0.02692343991298897,0.03479038592896009
480,1.0327829401304711,0.047786476977094566,1,,-0.9798747891389316,0.19776953262684094,-0.257431163095867,-0.010738930293488503,0.021599543809694553,0.035478984550596
481,1.0334981031742376,0.05133311897648349,1,,-0.9812500306658668,0.19730967402580318,-0.26109644982190283,0.002874992932554669,0.011949781673989664,0.037139810377941306
482,1.034214237398273,0.05528400812066155,1,,-0.9824553913541945,0.19811213349407492,-0.26435143993479054,0.014509140650863514,0.0021795979594582396,0.03960381524868839
483,1.034785874071886,0.05929366981562073,1,,-0.9828985812114097,0.20457798631441926,-0.26576563320908747,0.017261020324612086,-0.00813085748654363,0.045671285019065574
484,1.0351046263312713,0.06302745743183515,1,,-0.9833417710700098,0.21104383915496666,-0.2671798264878031,0.020012900006959145,-0.01844131296476141,0.051738754808401094
485,1.0351136007560002,0.06617393579751939,1,,-0.9816257253142092,0.21578527421819158,-0.2672596056892853,0.01833959624818928,-0.025100388131661083,0.05748783691924098
486,1.0348127437685368,0.06846555964815229,1,,-0.9788214486827176,0.21965762179759799,-0.26666685495182063,0.014436048965815646,-0.029919208008838752,0.0630764551698801
487,1.034254266409485,0.0697037960019098,1,,-0.9759051022896585,0.2235885106407172,-0.2656893821913664,0.009431681377137088,-0.034796154119997286,0.06778334386650248
488,1.0335291171369518,0.0697826686036786,1,,-0.9723411931389863,0.22785766322170423,-0.2624889041163667,-0.001933458995674937,-0.040008965819290164,0.06739541234476193
489,1.032747203040419,0.06870423648144111,1,,-0.9687772839883139,0.23212681580269126,-0.25928842604136704,-0.013298599368486963,-0.045221777518583035,0.06700748082302138
490,1.0320153123023286,0.06658071985109784,1,,-0.9658926534931124,0.23575369000670537,-0.2566597305384922,-0.020702726743173187,-0.041828838714678,0.06014518555543979
491,1.0314171823539457,0.06362064206016166,1,,-0.9634066828494657,0.23900361934656114,-0.25436660682646267,-0.025782186823946257,-0.033385296192756354,0.04948316989040181
492,1.0309997436211948,0.06010000548710365,1,,-0.9618987325245355,0.24141524431240183,-0.25234232150916014,-0.030894465084387986,-0.024612888167942194,0.03841502896565097
493,1.0307682462263668,0.056323291140428236,1,,-0.9680833394352162,0.23723323903594018,-0.25243256761855504,-0.036264872797494116,-0.013253809009157869,0.02415253509498824
494,1.0306909250567378,0.05258179310882392,1,,-0.9742679463652211,0.23305123374641148,-0.2525228137282319,-0.04163528052738055,-0.0018947298148811196,0.009890041179761111
495,1.0307115124350552,0.04911751526430127,1,,-0.9773140105488852,0.23242955433088588,-0.25265979572624353,-0.03652833129653086,-0.0021607168268017417,0.011547499694716894
496,1.0307659511882261,0.04609934480199723,1,,-0.9782275706302099,0.23422696242331623,-0.25282853274015593,-0.024302470963298045,-0.010325433744675521,0.024021877628722318
497,1.0307987740712452,0.04361499615764453,1,,-0.9786381157648172,0.2358456992423935,-0.25326612158906225,-0.012678016922949824,-0.017882593078056067,0.03626345318719198
498,1.0307751035984054,0.04167818596935178,1,,-0.973108025033995,0.23535431790451591,-0.2568788662954758,-0.008156206251391749,-0.018264461917172417,0.04575561914710428
499,1.0306858684730296,0.04024669201371223,1,,-0.9675779343204518,0.2348629365681737,-0.260491610990601,-0.0036343955939624616,-0.018646330755095582,0.055247785077357475
500,1.0305460133667117,0.0392445432872472,1,,-0.966656438322945,0.23157306585605553,-0.25885117048683337,-0.0007133310177083334,-0.017298306224322733,0.051366414042645754
501,1.0303874261538726,0.038581646728223756,1,,-0.9693457553782701,0.22609059140151375,-0.25309488320273377,0.0009535562739583333,-0.014594918081654872,0.03700693744530068
502,1.030249386969483,0.038166883834400214,1,,-0.9719622259340225,0.22094361187936207,-0.24763054373056348,0.0031714604472308752,-0.01187944855264214,0.022576285703442465
503,1.0301693454654268,0.03791485036627859,1,,-0.9729703299443061,0.22320397331784184,-0.24861207498275079,0.01755518225305977,-0.008897235754409009,0.006574167832890554
504,1.0301760152382582,0.037749662821330784,1,,-0.9739784339545899,0.22546433475632158,-0.24959360623493806,0.03193890405888867,-0.005915022956175878,-0.009427950037661356
505,1.030285630431074,0.03760976534758392,1,,-0.9730743441098098,0.23094571764161148,-0.2514207024898,0.03605702455021613,-0.001625699299855916,-0.021250501528366543
506,1.030501192193482,0.03745545531716012,1,,-0.9704468411312644,0.2393301276472441,-0.2540098856068219,0.030923011850931024,0.0038416910950651267,-0.029306112899405518
507,1.0308139110093817,0.037277731254682735,1,,-0.9678551531279722,0.24761403204413707,-0.25656275454645866,0.025737417635879292,0.009306267952489573,-0.03726632452588759
508,1.0312058712583914,0.03710514241615455,1,,-0.9693942262485203,0.24430600713587097,-0.25492728631326483,0.014602610290525815,0.01444634226201006,-0.03422349753123892
509,1.031653078757975,0.03700544475540867,1,,-0.9709332993642596,0.2409979822379411,-0.2532918180851812,0.0034678029799640056,0.01958641655546994,-0.031180670546097827
510,1.0321283185343533,0.037080500142988734,1,,-0.9720239038602841,0.23867036012473405,-0.2526956556676386,-0.00696728267074667,0.02112962407782807,-0.027712055718721942
511,1.0326035185210558,0.037454850939697325,1,,-0.9726500244729315,0.23735815196180823,-0.25317591371225323,-0.016677658900188578,0.01894751711353647,-0.023802447738733197
512,1.033051530321193,0.038259822344751386,1,,-0.9732761450875351,0.23604594379478228,-0.2536561717583685,-0.026388035159971394,0.016765410142426683,-0.019892839746528546
513,1.0334473911318456,0.03961549501907336,1,,-0.9731233556534937,0.23717458606451486,-0.25394802390868154,-0.03222605977014181,0.010268228750543968,-0.019035068867882747
514,1.0337692279279256,0.0416126318248641,1,,-0.9729496605517902,0.23836873988872684,-0.25423481931203307,-0.03796015184488306,0.003655232301063389,-0.01825920820784438
515,1.0339990123389786,0.04429606131565792,1,,-0.9729799620839883,0.23826864490977226,-0.2545382606345482,-0.042313510188101276,0.0026620171856124846,-0.018283011517989705
516,1.0341233707314446,0.047650514388459825,1,,-0.9732531429995408,0.23662761101757893,-0.2548615206672266,-0.045022960211658636,0.008359741040289028,-0.019258898636513453
517,1.0341345911457394,0.051589726250267476,1,,-0.9735263239150933,0.23498657712538562,-0.255184780699905,-0.047732410235215995,0.01405746489496557,-0.020234785755037205
518,1.0340318421773345,0.05594982991833023,1,,-0.9743382104249296,0.23392079148646008,-0.25445275447683335,-0.046474229484458625,0.018070227002005352,-0.022764707915069828
519,1.0338224379382313,0.06048858196283061,1,,-0.9751850145556336,0.23289229207097867,-0.25365232710045815,-0.04495887631774223,0.021973773899335504,-0.02539535894683912
520,1.0335227837234822,0.06489249311530375,1,,-0.9753725324957092,0.23331503378027743,-0.2536365664640606,-0.04627864393543344,0.02313678969984061,-0.026042192760226512
521,1.0331584867038388,0.0687940578483517,1,,-0.9746561617229417,0.23572744324435296,-0.2546965926714907,-0.051485393745389844,0.020542506834386208,-0.023969191064701398
522,1.0327630977792264,0.07180056941348704,1,,-0.9739397909479358,0.23813985271596622,-0.25575661888223294,-0.05669214357161518,0.017948223960825745,-0.02189618936269901
523,1.032375128459074,0.07353427220687381,1,,-0.9723776757046796,0.2366062923603944,-0.25793799836203934,-0.06383948600365476,0.018566335540702028,-0.019198250889565196
524,1.0320333724069368,0.07368100000516915,1,,-0.9707261544846338,0.23465559266969524,-0.26023791918399014,-0.07119197382532666,0.019524038182937728,-0.016434248628865045
525,1.0317710900515407,0.07204150668138908,1,,-0.9694348842982768,0.2315877463556002,-0.2625957288149359,-0.07593813529380652,0.020807824845277594,-0.01373827832584663
526,1.0316101375563793,0.06857723237174797,1,,-0.9687141792471655,0.2267505645986596,-0.26504522267696584,-0.07655640033920391,0.02260806297727103,-0.011150056944401127
527,1.0315564477806478,0.06344114873470161,1,,-0.967993474198306,0.22191338285683326,-0.2674947165313421,-0.07717466538266947,0.024408301103639465,-0.008561835571042743
528,1.0315982465352658,0.056985236781544525,1,,-0.9695271556349468,0.21883875476425513,-0.2652650206624358,-0.06592181545944811,0.023957666773156423,-0.008788523232733762
529,1.0317079497062336,0.04973923365055004,1,,-0.9713987122601999,0.21602828861569365,-0.2623340332830643,-0.0528897873622176,0.02316968392094481,-0.009437094149744106
530,1.0318478756306164,0.04236011906133465,1,,-0.9741859165068121,0.21564616524905802,-0.2589181168517082,-0.04022931753869609,0.019599284681970225,-0.008627191945761033
531,1.0319788647308425,0.035557415977932064,1,,-0.9786565805202723,0.2197286604073189,-0.2546106363077472,-0.02825197440899543,0.010913286486912236,-0.005135820643998286
532,1.0320698777348887,0.03000445654936512,1,,-0.9831272445337323,0.22381115556557973,-0.2503031557637863,-0.01627463127929477,0.0022272882918542465,-0.0016444493422355395
533,1.0321060063349639,0.026249112599596846,1,,-0.9800551785218989,0.22668865111925332,-0.2531116370630936,-0.010982642543047946,-0.002081093419800505,0.0009056078445757417
534,1.0320924533853357,0.024638316018400663,1,,-0.9754918338225016,0.22932790530436462,-0.2573270203999035,-0.007012420159113503,-0.005523973341774383,0.0032695571160795936
535,1.0320530743534406,0.02526876656400378,1,,-0.971603678870421,0.23112845084208147,-0.2598125820325735,-0.0072749563341799545,-0.004281753576190832,0.003785644521570048
536,1.0320237219986157,0.027971936433585767,1,,-0.9691665194670278,0.2311265956098793,-0.25858072405323784,-0.016633770857904795,0.007028834197578857,0.0003306417643474942
537,1.0320422568684589,0.032335721285738916,1,,-0.9667293600712497,0.23112474037768294,-0.2573488660777512,-0.025992585352387212,0.018339421936007638,-0.0031243609820796048
538,1.0321380532543611,0.03775897239994474,1,,-0.9684111900585359,0.2282878823439606,-0.2588100653097656,-0.033062061703699464,0.024484448848077205,-0.01021223237277577
539,1.0323238367521204,0.04352984607286233,1,,-0.9711215303698664,0.22474312502259927,-0.26094372006024885,-0.03955989105704659,0.02933963688335007,-0.018207229895403798
540,1.032591812748688,0.04891547778655581,1,,-0.9735212283597501,0.22194813672137434,-0.26276113829055564,-0.045401136189312276,0.03217364225002663,-0.025314209933793387
541,1.0329146778963139,0.053249532911618803,1,,-0.9751332145006768,0.22105437658541174,-0.26377665917889953,-0.04957744664360214,0.029882430016968536,-0.030169397969066248
542,1.0332507836665963,0.05600565440341565,1,,-0.9767452006416034,0.22016061644944906,-0.26479218006724337,-0.053753757097892,0.027591217783910445,-0.03502458600433911
543,1.0335518691271313,0.0568481936364723,1,,-0.9762044596049608,0.21878190666960673,-0.2651462802759166,-0.04761125154188853,0.021268058017928377,-0.03437238459560274
544,1.0337715512956756,0.0556561287599821,1,,-0.9750041081710099,0.21725460499221125,-0.26529771664198903,-0.038306989880409585,0.013709481848434624,-0.03203268122025742
545,1.0338730355714862,0.05252082069368309,1,,-0.9743847785648525,0.21683720012066518,-0.2655268959314704,-0.03156367037872408,0.0074426552374698965,-0.029906514918199054
546,1.0338349971475052,0.04772210491478606,1,,-0.9755263944816694,0.21978364100797276,-0.2659916964082656,-0.032581986352958135,0.005090828877932542,-0.028427531106034066
547,1.0336549971070115,0.041689192194787,1,,-0.9766680104020536,0.22273008190448673,-0.26645649688651296,-0.033600302330374,0.0027390025110467036,-0.02694854728924787
548,1.0333500396963755,0.03495278727724805,1,,-0.9760811554984087,0.22433285317623294,-0.2628058259515725,-0.030384286103774718,0.0014413301481027508,-0.01904276712508203
549,1.032954107679008,0.028093585414031418,1,,-0.9748573503648574,0.2254404754061681,-0.25763858300925613,-0.025607897068509626,0.0005321188586917205,-0.008768680035795577
550,1.0325129362263128,0.02169105351861873,1,,-0.9736062434988225,0.22562629482946478,-0.2543618901248496,-0.020064612769660803,-0.0005387482225426257,0.0002716500371168199
551,1.0320768844302817,0.016275727996346686,1,,-0.9722544759524258,0.22241345394078976,-0.25805560071766254,-0.011693807877371197,-0.0022056355209181724,0.004763153512134339
552,1.0316932722905476,0.01228795909668833,1,,-0.9709027084060289,0.21920061305211472,-0.26174931131047546,-0.0033230029850815903,-0.0038725228192937194,0.009254656987151859
553,1.0313996917333204,0.010045643087531959,1,,-0.9717139099900639,0.21979061533773295,-0.2609918969513393,0.0032253312914772188,-0.0018016576479829634,0.008687960601414114
554,1.0312194913807315,0.009722813596120606,1,,-0.9734698994215882,0.22204170467298992,-0.258290225183751,0.008977607955817713,0.0019018628696848966,0.005911835665640049
555,1.031160013969149,0.011340168483372883,1,,-0.9749168659119771,0.22325034355940424,-0.25597872517971015,0.012892526064455671,0.004653681479231938,0.002426535855465509
556,1.0312134947178342,0.014767992726182032,1,,-0.9749428310612755,0.2196654111443233,-0.25546137869406943,0.008358592502282441,0.0030292240415850428,-0.004319811416446592
557,1.0313600623677925,0.01974166182615163,1,,-0.9749687962106551,0.21608047871804092,-0.2549440322068122,0.003824658925942544,0.0014047665988623894,-0.011066158709438237
558,1.0315721230622428,0.025889746735890458,1,,-0.9758600193248096,0.2149625640909354,-0.25369345171641133,0.010016523262647447,-0.0035985574843313073,-0.012297297835101988
559,1.0318194434254246,0.03277409904960496,1,,-0.9771944902740919,0.2151084347604188,-0.2520672556310637,0.02170291858524765,-0.010332781930947556,-0.010703147659314951
560,1.0320742895961506,0.0399396500670081,1,,-0.9782977243830011,0.21515060410175602,-0.25140540163730063,0.03397977520765987,-0.016596032921234672,-0.007935052302423883
561,1.032315934564314,0.0469690754666112,1,,-0.9780251510699818,0.21457577375989323,-0.2564811671663862,0.049769744395691165,-0.020057097318754914,0.0018177540397118165
562,1.0325337916120496,0.053534739576545705,1,,-0.9777525777578141,0.21400094341982656,-0.26155693267961205,0.06555971353438533,-0.023518161705460762,0.01157056035137403
563,1.0327285070871715,0.05943861470363006,1,,-0.9767426767877815,0.21769746925768532,-0.26145945112848423,0.07173033717315193,-0.023709484246016585,0.018934670092012808
564,1.0329106391320824,0.06463126696395524,1,,-0.9752932462494008,0.22394020004548248,-0.25827813702503116,0.07216675745510062,-0.021951675764346933,0.024874850135896062
565,1.0330970440955278,0.06920404047734427,1,,-0.9739913687692187,0.22924134415546388,-0.25529828230532,0.07221215050891307,-0.01968903833996271,0.029874182474889308
566,1.033305667399192,0.07335385667162937,1,,-0.9738937057817636,0.2268579824426551,-0.2539625839862659,0.06906628020477065,-0.013306375469409772,0.027195039911812033
567,1.033549901811316,0.07732631520368705,1,,-0.9737960427943085,0.2244746207298463,-0.2526268856672118,0.06592040990062825,-0.0069237125988568324,0.024515897348734755
568,1.0338338513847223,0.08134843583099331,1,,-0.9755005747403752,0.21995986025790967,-0.25387907742188714,0.06067968880548708,-0.002689706243627473,0.02039833869088269
569,1.0341496246956927,0.08556596912095148,1,,-0.9784482470481801,0.21397487714170324,-0.25691637607811285,0.05399395558060616,6.217315205278135e-05,0.015288571562741198
570,1.0344772192747762,0.09000060618408368,1,,-0.9811540549889737,0.20833134813061033,-0.25969686057164576,0.04968281451636551,0.001297453254144359,0.010974996510401432
571,1.034786859202362,0.09453888264461553,1,,-0.9808518101183088,0.20693446360123935,-0.2592833625297311,0.07490433562130168,-0.01632912230775043,0.016563615175743118
572,1.0350431050957711,0.09895706309298478,1,,-0.9805495652485885,0.20553757907623305,-0.2588698644891084,0.10012585664743102,-0.03395569781456946,0.022152233823622684
573,1.0352098563024301,0.1029762407849944,1,,-0.9797329116104929,0.2097477952560289,-0.25890465596550793,0.11611592669785906,-0.04093605448380622,0.028166295716411913
574,1.035255449050208,0.10633249951252195,1,,-0.978507222889668,0.21841652972256817,-0.2592959074226754,0.1247655555550177,-0.039451009179545214,0.03451865124565691
575,1.0351572122624997,0.10884197117067651,1,,-0.9772525395313382,0.22695996151660405,-0.25969709378928457,0.1324421040999775,-0.03785001216429861,0.04079041795971226
576,1.0349049437312747,0.110442026191378,1,,-0.9752962822455006,0.23247148370528206,-0.26033867196975147,0.1165733370693357,-0.03344336858552419,0.045112202238104256
577,1.034502855331842,0.11119702714447104,1,,-0.973340024959663,0.23798300589396007,-0.2609802501502184,0.1007045700386939,-0.029036725006749777,0.04943398651649625
578,1.0339697135210535,0.1112674784468827,1,,-0.9717947575591727,0.23777247399547452,-0.2624140814336277,0.08707733013497641,-0.025073321263091378,0.05120397511520406
579,1.033337199585089,0.11085172969126077,1,,-0.9706253536666634,0.23232893918056027,-0.2645724537100111,0.07550003912776561,-0.021515274660545713,0.05064026429508356
580,1.0326468509783102,0.1101167173201686,1,,-0.9694737638862244,0.2268983746646269,-0.2666989728891517,0.06398532472705575,-0.01800737341214336,0.05007204939984715
581,1.0319461810908785,0.10913684096206976,1,,-0.9719003913961716,0.22407307881945202,-0.2624273453149944,0.06504001005110635,-0.024571878384065767,0.04859912707977818
582,1.0312845919684823,0.10785770857189335,1,,-0.9743270189137011,0.2212477829654492,-0.25815571772749,0.06609469537845242,-0.03113638337649954,0.04712620475510695
583,1.0307094855596635,0.10609504755051155,1,,-0.9743788097170104,0.22168967701476902,-0.2574047322437516,0.07285933517562576,-0.03794914757540854,0.046217775928763166
584,1.0302626908359132,0.10357023841027503,1,,-0.9719348451026955,0.22556511529759427,-0.26035364812422945,0.08562466115507592,-0.04502281152754911,0.045902582709415274
585,1.029977168748512,0.09997480422432362,1,,-0.9694908804807439,0.22944055359252857,-0.2633025640139214,0.09838998717441243,-0.05209647550179195,0.04558738948908254
586,1.0298740430243956,0.09504898822386283,1,,-0.9677072110046685,0.2348715664183082,-0.25981686230975964,0.09827026439222225,-0.046849655540496825,0.03875616040738426
587,1.0299602583231453,0.08865611280727598,1,,-0.965943808751296,0.24035032634060147,-0.2561336552477004,0.09775504550886989,-0.041224668337281604,0.031724926899915816
588,1.0302273959787918,0.08083561162495546,1,,-0.9660540817774049,0.24436126821474172,-0.2528912962026358,0.09070690121214496,-0.03334060665487516,0.022755775098263653
589,1.0306521868973142,0.07182291983079855,1,,-0.9684281714345233,0.24659875930949357,-0.25018157964072435,0.07576552941708703,-0.022727080332535905,0.01144518678208017
590,1.0311989620529098,0.06203207805979883,1,,-0.9708022610842235,0.24883625039725418,-0.24747186308727964,0.06082415766871471,-0.012113554043359526,0.00013459850123759707
591,1.0318237675606938,0.052004855771590246,1,,-0.9713503540426562,0.24761254427916837,-0.24888714375815252,0.046330744718730506,-0.00523679705834076,0.00016473581319970563
592,1.0324793912832337,0.042336631349445174,1,,-0.971772520636782,0.24615014331827376,-0.2505868969698895,0.031868224344392994,0.0013822608069909818,0.000976964554423055
593,1.0331203330529497,0.03359304433083201,1,,-0.9724122749858819,0.2430616621610207,-0.2535085340633049,0.01928115275346079,0.0051349234123431895,0.002579923026894321
594,1.033706853874298,0.02623222614787835,1,,-0.9733548382604948,0.23771022463697247,-0.2581306222906616,0.009304074605854402,0.004898528557418342,0.005283311161115211
595,1.0342075498792602,0.02054554176121196,1,,-0.9742974015351077,0.23235878711292424,-0.26275271051801835,-0.0006730035417519843,0.004662133702493494,0.007986699295336101
596,1.0346002834298977,0.01662590647216241,1,,-0.9746866030939985,0.2294013632721793,-0.25931810973418473,-0.000614921401951719,0.001057026060717387,0.008282304149725523
597,1.0348716971322516,0.014367715424688081,1,,-0.9750148333666441,0.22670772005061607,-0.2549957954341035,0.0005488689922451513,-0.0029192578556389995,0.008312611212965155
598,1.0350158741350322,0.013497141414678357,1,,-0.9759276547977552,0.22473587755644975,-0.25276613826654964,0.00562835272612552,-0.00527813962082093,0.006300250920527316
599,1.0350328675938145,0.013626810514855104,1,,-0.9777806996082402,0.2239249385478374,-0.25390219254105256,0.01700561631729905,-0.0050356831935943975,0.0010025799042989935
600,1.0349276887628114,0.014325193793333425,1,,-0.9796337444129349,0.22311399954175887,-0.2550382468120058,0.028382879872923334,-0.0047932267671254416,-0.004295091095376298
601,1.0347099664828145,0.015188871023562268,1,,-0.9776980773968004,0.22792081629429398,-0.2533507036291998,0.02854241145507936,0.0008297511337047072,-0.007031108525334883
602,1.0343941112594757,0.015905610560905732,1,,-0.9751762578418431,0.23359675742369373,-0.251226320988973,0.026966444961099467,0.007285150836860624,-0.009370811900680202
603,1.0339996610936941,0.016298319082665297,1,,-0.973325064213908,0.23685738881221624,-0.2515314670370428,0.021626661061571538,0.01113271747507547,-0.009246387788231171
604,1.0335515458978481,0.01634406415955605,1,,-0.972726731576953,0.23560574709426874,-0.25637544994668077,0.009255326904236588,0.010108339611504948,-0.004518489458288803
605,1.0330800800820978,0.016167483172976112,1,,-0.972128398939998,0.2343541053763213,-0.26121943285631866,-0.0031160072530983644,0.009083961747934424,0.00020940887165356528
606,1.0326204289208445,0.016012488832262608,1,,-0.9729816099939622,0.23199007144332218,-0.26142833879729527,-0.008775722967578049,0.004446797894757588,0.0034206427043230155
607,1.0322111489825403,0.016199027604275176,1,,-0.9741294235205183,0.22940026856532633,-0.2606965185581588,-0.01307326167482643,-0.0009236099375206812,0.006324057257305242
608,1.0318913580417042,0.017072318871080037,1,,-0.974577759493737,0.22812094085087609,-0.2593657299730201,-0.01603695120433605,-0.006109448062126975,0.0071972051219152166
609,1.031696291087025,0.018951094449065273,1,,-0.9734973500364988,0.22970572637128173,-0.2567258641807996,-0.016085442346623277,-0.010891899264796862,0.0036330970550803687
610,1.0316514667767702,0.022080018905721685,1,,-0.9724169405758847,0.23129051189663918,-0.25408599838033064,-0.01613393348906202,-0.015674350482409928,6.89889771091579e-05
611,1.0317663099181849,0.026590573368303397,1,,-0.9703429622553377,0.2348097091708916,-0.25318163051970743,-0.01661213580848106,-0.010462393879997254,-0.0059623375857920545
612,1.0320286375159746,0.03247433789096207,1,,-0.9680152129504415,0.23882298148416614,-0.2527205324058544,-0.017200092199745172,-0.0026977297599221025,-0.012623825267336203
613,1.0324016768106103,0.03957225723596234,1,,-0.9667783926001616,0.24221865748200197,-0.2533267241688598,-0.021563444748288214,0.005317386545247592,-0.01863718361807545
614,1.0328250630001028,0.047582359664914524,1,,-0.9683582160134251,0.2440197760745942,-0.2566885264972005,-0.03567440358298789,0.013979139353096342,-0.022977152061704184
615,1.0332205284854823,0.05608612372422728,1,,-0.9699380394266885,0.24582089466718643,-0.2600503288255411,-0.04978536241768756,0.022640892160945093,-0.027317120505332918
616,1.0335019218220662,0.06459067513492465,1,,-0.9705629591951441,0.24297450187672248,-0.2625104100344752,-0.060188324192579086,0.020903629185028146,-0.023885533455406328
617,1.0335881398768685,0.0725813419326647,1,,-0.9708893261351623,0.2386750539076363,-0.26468856606012525,-0.0694319721537018,0.015915089897017603,-0.018024151617296143
618,1.0334168654875506,0.07957775621910369,1,,-0.971443686008925,0.23527354758509958,-0.2659205825909153,-0.07843558334838915,0.010482038428170682,-0.011910879526965656
619,1.0329567926983791,0.08518673380628344,1,,-0.9727027324527565,0.23464742292172688,-0.2642282462625495,-0.08669728267000953,0.003675076950331229,-0.005019058351503326
620,1.032216182956619,0.08914591702339926,1,,-0.973961778900522,0.23402129825639778,-0.2625359099288958,-0.0949589820174443,-0.003131884548777163,0.0018727628454930935
621,1.0312459955162778,0.09135302961873908,1,,-0.9742914639597928,0.2329722825020297,-0.2592845908625584,-0.09909118834505577,-0.00789833872026531,0.005899940766478767
622,1.0301364646947304,0.09187656436509077,1,,-0.9742723040290311,0.23176453039291986,-0.2554480922022303,-0.10167334862355859,-0.0118988682872134,0.008851846501472267
623,1.0290069164950315,0.0909452370285607,1,,-0.9731779238596132,0.23106192052540833,-0.2523068954371359,-0.10153393173439335,-0.013224854112503952,0.010217330928114698
624,1.027989813490069,0.08891598705347788,1,,-0.9680317203685271,0.23226287147045907,-0.2517858506376504,-0.09113861616104708,-0.004472180418501166,0.005604599344621958
625,1.027211315975028,0.0862236661459622,1,,-0.9628855168935206,0.23346382241175737,-0.25126480583979294,-0.08074330062018188,0.004280493248153135,0.0009918677755420958
626,1.0267717144185353,0.08331921627445958,1,,-0.9623674057655736,0.23218917037365963,-0.24985579036202374,-0.07125445203412208,0.015601490265122052,-0.006310888774132253
627,1.0267295076031795,0.08060598515521922,1,,-0.9639058307395036,0.22981446100271347,-0.2480521968063949,-0.0621684004845455,0.028063745810011472,-0.014808983096402639
628,1.0270923735142699,0.07838477874056245,1,,-0.9658454022246429,0.22814978770615535,-0.24674276161165742,-0.05354584634415715,0.038104572862150216,-0.0231394972118424
629,1.0278168409675583,0.0768169300604757,1,,-0.9696763351883819,0.22983285597498995,-0.24776322843561652,-0.04710863111728928,0.03672863242941525,-0.030679889302288554
630,1.028816511994736,0.07591156508289602,1,,-0.9735072681521209,0.23151592424382453,-0.24878369525957558,-0.04067141589042142,0.03535269199668028,-0.03822028139273471
631,1.0299767747203077,0.07553923828388494,1,,-0.9747607994308867,0.23503784060569563,-0.25265593149211013,-0.04417147350003539,0.030911464521272525,-0.04053493525803732
632,1.0311726181230825,0.075469859426901,1,,-0.9746724126044133,0.2395171488669878,-0.2580129347127475,-0.05284534872281856,0.024874302608615877,-0.04012882084897054
633,1.032285768966445,0.07542868370306256,1,,-0.9744361368421962,0.2425628468272213,-0.2624368508953741,-0.06273826421986306,0.01994821839405244,-0.03955693736122223
634,1.033217992851747,0.07516041024825493,1,,-0.9732932651969592,0.23682015782806196,-0.2611407119557412,-0.0801041991959788,0.021833316223933905,-0.037968848275328634
635,1.0338988128980666,0.07448875702005417,1,,-0.972150393555293,0.2310774688468462,-0.2598445730201581,-0.0974701341178332,0.023718414047925216,-0.036380759194397164
636,1.0342876418459581,0.07335831453996558,1,,-0.9732097247405117,0.22317340361490975,-0.25725638055997274,-0.09349297686517971,0.026498313596546325,-0.028770694051509043
637,1.0343718162452944,0.07184822564168053,1,,-0.9756023666650279,0.213960745853908,-0.2538859218983876,-0.07659377008163092,0.02981996558251141,-0.01751465894746351
638,1.034162767053886,0.07015369887291933,1,,-0.9778928672899957,0.20562174190028173,-0.2511101657627174,-0.0574876548799246,0.03215864637233946,-0.005771369360410074
639,1.0336923729358312,0.06854012113959852,1,,-0.979317470287869,0.20468909294723714,-0.2533759694696758,-0.01967258880846716,0.026164239856596723,0.010102594438984166
640,1.0330106079722423,0.06728240380911792,1,,-0.9807420732857423,0.20375644399419254,-0.25564177317663417,0.018142477262990276,0.020169833340853986,0.025976558238378404
641,1.0321843393921013,0.06660573827033808,1,,-0.9803182754772213,0.2067489574663294,-0.2588758633914974,0.04052591626477329,0.013526556740438327,0.037096433030465545
642,1.0312960352467535,0.06664153175244103,1,,-0.978599390660975,0.21249164656159153,-0.2627883861423237,0.05209714402348337,0.006428647600551372,0.04488534247912687
643,1.030440602274489,0.06740538607844936,1,,-0.9768353107116537,0.2177968699729797,-0.2663037442584214,0.06264755802876822,-0.0006945249618573763,0.052022112858435096
644,1.0297187949420334,0.06879633860502911,1,,-0.974476654372569,0.21734689920157954,-0.2645940991807651,0.05976838980168647,-0.008150057084557146,0.050579497204365303
645,1.02922658845996,0.0706117941623405,1,,-0.9721179980261145,0.2168969284287734,-0.2628844540977668,0.056889221565608515,-0.015605589230552372,0.049136881545787936
646,1.029041341953517,0.0725718908954259,1,,-0.9701006491113315,0.21633308168694715,-0.25979494001569015,0.05587467123594945,-0.019023351475954367,0.03901842674321538
647,1.0292070698049682,0.07434926620669667,1,,-0.9683588777311657,0.21567728951133383,-0.25559129576457135,0.05636564573987956,-0.01918094828424854,0.021894948923138723
648,1.0297221980801035,0.07560304724639208,1,,-0.9667589755868566,0.2151356673525246,-0.25153926485185024,0.05702965768215269,-0.01926889479512353,0.00475405845011771
649,1.0305333992023409,0.07601738146297528,1,,-0.9689680386398893,0.21765932998750237,-0.25155781312308856,0.06233945166602002,-0.01748684074780269,-0.012854332779033497
650,1.0315382678723237,0.07534393505987422,1,,-0.9711771016929219,0.22018299262248014,-0.25157636139432693,0.06764924564988735,-0.01570478670048185,-0.030462724008184703
651,1.0325978151367383,0.07344477583107818,1,,-0.9739723639191158,0.22528000409297164,-0.2525077088216552,0.07380767411763003,-0.01591859670039614,-0.03715515321149164
652,1.033557432692469,0.07032835700067042,1,,-0.9773119034047715,0.23276633186211737,-0.25428657674985605,0.08075404715469924,-0.01798553691028357,-0.03371227335905091
653,1.0342727514120493,0.06616893645168741,1,,-0.9806450605331686,0.24024940960460534,-0.2560669803634369,0.08767482884941502,-0.020050034758666794,-0.030261924041044674
654,1.034635326688968,0.061300357232628916,1,,-0.9785516051807569,0.24496916081941705,-0.25915311051339013,0.0728365015716802,-0.02003791177447476,-0.020460626621883873
655,1.0345927875349783,0.05617927926793402,1,,-0.9764581498218039,0.24968891204897609,-0.26223924067298626,0.05799817424758176,-0.020025788790244844,-0.010659329172098072
656,1.034159124472518,0.05131992283194017,1,,-0.9738548204883561,0.24859028719508908,-0.26371595086791727,0.04126834796335519,-0.019298122330460805,-0.001784719673746216
657,1.0334128987922422,0.047210145199469825,1,,-0.9707074879295495,0.24128382380570032,-0.26347551196512303,0.022520412109770956,-0.017807016328584696,0.006101172540391278
658,1.0324837497167738,0.044224686803206334,1,,-0.9675601553707427,0.23397736041631156,-0.2632350730623287,0.0037724762561867206,-0.016315910326708587,0.013987064754528772
659,1.0315299739247041,0.04255373886231249,1,,-0.9694681819940077,0.2243018132276953,-0.259227752471962,0.004847986214223186,-0.011690777729001912,0.014556324587587209
660,1.0307115790347638,0.0421629264005604,1,,-0.9715517535766397,0.21454400075173388,-0.25508962870288737,0.0066118559838762025,-0.006956817549447117,0.014871517806935096
661,1.0301637674839994,0.042794913996589204,1,,-0.9724398474344567,0.21124660127134418,-0.2513387150008891,0.017434607881615948,-0.006665193798946346,0.01385564329637229
662,1.0299753516532395,0.04401440960100643,1,,-0.9718613228425065,0.21587487092000002,-0.24806283266382967,0.039370844751176616,-0.011823452085492486,0.01120680778825813
663,1.030175453604432,0.045288990963527405,1,,-0.9712827982523642,0.2205031405541944,-0.24478695033700604,0.06130708155219561,-0.016981710355921203,0.008557972288420482
664,1.0307303332320683,0.04608985192675496,1,,-0.9708419146725955,0.2292996343827679,-0.24919964125759755,0.06891572316408032,-0.014973347820060458,0.010082606699352025
665,1.031550524586663,0.04599147401493646,1,,-0.9704111200348583,0.23840165468311603,-0.25417589655182105,0.07547416704114715,-0.012439679478325773,0.011913152087580321
666,1.0325067988819467,0.04474914958167529,1,,-0.9709094413898114,0.24320554595508875,-0.2591454920612675,0.07111770451842048,-0.005618909007479381,0.011762137109323794
667,1.0334520368231224,0.04233853770265578,1,,-0.9727210472744869,0.2419341285961311,-0.26410567407742286,0.05133326761845346,0.007261583732833277,0.008810231175710066
668,1.0342451582742884,0.038950571096832615,1,,-0.9745326531591622,0.2406627112371734,-0.26906585609357825,0.03154883071848644,0.020142076473145934,0.00585832524209634
669,1.0347730352760667,0.03494540754706575,1,,-0.975882455084144,0.236127476839772,-0.2666684468480278,0.01702189452018615,0.016804239292860932,0.0010143715251444679
670,1.0349668606934643,0.030777852420458177,1,,-0.9771792138064538,0.23121735764032933,-0.263425938382718,0.003098839401855755,0.011603550871718032,-0.004046904402327484
671,1.034810637775016,0.026911642048831973,1,,-0.977172127811895,0.22752544365447183,-0.26102904149969025,-0.0042320025110028905,0.005592929113591027,-0.006512712147957377
672,1.0343410158757793,0.02374044577229319,1,,-0.975034154988221,0.22582445497682344,-0.2600141363215949,-0.0007891225898716435,-0.0017413750262737298,-0.004736719553008508
673,1.0336392581588123,0.021530023100430187,1,,-0.9728961821578668,0.22412346629386015,-0.25899923114032847,0.0026537573420171794,-0.009075679189055153,-0.0029607269525103977
674,1.032817347394199,0.020390018104884968,1,,-0.9720223548171747,0.22408739221408788,-0.2600324239632645,0.012467598002932597,-0.0068561552515592275,0.0005974623072519958
675,1.0320008911387686,0.020276949624535967,1,,-0.9713505015156694,0.2243173235354032,-0.26139284385894396,0.023299334698311847,-0.0031102047496729306,0.004440395264526143
676,1.0313115274988511,0.021023548268152545,1,,-0.9707479105803872,0.22515689780895026,-0.2619421801916885,0.031269299302091935,2.3513466419144372e-06,0.00682213129427181
677,1.030851103678483,0.02238496082216531,1,,-0.9702768922402267,0.22715456565973,-0.2609507611189962,0.033802967246586164,0.0019116949523142808,0.006428139670776837
678,1.030689265712659,0.024090346079467646,1,,-0.969805873900066,0.22915223351050976,-0.2599593420463038,0.0363366351910804,0.0038210385579866475,0.006034148047281863
679,1.0308554839315194,0.025889230570357566,1,,-0.9702826659048516,0.22776446265440814,-0.26046858804915257,0.03130640826015326,0.005770508952637134,0.001351608084981608
680,1.0313360341500535,0.027585103554736593,1,,-0.9709570306581622,0.22567099109255379,-0.26129065034952725,0.024699474014636163,0.007728343853693121,-0.004224887397509938
681,1.0320760416061399,0.029052901435318194,1,,-0.9718366848376757,0.22323975240992738,-0.26222677070495687,0.02146879290888891,0.009334642362926924,-0.008707296388497892
682,1.03298632347311,0.03024084717544427,1,,-0.9731729786133517,0.22005719474374155,-0.2634165983545276,0.02574814713984924,0.010158993966632291,-0.010756052512879392
683,1.0339543955817474,0.03115953191159416,1,,-0.9745092723890277,0.2168746370775557,-0.2646064260040982,0.03002750137080957,0.01098334557033766,-0.012804808637260892
684,1.0348586148768544,0.03186199512235832,1,,-0.9756539961742812,0.21872394605728543,-0.26506026264369287,0.031082492644715642,0.009371405024552923,-0.014767069257627776
685,1.0355840093000963,0.032418589310991765,1,,-0.9767486439310178,0.22188857521320682,-0.2653217126587198,0.0312946416901526,0.007122622441686041,-0.016706720113242788
686,1.0360379425419899,0.0328905492612339,1,,-0.9776596214906058,0.22597888922195042,-0.26517632604730795,0.027435277328400145,0.005291174203335468,-0.017033791119235826
687,1.036163471597807,0.033306857331046984,1,,-0.9780873578320634,0.23250470494959097,-0.2639605413460906,0.01286365184385142,0.004557743826781371,-0.013118121237675761
688,1.0359482242539515,0.03364981757910635,1,,-0.9785150941721845,0.239030520656841,-0.26274475664867203,-0.001707973595167005,0.003824313452518941,-0.009202451368350547
689,1.03542699783196,0.033854651922472084,1,,-0.9763316378559491,0.23635896036854848,-0.26464520777575073,-0.016651775620736563,0.003973079482865353,-0.0025942445815130204
690,1.0346771415932454,0.03382621047446443,1,,-0.9733146981451796,0.23075163042461175,-0.26754035027761114,-0.03171437508699655,0.004403439463075747,0.00487341039826184
691,1.0338070567177895,0.03347122917939397,1,,-0.9709231400215707,0.22513820253195263,-0.26967415706024683,-0.04441371761510825,0.005115347982648317,0.010463589001783251
692,1.0329395331128417,0.03273883010423044,1,,-0.970504700096058,0.21950553530114195,-0.269405901826683,-0.04965683598040029,0.006715559809427553,0.010130211703387767
693,1.0321927180379946,0.031657687452717666,1,,-0.9700862601705456,0.21387286807033126,-0.2691376465931192,-0.05489995434569234,0.00831577163620679,0.009796834404992282
694,1.031661959666893,0.030357624584409795,1,,-0.970735857771316,0.2119848394231355,-0.2669644387544012,-0.04613105225532417,0.003611451319599603,0.008420008613580112
695,1.0314055334801548,0.029066885775204245,1,,-0.9717940287675644,0.21152930699682496,-0.26406249907782375,-0.03200190894397532,-0.003504642026813021,0.0066440158641889666
696,1.0314365007154662,0.028082748972728805,1,,-0.9723579412160257,0.21256214762862324,-0.26165392620571665,-0.017693015753681256,-0.0102674765515805,0.005623223101658728
697,1.031721897955381,0.02772025782263002,1,,-0.9710160574394086,0.21933395983380605,-0.26114771111325413,-0.0026910305727967086,-0.015668191327926264,0.007514382576642239
698,1.0321893088718344,0.028249291122388956,1,,-0.9696741736585986,0.22610577206014795,-0.2606414960192099,0.012310954654962836,-0.02106890612114703,0.00940554205753484
699,1.0327397276505683,0.02983257409412338,1,,-0.9717162376418067,0.23061296976593257,-0.26351198233074535,0.014829402719702902,-0.014708133783697938,0.011638944923863014
700,1.0332645367763327,0.03247675843917445,1,,-0.9752888153446628,0.2340959130189172,-0.26790970493337585,0.011701716097367634,-0.0030278001915380235,0.014027139838736016
701,1.0336635199394304,0.03600651757658098,1,,-0.9778055345765688,0.23700151004640552,-0.27071432550868835,0.00562584476374345,0.006866603957842603,0.014340916841513838
702,1.0338604433146843,0.04006852098982892,1,,-0.9752108019658591,0.2371121515577845,-0.2658066773492026,-0.01472230295634407,0.008115254248282576,0.004612356294680063
703,1.0338132515168976,0.044167990110538964,1,,-0.9726160693551493,0.23722279306916347,-0.2608990291897168,-0.03507045067643159,0.009363904538722548,-0.005116204252153712
704,1.0335173850237778,0.04773489880849957,1,,-0.9706186282296165,0.23472719428981434,-0.2597586821277449,-0.05124538756427747,0.008694383339487572,-0.010203899905509056
705,1.0330026143432474,0.050210334433144356,1,,-0.9689374151877252,0.23085175599488,-0.26061288288290557,-0.06521087313275718,0.007009311571476034,-0.012834550937278347
706,1.0323253032639297,0.05113790523031278,1,,-0.9680199068913665,0.22691820167906937,-0.2610314159878686,-0.07650370361014668,0.00575603368079311,-0.014806757789393023
707,1.0315586105091725,0.050242536926668746,1,,-0.9719348924054868,0.2226169065926714,-0.25869317530439456,-0.07088477710454656,0.007235017492958096,-0.012612528039529614
