id,ASVM,GSVM,walking_nonwalking,normal_abnormal,ax,ay,az,gx,gy,gz
1,0.9368440436133797,0.042902489728519615,1,,-0.030294608250523884,0.2403745723565132,0.9108734379222263,-0.03778076,-0.008224487,0.024963379
2,0.9165214151802459,0.05359075072063698,1,,-0.02383953117554549,0.23685620712554226,0.9235771536035184,-0.03778076,-0.008224487,0.024963379
3,0.8982684190213275,0.08038254877084969,1,,-0.017384454100567093,0.2333378418945713,0.9362808692848104,-0.03778076,-0.008224487,0.024963379
4,0.8830288565996642,0.13594161557655743,1,,-0.015732300708609256,0.23390263121243673,0.9317740214407267,-0.02282094468603561,-0.005830682471965607,0.02125854201972598
5,0.8718021161253238,0.2285947552021402,1,,-0.019225941821225983,0.23884206307859512,0.908827983349521,0.008166636450891916,-0.0008721846241233336,0.013584387351642213
6,0.8656204153155036,0.3608902765574695,1,,-0.022719582933842707,0.2437814949447535,0.8858819452583154,0.03915421758781944,0.0040863132237189395,0.005910232683558449
7,0.8654311385467383,0.5288881814785753,1,,-0.03476568210907302,0.25345313361208105,0.8602269579415959,-0.0833836024330511,0.07152369537872132,0.04230198349525567
8,0.8719008894968049,0.7223393996290631,1,,-0.04711705246886949,0.26329368352869265,0.8344752774715223,-0.2114013535718898,0.14119119697811994,0.08026662143090119
9,0.8851844644617363,0.9258144372922922,1,,-0.07636064744834845,0.23587733977183883,0.7852943821566828,-0.43861060513781563,0.2834784808950314,0.11993784867626446
10,0.9047222228673143,1.1207073842266355,1,,-0.12639228455898932,0.1626116247951084,0.7072808424860157,-0.7878876798251657,0.5151336916235959,0.1617092521466001
11,0.9291376376294133,1.2878811909195638,1,,-0.17642392182595001,0.08934590958946523,0.6292673025716017,-1.1371647556038036,0.7467889030759484,0.2034806557474471
12,0.9562959165655082,1.4105608875974058,1,,-0.18017751108781793,-0.014642154042233138,0.8205666934988775,-1.6797571080254023,1.2198060145024083,0.27466813945739504
13,0.9835486485129432,1.476963752576962,1,,-0.18050511892284848,-0.12090460476746037,1.0318034227289536,-2.2366606636168025,1.710691238826942,0.3480333067224716
14,1.0081326541112994,1.4821315416801404,1,,-0.1878561098639069,-0.1502208989618597,1.1679933509252438,-2.212308764548072,1.5643969920124279,0.2750974681877706
15,1.0276337276893426,1.4285495049998391,1,,-0.2051549515906705,-0.07055141349044028,1.1978877279094877,-1.3646723537212515,0.5156080062784829,-0.005057676701681209
16,1.0403951739418364,1.3254090430821448,1,,-0.22245379326338524,0.009118071732058319,1.2277821048003292,-0.5170359455428016,-0.5331809761786059,-0.285212820715811
17,1.0457631368870657,1.1867210820929963,1,,-0.1652504869167864,0.01573579706284934,1.1241819164786018,-0.28556024868147545,-0.350898543943732,-0.3223961936031893
18,1.0441105620417415,1.028774615811204,1,,-0.09945604467570346,0.013929636439621999,1.005187944469062,-0.12513646862270048,-0.026656421671855977,-0.33156153525557613
19,1.0366485432518753,0.8675436540172392,1,,-0.07137611207650199,0.013292468916178002,0.9184012020465996,-0.05996084992702756,0.08886671440787859,-0.3447421193873193
20,1.0250931162144077,0.7165623151346963,1,,-0.10499344553052743,0.014567660295887469,0.8843023516725768,-0.1506019502739952,-0.13705409094855453,-0.36449124930871707
21,1.0112879311562393,0.5855843908724391,1,,-0.1386107789845529,0.015842851675596934,0.8502035012985538,-0.24124305062096285,-0.36297489630498764,-0.3842403792301149
22,0.996880969721053,0.48011140807203945,1,,-0.1346465540042187,0.00998819938417294,0.9082399886375705,-0.32260784124952907,-0.3426997440507765,-0.38718761923431116
23,0.9831220216748006,0.401679168101944,1,,-0.12467311291355218,0.0029934993157918277,0.9810087325769574,-0.402489368785459,-0.283058350064439,-0.3874482706259559
24,0.9708014020759959,0.34867292426047103,1,,-0.11894340040910037,-0.004921581662320205,1.027737320073794,-0.3895992543310532,-0.2457944646482637,-0.36154293787666303
25,0.9603064088758705,0.3174032607294887,1,,-0.12127372948156469,-0.014584726459388202,1.0250082810206809,-0.20050953700151397,-0.2510318009287811,-0.28594099616845475
26,0.9517442320715741,0.3032025145418412,1,,-0.12360405855402898,-0.0242478712564562,1.0222792419675675,-0.011419819671974793,-0.2562691372092985,-0.21033905446024642
27,0.945074548830733,0.3013658602727462,1,,-0.10548277454737913,-0.02119187715335494,0.9851321697771154,0.13158206776490067,-0.3077899719369538,-0.15434927614502716
28,0.9402088007993537,0.30783176156637815,1,,-0.083103566633745,-0.015487821757697001,0.940819434610672,0.2649886994256661,-0.36894680039214917,-0.1024426522192189
29,0.9370571171046378,0.319555061881931,1,,-0.0627684375737752,-0.009886814551745043,0.9065724188446397,0.3225827439742099,-0.37997842330262693,-0.06296006381585376
30,0.9355278536238583,0.33457251599432397,1,,-0.0469734949424864,-0.0045146918585233725,0.8946827806008754,0.21178637710928583,-0.279674919615124,-0.05107300450243931
31,0.9355008758946237,0.35180537439885223,1,,-0.03117855231119759,0.0008574308346982985,0.8827931423571111,0.10099001024436179,-0.17937141592762107,-0.03918594518902486
32,0.9368002237610205,0.37068962266831806,1,,-0.023301089504572138,0.0029572433553586774,0.907409320662784,0.053898426776138396,-0.1716415500464233,-0.055090691432229104
33,0.9391853845411329,0.3907584050399416,1,,-0.017487625457450928,0.004204001083603308,0.941542158339103,0.02341397037537965,-0.18804459965590473,-0.0782404515417255
34,0.9423672988243323,0.411304472154277,1,,-0.017316705845055215,0.0054144224192273945,0.9707098896488661,0.04140488075590839,-0.21496380837983317,-0.10361857940829057
35,0.9460414275269345,0.43121674751520833,1,,-0.031948338056568666,0.006529519491655673,0.9868522480095241,0.18656521556258995,-0.26947092373367565,-0.1348425678456458
36,0.9499215071963367,0.44902500998368605,1,,-0.046579970268082124,0.007644616564083952,1.002994606370182,0.3317255503692715,-0.32397803908751815,-0.16606655628300102
37,0.9537575376352991,0.4631200864069802,1,,-0.05177992719846701,0.02532212925902067,0.9741739620730707,0.44165938044329167,-0.4105748855916711,-0.13342842730241417
38,0.9573300544514296,0.4720642698786066,1,,-0.05398106968394148,0.0482656853376568,0.9310572677278357,0.5403928937032485,-0.50737470732965,-0.08048524810676365
39,0.9604262127036783,0.47488477664789197,1,,-0.048927595977517294,0.06745817159702111,0.8974202173371221,0.4973621059179525,-0.467963326887483,-0.040277738619710304
40,0.962815378143337,0.4712604040184689,1,,-0.021091581953652714,0.07487072421356686,0.8935532279805857,0.009131901171817586,-0.0007915910986473368,-0.040065577794070203
41,0.964246136862025,0.46155977948230503,1,,0.006744432070211867,0.0822832768301126,0.8896862386240495,-0.4790983035743173,0.4663801446901883,-0.03985341696843011
42,0.9644791706429372,0.4467417194874859,1,,0.04599324751307475,0.05950598796713118,0.9549958211480117,-0.4584358465374409,0.39352655250975205,0.01062939517589573
43,0.9633529197602505,0.4281587534116963,1,,0.0895864988041108,0.0252365312516546,1.0466383930667675,-0.24405657611221496,0.11510508022533494,0.0802484046202427
44,0.9608585323474146,0.40731401395688305,1,,0.11537605863618879,0.0007632323494290638,1.102380871229625,-0.025073497028006195,-0.12523330371689123,0.12805203569585208
45,0.9571880900100184,0.38562437015303724,1,,0.07298505917242808,0.013805047701427466,1.0206412728860053,0.2115402086839394,-0.2197296706162182,0.09231205432676337
46,0.9527249798043552,0.36423862655884126,1,,0.030594059576220124,0.026846863094173962,0.9389016742869968,0.44815391513516534,-0.3142260378107914,0.05657207284600797
47,0.9479683181761113,0.3439388400870108,1,,0.0017514430381363288,0.03767609693072478,0.8861823266271207,0.3653690753908328,-0.18574179523242165,0.022830867523267167
48,0.9434134359792419,0.32512368931858476,1,,-0.020999258192772118,0.04751046227317292,0.8465116881863248,0.1389693936162165,0.04300378362877074,-0.01001160508573295
49,0.939431324649103,0.3078566719757325,1,,-0.04016290584824682,0.05490313909630639,0.8275200308377344,-0.062001967178407134,0.2418693839547136,-0.032211950879167936
50,0.9361910654957911,0.2919622763942088,1,,-0.04213039684138297,0.0505904824605305,0.907662381380508,-0.1410712200823891,0.29749185127642164,-0.003394469449207424
51,0.9336509942157037,0.2771533952908327,1,,-0.04409788784066639,0.046277825811280066,0.9878047321736801,-0.22014047323341648,0.35311431877191757,0.02542301207079097
52,0.9316161287060382,0.26316397671769626,1,,-0.04554402130956468,0.043989025995659854,0.9990140125278135,-0.12791392603112314,0.30275895507639083,0.040646155872571026
53,0.9298348234081176,0.24985358186595713,1,,-0.04671598616324497,0.042764520820736576,0.9739731509667914,0.054392709476093024,0.19667255552148755,0.04872038452536208
54,0.9280977468394966,0.2372585494750109,1,,-0.047021413346194064,0.04293352831419797,0.9482750257159488,0.20901796820229102,0.10354264798733177,0.05715214342549986
55,0.9263091975130489,0.22558487458399226,1,,-0.04192002924841158,0.05179743767950417,0.9184758661389952,0.19092369574007545,0.09125551230563943,0.06781473272095775
56,0.9245173289926489,0.21515685323047593,1,,-0.03681864516656795,0.060661347017115806,0.8886767066551466,0.17282942333439397,0.07896837666233723,0.07847732198310127
57,0.922905957556647,0.20634451535702733,1,,-0.03511843025785561,0.06537684299775749,0.8933259847265327,0.11731625736804564,0.10244786205488209,0.07218435852059056
58,0.921759527121283,0.19949330262057816,1,,-0.03549486815574423,0.06755944107790993,0.9190084548412113,0.03895622731008664,0.14776538310737997,0.05553883855031837
59,0.921413177703508,0.19487538798811255,1,,-0.03682723126945789,0.06914726131473373,0.9424882192653674,-0.025492355536193764,0.1877176528248749,0.039438766955315764
60,0.922194953099342,0.19267497940688422,1,,-0.04642485628193454,0.06559242544696911,0.9469226241606902,0.030342272784942257,0.18128009339845033,0.028054831726657417
61,0.9243624998915999,0.19301077732143526,1,,-0.0560224812944112,0.062037589579204466,0.9513570290560127,0.08617690110607827,0.17484253397202576,0.016670896497999067
62,0.9280366049850117,0.1959898751225257,1,,-0.06481791569578878,0.06316575645535044,0.9263163420217546,0.09018597900309056,0.16902706412586838,0.0248490705948497
63,0.93313939427478,0.20178114563109764,1,,-0.07304762851722865,0.06759647499284997,0.880489202450229,0.057646592890600236,0.1636503048550266,0.04682285410555607
64,0.939352770168356,0.21069263207983788,1,,-0.08133543063003755,0.07187183227489652,0.8411982308985196,0.01903178781533678,0.16392276711397233,0.06587197955114071
65,0.9461169350815668,0.2232347272791596,1,,-0.0904045554844186,0.07405752243958351,0.8898211690582425,-0.1012996794590978,0.24017937635382253,0.04558335781911426
66,0.9526841230104856,0.24014747434501546,1,,-0.09947368033879966,0.07624321260427051,0.9384441072179656,-0.2216311467335324,0.31643598559367275,0.02529473608708781
67,0.9582277172515489,0.26236842937144894,1,,-0.09117026686533658,0.0707788156430518,0.9791917616833181,-0.2170301425387663,0.3112233287182941,0.015090649986866047
68,0.9619871515464963,0.2909240776759513,1,,-0.06876571713459338,0.05910491038727208,1.0135471176394126,-0.11102255210473932,0.23988278641693644,0.013072092631344217
69,0.9634135578464346,0.3267480768477219,1,,-0.04871239062807568,0.04828448255923041,1.0453485065848274,-0.004584544282656053,0.17331894449154508,0.010616379998895977
70,0.9622772124248631,0.37045767599657925,1,,-0.09399126873300787,0.06117918398330546,1.0061841549580353,0.1138132358396801,0.2394827689085609,-0.0039863361347599645
71,0.9587072407734402,0.42213839434736616,1,,-0.13927014683794003,0.07407388540738051,0.967019803331243,0.23221101596201627,0.3056465933255767,-0.018589052268415906
72,0.9531534631499415,0.48118240340864804,1,,-0.15757099422002183,0.07567861217913446,0.9255298632896676,0.23123701696078672,0.45375166101594505,0.002136983081286723
73,0.9462829647289799,0.5462010411127413,1,,-0.15071907980052088,0.06675721695248314,0.8818716787080699,0.1189676476612595,0.6782540231487593,0.0558015110945211
74,0.9388421814328424,0.6150047596093918,1,,-0.1438691625162876,0.05784425445758681,0.8382347640005183,0.006764492674384534,0.9025868111556895,0.10946084270218354
75,0.9315229593883326,0.6846348972682944,1,,-0.14428577766350642,0.07961337217695272,0.8719874815787134,0.13547934128532724,0.5099319601158857,0.14421276035837394
76,0.9248657864950881,0.7514500353387433,1,,-0.14470239281072525,0.10138248989631862,0.9057401991569086,0.26419418989626997,0.11727710907608196,0.17896467801456434
77,0.9192175054641614,0.8113024866444658,1,,-0.14620166242963592,0.1146528060176359,0.922393486677218,0.4518131666977857,-0.19740890410007858,0.20532765568336983
78,0.9147411381153332,0.8598538255689576,1,,-0.14885959933713075,0.1188276224561801,0.9207467987394798,0.7024719112936684,-0.42865191276866516,0.2227127086278729
79,0.9114602924147269,0.8930441854803828,1,,-0.1515175362363211,0.12300243888168044,0.919100110806887,0.9531306551063883,-0.6598949207147518,0.24009776151805778
80,0.9093149079579487,0.9076593348528963,1,,-0.11829090136944441,0.1381069788763318,0.9138822410916064,0.9030033292276678,-0.4893092517239885,0.299576586254546
81,0.9082083249959468,0.9018786825773966,1,,-0.08379397701277048,0.15359842366803658,0.9085379539647794,0.8422283805654375,-0.3044991202221709,0.36054550194793594
82,0.90803416349235,0.8756751142638107,1,,-0.062322731625116465,0.1686936368013149,0.8936866256305217,0.800604529185209,-0.25045642905490045,0.3729609783007607
83,0.9086814725912147,0.8309727139273889,1,,-0.056863452414390316,0.18330177759632643,0.8671486571895877,0.7825223851247901,-0.3571611228539083,0.3256915790825163
84,0.9100251655409815,0.7715217782993077,1,,-0.051404173203664166,0.19790991839133798,0.8406106887486535,0.7644402410643714,-0.46386581665291615,0.2784221798642718
85,0.9119135113000257,0.7024988658495838,1,,-0.03051701190054558,0.21777928344128536,0.8675950840975869,0.6174864772752452,-0.3405640159282886,0.2542093238366649
86,0.9141636745798997,0.6298804406858503,1,,-0.00849260713684886,0.23803647188153595,0.8985248010076039,0.461033133149132,-0.2003076280162593,0.231696046529021
87,0.9165703494917529,0.5596768412880796,1,,-0.003471334163882982,0.24896209511364853,0.9098798768341536,0.36327711023298465,-0.10736956670626935,0.19075748881398225
88,0.9189249441265643,0.49714429691846973,1,,-0.022505868993573173,0.24668554230503364,0.8935410072449204,0.3485652873463551,-0.0813768531293655,0.12375108608982796
89,0.9210382886915776,0.4461037653372501,1,,-0.041540403823263364,0.24440898949641882,0.8772021376556873,0.3338534644597256,-0.05538413955246165,0.05674468336567369
90,0.9227604753300626,0.4084792652442028,1,,-0.05339786013222354,0.2526058919219095,0.8781511961148716,0.28097623088918483,-0.059526875861415564,0.060300790229166665
91,0.9239949820801161,0.38413047990844074,1,,-0.06443015157012592,0.2620069509887122,0.8810878864797076,0.22371103451522392,-0.06713435250143358,0.07196962726041667
92,0.9247069956989601,0.3710058522645236,1,,-0.06622387775930208,0.26877992019332136,0.8850172441335795,0.2168476070053562,-0.113791060780871,0.08857254982910684
93,0.9249261969937247,0.3655908120769065,1,,-0.05292183177029214,0.27125860288798476,0.8905686154493317,0.29234043282357025,-0.2242540296790757,0.11323774487705239
94,0.9247432476567298,0.363575095698932,1,,-0.039619785781282196,0.2737372855826482,0.896119986765084,0.3678332586417843,-0.3347169985772804,0.13790293992499794
95,0.9242986924260455,0.36062027597099316,1,,-0.020978382485997045,0.28249727986508644,0.8846953388239015,0.3694003761381331,-0.3609817096769858,0.12432186188026544
96,0.9237640161179037,0.3530861672441433,1,,-0.0014851994013956717,0.2922593225128917,0.870562531590007,0.35917423451218156,-0.37381439700032576,0.10463941234673506
97,0.9233169480329573,0.33858377860645583,1,,0.012736062478692458,0.30095260088276765,0.8611560690516239,0.32896742759161,-0.3514565116604923,0.08564746629238451
98,0.9231155505769327,0.31626316733264803,1,,0.016956618599754933,0.3076184595744196,0.8607153669905797,0.26085778587082104,-0.2623429684418207,0.06796538831754406
99,0.9232766732509486,0.2868050863586187,1,,0.021177174720817406,0.31428431826607156,0.8602746649295355,0.192748144150032,-0.17322942522314905,0.05028331034270362
100,0.9238632711728186,0.2521484804764103,1,,0.01802400518018659,0.31387020909929597,0.8667378556258584,0.12817679385027256,-0.1184397750692239,0.041017840241978076
101,0.9248823800869064,0.21503569358313432,1,,0.01333861927105538,0.31198492468965844,0.8746356342055038,0.06434067947880243,-0.07078242589818949,0.03350129123536965
102,0.9262924572674547,0.17848302543297126,1,,0.00900778739962896,0.31080529373791826,0.8798850189882855,0.02555544619825212,-0.040572168381658474,0.024960104444357405
103,0.9280165456650833,0.14528288273364287,1,,0.005463459920188333,0.3111910082945048,0.8792594926770007,0.04234038518623099,-0.049064656868401946,0.014145971622561364
104,0.9299569709222367,0.11761950084903554,1,,0.0019191324407477062,0.3115767228510914,0.8786339663657156,0.05912532417420986,-0.05755714535514542,0.0033318388007653227
105,0.9320080168240378,0.09684250576683687,1,,0.004022647780719336,0.3152236098409868,0.8788235933367841,0.06840195414029503,-0.07187446704539456,0.012171106480126563
106,0.9340646417931615,0.08340299043169883,1,,0.0075960272436174665,0.3197192244799453,0.8792253658300861,0.07572452936229379,-0.08770771501433483,0.02612521697892076
107,0.9360270320190092,0.07692552557401883,1,,0.011598876028805083,0.32346416695095825,0.8785622571641798,0.07858425668532588,-0.09374614299311838,0.037388222120292504
108,0.937802152432452,0.07637245828511176,1,,0.01672683931760291,0.3252425145706254,0.8751093956868554,0.06975231082570059,-0.07412431169417268,0.041601127149722084
109,0.9393043091952211,0.08025444545233444,1,,0.02185480262242264,0.32702086219584886,0.8716565341987429,0.06092036493848061,-0.05450248033392015,0.04581403219231454
110,0.9404569791147955,0.08684961336021722,1,,0.020199916259216542,0.32627974493580164,0.8756429165960965,0.05775228222830068,-0.047597884781534545,0.04010712499447001
111,0.9411975861393473,0.09440689366268042,1,,0.016391649367520928,0.3247387622959083,0.8819910678242059,0.056382330580786136,-0.04473068491166904,0.03125093223520065
112,0.9414854478080357,0.10132090297484109,1,,0.014905545810805382,0.324067188957039,0.8874293004690305,0.06042375789021878,-0.047849420022810674,0.029071021062718423
113,0.9413111966929104,0.10627246764594706,1,,0.020701084049712878,0.3261218351775253,0.8900142880010528,0.08143372595270745,-0.06973833967997513,0.047826024462950735
114,0.9407044513987294,0.10833014214379669,1,,0.026496622270512686,0.328176481391592,0.8925992755249982,0.10244369394955218,-0.09162725926874943,0.06658102780458455
115,0.9397361733025014,0.1070065114729817,1,,0.028588266076916016,0.32924536308507435,0.8865282756818362,0.09958251480266268,-0.08034253090052194,0.05993642740214342
116,0.9385133200840908,0.10226310096318443,1,,0.02927191207277357,0.3299395164160108,0.8771667902445343,0.08764696174514948,-0.05644717751618442,0.04363642585515199
117,0.9371657587862614,0.09446261549624446,1,,0.031419754825180696,0.3312580526310372,0.8691057087832889,0.07233943172915103,-0.03707125345633899,0.03096730071194519
118,0.9358279995690446,0.08427636979977168,1,,0.03916547641084456,0.3349637131960253,0.8660162978708877,0.04414024739299428,-0.03497389366103444,0.032179647492507936
119,0.9346200130619464,0.07256396717718859,1,,0.04691119799650842,0.3386693737610134,0.8629268869584867,0.01594106305683754,-0.0328765338657299,0.03339199427307068
120,0.9336314835619522,0.06024722442123051,1,,0.04240033577452822,0.33738759510951505,0.8665597850206835,0.0023161650307806803,-0.027599938197225497,0.02737157969755827
121,0.9329124513015778,0.048199431013295574,1,,0.03238547784607664,0.33386613495834966,0.8732114328730943,-0.004763939643320222,-0.020895660794687222,0.018103189318926058
122,0.9324712056575086,0.037165379132139166,1,,0.024955426117152815,0.3310798334992888,0.8775625051539465,-0.008936169035918996,-0.016438044540892163,0.01090122412668702
123,0.9322784806742626,0.02771940602272439,1,,0.029893007107608564,0.3318110772612464,0.8709059151514871,0.0008050367380921595,-0.022730123926805807,0.013586571860289587
124,0.9322761495788201,0.020260039445886023,1,,0.03483058809806431,0.33254232102320397,0.8642493251490277,0.010546242512103315,-0.029022203312719454,0.016271919593892153
125,0.9323887288903051,0.015032490845655787,1,,0.03566040033642563,0.3331268556240844,0.8661268221154453,0.0023753027938542633,-0.017410085610820032,0.01549963119640929
126,0.9325364185987695,0.012165685677338861,1,,0.03433266820401096,0.3336343334253093,0.872486721203581,-0.015203724681629076,0.003605945083623818,0.012911270899600943
127,0.9326483792498799,0.011709525319713626,1,,0.03342670455958474,0.3343683520863982,0.8773501534243585,-0.029089593878139697,0.018739098431251985,0.010814548705072688
128,0.9326744359753416,0.013660254385779703,1,,0.035146327694496084,0.33651262946424276,0.8728978028530393,-0.019984870302965602,-0.0027497468439434047,0.011778364550552162
129,0.9325930884762975,0.017966119961660296,1,,0.03686595082940742,0.33865690684208744,0.8684454522817202,-0.010880146727791504,-0.024238592119138796,0.012742180396031635
130,0.9324141962023015,0.024511063987789947,1,,0.03504889695733415,0.3378915151420249,0.8683161411488515,-0.013643914382219532,-0.02588386213736333,0.01290396914978018
131,0.9321758635757841,0.033080232009987165,1,,0.031074972854271212,0.335351638915432,0.8708232695550603,-0.023645774575541005,-0.015427372002066727,0.012576635384981966
132,0.931936250525813,0.043316674462389765,1,,0.026931111509521904,0.33310505708784444,0.8725655825412139,-0.03206176798256047,-0.007063948790292908,0.012232289949387416
133,0.9317618754915132,0.054682787818357996,1,,0.021322247190027104,0.333386921678326,0.8677145381930162,-0.026806245058274412,-0.01674453706637122,0.011741289499286886
134,0.9317145041518126,0.06644195599233507,1,,0.0157133828705323,0.3336687862688076,0.8628634938448188,-0.021550722133988353,-0.02642512534244953,0.011250289049186356
135,0.9318390188461004,0.07767471881650305,1,,0.016494577160461262,0.3316539291223322,0.8651303595951559,-0.032491381676483425,-0.00984471097007297,0.012050288735233986
136,0.9321545385524114,0.08733892279822492,1,,0.021777071613003282,0.32802120983093147,0.8724112403713883,-0.05484099428615655,0.025234540849200147,0.013759697783225045
137,0.9326502553743488,0.09437454772384266,1,,0.027005154045944606,0.3248006388410005,0.8789244693016615,-0.07680651630298198,0.05922722078114545,0.015210940753400841
138,0.9332861787913964,0.09784243138882931,1,,0.031504484209513475,0.32710006327188984,0.8751563634555255,-0.0936278269894511,0.07866719881334973,0.013204507026227764
139,0.9339979174838381,0.09707498747035376,1,,0.03600381437308233,0.3293994877027792,0.8713882576093894,-0.11044913767592021,0.098107176845554,0.011198073299054687
140,0.9347043122461353,0.09181039820513226,1,,0.03445669776748288,0.3287949931282869,0.871789840890193,-0.10206664323933004,0.09159349814297045,0.006513588730510038
141,0.935317014947507,0.08228286629720057,1,,0.028007183852063383,0.3258360306715151,0.8755721655450757,-0.07324916092480811,0.06403685953120415,-0.00034223211891402255
142,0.9357513946528433,0.06925052649757578,1,,0.021700099832311182,0.3229383167939501,0.8792133795009672,-0.04506712923055144,0.03694502936961353,-0.0067531951005971305
143,0.9359380708950473,0.05395614659216113,1,,0.019318464768274497,0.3217286486054033,0.8789655023202013,-0.03439847815109909,0.022663584553726954,-0.0009036222006047242
144,0.9358340537056785,0.03802834362089377,1,,0.016936829696796583,0.320518980413077,0.8787176251386611,-0.023729827038313403,0.008382139693219163,0.004945950717664197
145,0.9354322248124647,0.02333837035690743,1,,0.018554583662989052,0.31887051674293815,0.8793082876065453,-0.015961291225622246,0.001049672604373248,0.010095604000316128
146,0.9347678466231252,0.01182878463237384,1,,0.023897036522978282,0.3168133953964849,0.880679896282762,-0.010893682016569855,0.00018890646168081686,0.014593410246339736
147,0.9339208593559609,0.005327856325017219,1,,0.029236422321635966,0.31475894134103183,0.8820492632755329,-0.005822062461439046,-0.0006772589925857913,0.01908630681616137
148,0.933012882371651,0.005360675056372245,1,,0.028997208081727684,0.3175559552032888,0.8793412891327274,0.0065438737876887055,-0.011364095245881445,0.014649117923029534
149,0.9321981725204507,0.01296699211561088,1,,0.028757993841072003,0.32035296907428484,0.8766333149814608,0.01890981007545282,-0.02205093153256725,0.010211929016034063
150,0.9316484113611455,0.028537768527559147,1,,0.029117176921469784,0.3215062603437818,0.874889093485958,0.013544945589776975,-0.027508177545034367,0.006659522283753063
151,0.9315320358384089,0.05168669217545999,1,,0.030116066465162315,0.3209023579644312,0.874175155351056,-0.01077472944584075,-0.027374819152870166,0.004052976864447866
152,0.9319896899078944,0.08117786602245812,1,,0.03111495600885485,0.32029845558508047,0.8734612172161544,-0.03509440448145847,-0.027241460760705966,0.0014464314451426705
153,0.9331080532570871,0.11493386186599569,1,,0.03423675496161987,0.3185181338273525,0.8771351991284982,-0.05605850340489311,-0.03663606539397623,0.0005206021908040369
154,0.934894704394464,0.1501466102900381,1,,0.03743307840626942,0.3166965140021196,0.8809632184806798,-0.07690480513196453,-0.046365148093409546,-0.00034622570427016907
155,0.9372568541583064,0.1835053672714031,1,,0.03897720076730754,0.31561318538302047,0.8831917687139386,-0.104920499660379,-0.06680342692713252,-0.006445213904450146
156,0.9399869191906504,0.2115411807879061,1,,0.038492590547492656,0.3154364022452134,0.8834563357792496,-0.14173946921702033,-0.1003914943276913,-0.018968755456427833
157,0.9427581491653939,0.23106743189198423,1,,0.03800798032767777,0.31525961910740635,0.8837209028445607,-0.17855843877366168,-0.13397956172825007,-0.03149229700840552
158,0.9451338029302396,0.23967418841165056,1,,0.039827380915543324,0.31216438622609805,0.8808464518400626,-0.2264629484827757,-0.14740131844407434,-0.0543220577832223
159,0.9465933063793011,0.23621481130651495,1,,0.04181588861045591,0.30885494836296395,0.8777416068361161,-0.2751811017820106,-0.15934293172986824,-0.07790826245646046
160,0.946577853779256,0.22121193018671184,1,,0.03941458792735202,0.30217771727401493,0.8808969422331875,-0.28625559544826823,-0.14281442534376695,-0.08688513091982963
161,0.9445555342142559,0.19711145357898657,1,,0.030809672745535713,0.2907411688652058,0.8928990751546995,-0.24413260723693328,-0.08605235247837993,-0.07521629424938306
162,0.9401022144829643,0.16832986195197017,1,,0.022204757563719396,0.27930462045639665,0.9049012080762113,-0.2020096190255983,-0.029290279612992902,-0.0635474575789365
163,0.9329898438238959,0.14106890438309566,1,,0.02223261028022516,0.2715159422521971,0.900573342874521,-0.1517780775998371,0.003488743714649755,-0.031599076161164766
164,0.9232700374599515,0.12290544309502002,1,,0.023250043824145455,0.26414542221672116,0.8943735574214385,-0.10061704647927867,0.033518571617949126,0.0026739650768424494
165,0.9113391189649716,0.12219375713057432,1,,0.031211748808080038,0.25851108862575506,0.8842505101593463,-0.09165178773449754,0.03309107665257313,0.017620136381342306
166,0.8979716573853641,0.1473372998470836,1,,0.05050713199895832,0.25571036815097314,0.8677243452877307,-0.15155384087055598,-0.01704552029258025,0.0010231102070249144
167,0.8843123116751486,0.20599566342162764,1,,0.06980251525012346,0.25290964766744056,0.8511981803644804,-0.21145589419377353,-0.06718211739438136,-0.015573916019148537
168,0.871819548508379,0.30429347324364603,1,,0.09813439759630861,0.25481381601368097,0.8482635425694461,-0.28594280312532067,-0.08574346230715317,-0.08010906155270983
169,0.8621589365947785,0.4460962026166887,1,,0.12790452204172614,0.25746681077112715,0.8474921215581583,-0.36275102622140803,-0.09927931487885144,-0.15227400050747622
170,0.857048422917746,0.6324168279595845,1,,0.1519456142346406,0.25039204113902547,0.8398791244878832,-0.45494251668177565,-0.16886586610525764,-0.2364674537850835
171,0.8580642076573372,0.8610154227872512,1,,0.1651320726099799,0.2248863542418443,0.819303588731816,-0.5762802440617274,-0.3446500746051897,-0.343450989257861
172,0.8664242645370908,1.126245626017598,1,,0.17831853102651923,0.19938066726497267,0.7987280529114621,-0.6976179718207891,-0.5204342836543452,-0.45043452506489995
173,0.8827760559098736,1.4191818518314838,1,,0.21906580507729828,0.1416047407396663,0.7993979311448808,-1.0221860077349159,-0.7565349358601854,-0.5810144622139991
174,0.9070221037777862,1.728028521027662,1,,0.2655290115129178,0.07713617819990533,0.804473968899516,-1.3889026765262744,-1.0051448227473594,-0.7164881382272418
175,0.9382177561896945,2.0387752290551213,1,,0.3139391804633889,0.007917658705500227,0.8249559827628401,-1.7063744295059782,-1.0824097649942066,-0.8798890270124378
176,0.9745676547357517,2.3360348791679737,1,,0.3666627460977285,-0.07182414946056197,0.8795691551626383,-1.9147465696584909,-0.780068674576623,-1.1051612389696717
177,1.013532291178725,2.6039991649156966,1,,0.41938631156733763,-0.15156595737747736,0.9341823273918023,-2.1231187091599617,-0.4777275851036796,-1.3304334502230608
178,1.0520379230039332,2.8274662979774914,1,,0.3953084475839441,-0.21170397094363985,0.9590637818601999,-1.8799556523312402,-0.03065831731012251,-1.764081681567041
179,1.0867676577896017,2.992919947155821,1,,0.3512763324941337,-0.2667486022377268,0.9762204560949317,-1.5194764628628643,0.4540136670983273,-2.2518693662531595
180,1.1145025284669339,3.0896404488184563,1,,0.2780688599795996,-0.28372098591765305,1.0104376079396493,-1.0869239383989449,0.6923529408173751,-2.7029398120956136
181,1.132478047593244,3.1107959850485005,1,,0.12853334528159704,-0.20108944428455033,1.0892880726082097,-0.46581445904468816,0.28624103407768414,-3.057951282052318
182,1.1387197472951383,3.054401015856199,1,,-0.02100216941640552,-0.11845790265144757,1.1681385372767699,0.1552950203095686,-0.11987087266200677,-3.412962752009022
183,1.1323176117135199,2.9239695659454417,1,,-0.13153942689432419,-0.02304800345814625,1.1984715374087431,0.5382336207100574,-0.35884524225865894,-3.2895290870484066
184,1.1135961433426889,2.7286671252593453,1,,-0.22971433263086452,0.07641260423393659,1.2134246200224397,0.845672636335687,-0.544837422180468,-3.014429483508904
185,1.084140315885621,2.482803582904449,1,,-0.3040181586856997,0.16254192065593068,1.1795348525766693,1.0335327672505525,-0.56732501018646,-2.659327409597637
186,1.0466540638892305,2.204615576930498,1,,-0.3035811470421734,0.20693069201615588,0.9927171246994403,0.8469889694998887,-0.07787638373279614,-2.0537359680811553
187,1.0046584375179906,1.9144378545482406,1,,-0.3031441353986471,0.25131946337638106,0.8058993968222111,0.6604451717492247,0.41157224272086773,-1.4481445265646733
188,0.9620735141818361,1.6325161995361697,1,,-0.3006743567214265,0.26881099894865024,0.7535714888736524,0.305610782538736,0.589958724424591,-0.9287722617310072
189,0.9227564091062955,1.3768176578064422,1,,-0.29743290583913085,0.27609189590590455,0.7522981560704151,-0.1131095162214591,0.6502608360508978,-0.4421302335903518
190,0.8900736987693861,1.161207212693931,1,,-0.2744970949918324,0.25917504688174703,0.763521187871938,-0.43910529802068643,0.7151739465180618,-0.02969575838772274
191,0.8665690493475058,0.9942752031035655,1,,-0.1763920392545334,0.1499004721259383,0.822440224705424,-0.41119102450169565,0.797686272582356,0.09950403203408685
192,0.8537572475815842,0.8789466080503995,1,,-0.07828698351723445,0.04062589737012958,0.88135926153891,-0.38327675098270486,0.8801985986466504,0.22870382245589643
193,0.8520482060778289,0.8128371235565022,1,,-0.0650477453274504,0.01746108495096224,0.8722315039432681,-0.39764640028387926,0.8277697655632945,0.3012739410699415
194,0.8607870309476794,0.7891951527622877,1,,-0.0898697817748731,0.032915441126793656,0.8325855966312994,-0.43097986847169095,0.7148214836945371,0.34844634867998436
195,0.8783897917903337,0.7982099432048287,1,,-0.10825688352418844,0.05157816797251308,0.8120741095891567,-0.48514372793417776,0.5599300929259123,0.4041484383500764
196,0.9025546403699375,0.8284669773317443,1,,-0.09591355063972935,0.08556266995742601,0.8829402472880795,-0.6387844269573284,0.20473675653152146,0.5005845589936235
197,0.9305274698837305,0.8683650899431022,1,,-0.08357021775527027,0.11954717194233894,0.9538063849870025,-0.792425125980479,-0.15045657986286937,0.5970206796371706
198,0.9593964891233969,0.9073494447698535,1,,-0.02069629296928824,0.12990169922364367,0.9917204021128346,-0.6304978475587775,-0.525000917554404,0.5683571892441168
199,0.9863836561580283,0.9368493122351269,1,,0.0686857869132281,0.12786003222344924,1.012347862916241,-0.3030248160631708,-0.9096967164569535,0.47406692174271126
200,1.0090992278804907,0.9508432915279356,1,,0.14307170996485447,0.123915954080018,1.0296480536695445,-0.015427452436067055,-1.2210779453798448,0.3742107904137572
201,1.0257321498436072,0.9460164599506855,1,,0.1243184238608328,0.10815624371235086,1.0262829963636493,0.024507247925523057,-1.077111770153791,0.23978578893513286
202,1.035161675921435,0.9215309121094596,1,,0.10556513775681113,0.09239653334468372,1.022917939057754,0.06444194828711317,-0.933145594927737,0.10536078745650851
203,1.0369898563488429,0.8785028828378275,1,,0.06855712198124309,0.0833695073563602,1.0174708637405194,0.036565989850736474,-0.6527519541982789,0.09441967184163322
204,1.0315062054397197,0.8193516593424052,1,,0.020429307047733707,0.07844367045377834,1.0107555350694486,-0.032616573513151184,-0.2892540416816883,0.1586982956999375
205,1.0196024638664476,0.7472284449585211,1,,-0.020904826440955575,0.0734875570758229,1.0040141837212855,-0.07829571189483868,0.03574133748502066,0.2307534862586719
206,1.0026564257388082,0.6657164148952834,1,,-0.0038439635369166567,0.06827120268193604,0.9970491548279166,0.07804851895769704,0.029788715002704767,0.36965204967409154
207,0.9824007395456903,0.578904397242438,1,,0.013216899420427542,0.06305484827175112,0.9900841259127859,0.2343927502987176,0.02383609250179039,0.5085506135234884
208,0.9607879417993445,0.49179591262387273,1,,0.0575842907338338,0.06400296215661684,0.9545989070664315,0.3523944721258904,-0.09345071247245214,0.5875550165947712
209,0.9398590890287248,0.4108702242290431,1,,0.12116522489560895,0.06928854707331636,0.899046183331066,0.44341746418367617,-0.2890749779083987,0.6244164196672306
210,0.9216209887098938,0.34451547187091225,1,,0.1836716807438582,0.07529756482687984,0.849839224259613,0.5151950763502751,-0.4698528557461937,0.6506207097352273
211,0.9079346487547223,0.30304072154048833,1,,0.2318483265504142,0.09095466481689683,0.8852627328843902,0.3303061420177198,-0.4526314706777555,0.5346961145345448
212,0.9004128039403692,0.2980516250135285,1,,0.2800249722064462,0.10661176475799446,0.9206862413984894,0.14541720826283502,-0.4354100856631241,0.4187715196960592
213,0.9003177322255104,0.34112585061426526,1,,0.27321212844344367,0.10391865732884825,0.9322312500464697,-0.0473591605485369,-0.3122324948359376,0.26089448570522666
214,0.9084472724338063,0.4419111356434554,1,,0.22186388619974262,0.08636391350312937,0.9244373173819866,-0.24652347804345068,-0.10324210811073256,0.06904062098944141
215,0.925003185590662,0.6059418160173068,1,,0.17138432406049675,0.06916423253423878,0.9171163861614232,-0.4363995294959233,0.0934520536640128,-0.11671924971913766
216,0.949452565224599,0.8325874422024695,1,,0.1446528988017553,0.06167132541903261,0.9227264556363602,-0.37235125112071893,-0.04601024968497678,-0.13588038852414328
217,0.9804136921931638,1.1135889193055701,1,,0.117921473626534,0.054178418327237424,0.928336525093769,-0.3083029729456282,-0.18547255259822773,-0.15504152726928147
218,1.0156139064645913,1.4326003245393633,1,,0.12005690348420227,0.053005118145024795,0.8936615590304664,-0.15512618146926346,-0.47206505566022605,-0.16611006743777082
219,1.051972246130441,1.7660369886221676,1,,0.14904695613027547,0.0577109017657463,0.8215097209963781,0.08096620955443283,-0.8955317002988545,-0.16965012267483218
220,1.0858491431063444,2.0853277055003967,1,,0.1782622567032476,0.06247873247606135,0.7496065644930225,0.31677892095729376,-1.3197061928330265,-0.17310274554718383
221,1.1134741580437975,2.3603878274683656,1,,0.48052653158417663,0.14246099204066848,0.9791589544657805,0.21355972802570608,-2.60194470622239,-0.07056852168590333
222,1.131508192807347,2.563811054015879,1,,0.7827908064651057,0.22244325160527556,1.2087113444385387,0.11034053509411837,-3.884183219611753,0.03196570217537716
223,1.137630834032255,2.675005734194891,1,,0.9022102314410588,0.2561511332679404,1.2468282252770397,0.114715738816997,-4.385195634108514,0.1267170386148134
224,1.1309988522898142,2.683390456904526,1,,0.8263774354903404,0.24044457936989527,1.0805192858379085,0.23398641268929884,-4.051969999544413,0.21315736192372364
225,1.112433691721061,2.5899036824517276,1,,0.750544639539622,0.22473802547185012,0.9142103463987774,0.3532570865616007,-3.7187443649803122,0.29959768523263386
226,1.0842707835604293,2.406472038825802,1,,0.6449958130422627,0.17498597806240437,0.7475328407114652,0.16755795231937803,-2.013722869363569,0.30750807556840465
227,1.0499094328789669,2.153607123866838,1,,0.5384125543943589,0.12404878740126898,0.5808425050206261,-0.02875735671658009,-0.2609483691714061,0.31268479367564417
228,1.0131905237477576,1.8567752441755665,1,,0.483968909808821,0.09013787580061176,0.548204494378059,-0.1968512548685238,0.7991683303671432,0.27621819201797193
229,0.977766095479119,1.542429353063028,1,,0.49347628181453546,0.07711027676167712,0.6799862363542555,-0.3303306287147007,1.0097165903781098,0.18867463729749243
230,0.9466028063422479,1.2345294851360327,1,,0.5029836538499549,0.06408267768203878,0.8117679787421932,-0.46381000297792313,1.2202648510469172,0.1011310823034902
231,0.921698064029203,0.9520878040186355,1,,0.47955141728623635,0.06446214143236492,0.8295813087077997,-0.14690185864065297,0.47976278199190897,0.05343492966280012
232,0.9040150059540966,0.7079338401639765,1,,0.45371194073583065,0.06582139878440252,0.839065780764346,0.20292078864272098,-0.3302424317702566,0.008650841384435483
233,0.8935895021530381,0.5086342563275664,1,,0.45259400325741284,0.07202602545837773,0.8287051202752759,0.3688795729298614,-0.7562871771150105,0.0017842126915580867
234,0.8897404655121213,0.35533710402712865,1,,0.4863726677941874,0.08507031225027308,0.7903313296017732,0.2752985270603231,-0.6403383347259136,0.048441375245205726
235,0.8913180214795807,0.245213540648873,1,,0.5201513322254233,0.09811459900141259,0.7519575390481664,0.18171748148317124,-0.5243894926990895,0.09509853765307685
236,0.8969401773486352,0.17313610692545234,1,,0.511403640682937,0.09349864646143706,0.7522142664952938,0.007842057661515852,-0.12942311542775098,0.05318164195528364
237,0.9051878956417443,0.13326956708966803,1,,0.4977956330710154,0.08686431395834446,0.75688605663066,-0.17521017065095015,0.29743203702843546,0.0011416612263582693
238,0.9147457082647461,0.12033653886525127,1,,0.4867605293267691,0.0829476556572083,0.7664098959172233,-0.2317863477816175,0.4649626536842209,-0.03975981778279514
239,0.9244879436373719,0.13041690324877067,1,,0.47991974296142964,0.08346131761742412,0.7838434882007241,-0.08218276586569477,0.20974548681425031,-0.06250344335437132
240,0.9335187737077355,0.1612299705499425,1,,0.4730789566174637,0.08397497957603506,0.8012770804297552,0.0674208155828037,-0.045471679258315,-0.08524706885488688
241,0.9411782831122497,0.21193592843727985,1,,0.47960573057034844,0.09071154928469603,0.7901032196727441,0.09558468571790614,-0.14620957721022262,-0.064410495751411
242,0.9470278538393205,0.2825741324176071,1,,0.4882551413063736,0.09843625539001354,0.7743867774236589,0.10446512693827194,-0.22241769032240347,-0.03665381677056603
243,0.9508272461408481,0.3733120641118185,1,,0.5077086005225432,0.10561087426020742,0.7662554975582996,0.0739975554419452,-0.20503936024142355,-0.04487934865040451
244,0.9525127707345352,0.4836992453305523,1,,0.5476073272899714,0.11174452402337598,0.7724781586845991,-0.030931052496560103,-0.010560763184481202,-0.12119657129639134
245,0.952180608925202,0.6121077181988499,1,,0.5875060540573994,0.11787817378654453,0.7787008198108986,-0.1358596604350654,0.18391783387246116,-0.1975137939423782
246,0.9500728914070019,0.7554969872882022,1,,0.5632203106189442,0.10764192323139432,0.7822287057753928,-0.18173750213905293,0.2726293652154653,-0.49750877248307546
247,0.946559688317847,0.9095651853364042,1,,0.525648830156614,0.0940172176338165,0.7851987921207167,-0.21539224794117026,0.33944785319150533,-0.8438034849859495
248,0.9421101914553267,1.0692496724194487,1,,0.4957150882366193,0.08906539366986235,0.7896221186263688,-0.19760375681350795,0.3116537311873892,-1.1587877181288557
249,0.9372505617915764,1.229447052749572,1,,0.48268069005481573,0.10330328235643145,0.7972609001868644,-0.06599139765701374,0.07451871473402565,-1.4044940425846948
250,0.9325110146542345,1.3857654462593456,1,,0.46964629187301205,0.11754117104300058,0.80489968174736,0.06562096149948046,-0.1626163017193379,-1.6502003670405336
251,0.9283680617340205,1.5351162243984893,1,,0.4731465262040177,0.14800839998750076,0.7835783256915683,0.09523537255742946,-0.1988744175235623,-1.7822991108299109
252,0.9251891856009605,1.6759951109896,1,,0.48093551669411605,0.18268519824288867,0.7547452836222514,0.09839353607380531,-0.1830290439831652,-1.8849302980230198
253,0.9231876286980127,1.8083803284718203,1,,0.491866468607115,0.21233944711371452,0.7322401342176927,0.05552733854022621,-0.12161571148594222,-1.927838387175696
254,0.9223947369702536,1.9332718515810838,1,,0.5110060870364794,0.22887181808112433,0.7262671934518451,-0.107581784874447,0.058848153800286324,-1.81471432456665
255,0.9226557702044583,2.051991166165331,1,,0.5301457054658436,0.24540418904853414,0.7202942526859973,-0.27069090828912024,0.23931201908651487,-1.701590261957604
256,0.9236520923704007,2.165431398435994,1,,0.5097264436558483,0.23991448005168878,0.7212813868796845,-0.4137250450781521,0.37968574837036423,-1.7515156718097153
257,0.924949129229413,2.2734698717074395,1,,0.4767859562853265,0.22745431514517303,0.7244715325832828,-0.5504050223423623,0.5073700983643894,-1.8530497017708378
258,0.9260662796430995,2.374717349539287,1,,0.4470135858911717,0.22296769910837397,0.7402264429620813,-0.6544856437332148,0.6299142988494731,-1.9790475676720387
259,0.9265614108429931,2.466689863860672,1,,0.4271458182254824,0.2434090883684009,0.7952630493385938,-0.6566496756168659,0.736388658416918,-2.181527644471641
260,0.9261172997142251,2.546377250908661,1,,0.4072780505597931,0.2638504776284278,0.8502996557151061,-0.6588137075005172,0.8428630179843628,-2.3840077212712427
261,0.924611226446346,2.611078268658369,1,,0.39014257404507546,0.27059140367170104,0.8660303901265918,-0.5493773532933474,0.7876728375888271,-2.5670863210313155
262,0.9221461433820981,2.659298696938904,1,,0.3740428923653708,0.27213856805009795,0.8668605092970642,-0.397633976477255,0.6711966205866721,-2.742809939715517
263,0.919027334024756,2.691478086864346,1,,0.33183879887889356,0.26986423379575153,0.8585172390489486,-0.25715989482675217,0.557187731012555,-2.9252966373466003
264,0.9156834075565987,2.710324950482361,1,,0.19016583418031452,0.25302837030758546,0.8152194677019644,-0.15962660382565214,0.4525804048836624,-3.1335535312093468
265,0.9125504486110347,2.7205969110532413,1,,0.04849286903908981,0.23619250676681708,0.7719216962196999,-0.06209331251981724,0.34797307842793274,-3.341810425722775
266,0.9099547112961143,2.7282618745533953,1,,0.05958846057926344,0.25749061382009863,0.7774015449648877,-0.06099688135683523,0.1483229999274854,-3.021835322400438
267,0.9080334994420565,2.7391191269863158,1,,0.13911083444750416,0.29586936208534037,0.8047294472250788,-0.1030956219015973,-0.09389781333212743,-2.465259070780226
268,0.9067216119454041,2.7571286731994173,1,,0.20969429926488475,0.32627394801797943,0.8317402731002088,-0.0922951649058337,-0.32350510736503,-1.9989789672458995
269,0.9058064332751969,2.7828427831074305,1,,0.23767124347110713,0.3186703934786367,0.8572397823098485,0.17064464439038235,-0.4929911754759222,-1.963087478893732
270,0.9050296297871845,2.8123860123550335,1,,0.2656481877647412,0.31106683891553727,0.8827392915991593,0.4335844545081325,-0.6624772441163599,-1.9271959904294242
271,0.9041982995617852,2.8373448123790816,1,,0.2615056839531522,0.30611391829033624,0.8750452969131199,0.39807506450913505,-0.7346825231700759,-2.2059585133831017
272,0.9032680674635793,2.8457196881995714,1,,0.24053394568565767,0.3025498179167016,0.8499593078508336,0.2061908966656374,-0.7559167764873838,-2.649586451000717
273,0.9023731290376908,2.8238252943539752,1,,0.2061909436915196,0.3023957634024428,0.8262619234037455,0.002925519524073815,-0.679000752830745,-3.0637960948952587
274,0.9017975196437475,2.758775809617002,1,,0.08899139338027216,0.323372443819986,0.8111691845417471,-0.2708648085414103,0.006114565423971593,-3.295711953766638
275,0.9019004599493268,2.6410317588913883,1,,-0.02820815656479479,0.3443491241719892,0.7960764457269047,-0.5446551357514589,0.691229881538101,-3.527627811913415
276,0.9030204844688717,2.4664528570433197,1,,-0.07614111574003278,0.3768202827918958,0.7850146394516205,-0.4456856051905948,0.7567759530659007,-3.1580228279414926
277,0.9053856563269834,2.2374113124096207,1,,-0.08192985366149215,0.41628508473410675,0.7764053938120976,-0.11991591456946311,0.4453543842369668,-2.422431484979131
278,0.9090517156701844,1.9627464476070968,1,,-0.09706094179341727,0.4482906027546077,0.7699700561242449,0.15945139247425597,0.16426791494934576,-1.7285408452994486
279,0.9138800170242485,1.6566182132133165,1,,-0.19225834552899507,0.41636816183563113,0.7821656620673347,0.041138479383555866,0.1431609582068743,-1.3920358307256375
280,0.9195563663899311,1.336553222327932,1,,-0.28745574926457285,0.3844457209166546,0.7943612680104246,-0.07717443370714422,0.12205400146440286,-1.0555308161518264
281,0.9256430184981742,1.021103309018494,1,,-0.26741764685333813,0.3797235256277016,0.8135638350105521,-0.08413665744402696,0.07015117555067622,-0.7215247855269485
282,0.9316504450432065,0.7275437191817946,1,,-0.16638885444138085,0.39411841264811237,0.8376910874728202,-0.012838547641066102,-0.003395836302689662,-0.3892751079225007
283,0.9371134135922019,0.4699630795753357,1,,-0.06977181830808916,0.40887144152274996,0.8595997583867762,0.051805371827891494,-0.07231556270118676,-0.07536180816802535
284,0.941657096160194,0.25798221103707153,1,,-0.03174416321796594,0.428380696317272,0.8520450338865349,0.02807974674653045,-0.07978361915548175,-0.004960833425414794
285,0.945042494982384,0.09620824094119484,1,,0.006283491872157287,0.44788995111179397,0.8444903093862934,0.004354121665169409,-0.08725167560977674,0.06544014131719576
286,0.9471854445250396,-0.015599744886158073,1,,0.01097390739240871,0.4512889171108985,0.8383813025124568,0.0014643567764201953,-0.06891449509845567,0.07559538759196965
287,0.9481489384917926,-0.08178688876457181,1,,-0.011305164832193428,0.4416548233258732,0.8334418665126944,0.015430590865511304,-0.02970114041109325,0.037012452279676436
288,0.9481136075777936,-0.10968193804280858,1,,-0.03281318682757049,0.43235052943298774,0.8288001814322754,0.028228853297213814,0.008486951635859823,-0.00033740850712461046
289,0.9473347966693654,-0.10831896797641585,1,,-0.03341091354483166,0.4319901575737,0.8322332743201932,0.009352615139472876,0.018870700512333756,-0.0042472265526574335
290,0.9460960105729884,-0.08719712641807695,1,,-0.03400864026209282,0.4316297857144123,0.8356663672081109,-0.009523623018268064,0.02925444938880769,-0.008157044598190256
291,0.9446673627730716,-0.0552268779809148,1,,-0.03406169856289703,0.43118163258879005,0.8361188214339684,-0.014738514661095593,0.0336841388298723,-0.009628683170390178
292,0.9432748553980972,-0.019955552998073365,1,,-0.03360861318539438,0.4306519070221941,0.8338014594362084,-0.007258335370176696,0.03258090317560958,-0.008834596226260908
293,0.9420830906433187,0.012889797212165353,1,,-0.033155201726205556,0.43012337706943266,0.8314933866555035,0.00020941933511210887,0.03146536282587128,-0.008034553461568346
294,0.9411912294152037,0.039552549574894326,1,,-0.03240541639458581,0.43068154025517696,0.837628276007127,-0.0036155345827681763,0.01916610621090338,-0.0018212765091305996
295,0.9406398448798781,0.05813761068780891,1,,-0.03165563106296605,0.4312397034409214,0.8437631653587505,-0.007440488500648461,0.006866849595935486,0.004392000443307146
296,0.9404247396963538,0.06831535640994255,1,,-0.03144211439873103,0.4296387359513744,0.8451978584987001,-0.011368099863385018,-0.0005371076542020433,0.007736731438792452
297,0.9405130866982596,0.07091939291213813,1,,-0.03180062647024223,0.4257346602147596,0.8416189316749193,-0.015405214189780546,-0.0027193317003102783,0.008021632880580668
298,0.9408577952046335,0.06751465483502497,1,,-0.03215913854063331,0.42183058449034266,0.8380400048623207,-0.019442328503562437,-0.004901555739600332,0.008306534321478732
299,0.9414076493410724,0.059997825661996115,1,,-0.033610480865027416,0.4200398729265949,0.8411572249453065,-0.022125902277737194,-0.003527072397738524,0.012927454719225047
300,0.9421126899638702,0.05027213394662437,1,,-0.03509954378809373,0.41832210714889445,0.8445055721127173,-0.024762756664502786,-0.00202982421511374,0.01769803901073836
301,0.9429256660406977,0.040017653535042455,1,,-0.03739891218456324,0.4196172203508759,0.8443340964645152,-0.025103141474547525,-0.0007614057299558224,0.021885652389746324
302,0.9438009439534589,0.030559590949190783,1,,-0.040691044825735885,0.4246036309990954,0.8398502295592792,-0.02262995416932329,0.00022665682866831484,0.02535902564989321
303,0.9446923644546823,0.02282268815188715,1,,-0.04398317746690853,0.42959004164731507,0.835366362654043,-0.020156766864099052,0.0012147193872924522,0.02883239891004009
304,0.9455514663111452,0.017350718242837505,1,,-0.03824225003995227,0.4311693927927699,0.8387988644812394,-0.02256002540471578,0.001739434832122101,0.030842273490762163
305,0.9463272078818625,0.01436616082610052,1,,-0.03184404009807505,0.4325008323215417,0.8428073937744159,-0.02531811415172823,0.0022304352424964537,0.03274565791240997
306,0.9469677152087951,0.013846038041764113,1,,-0.027687503687171617,0.43237518545032416,0.8447712475251119,-0.021227170187745743,0.001023640195796792,0.029701540615427447
307,0.947423867814691,0.015594792161644241,1,,-0.026691704607636573,0.43019506128085594,0.8438521291443363,-0.007479158379454447,-0.0025770295200079727,0.01968149521695586
308,0.9476540947237074,0.019302747135724944,1,,-0.025695905528101536,0.42801493711138766,0.8429330107635609,0.006268853428836848,-0.006177699235812737,0.009661449818484274
309,0.9476297538793682,0.024587117134568584,1,,-0.02947054141798635,0.4273224867697517,0.8423645296796006,0.012355002238059808,-0.009060069279852506,0.003864135477903977
310,0.9473406465367149,0.03101927908360372,1,,-0.03378876121330375,0.42679955463398006,0.841836003192029,0.01756809321928703,-0.011860590143516802,-0.0014520049674312534
311,0.9468001571287614,0.03814538707249541,1,,-0.03699363190452268,0.4262719169532654,0.8439876173055737,0.021104473348591852,-0.016995129156862188,-0.0005341028975512473
312,0.9460490266463208,0.04550720790260169,1,,-0.03838564841968627,0.4257366172879102,0.8505032750127924,0.021910683532595985,-0.025930124349607443,0.010534622358846437
313,0.9451560930363444,0.05266735610657591,1,,-0.03977766493484987,0.425201317622555,0.857018932720011,0.022716893716600118,-0.0348651195423527,0.02160334761524412
314,0.944214048193669,0.05923920435357318,1,,-0.03347741459068717,0.4264001979099054,0.848315475143642,0.047264106654273774,-0.03512944221434648,0.013389376080764537
315,0.9433290118575847,0.06491770665355384,1,,-0.025958544858126653,0.4278738093470336,0.8372009845924144,0.07557240155414159,-0.03402014511800672,0.002120613444799862
316,0.942604651374376,0.06950423733166994,1,,-0.023821714283543332,0.4298327098604212,0.8297979174083823,0.08912945902197411,-0.03161463509179282,-0.013053567390384744
317,0.9421239120089407,0.07291755153178414,1,,-0.03185733671974334,0.4327088426925655,0.8294097155730008,0.07480558410182568,-0.026759186549475816,-0.03560927805494194
318,0.9419328787829108,0.07518514524589306,1,,-0.03989295915594335,0.4355849755247098,0.8290215137376192,0.060481709181677244,-0.021903738007158818,-0.05816498871949914
319,0.9420310774880667,0.07641456351727192,1,,-0.047190884651495034,0.43582538145345173,0.8296410175543326,0.05154841700275963,-0.008849376985068777,-0.04490069588656522
320,0.9423708849212963,0.07675092069377716,1,,-0.05433640722959059,0.435521265034923,0.8304687061592075,0.04372878070511786,0.005898820778145166,-0.024236246247357318
321,0.9428664962249059,0.07633240710197853,1,,-0.05596290616883515,0.4350996744983366,0.8326005100659436,0.038401992557648236,0.01796342955069096,-0.000916536063896944
322,0.9434107895124653,0.07525734553639571,1,,-0.04539359045189291,0.4344184922858067,0.8376141187432016,0.03858384429664941,0.02409790367239104,0.02827070955964628
323,0.9438967487845159,0.07357310612557742,1,,-0.034824274734950665,0.43373731007327665,0.8426277274204595,0.03876569603565058,0.030232377794091114,0.0574579551831895
324,0.9442390061436665,0.07128967463507233,1,,-0.031752322784062544,0.4341883631095953,0.8460043807155445,0.04539474336877551,0.02965965076906629,0.06263794740048868
325,0.9443907501132697,0.06841189423205919,1,,-0.030621772337601702,0.4349326022956153,0.8489571533319273,0.053693256879124004,0.027350130545383412,0.0616013921306464
326,0.9443519636174095,0.06497807937386306,1,,-0.024914988249318256,0.4356884813131087,0.8479819598683176,0.058565364035469344,0.02221550472200952,0.05912541013541313
327,0.9441668159600085,0.06109110264592377,1,,-0.0072687620405782645,0.43647472877208604,0.8367586612182328,0.054497940635143224,0.009710148422730096,0.05289394854498526
328,0.9439108023531578,0.05693110809132974,1,,0.010377464223295926,0.43726097623351984,0.8255353625330819,0.05043051722210877,-0.0027952079156212967,0.0466624869350877
329,0.9436711371116849,0.0527450584291896,1,,0.007567092792380933,0.4409400084492257,0.8240138616491416,0.041296469465101265,0.0029484964016798444,0.031780914799082474
330,0.9435258025106599,0.048815293908521705,1,,-0.0017084875446240792,0.44553329131578573,0.825558567105342,0.03056113955349525,0.014459728205174606,0.014165517007098312
331,0.9435266497868571,0.04541523290847513,1,,-0.009968323258390838,0.45101439452123215,0.8261043223398705,0.019856694295215107,0.022976614055675477,-0.0007864423880843569
332,0.9436901464930031,0.04276373130345312,1,,-0.015057345094449089,0.4592669749140038,0.8235316901829701,0.009248660561183735,0.022146156602360204,-0.007424040832897594
333,0.9439967814252752,0.0409895926898641,1,,-0.020146366914607104,0.46751955528099104,0.8209590580341076,-0.001359373139703697,0.021315699151639625,-0.014061639256972194
334,0.9443978826998676,0.04011443414633122,1,,-0.027453527154245122,0.4666018624910936,0.8230105784991704,-0.01861144288292869,0.010978685746871962,-0.021459937742059815
335,0.9448272323259863,0.04005662820926095,1,,-0.03560041156634035,0.4622125648423217,0.8268126717542476,-0.03837875587273922,-0.0029572396177482926,-0.02914621564753738
336,0.9452143961961934,0.04065298435813119,1,,-0.04227637769329533,0.4572571306732778,0.8302469057070286,-0.053859768599039744,-0.012065556809791064,-0.03290580342153732
337,0.945496949724911,0.04169011266364016,1,,-0.04335686010882032,0.4501480706300906,0.832281775225435,-0.05303537296305225,-0.002809289668552651,-0.02172796680392952
338,0.9456295584237554,0.042935819795089335,1,,-0.04443734252096943,0.44303901060911505,0.8343166447374835,-0.052210977329640515,0.006446977443765307,-0.01055013022124596
339,0.9455889236164424,0.04416315114959497,1,,-0.04608979358249679,0.4408093197772267,0.8347943634384383,-0.038464835590411924,0.014120512826087693,-0.001960166373622407
340,0.9453746226821549,0.04516467113964068,1,,-0.04799810665328141,0.4407623451117517,0.8345755129486617,-0.018938335182582724,0.021086035748667895,0.005472149530782248
341,0.9450065956640712,0.045759700381463556,1,,-0.04928517319576461,0.44108784274363383,0.8340465444979158,-0.00010682354990166056,0.02665045869001223,0.012732525396731207
342,0.9445203649778526,0.04579998820461613,1,,-0.04762118125134801,0.44318266621345026,0.8320444471056522,0.015423337604719398,0.025559346666958114,0.019176148030899755
343,0.9439611136238143,0.0451785433800495,1,,-0.04595718930693141,0.44527748968326675,0.8300423497133884,0.030953498759340458,0.024468234643903995,0.025619770665068303
344,0.9433776309122646,0.043842766689226195,1,,-0.04087627421747427,0.44639164334404985,0.8289608506112551,0.03807666343935258,0.023807025797529257,0.027621059923422717
345,0.942816937779906,0.04180868564690162,1,,-0.03400890759185244,0.44699307869931887,0.8283606629463264,0.04080444349698787,0.023370580908855257,0.02729978797492956
346,0.942320133925494,0.039170228871522855,1,,-0.028111986690662824,0.4481569226426912,0.8276681579731104,0.042209386281841885,0.022460788473229056,0.026311603184668367
347,0.9419196717348784,0.03609738362201983,1,,-0.02820408730266847,0.4527916223470363,0.8264059247487909,0.03545055371513885,0.01862977275788407,0.021207623707268093
348,0.9416379091403946,0.0328197153752027,1,,-0.028296187914674118,0.45742632205138123,0.8251436915244713,0.028691721148435812,0.01479875704253909,0.016103644229867823
349,0.9414865359051223,0.02959605882175703,1,,-0.028745585342913483,0.45716424101333586,0.8242522296687964,0.016497904679326724,0.010224721537804187,0.010788450865729668
350,0.9414664400722258,0.026675686212111055,1,,-0.029411923684162067,0.45392896781858166,0.8235858901122651,0.001004113762010284,0.005199544628759104,0.005345014187600871
351,0.9415678337008915,0.024259316963290485,1,,-0.030322118441173777,0.4508378170064866,0.8232514000793912,-0.013199789746782695,0.0006961771233144619,0.0005595664653796709
352,0.9417708440055669,0.022468754494003682,1,,-0.03331136979623569,0.4489754163719516,0.8257461731183116,-0.016406447017124716,0.000641621522161756,0.0013839622364361613
353,0.9420470096478731,0.02133153086508104,1,,-0.0363006211512976,0.44711301573741646,0.828240946157232,-0.019613104287466737,0.0005870659210090501,0.0022083580074926516
354,0.9423620085643297,0.020782782788105053,1,,-0.03728009258211948,0.4466031730207059,0.8291982107448526,-0.021900567984572936,0.0008246570082039782,0.0037844971741283133
355,0.9426795595701165,0.020682407820199287,1,,-0.03684987842038143,0.4470420318940864,0.8290770470498066,-0.02354329743922013,0.0012671635553010566,0.005887918866213
356,0.9429660335521243,0.020842669061668217,1,,-0.03633310040138761,0.4473754115607278,0.8291130146868608,-0.02503129272882464,0.0017353166486058834,0.007899867837400735
357,0.9431950596184291,0.02106021686383233,1,,-0.034675289385286,0.4463184274483072,0.8312201935317989,-0.024479674899969796,0.0025415271901456085,0.008706078220035753
358,0.9433513300313263,0.021146739606415423,1,,-0.033017478369184394,0.44526144333588663,0.833327372376737,-0.023928057071114953,0.003347737731685334,0.00951228860267077
359,0.9434328551413903,0.020953718704124314,1,,-0.03263360988639362,0.4443754538288451,0.8336445453017903,-0.02164585082780561,0.0034865313525838542,0.00960748199723569
360,0.9434511184319591,0.020388601656262783,1,,-0.03327831417043313,0.4436275242340592,0.8325164792984645,-0.017966378956608183,0.0030864569706147956,0.009128604983159845
361,0.9434289743399186,0.019421673480868956,1,,-0.033892444718513416,0.44289303185774553,0.8314102734192724,-0.014421304251430301,0.002710639639358439,0.00853106510614084
362,0.9433966524224917,0.018084569518153182,1,,-0.03368908172551829,0.4425178294973691,0.8308885727684363,-0.014469797995529044,0.0029834176451219684,0.004760666928454881
363,0.9433866819074788,0.01646238380123197,1,,-0.03348571873252315,0.44214262713699265,0.8303668721176003,-0.014518291739627789,0.0032561956508854978,0.0009902687507689209
364,0.9434287218479145,0.014681549482303392,1,,-0.03404496820571584,0.4411298846648982,0.8320823331443254,-0.014717742798299764,0.0022238220890961084,-0.0009623521108778596
365,0.9435450988050965,0.012895269574938029,1,,-0.03531150555661464,0.43952585315340026,0.8358726584109674,-0.015057199801514508,-1.9019335766440857e-05,-0.0012290683787659577
366,0.9437474306209902,0.011267669534008514,1,,-0.03657401049960039,0.43792310102682147,0.8396521560525653,-0.015385803735682291,-0.002254808189955861,-0.0014920130126630708
367,0.9440343242873342,0.009957477141801927,1,,-0.035300055851366294,0.4371251058183109,0.8366208761166478,-0.008887625351888006,-5.439889339753693e-05,0.0006174702936944917
368,0.9443900728552427,0.009102159228834172,1,,-0.03402610119915183,0.43632711060730694,0.8335895961712594,-0.002389446947790692,0.0021460104100357873,0.0027269536066429636
369,0.9447846054753979,0.008803924159520877,1,,-0.034377845063276326,0.4361602294450222,0.8328546552225959,-0.00034523112458715693,0.0023528530768122313,0.004674954969759032
370,0.9451753472705242,0.009119339544445994,1,,-0.036460307081557085,0.4366652321102019,0.8345643960828812,-0.0030427025325714704,0.0004373452985920943,0.006451042697391893
371,0.9455116390215526,0.010054040341582738,1,,-0.03854276909983784,0.43717023477538164,0.8362741369431664,-0.005740173940555784,-0.0014781624796280427,0.008227130425024754
372,0.9457417467636245,0.011563098562918782,1,,-0.037841262933303296,0.44044486387480924,0.837409984468335,-0.0007109430600776368,0.003148818358098083,0.010519113631403967
373,0.945821518623114,0.01355652890926569,1,,-0.03704511821124303,0.44381364398648604,0.8385263229891639,0.004580950274926918,0.00799820534601902,0.012828634245132706
374,0.945722920664711,0.015908583780889725,1,,-0.03624925159790148,0.44380725302383317,0.838880133802636,0.008672909576465567,0.009577771905563717,0.014017307256281
375,0.9454404174701931,0.01846916337008366,1,,-0.035453725047204086,0.4396738453211887,0.8383015579168136,0.01129764016967088,0.00715914004258748,0.013835455120018056
376,0.9449935954148204,0.021075834865829608,1,,-0.034658198496506684,0.4355404376185442,0.837722982030991,0.013922370762876193,0.004740508179611243,0.013653602983755115
377,0.9444253749889485,0.02356547567145792,1,,-0.03686739033880475,0.4377352814256756,0.8359349256115636,0.012725312053910665,0.007523128177414114,0.015993227573503764
378,0.9437962168256521,0.0257851316961438,1,,-0.039293530281659605,0.4403870406456095,0.834059541705794,0.011252310703609077,0.010681291425574153,0.018514909020088514
379,0.9431755180690722,0.02760197819655383,1,,-0.040300669673162655,0.44355083110373134,0.8309808524020662,0.008978517935212755,0.012842242438539247,0.021880191373491738
380,0.942631795291983,0.028912145563573192,1,,-0.03931105192703687,0.4474351301382661,0.8262089229640742,0.005577885569297226,0.013599958878444637,0.026432553022037168
381,0.9422233371462211,0.029647773257095455,1,,-0.038321434180911086,0.4513194291728008,0.8214369935260823,0.0021772532033816974,0.014357675318350027,0.030984914670582595
382,0.9419908435656494,0.02978131218867888,1,,-0.03666002772473907,0.4519341763046164,0.8241530335977552,-0.0035972353024941294,0.014091802949712268,0.02842115338338756
383,0.9419531001806262,0.029326137551877872,1,,-0.034922478763450324,0.45217834282267744,0.8277177821222157,-0.009640783634145972,0.013709914019726564,0.02505082982602772
384,0.9421059902296037,0.02833308823624196,1,,-0.03361139002680379,0.4524116694602935,0.8288429095365789,-0.01450889729420052,0.012332715854488589,0.020569731912802012
385,0.942424397622822,0.026883423127256365,1,,-0.03299326519285808,0.45262738215709053,0.8260038468807425,-0.0174670232321975,0.009338219409786665,0.014283714066132913
386,0.9428661800900494,0.025079476273560667,1,,-0.03237514035891237,0.45284309485388774,0.823164784224906,-0.02042514917019448,0.006343722965084743,0.007997696219463812
387,0.9433774839644127,0.02303465924980785,1,,-0.03356157796417112,0.4510262797460033,0.8265311769614552,-0.02035703280112505,0.003878033622822383,0.001125278740113491
388,0.9438989184964688,0.020864289221756774,1,,-0.03503271506086003,0.44888879984994695,0.830876582646475,-0.01981147678959799,0.0014957723237567827,-0.00583965295408039
389,0.9443721356412745,0.01867813629935208,1,,-0.03619864499098118,0.4468575581709448,0.8336383459143415,-0.01810230397364761,0.0005354760041097102,-0.01027991430102216
390,0.9447461507468348,0.016574866630853568,1,,-0.03678895362019375,0.44502668197793244,0.8334133565595494,-0.014198547654351483,0.0022570083460886205,-0.009958642552163674
391,0.9449825890008247,0.014638036352795317,1,,-0.0373792622512507,0.44319580577919976,0.8331883672040543,-0.010294791322858387,0.003978540693446319,-0.0096373708023014
392,0.9450591749945249,0.012933157907323793,1,,-0.03864721720294348,0.44271304403113554,0.8340336565485612,-0.006632321439411915,0.006966827368755183,-0.007787950933195601
393,0.9449711132603693,0.011505544163881096,1,,-0.0400546876592716,0.44250783542866323,0.8350992975254523,-0.003019528208130111,0.010215916565868163,-0.005623912140439837
394,0.9447303128956477,0.010378899920249995,1,,-0.04076259172720464,0.4421780227020929,0.8355795610409943,-0.0006853760708364846,0.01161892037940931,-0.003495811423217924
395,0.9443626098861752,0.00955481711134274,1,,-0.039928123043022894,0.44157348836368115,0.8347692104546233,-0.0011703147529659944,0.008951757528381564,-0.001446945371049058
396,0.9439033398023553,0.009013467890523789,1,,-0.03909365436144837,0.44096895402715813,0.8339588598707843,-0.0016552534335803528,0.0062845946856871495,0.0006019206747182926
397,0.9433919113885386,0.008715931791529671,1,,-0.0375846473733082,0.4415159994930151,0.831033998791904,-0.0039661734869958715,0.0034680772223192663,0.0002803834292315751
398,0.9428663733167221,0.008608624542575454,1,,-0.03590149406500203,0.4423603496250623,0.8275632321372216,-0.006748509225236225,0.0006130007090260894,-0.000653123528239856
399,0.9423591526327889,0.008630001415651794,1,,-0.03532653999802225,0.44313470059178783,0.8260441280732134,-0.009004200299454859,-0.0017524477221265834,-0.0017212361497914539
400,0.9418949428708637,0.008719043279610568,1,,-0.03763585399523444,0.4437268673902442,0.8296045420890247,-0.009889213314196663,-0.0028435597451807013,-0.0031396818194879836
401,0.9414910314493178,0.008824265195807512,1,,-0.03994516799244664,0.44431903418870056,0.8331649561048361,-0.010774226328938466,-0.0039346717682348185,-0.004558127489184513
402,0.9411593790440872,0.008911525911198358,1,,-0.04035292142658397,0.4437667912272609,0.8335990108237967,-0.008995247739293798,-0.0017948873006594951,-0.005981182200371123
403,0.9409089965804174,0.008969024746746353,1,,-0.040161302926556994,0.4428538302793329,0.8330476370179553,-0.006376578923690092,0.0013632758283220142,-0.007405689687395438
404,0.9407470979000186,0.00900851028721876,1,,-0.04012296132964195,0.4412410517159917,0.8320588261149724,-0.004164640307324404,0.003921659267964304,-0.007960737599702268
405,0.940678236983585,0.009062614356069879,1,,-0.040561829925284926,0.4374494706571244,0.8297081045971433,-0.00321900987410211,0.004612696909049363,-0.005808822084066483
406,0.9407017984804531,0.009179036726411965,1,,-0.0410006985209279,0.4336578895982572,0.8273573830793141,-0.002273379440879816,0.005303734550134422,-0.0036569065684306967
407,0.9408092013936431,0.009412812330893664,1,,-0.0399091115636278,0.434645226407494,0.8289402369550632,-0.0016621544482850919,0.007006788694598539,-0.000418173420497944
408,0.9409824782770186,0.009817989292407535,1,,-0.038239556869962964,0.4374372940687751,0.8320085829560308,-0.001177215749492998,0.00909202504736325,0.0032309901471825795
409,0.9411953334259834,0.010439746526810463,1,,-0.03694826685793665,0.4398532896072382,0.834147461655192,-0.0011577049491613876,0.010308378360554342,0.006648704528554661
410,0.9414166920238143,0.011307458830828714,1,,-0.03709167144348458,0.4408429065431754,0.8327610265288292,-0.002903484213856299,0.008229203818602263,0.009188570870956288
411,0.94161577557971,0.012428786420108919,1,,-0.037235076029032504,0.4418325234791127,0.8313745914024666,-0.004649263478551211,0.006150029276650186,0.011728437213357916
412,0.9417673565174056,0.013784786495260557,1,,-0.03841872254246487,0.4416865931361007,0.8313574477219725,-0.004831739586258947,0.005931730231815015,0.01270500033559782
413,0.9418560479445751,0.015326350408423835,1,,-0.04006664317690632,0.441033852594046,0.8319514374427714,-0.004316492225992717,0.00654396523888041,0.01298383995918704
414,0.9418789400449371,0.016972786504461698,1,,-0.04160011526367114,0.44072930255268156,0.8321405059164692,-0.003935336451412283,0.0069756517568722596,0.013088466125611566
415,0.9418463185271918,0.018613852067845334,1,,-0.042590969357497635,0.4420755766334847,0.8304097811731902,-0.004189929283275694,0.0065513304234014755,0.012367119795149348
416,0.9417805149692643,0.02011675446754436,1,,-0.04358182345132412,0.4434218507142878,0.8286790564299114,-0.004444522115139106,0.0061270090899306915,0.011645773464687132
417,0.9417131600352628,0.021339371294412546,1,,-0.04362854938607798,0.44336067307686106,0.8293124916220542,-0.000923941087416565,0.007769475994069319,0.012955375167686814
418,0.9416812270495046,0.022150008705387678,1,,-0.04318226310932505,0.44256454131532985,0.8311804623027507,0.0045679896934636725,0.010491194512460065,0.015325513167385776
419,0.9417222535865442,0.022452419279152695,1,,-0.042574564989565335,0.44196436316163473,0.8324920002625784,0.00975502604951707,0.012802999472631638,0.017588091171678963
420,0.9418690883505667,0.02221283182502439,1,,-0.04097300371109706,0.4425707325771092,0.8303774081505727,0.013064732293851355,0.012590838642778152,0.019188388731336135
421,0.9421445651337595,0.02148399643544456,1,,-0.03937144243262877,0.44317710199258376,0.828262816038567,0.016374438538185643,0.012378677812924666,0.02078868629099331
422,0.9425566912915271,0.020420370477797125,1,,-0.03871950251837183,0.44401202895106345,0.8286911845410095,0.017023939964761182,0.012257077174617314,0.02143055543265887
423,0.943095102453913,0.01927898943748419,1,,-0.03864347321119253,0.4449855676955718,0.8306617655993563,0.016060124516543477,0.012190397978535213,0.021491172811413186
424,0.9437294808726274,0.018402360633574907,1,,-0.0385364103958112,0.446022606590889,0.8322132277545802,0.014454462372332501,0.01174792587846104,0.021233418918237865
425,0.9444103544526935,0.018182677090167475,1,,-0.03816553565864025,0.44759945222124986,0.8302018132004765,0.007392542775017582,0.008110885905672029,0.018269231172174463
426,0.9450723854411835,0.019010325017155785,1,,-0.03779466092031053,0.44917629785653757,0.8281903986400883,0.0003306231556382673,0.004473845921519384,0.015305043416849696
427,0.9456400783044823,0.02121335535371041,1,,-0.038281940274263786,0.448787851925743,0.8290377199235468,-0.0023007098421986226,0.003820233847916598,0.014023266785549314
428,0.9460357051170372,0.024997432449247407,1,,-0.039370457734560556,0.447022487571754,0.8318879226717061,-0.001827894605724387,0.005256864731239422,0.01392021748002404
429,0.9461889615688743,0.030396985577766784,1,,-0.04062280089192816,0.445289940875296,0.8346077707167099,-0.000564662316249243,0.006596517186500238,0.01404116256062646
430,0.9460473755862426,0.03724749778132664,1,,-0.044025578550428476,0.44398817045058697,0.8356165364586143,0.01107386598262958,0.00666319622367763,0.017102337804148715
431,0.9455859815261971,0.04518611866709834,1,,-0.047428356198297085,0.44268640002994525,0.8366253021973672,0.022712394245144766,0.006729875260646689,0.020163513038106574
432,0.9448145083652119,0.05368338286408315,1,,-0.047865907186278915,0.4431009434627829,0.8360477948808996,0.03913253811420451,0.002360557403859435,0.02202676794551345
433,0.943780458050028,0.06210328838139374,1,,-0.0459120139862319,0.44489968758431375,0.834190964292526,0.059409037006098925,-0.005586375309714037,0.022923904594910827
434,0.9425669700668007,0.06978324008081521,1,,-0.04395286661190683,0.4467263643126927,0.8321849270034877,0.07940390314444429,-0.01329219166996158,0.023579044111594224
435,0.9412851986771857,0.07612066502348622,1,,-0.04185433328879973,0.44929405431954444,0.8262206431021104,0.09192744334573195,-0.014601525938721813,0.01781433568248605
436,0.9400619382218359,0.08065082976841781,1,,-0.03975579997224932,0.45186174431837367,0.8202563592193682,0.10445098350789085,-0.015910860203391136,0.012049627271389238
437,0.9390242018437646,0.0831015165786439,1,,-0.04079757035011189,0.45638221788591615,0.8163539426532047,0.1034566916597838,-0.012078635397951332,0.005416454689697288
438,0.9382830895258981,0.08341487413156118,1,,-0.04474862365350508,0.46271181579662973,0.8143617093063252,0.0899390257318542,-0.0034830974070517075,-0.002021292280697005
439,0.9379193479425432,0.08173402319791334,1,,-0.048690555582586253,0.4690266054414533,0.8123688579281834,0.07641490359474334,0.005106503578060312,-0.009414037650659015
440,0.9379725964164554,0.07835999652784001,1,,-0.04774297041753026,0.4674034170221026,0.8100447105942226,0.05942992741577994,0.010513569750601272,0.007316346570416867
441,0.9384356061959429,0.07369097286227697,1,,-0.04679538525247428,0.4657802286027519,0.8077205632602619,0.04244495123681654,0.015920635923142232,0.02404673079149275
442,0.9392545243235492,0.0681585466885994,1,,-0.042712285708489554,0.46190192973412864,0.8111414127175932,0.023383021602514664,0.01881303226366028,0.038338825305577126
443,0.9403354087580557,0.06217418588794266,1,,-0.03529478810623526,0.4556254801911516,0.8206716604262299,0.0021123985730253886,0.019031254906628166,0.05003797106266261
444,0.9415565915385734,0.056093837766271866,1,,-0.027877290503980964,0.4493490306481747,0.8302019081348666,-0.01915822445646389,0.01924947754959605,0.061737116819748104
445,0.94278521462847,0.05020192224313057,1,,-0.025383501107076864,0.45028773879084294,0.831265446755037,-0.02476580919187655,0.015843679999267862,0.05338686999582479
446,0.9438952427462575,0.04471033070021021,1,,-0.023055643109636908,0.4514696013127314,0.8320436530952852,-0.02984554179722745,0.012315751177694451,0.044360948734948065
447,0.9447838734887587,0.03976552394941662,1,,-0.02367510404922581,0.45254655225898527,0.8320048967089627,-0.030935786067583217,0.00558968236656872,0.03310560757388704
448,0.9453836865008397,0.03545770448557041,1,,-0.027894424214474373,0.45349536406535795,0.8309683009736168,-0.027153264033036566,-0.005042598814704755,0.01912725004856836
449,0.945668841645384,0.0318289919656046,1,,-0.03211374439290586,0.45444417587469504,0.8299317052350323,-0.02337074198667173,-0.015674880029197927,0.005148892479575435
450,0.9456547721872507,0.028880648707442697,1,,-0.03944535066878004,0.4593725978993481,0.8267856755798645,-0.0025038616653223532,-0.012384058320281428,0.0026336251377863957
451,0.945391856580905,0.026581219119080998,1,,-0.04700068888683483,0.4645871009251425,0.8234880057051661,0.01959115660289264,-0.008092350844213074,0.0009424013959836216
452,0.9449543862429336,0.0248773042422447,1,,-0.05082091510879923,0.4689392611053203,0.8191470788836678,0.032629734064766575,-0.005405805670775603,0.0008009026247232683
453,0.9444267820424971,0.023706864861938227,1,,-0.049391193634612564,0.47207934120854833,0.813339785214247,0.0329388831731277,-0.0049754225994293865,0.002837645107616218
454,0.9438894578659992,0.023012710282826164,1,,-0.04796147216489295,0.4752194213019655,0.8075324915629706,0.033248032280522914,-0.004545039529427868,0.004874387584145532
455,0.9434068750733321,0.02275285551404827,1,,-0.04538602798221185,0.4722021367467019,0.8111925612038938,0.016918766286150785,0.0026714201235808407,0.0017752791669882356
456,0.9430199607655849,0.022905468925628773,1,,-0.042681114318127183,0.4684890548547554,0.8159224661627013,-0.0012906814998162365,0.010654723105502192,-0.0019041930220186074
457,0.9427440821423323,0.023468268260603897,1,,-0.0402651109582357,0.46531161511461927,0.81949082112165,-0.013974606086178358,0.017928559271818863,-0.003658629393363184
458,0.9425724272362319,0.024453685836902925,1,,-0.0383180172654483,0.4630035378702021,0.8211739472886405,-0.017690448861342495,0.024050910553386907,-0.00228867770612246
459,0.9424834269211143,0.02588099378605831,1,,-0.036370923578744434,0.4606954606329962,0.822857073450372,-0.021406291624896785,0.03017326181582616,-0.0009187260231620382
460,0.942450141998028,0.027765636697036016,1,,-0.03536271509692247,0.4574960381978074,0.8251667071316775,-0.014589765267423498,0.02656456235126996,0.006144256611757165
461,0.942449396756075,0.030105807034093983,1,,-0.034502285558163585,0.4541563195382684,0.8275749520353192,-0.006115461835401616,0.02142421196990298,0.014103312681902968
462,0.9424687240080173,0.032867466219777,1,,-0.03506514105691943,0.4515132323577761,0.8292357354368093,-0.0027575650701155236,0.018657084039732003,0.01959034978772633
463,0.9425097451728736,0.035970756041881165,1,,-0.03830906018870729,0.4501824004704037,0.8294885142589715,-0.009037521218635368,0.020360431270395277,0.0204208072410416
464,0.9425873560087864,0.039281732401628564,1,,-0.04155297932049515,0.44885156858303144,0.8297412930811339,-0.015317477367155212,0.022063778501058555,0.021251264694356873
465,0.9427249574249816,0.04261290887941632,1,,-0.042627405854893725,0.44999020992371236,0.8269503615047982,-0.021200183939601977,0.02077015828943687,0.02353997805411675
466,0.942946854853949,0.045734470269718226,1,,-0.04325603842901262,0.45163628616910817,0.8235339990100778,-0.027001262478153324,0.018860712050461283,0.02612833829952183
467,0.9432696733072381,0.04839585224465188,1,,-0.0443780997456912,0.45292367348170726,0.8216149085770444,-0.0337375556387202,0.016922868718377698,0.02747668759667214
468,0.9436949694319463,0.05035520855676283,1,,-0.046586659507181355,0.4534212507689859,0.8229927151955352,-0.042533131416497005,0.014922496808532405,0.02609461231450202
469,0.9442049803172955,0.05141243370429957,1,,-0.048795219268671516,0.45391882805626455,0.8243705218140263,-0.051328707194273814,0.012922124898687113,0.024712537032331904
470,0.944762637217728,0.05144018190296128,1,,-0.04890230408248256,0.4537888285516941,0.8269995848239229,-0.0525961329330534,0.01134105432859013,0.024352207953819326
471,0.9453158471441105,0.05040707167049645,1,,-0.04846776230005548,0.45349707966202674,0.8299511421482851,-0.0519232803487922,0.009868052982890814,0.0242552200686631
472,0.9458049946586562,0.048388235625463225,1,,-0.04675235183675914,0.453274884842711,0.8317854964979365,-0.048820075336270766,0.008482631965430977,0.02469887200572601
473,0.9461719698769284,0.04556049101253274,1,,-0.04170783568226636,0.4532334680049259,0.8307161286537956,-0.03940014151075276,0.007324840984651822,0.026547700865947287
474,0.9463689293993888,0.04218222130596227,1,,-0.03666331952777359,0.4531920511671409,0.8296467608096547,-0.029980207685234763,0.0061670500038726655,0.028396529726168563
475,0.946365353519684,0.03856092057012234,1,,-0.036534276020824166,0.45470402901776774,0.8292563065799644,-0.023861497245200206,0.007226980269700633,0.025565551286903406
476,0.9461525035946057,0.035013620803043516,1,,-0.037952254650579935,0.45670489901414063,0.8290795234386467,-0.018781764340338004,0.008984882858344256,0.02126172048796978
477,0.945744842001225,0.03182664716503475,1,,-0.03985766311569975,0.4582508341029711,0.8284787991813136,-0.014455922974243847,0.010285434560061311,0.017505235610280633
478,0.9451782884805877,0.02922115731680499,1,,-0.04327836538529468,0.4583824937904567,0.8265601512079047,-0.01247373611912014,0.010164200199814451,0.01545030813900881
479,0.9445054771983531,0.027329798348392654,1,,-0.0466990676548896,0.45851415347794217,0.8246415032344959,-0.010491549263996435,0.010042965839567593,0.013395380667736989
480,0.9437885651775986,0.026187785586097533,1,,-0.04871755528552694,0.45757575087057073,0.8234603139706546,-0.013395290710879028,0.010670026491691907,0.01414435938707976
481,0.943090581815913,0.025739097989637447,1,,-0.05020723557225508,0.4562338031965315,0.8225572373228239,-0.018141627931712086,0.011579286378483081,0.01595075552600654
482,0.9424666443433142,0.025855744011629572,1,,-0.051218070762710545,0.45481811722301385,0.8220041231003554,-0.021896362,0.012255525866156173,0.017635575937485642
483,0.9419564620401538,0.026365763102038642,1,,-0.0504157451098478,0.4531232190166452,0.8227761517530426,-0.021896362,0.012049426857843859,0.018860046352703958
484,0.9415793754123258,0.02708436831275116,1,,-0.04961341945698507,0.4514283208102766,0.82354818040573,-0.021896362,0.011843327849531545,0.020084516767922275
485,0.9413327739818671,0.027842684237027276,1,,-0.04713467258532231,0.44944653832146764,0.8244134031595047,-0.02049176511083347,0.012190682074644804,0.021095152807578888
486,0.9411942033496059,0.028509702300173887,1,,-0.043908679279911864,0.44733688029961977,0.8253201661651588,-0.01846108451161102,0.01278473202890149,0.022010474511697846
487,0.9411269002007101,0.02900485951942899,1,,-0.04133994322898344,0.4453679453194568,0.8265756767181229,-0.01658162707674166,0.012845799537947341,0.0227618829915943
488,0.9410879300683563,0.02930054179364757,1,,-0.04188142058020771,0.4440649272084788,0.8294814988999643,-0.015417774242544908,0.010384735676437185,0.022737636119620687
489,0.9410375720861488,0.02941547857582736,1,,-0.04242289793312378,0.4427619090934296,0.8323873210908846,-0.014253921404711791,0.007923671807237636,0.022713389247571315
490,0.9409481817494153,0.029401237295395777,1,,-0.0423314437410193,0.4427913917534639,0.8327463672201433,-0.015121865779084882,0.003697733023291713,0.022569625061391537
491,0.9408106427402962,0.029324732097917687,1,,-0.04190988320299765,0.4435158420845759,0.8317771386786283,-0.017049496874151172,-0.001448678778141287,0.022363526450340992
492,0.940636857358617,0.02924981349418204,1,,-0.04131863216090209,0.44426668409887027,0.8306327727543888,-0.018501066622341366,-0.006348149612153604,0.021861268332858966
493,0.9404575230186654,0.029220724079459266,1,,-0.03968492749439861,0.4451796571996262,0.8284124915903038,-0.017028065669301547,-0.009730596804169014,0.019539624077258747
494,0.9403155033807349,0.02924971865422566,1,,-0.038051222832999505,0.4460926302975297,0.8261922104331556,-0.015555064720863999,-0.013113043985616243,0.01721797982891232
495,0.9402561418486396,0.02931063112016627,1,,-0.038894245203591256,0.4471053005676478,0.8240700648465948,-0.014338764001657464,-0.016386016227075546,0.012336881839396647
496,0.9403166252644988,0.029339601620026724,1,,-0.04123755673710148,0.44817836287149726,0.8220073653520948,-0.013277960667980504,-0.01959267349741757,0.005905382597553991
497,0.9405168073242528,0.029243369124584934,1,,-0.04349026435226649,0.4494171745082014,0.8201928016647987,-0.01276152824837608,-0.022685466982138146,5.855437207264669e-05
498,0.9408536552283305,0.028914342646656224,1,,-0.04497500046347461,0.452060900708835,0.8204814718389538,-0.01685925995352592,-0.024813135069558085,-0.0008325204162981469
499,0.9413007018691005,0.028250189323902414,1,,-0.046459736574682726,0.4547046269094685,0.8207701420131092,-0.02095699165867576,-0.026940803156978024,-0.0017235952046689405
500,0.9418127060867261,0.02717433385689043,1,,-0.04593354017396738,0.4553715979045386,0.8235355532484853,-0.02272962930432889,-0.025067312528490003,-0.0008458867229774459
501,0.9423344159438768,0.025653135014641105,1,,-0.04400004545730115,0.45465518868038496,0.8280342466932087,-0.022875110936776067,-0.020393716029621152,0.001269658288240662
502,0.9428112545726317,0.02370600351694918,1,,-0.04209914434012515,0.4537146215801152,0.8321697993961067,-0.022723789524632065,-0.01581876669155472,0.0031349238160556596
503,0.9431992582130224,0.0214062879819232,1,,-0.04062429820033412,0.4498439215600996,0.8315584716388549,-0.018692736618302553,-0.012533307146641505,0.0017286016300552282
504,0.943471909797146,0.018872867417261338,1,,-0.0391494520605431,0.44597322154008406,0.8309471438816032,-0.014661683711973043,-0.00924784760172829,0.00032227944405479697
505,0.9436225557923752,0.016254399493324027,1,,-0.038443838786371205,0.4436930190727218,0.8307918163986734,-0.011765359462655086,-0.005901958724152189,-0.0008087535431265534
506,0.9436624461522014,0.013709579830474678,1,,-0.03835791950777481,0.44269412142714387,0.8310038427376473,-0.009783172607531379,-0.0025073879570704748,-0.0017180135570414945
507,0.9436155376823111,0.011387313871590277,1,,-0.038299782182963316,0.44171167162979774,0.8312493974282527,-0.007763712746221803,0.0008312732984787336,-0.002526325842155941
508,0.943511710765172,0.009410392475288609,1,,-0.038972920033553425,0.44116216125758123,0.8323774836862915,-0.004763154710631304,0.0026982872332846847,-0.0006774971408393728
509,0.9433799969555561,0.007865303512357738,1,,-0.03964605788414353,0.4406126508853647,0.8335055699443306,-0.0017625966750408053,0.004565301168090636,0.0011713315604771955
510,0.9432430524383374,0.0067994869822182395,1,,-0.039420940758570784,0.4400056757957507,0.833059304304688,-0.0003739552427151793,0.003778319539751049,0.003142943000121396
511,0.9431137004540638,0.0062258910132033,1,,-0.03836456550613301,0.4393455220286462,0.8311561106834843,-0.000477004718741043,0.0005352920906460755,0.005228179352886107
512,0.9429940319802681,0.006133299512759628,1,,-0.03731463048645952,0.43869026975320824,0.829262351462073,-0.0005911675696899098,-0.0027054297962467327,0.0073067710018568975
513,0.942877230482348,0.006499761170058522,1,,-0.03927223232451437,0.4403239744197117,0.831774381516737,-0.005895184238074712,-0.0048694685095501435,0.006282338015980172
514,0.9427517930600399,0.007305748928682811,1,,-0.04122983416256923,0.4419576790862152,0.8342864115714012,-0.011199200906459515,-0.007033507222853553,0.005257905030103447
515,0.942607112143253,0.008543619530392803,1,,-0.04177989526992073,0.4428432540886813,0.8354976283956602,-0.010862577869382405,-0.00868315735603202,0.005121160046492437
516,0.9424387325108349,0.010220682678974422,1,,-0.04083478199007762,0.44293412078355193,0.8353270432001274,-0.004534128215120878,-0.009786393013741708,0.005927370627758339
517,0.9422514476254328,0.012354711983177608,1,,-0.039889668713187436,0.4430249874781385,0.8351564580051273,0.0017943214193679234,-0.010889628668004426,0.006733581206505301
518,0.9420589886507924,0.01496270239859865,1,,-0.03751858385293055,0.44026809285507973,0.8324335688059938,0.003353895556121442,-0.009277010002925119,0.00821435586055887
519,0.9418802378356321,0.018045512710968967,1,,-0.03509986159118565,0.43741606313177944,0.8296254148426748,0.0047541559724655,-0.0075736628517141975,0.009717665661880556
520,0.9417332112876708,0.021572166720326233,1,,-0.035383569038708214,0.43753264464711966,0.8278630574458208,0.007623400416527508,-0.0027357549459724926,0.012329539703628276
521,0.9416289551845652,0.02546772390646995,1,,-0.03896436577762204,0.44127106923636505,0.8273766202508649,0.012284873346830701,0.005926462121830702,0.016293913413875687
522,0.9415675830861069,0.02960776012013814,1,,-0.04254516251653586,0.44500949382561034,0.8268901830559091,0.016946346277133897,0.014588679189633897,0.0202582871241231
523,0.941537927029114,0.03382089673290214,1,,-0.040992086253138285,0.4467895358064394,0.8262404713901786,0.006492675745807789,0.024676426243999256,0.02316482723563367
524,0.9415210466830273,0.03789904448054824,1,,-0.03907157282063321,0.44842941410956105,0.8255790739816139,-0.005042802929736346,0.034866200144078215,0.025995656996056007
525,0.9414966088789749,0.04161374826428625,1,,-0.03521155887998194,0.4497298896900174,0.8273657729390468,-0.010844292497757403,0.0317195323035286,0.02870797407521286
526,0.9414502046729107,0.04473663603826032,1,,-0.028628529540243086,0.45055385142764254,0.8325895445216537,-0.008595389414471776,0.009848798098347506,0.03125390199658521
527,0.9413791490731452,0.04706232840662762,1,,-0.022045500200504234,0.4513778131652675,0.8378133161042607,-0.006346486331186151,-0.012021936106833586,0.03379982991795756
528,0.9412944179799362,0.048432466791389094,1,,-0.027888717801317662,0.4485813463581321,0.8320913436063354,0.000233541039155025,-0.03631701012179761,0.026817285110824804
529,0.9412174013984266,0.04875882975733154,1,,-0.03513190429482305,0.4453769939349787,0.8251361989914985,0.007301522616227954,-0.060885215785884746,0.018761241154136302
530,0.9411720499069469,0.048041772311697324,1,,-0.03938556334230958,0.444159683184057,0.8206494170521802,0.010285394140824479,-0.0698685881101035,0.012261599266315084
531,0.9411750437343335,0.0463788370592345,1,,-0.038792781610756964,0.44616364400994557,0.8201641951400231,0.006648353878588596,-0.05358677280961897,0.008285102120042987
532,0.941227736701406,0.04395922559066595,1,,-0.03819999987920435,0.44816760483583423,0.8196789732278661,0.0030113136163527126,-0.03730495750913442,0.004308604973770889
533,0.9413131753450547,0.041043334732355566,1,,-0.04104234177333735,0.4510931046850659,0.8219888634463111,-0.009270149939875558,-0.03060535391069409,0.004167088395442793
534,0.9413996975413141,0.037931015296775596,1,,-0.04442410232054819,0.4541633141196524,0.8247376710910306,-0.022909050264890745,-0.02541044838139341,0.004627780154726772
535,0.9414502959127476,0.03492513425571886,1,,-0.044340292451818905,0.4559758009874639,0.8270134569506051,-0.025114218812272097,-0.020287069287199207,0.006710441923908625
536,0.9414349671712271,0.03229735080359785,1,,-0.03773624722663942,0.4554219682594261,0.8283992844355684,-0.00580759758318494,-0.015298262352718008,0.011844730090686055
537,0.9413422623966374,0.03026147275470913,1,,-0.03113220200145993,0.45486813553138833,0.8297851119205315,0.013499023645902218,-0.010309455418236808,0.016979018257463487
538,0.9411864131427067,0.028957453112942372,1,,-0.025294475547516137,0.450392436361083,0.8315089594726784,0.021643778068227367,-0.015184741557143465,0.011258277321808874
539,0.9410075732991959,0.028446521890227,1,,-0.019613908732700237,0.44511242554148767,0.8333021294971054,0.02749941335999055,-0.022082994333338483,0.0033113447274139333
540,0.9408645144133816,0.02871546136366606,1,,-0.017386130684377183,0.44052489832872704,0.8330796679137868,0.030950531719349614,-0.022643100885251868,-0.004281257988225993
541,0.9408211263687766,0.02968638388673095,1,,-0.022751453951358105,0.437460226523168,0.828424587916905,0.02911382569926037,-0.00926485504763571,-0.011094646394438796
542,0.9409298864027613,0.031228316005841573,1,,-0.028116777218339026,0.43439555471760904,0.823769507920023,0.027277119679171125,0.004113390789980445,-0.017908034800651597
543,0.9412165933137774,0.033168374647494475,1,,-0.03408237852721099,0.43807258470017024,0.8238492681041064,0.025175247121561446,0.011802592992680496,-0.013478330008874374
544,0.9416706464085358,0.0353024151838724,1,,-0.04020243251661447,0.44348426736007907,0.8251473116615656,0.02300514671010878,0.01802799346059528,-0.006155755978660923
545,0.942243795310148,0.03740663779918046,1,,-0.045278280003568615,0.4472067192429713,0.8269896428969136,0.020196089506802278,0.02226403003265525,0.003319714371333457
546,0.942857988649058,0.03925209888954612,1,,-0.0476438433577349,0.44654469799130503,0.8302446968446288,0.0157285917257571,0.021336584696778446,0.01838312221864838
547,0.9434205457740591,0.040623264625984305,1,,-0.050009406719292195,0.44588267673757037,0.833499750802514,0.01126109393075359,0.020409139358003918,0.03344653011302769
548,0.9438431465105611,0.041339954598356675,1,,-0.04500685828587489,0.4448947338181884,0.8355267767781929,0.009667067297037198,0.016271524186427695,0.041250157246882205
549,0.9440604318893921,0.04127991774578442,1,,-0.037688878976736194,0.4438043699382259,0.8371678946697693,0.00897602965595214,0.011125112384994695,0.04677239655823489
550,0.944044287391286,0.040397761368199864,1,,-0.031875204010748594,0.44332548659477156,0.837886213963129,0.008959976966874542,0.004603621871642849,0.048774966211233756
551,0.9438109050402708,0.03873576207600224,1,,-0.03073105495843761,0.44474470599567056,0.8357400650564796,0.011039151700961291,-0.006186263964939343,0.03985209468102286
552,0.9434192155395831,0.036423400985409644,1,,-0.029586905902551825,0.4461639254010038,0.8335939161431248,0.013118326441544254,-0.016976149835233656,0.030929223122933176
553,0.9429609801111185,0.03366478782223201,1,,-0.02554431929736337,0.44930962465583185,0.8283414706843157,0.015554176526318086,-0.015590627334328895,0.025898958992675605
554,0.9425444711263049,0.030715596555806083,1,,-0.02041017482117209,0.4531055199686351,0.8219191872054762,0.018124351319739808,-0.009619819618825168,0.022334659267135484
555,0.9422749607631342,0.027852997330129876,1,,-0.017635258994729876,0.4570477951905121,0.8168982043429668,0.019383330866756244,-0.004441562284122055,0.018468556445594787
556,0.9422358620178922,0.02534309270819826,1,,-0.023778801281888168,0.461543422071579,0.8171744786380601,0.015685673470142228,-0.0022593381549499947,0.013461564515860886
557,0.9424741006638049,0.023410670861868915,1,,-0.02992234354985146,0.4660390489385997,0.8174507529322905,0.011988016085081241,-7.711403259611627e-05,0.008454572601770922
558,0.942992208273204,0.022215757259621115,1,,-0.032416158116476954,0.4676304590416788,0.8171992594665589,0.004955737107195008,0.007734118887572552,0.006119472349473082
559,0.9437481383715942,0.021840321991536477,1,,-0.03328524168404651,0.46792901351593136,0.816712822271603,-0.0035609986488596007,0.018051189441940278,0.004973804725266259
560,0.9446624322852747,0.02228642412345204,1,,-0.0340694330569415,0.46765265591080407,0.8172535080024226,-0.012462213291285933,0.02552438749518669,0.0037857702833837825
561,0.9456313318465951,0.023484382224783037,1,,-0.03445267046208973,0.4646609334807178,0.8226453937055381,-0.023179358545432134,0.01956570329516,0.00239763330306441
562,0.9465436594686657,0.025307252466346353,1,,-0.034835907867237954,0.46166921105063163,0.8280372794086537,-0.033896503799578336,0.013607019095133312,0.0010094963227450374
563,0.9472986432085634,0.027587097467812145,1,,-0.035151273698671694,0.4585506852210664,0.8331658258865826,-0.03221848882668627,0.010569766597751268,-0.001482646817437406
564,0.9478214714123928,0.030129673734995973,1,,-0.035431284172696476,0.45536610551268697,0.8381571948886214,-0.02408364200061737,0.009054333320678721,-0.004549883957739798
565,0.9480735214495346,0.03272666947407094,1,,-0.03547329659357168,0.45249946240811334,0.8414217086411034,-0.01495569166395136,0.00909232481870903,-0.0077582642509309635
566,0.9480551731718023,0.035167153138086556,1,,-0.03405655433967681,0.4515815390554233,0.8341018577964544,0.0002592596773137395,0.01865167845645724,-0.01183174924293614
567,0.9478008707358448,0.03725095567808019,1,,-0.032639812085781934,0.4506636157027333,0.8267820069518056,0.015474211018578838,0.028211032094205456,-0.01590523423494132
568,0.9473681895978221,0.03880551648058897,1,,-0.03380641022346936,0.4516662629864004,0.8244459203053134,0.018645357054209718,0.03359338732273677,-0.021304330803723095
569,0.9468242720590301,0.03970488016462979,1,,-0.03653604961775677,0.45383094495567444,0.8251252431330386,0.01452943990993637,0.03644846394628803,-0.02750548410213027
570,0.9462333553644279,0.0398867590602095,1,,-0.039167524432393026,0.4557991001699444,0.8259043658810543,0.010804104552358954,0.0381292298311203,-0.033080680417846946
571,0.9456481206664549,0.039362496400288084,1,,-0.04096935820789291,0.4561063034067822,0.8275269507099482,0.010379783298340524,0.029885272279460105,-0.03336558185963516
572,0.94510586310367,0.038215902352600285,1,,-0.0427711919833928,0.45641350664361985,0.8291495355388423,0.009955462044322093,0.02164131472779991,-0.03365048330142338
573,0.9446288748747114,0.036589691228905076,1,,-0.042853293824686625,0.4564769614339769,0.8286321805795333,0.006990894900289883,0.0150991790461337,-0.03198381966352127
574,0.9442274999617505,0.034661488053538005,1,,-0.04173325111839896,0.45637002870050547,0.8266189430949468,0.0022506191789751955,0.009746668236388386,-0.02895295310937618
575,0.9439041681262905,0.032614012148107246,1,,-0.040743425471503454,0.456033088482626,0.824921217096897,-0.002451601899661101,0.004862488785455815,-0.025817868765938928
576,0.9436571130280378,0.030605414431289224,1,,-0.0414487067419348,0.4527020145347296,0.8273306772833376,-0.006658445005747239,0.006074835566018561,-0.021326124098886047
577,0.9434830465021291,0.02874566003201973,1,,-0.04215398801236614,0.4493709405868332,0.8297401374697781,-0.010865288111833377,0.007287182346581307,-0.016834379431833163
578,0.9433785117296615,0.027083471716301565,1,,-0.04230988664873085,0.4480884053962206,0.8302205846210922,-0.015031824961863234,0.010219260546972529,-0.012786003075110427
579,0.9433399252084094,0.025606052649349717,1,,-0.04202369443620256,0.4484543391997844,0.8291487457019268,-0.01916592717371802,0.014535214895090253,-0.009094407330900368
580,0.9433625553657118,0.024251124599503078,1,,-0.04176111636872585,0.44882535595028944,0.8280750380435269,-0.02303425409535239,0.018594111549333794,-0.00538671754995988
581,0.9434389458321075,0.022928425863851278,1,,-0.04211530204050704,0.4493291311898469,0.8269525218093567,-0.01996095515614071,0.01593907205511914,-0.001258676914547789
582,0.9435575054801948,0.02154636190795677,1,,-0.04246948771228824,0.4498329064294045,0.8258300055751867,-0.016887656216929035,0.013284032560904487,0.002869363720864302
583,0.9437020179077401,0.020039262296544257,1,,-0.04265054388050378,0.4505602375381689,0.8261304267032848,-0.016088614224249335,0.01015650213222459,0.005050741212240567
584,0.9438525791663886,0.018391332018701242,1,,-0.04267155976594442,0.45149422287851715,0.8277462059485052,-0.017391887072943552,0.006592202803946237,0.005432630380583331
585,0.9439879820013266,0.01665422237642428,1,,-0.04269522900187106,0.45242285530226206,0.829360118905952,-0.018689604989858583,0.0030325520756204374,0.005814285657228102
586,0.9440889964293012,0.014955766651887263,1,,-0.04381650764726181,0.45113715092017104,0.8302020060622296,-0.01768941864079917,0.0013958840461528975,0.006099187137852343
587,0.9441416053298121,0.013497919754039168,1,,-0.044937786296155906,0.44985144653406295,0.8310438932211379,-0.016689232288614755,-0.00024078398842827873,0.006384088619366735
588,0.94413923864568,0.01254264731531643,1,,-0.04530511230929254,0.44847037531377537,0.8307782479639407,-0.015871389988627096,-0.0016980492339611329,0.006910154539640406
589,0.9440834228075651,0.0123856477606896,1,,-0.044872425047058816,0.44698811108778014,0.829337408677616,-0.015247031543624135,-0.002964951575950408,0.007692118169404582
590,0.9439828422698391,0.013319355518169729,1,,-0.0444397377848251,0.44550584686178485,0.8278965693912911,-0.014622673098621175,-0.004231853917939682,0.008474081799168759
591,0.9438513198945293,0.015588527826406691,1,,-0.04501161694184701,0.44349825707731516,0.8313355400495929,-0.011076328879670007,-0.001362210117017263,0.010012945319413007
592,0.9437054223106783,0.0193436445254522,1,,-0.045616760933233136,0.44147327186533336,0.8349360988959434,-0.007433227129298329,0.0016444097145892293,0.011576872534328821
593,0.9435622411860798,0.024598987967813624,1,,-0.0456778018938481,0.4393231994459838,0.835762665118699,-0.004153497166799953,0.00210196228864398,0.014673518627526607
594,0.9434376139876713,0.031203088592742248,1,,-0.04507574836472874,0.4370206841458426,0.8332085862791946,-0.001316605827406894,-0.0005470152560630592,0.019638078292696665
595,0.9433449215781861,0.038828693338355584,1,,-0.044473694835609374,0.4347181688457015,0.8306545074396899,0.0015202855119861652,-0.003195992800770098,0.024602637957866724
596,0.9432946572620254,0.046987279862951314,1,,-0.04517164377487225,0.4382244152167192,0.8331486797234038,0.001375131066886183,-0.009743698106697316,0.036351776373123756
597,0.9432949048091095,0.05506955387733698,1,,-0.0459622253398611,0.4421445691447629,0.8360025688293865,0.0010174887705927907,-0.016569210107839513,0.04858435490434251
598,0.943352477643578,0.062408897930739136,1,,-0.04431801781666228,0.4441460689429851,0.8359320249536915,-0.003846604366666926,-0.019261706112708284,0.05983035902244024
599,0.9434740022956303,0.06836028172634939,1,,-0.03925928447379994,0.4434568658639826,0.8317602831806283,-0.01503050272215016,-0.0161580985451533,0.06969280034848356
600,0.9436661624662098,0.07238367299608174,1,,-0.034200551130937604,0.4427676627849802,0.8275885414075652,-0.026214401077633395,-0.013054490977598322,0.07955524167452688
601,0.9439347745788937,0.07411923695744814,1,,-0.030982873876140335,0.44737878103711265,0.8298530193474764,-0.030531777299345052,-0.00811981094341953,0.08198439959293843
602,0.9442829012630968,0.07344193776746645,1,,-0.027971988056693174,0.4525852429417212,0.8328404275236265,-0.034077890778378285,-0.002979460856026255,0.08357863490622511
603,0.944708369901517,0.07048561124532196,1,,-0.0258720341605969,0.45599202608086,0.8323264059416927,-0.03709403035079436,0.0011472265856355259,0.07856554876468876
604,0.945200964011503,0.0656309463316462,1,,-0.025247109819391583,0.45648467337091797,0.8261426824762687,-0.039252007922114994,0.0036325374222272717,0.06285353515599534
605,0.9457396969918483,0.05945753836411383,1,,-0.024622185478186263,0.456977320660976,0.8199589590108445,-0.04140998549343562,0.006117848258819017,0.047141521547301925
606,0.9462911012976303,0.05266634234286863,1,,-0.028549311808760674,0.45580796670702484,0.8234837323707666,-0.03515662364388363,0.0015910892189485131,0.029495686188349062
607,0.9468098452361567,0.0459842752511044,1,,-0.03318957467266459,0.4543782391564242,0.828529465023341,-0.027585518678586905,-0.00403419959656033,0.01154689309924465
608,0.9472426045931518,0.04006618799953553,1,,-0.03782189425934294,0.45339957748152415,0.8321930399552059,-0.01981019097689833,-0.009255253916424051,-0.0013742339386762967
609,0.9475349813650081,0.03541005165732739,1,,-0.04243928719862139,0.45326853758607316,0.8332593291007673,-0.011651097539499595,-0.01371668977013091,-0.0048476073840737635
610,0.9476400227051303,0.03229870643542858,1,,-0.0470566801523265,0.4531374976902128,0.8343256182496603,-0.0034920040766084344,-0.018178125637777164,-0.008320980840323502
611,0.9475262064839994,0.030776456675420283,1,,-0.04447937310966464,0.45371094456159894,0.8340968135985216,0.00628229683185843,-0.021175307783473717,-0.00871489274042593
612,0.947182845166252,0.030662412313565316,1,,-0.04042941887681767,0.45442858930903735,0.8336029226690661,0.0163872064811337,-0.023872779151731856,-0.00847848504273646
613,0.9466215673939841,0.03159624737420875,1,,-0.03640073736993683,0.4535434414766972,0.8325257832952077,0.026372638129333017,-0.022219730945717026,-0.008921016393550515
614,0.9458736040879115,0.03310715334704819,1,,-0.032418777399497375,0.4491380615855538,0.8301676485523055,0.036095658848622585,-0.011011585797636772,-0.010854709504575477
615,0.9449837600239276,0.03469387599415898,1,,-0.02843681744149923,0.4447326817081747,0.8278095138167713,0.04581867953753337,0.00019655931542454216,-0.012788402609558772
616,0.944002868667166,0.03590301416792851,1,,-0.030000861704822628,0.44630363525575856,0.8272498710906652,0.042640471779847575,0.008337347186778471,-0.017148008663875718
617,0.9429808560556238,0.03639406614002864,1,,-0.03298949529112845,0.4494097157972173,0.8271522028630637,0.036148355202949393,0.015690230065273786,-0.02213075338376736
618,0.9419621072584432,0.03598264936125882,1,,-0.035730327939829935,0.45173091958032985,0.8264236717063198,0.03023338659598384,0.020314316860106686,-0.02501922744578731
619,0.9409838521125249,0.03465729874850419,1,,-0.03782886166803131,0.4520177263208601,0.8240599466625429,0.02581438294234084,0.017865376426931822,-0.022479361341742745
620,0.9400772555853051,0.03256952104510963,1,,-0.03992739539623268,0.45230453306139035,0.821696221618766,0.02139537928869784,0.01541643599375696,-0.01993949523769818
621,0.9392701864912953,0.030000652924488752,1,,-0.03980378150800384,0.45081521942593694,0.8242920171825372,0.015476832427108003,0.012210803196121365,-0.019522059017432637
622,0.9385902845924663,0.027312038135841665,1,,-0.03898291144981907,0.44876860217380843,0.8284439903554056,0.0090877651557351,0.00876773862535164,-0.019770589952515908
623,0.9380668492884106,0.024886811240277085,1,,-0.038423495666726454,0.44672183669791243,0.8305617652469205,0.003498651169165249,0.004620833461221554,-0.0190520794587148
624,0.9377302971150245,0.023072075571904535,1,,-0.03867445399525602,0.44467461180438456,0.8263745691275985,0.0003889819431871911,-0.0017076164313970345,-0.015336236683550658
625,0.9376086657276321,0.02212961589291933,1,,-0.03892541232378559,0.4426273869108567,0.8221873730082767,-0.0027206872827908665,-0.008036066324015623,-0.01162039390838652
626,0.9377218152734389,0.022201700623999784,1,,-0.038929764723943446,0.4438287162919511,0.8206230360352266,-0.007570358447402591,-0.008963902602002166,-0.00871948895879332
627,0.9380750911324232,0.02329619455579047,1,,-0.03884137315503992,0.44625176739102557,0.82004510830023,-0.01307441246567663,-0.007860667103197185,-0.006125067174143695
628,0.9386546432479692,0.025292320114408205,1,,-0.038509692243587135,0.44893921231189043,0.8199889693890994,-0.019389834295951893,-0.00574544394248569,-0.002649441506707212
629,0.9394261072336261,0.027965254950654373,1,,-0.03725984396627076,0.45262447232962844,0.8219020473163469,-0.02876733619469893,0.00018899314713456407,0.00415182366211179
630,0.940337220871647,0.03102472890004089,1,,-0.036009995688954397,0.4563097323473664,0.8238151252435942,-0.038144838093445974,0.006123430236754818,0.010953088830930791
631,0.9413237110611735,0.034160420228101035,1,,-0.033762738357288775,0.4575782764318598,0.8246165569142663,-0.042226789241078866,0.004148110127568233,0.012748337812397712
632,0.9423169216286669,0.03708589617592376,1,,-0.031072041484886268,0.45777236924705883,0.824923760150144,-0.04395438373565555,-0.0013438204772482061,0.012317954742396192
633,0.9432514124476555,0.03957356790117595,1,,-0.029455631722974197,0.45734542798740707,0.8255785301569246,-0.04500728661743186,-0.0060178467752742765,0.010549857927076129
634,0.9440710977243819,0.04147552862295082,1,,-0.03290353161651328,0.45399086262300875,0.8278717687983679,-0.04287961773548839,-0.00683618059393398,0.0024756288770233065
635,0.9447331360457447,0.042728474023561794,1,,-0.03635143151005236,0.45063629725861043,0.8301650074398111,-0.04075194885354492,-0.0076545144125936835,-0.0055986001730295165
636,0.9452094457079104,0.043344182684166954,1,,-0.0370504031284913,0.44975377147134743,0.8303529437186935,-0.03911072403887225,-0.006148283310486064,-0.010845871144817788
637,0.9454862352346017,0.043389486939971605,1,,-0.03631916137748302,0.4501573993044049,0.8294455325441928,-0.03772258651454501,-0.003432626754122693,-0.014622331373734452
638,0.9455622667427415,0.0429609389646436,1,,-0.03590343957887457,0.4500119101441343,0.8289724827847257,-0.035628202917004734,0.0002550767436182828,-0.017868042
639,0.9454466891497344,0.04215953285096634,1,,-0.037417227430483625,0.44650838756708006,0.8311556978234457,-0.029214889170844225,0.009887171315324026,-0.017868042
640,0.9451571622805504,0.04107015939608796,1,,-0.038931015282092696,0.4430048649900258,0.8333389128621657,-0.022801575424683716,0.01951926588702977,-0.017868042
641,0.9447186589360894,0.03974917961429491,1,,-0.039641102335448236,0.4412509091186473,0.8346745134580681,-0.011245944777666494,0.02674078112322627,-0.01808340721375483
642,0.9441628870966173,0.03822170654293543,1,,-0.03986548161897828,0.4405542847126865,0.8354978675542939,0.003417388734743759,0.032505489155072675,-0.01842892603429736
643,0.9435278878160697,0.036488038305197666,1,,-0.0402393588649721,0.43977753481943993,0.8360605824154028,0.016482829993550933,0.03710762625608579,-0.018356485113319526
644,0.9428571916332839,0.03453663634219487,1,,-0.04187306271618267,0.4383255635472141,0.8344268777540037,0.016082755414200994,0.03191272152130864,-0.014761877106895076
645,0.9421980296879849,0.032359775087377904,1,,-0.04350676657249762,0.4368735922704517,0.8327931730875,0.01568268083360105,0.02671781677030043,-0.011167269089239568
646,0.9415984353158702,0.02996796216369296,1,,-0.044510420306974545,0.4368571526282213,0.832371170244835,0.015496771995888992,0.02436060530544548,-0.008054533688978082
647,0.9411034558907538,0.027400215939835177,1,,-0.04507414948793769,0.4378430548497367,0.8327952229227829,0.015460401687814934,0.02398477739826402,-0.0052782597680655135
648,0.9407509445661848,0.024728548632622107,1,,-0.045748721673722965,0.43875737916182317,0.8329369871235613,0.015377582197542912,0.023391463180242864,-0.002579690546429023
649,0.940567500431229,0.02205598794869751,1,,-0.0478602366410902,0.43874378419828913,0.8294192295449809,0.01469260637592579,0.019978707309513174,-0.0008884668762530551
650,0.9405652001172798,0.019508209649059315,1,,-0.0499717516150547,0.4387301892347125,0.8259014719554093,0.014007630552168516,0.016565951428120607,0.0008027567992070037
651,0.9407398570803314,0.01721965223981049,1,,-0.050102934272103695,0.4409446808020585,0.8256720377654593,0.011242495200336777,0.013321221246810717,0.0022889889840206354
652,0.941071468160106,0.01531595459221764,1,,-0.048642305320682235,0.44495013137881134,0.8280857919511225,0.006805306094710422,0.010211551861927952,0.0036104468874364392
653,0.941527038217927,0.013895498661751382,1,,-0.04722528385924657,0.44876528411268024,0.830392607374436,0.0024915233045896363,0.0070336487034915705,0.004958252491011891
654,0.9420652114595299,0.013013401937251645,1,,-0.04693847387796218,0.4476483298450788,0.8299278022132998,0.0013761643300337933,0.002087274251947806,0.006988933288865224
655,0.9426415333156541,0.012671176205742114,1,,-0.04665166389757391,0.44653137558096706,0.8294629970536158,0.0002608053589627984,-0.002859100184141413,0.00901961408037386
656,0.9432131143128676,0.01281434032685995,1,,-0.04595381618256619,0.446311695494546,0.8296251742948691,-0.0020553153064097776,-0.0035760201137908787,0.010300212622693185
657,0.9437419320764724,0.01333874185941365,1,,-0.04487642463629296,0.4469205400239454,0.8303662942550387,-0.005480194743005562,-0.0003875482954322123,0.010888200560991202
658,0.9441966231476757,0.014104642385299713,1,,-0.04380391150738161,0.4475254476561956,0.83110223026724,-0.00889335005692258,0.0028038708368714658,0.01147977087161657
659,0.944553076846411,0.01495619025737745,1,,-0.04454257051988356,0.44666873404714136,0.8299135621616779,-0.007953781361575717,0.0070895163367073275,0.013401340745247731
660,0.9447943923405854,0.015742990364829096,1,,-0.04528122953238551,0.4458120204380871,0.8287248940561159,-0.007014212666228855,0.011375161836543189,0.015322910618878891
661,0.9449108394908907,0.016340173279239548,1,,-0.045865351910369286,0.4458855232850458,0.829060595504784,-0.0058333429694661775,0.012229624996650723,0.016223365084563263
662,0.9449003313203509,0.016663708304313823,1,,-0.04628567691922616,0.4469449865954163,0.8310120156430892,-0.004396712097338912,0.0094472893223334,0.016041512944688845
663,0.9447694995581609,0.016678674145244196,1,,-0.04670600192808304,0.44800444990578686,0.8329634357813944,-0.002960081225211646,0.006664953648016077,0.01585966080481443
664,0.9445348642702448,0.016399594922259942,1,,-0.04703416039407922,0.44883828784307805,0.8328662835793661,-0.003835878481296905,0.008255102683917425,0.014057935095040391
665,0.9442231207237788,0.01588338873034477,1,,-0.04735929391333129,0.4496647206557274,0.8327018963261072,-0.00478757065239463,0.009988758603957856,0.01220304441749133
666,0.9438695593328393,0.015216607677107575,1,,-0.04665214788571262,0.449931105911689,0.8309222957460072,-0.005873218251425058,0.009281144557228458,0.010044703781051155
667,0.9435141863029078,0.01449934356734028,1,,-0.04468836553057273,0.4495157222523375,0.8271764295867938,-0.007121935296434171,0.005601672220813121,0.007516961041476648
668,0.9431960272889632,0.013828486071582706,1,,-0.042724583169297156,0.4491003385916882,0.8234305634158768,-0.008370652345344797,0.001922199872901571,0.004989218294004414
669,0.9429469727423746,0.013282981778519333,1,,-0.04383370381594442,0.4481637727717954,0.824680229603045,-0.006602484838325644,0.00497836133935146,0.0054670397016413075
670,0.9427869224910428,0.012913283874476775,1,,-0.045160817748140784,0.44719023402728697,0.8262842813692564,-0.004620298022928115,0.00851235205770501,0.006158077342726367
671,0.9427216660148888,0.012736282937486049,1,,-0.046019859150870576,0.4470997978957355,0.8278548565855418,-0.00315571043999309,0.010889950189208379,0.0065764285404201215
672,0.9427440253330357,0.01273586138187483,1,,-0.046223221738136054,0.44824641721287456,0.8293785376445614,-0.0024161789776675395,0.011647666626746345,0.006612798927832897
673,0.942837716355169,0.012868172155701409,1,,-0.04642658432603692,0.44939303653359625,0.8309022187083417,-0.0016766475130313833,0.012405383066651735,0.006649169315359309
674,0.9429826000211082,0.013070104153613867,1,,-0.045815032929584,0.4479870733249161,0.8307460433235458,-0.0017766139939656897,0.010731826341867996,0.008675259146559231
675,0.9431597531922594,0.013269239810609417,1,,-0.04511222556983687,0.4462952659877993,0.8304017537066296,-0.0019705894073486106,0.008786009993449232,0.010924162388749565
676,0.9433550932048251,0.013393813162105372,1,,-0.044976916756319076,0.44537523764284886,0.8303172326000225,-0.002528171179609975,0.008012071317532347,0.011549574894644199
677,0.9435609172967376,0.013381554454300615,1,,-0.045759462871441885,0.4457034612211642,0.8306528531996402,-0.003673838843542975,0.00913349202996362,0.009549202746441844
678,0.9437753565275767,0.013186721002157538,1,,-0.046542008984119684,0.446031684798454,0.8309884737982094,-0.00481950650389643,0.010254912738891108,0.007548830604489491
679,0.9440001887429702,0.012784991578972765,1,,-0.046816709895179526,0.4458921579668229,0.8306810137826872,-0.005346573877505097,0.008854750946597052,0.006659842109675667
680,0.9442376964311301,0.012176203842706302,1,,-0.047012037033214354,0.4456795239864495,0.8302730433471109,-0.00577695698857749,0.007060477886159367,0.005944557556815059
681,0.9444873757476743,0.011385098645313627,1,,-0.04709241443061929,0.4454275701046946,0.830067699104373,-0.005994527695097604,0.0058898926,0.006010989811201938
682,0.9447433340793119,0.010460253877672339,1,,-0.046957045294937404,0.4451018176014036,0.8302426593179817,-0.005812675678013192,0.0058898926,0.007544608421079311
683,0.9449931074915172,0.009471240737496878,1,,-0.04682167615925552,0.44477606509811257,0.8304176195315904,-0.0056308236609287805,0.0058898926,0.009078227030956685
684,0.9452183338339126,0.008503831821097024,1,,-0.04732840834025591,0.4469699579959513,0.8310575536766488,-0.0036469912231912554,0.00561808549973498,0.008135380856772699
685,0.9453972491337422,0.007653054293687653,1,,-0.04796631311703582,0.44967858029804386,0.8317924756945444,-0.0012950386079411472,0.005290751892818745,0.0066866264976990115
686,0.9455084501232405,0.0070141807034734245,1,,-0.04851189137506753,0.45079945752930084,0.8322595299967747,5.659271154480335e-05,0.004688187570740025,0.005232177730797135
687,0.9455349812253283,0.006672331647533285,1,,-0.04885495072069701,0.44843760402103416,0.8321390144525547,-0.0007859882453296574,0.0034819026075050643,0.0037652382375495076
688,0.9454677426464588,0.006691970945014975,1,,-0.049198010066326486,0.44607575051276754,0.8320184989083346,-0.001628569202204118,0.002275617644270104,0.0022982987443018804
689,0.9453075012671742,0.007107917015122046,1,,-0.0482196442414646,0.44516274703875824,0.8323023574033264,-0.003025973936009623,0.002637312860046862,0.0031471453086824278
690,0.9450652385687198,0.007919404640312286,1,,-0.04690242025864162,0.444621277778666,0.8326899110943675,-0.004565654269802763,0.0034010912889665575,0.004589837834845576
691,0.9447609506445285,0.00908822269873411,1,,-0.046129690502274064,0.44408566177551645,0.8328941907145073,-0.005250582867908646,0.004190208202360929,0.006152465919943313
692,0.9444212132876113,0.010541221340624674,1,,-0.046766358931353266,0.4435651966621926,0.832624073857748,-0.0037230260356328816,0.005044912607177929,0.00802554165221396
693,0.9440758907609096,0.012176798858683358,1,,-0.047403027360432476,0.44304473154886875,0.8323539570009888,-0.0021954692033571174,0.005899617011994929,0.009898617384484608
694,0.9437543981107114,0.013874513555985525,1,,-0.04780718747131759,0.4430848214044142,0.8318908708004092,-0.0027403365663778946,0.00701279749662698,0.011568604686224481
695,0.9434819692574912,0.01550670765682511,1,,-0.048138502322943755,0.4433005341005373,0.8313673269722973,-0.003934498010404755,0.008206958980380017,0.013174964026409561
696,0.9432764264692117,0.016950886426797703,1,,-0.04842785287137441,0.4434234175151713,0.8306452759197478,-0.004250828427462591,0.008287918188972138,0.015104033608436297
697,0.9431459642822071,0.018101525038048575,1,,-0.048587329166842955,0.4432590059562566,0.8293088699352713,-0.0018503820164697097,0.004923656107294962,0.01803185085705612
698,0.9430884176471612,0.018880006865402643,1,,-0.0487468054623115,0.4430945943973419,0.827972463950795,0.000550064394523172,0.0015593940256177865,0.020959668105675944
699,0.943092317619037,0.01924156944557208,1,,-0.04706884138489768,0.44425534281429835,0.8295340235919498,8.172720383044926e-05,-0.0006194566955313453,0.020802771847571417
700,0.9431396794908852,0.01917846630867324,1,,-0.044700805327938985,0.44591377038387325,0.8321839477348577,-0.0014640148420716093,-0.0023531124725575414,0.019487375761483395
701,0.9432099512928687,0.01871903262876048,1,,-0.0430621683729791,0.4473258669076731,0.8336693695888839,-0.0026626614896211754,-0.003657031094090579,0.018271149746707738
702,0.9432841059497716,0.01792289930782271,1,,-0.04417170212381077,0.4478098573332606,0.8307672742652134,-0.0025535502873157635,-0.0033418209629252063,0.017428568658736893
703,0.943347806763748,0.01687310405272034,1,,-0.04528123587464244,0.44829384775884806,0.8278651789415428,-0.002444439085010352,-0.0030266108317598336,0.01658598757076605
704,0.9433930206792103,0.015666191974806048,1,,-0.0471171858979611,0.4483056905268358,0.827221511651375,-0.00392210512843376,-0.0005369282489752992,0.014408498949009887
705,0.9434181326075222,0.014401565751581852,1,,-0.04927567803360968,0.4481078910984938,0.8275806277184373,-0.006104329293720525,0.002918259876997642,0.011638286964603634
706,0.9434271035649839,0.013171373798254019,1,,-0.051026793048737994,0.44793674480254236,0.827966505555481,-0.007382364877698108,0.005186634121925509,0.009283512924320565
707,0.943428292572293,0.01205213662485422,1,,-0.05086113582547204,0.44789100560907896,0.8284783016499073,-0.004406053616195546,0.0018708658582688082,0.008883438543601508
708,0.9434333163440533,0.011099106342895758,1,,-0.05069547860168851,0.4478452664154726,0.8289900977459326,-0.001429742345393741,-0.0014449024157477408,0.008483364161632449
709,0.9434559788185977,0.010344021506909872,1,,-0.04879663396352243,0.4480879149832913,0.8297793148499768,-0.0015328717726548237,-0.00091136985639829,0.008522069972612817
710,0.943511042923959,0.009796433569288483,1,,-0.04599714618184218,0.4484804229707235,0.8307126925489255,-0.0032362188841395688,0.001622434787854083,0.008788785962417675
711,0.9436125322089784,0.009448147002106718,1,,-0.043752551462746765,0.44870468007631437,0.8312358392877921,-0.004543499895032967,0.004155385835163462,0.008905270031450547
712,0.9437713854859039,0.009279652798703608,1,,-0.04489361005447506,0.44790236252533694,0.8292559815707476,-0.003434202658352555,0.0066831287018142265,0.00810512126751243
713,0.9439926358013476,0.009266968420252566,1,,-0.046034668642638193,0.44710004497686634,0.8272761238598889,-0.0023249054251380527,0.009210871560567263,0.007304972506074313
714,0.9442727209031095,0.009387220606576527,1,,-0.047070498309527,0.4468785975780392,0.8277970843397651,-0.0018695485752100646,0.00875997272645187,0.007423364351963413
715,0.9445978056324944,0.009621671476423116,1,,-0.04804280840312573,0.4470077821395578,0.829827619349522,-0.0018089312361819273,0.006511069682892421,0.008096216938326887
