id,ASVM,GSVM,walking_nonwalking,normal_abnormal,ax,ay,az,gx,gy,gz
1,0.9634362632652754,1.653500721192557,1,,0.794647203683215,-0.5110931561746367,-0.21107483187428938,-1.452022,0.44371593,-0.49145335
2,1.0176252106589725,1.6399351914935387,1,,0.843386519128913,-0.4717267888598851,-0.4021841950545732,-1.452022,0.44371593,-0.49145335
3,1.0691604597999913,1.6167559326114627,1,,0.8921258344984714,-0.4323604216066311,-0.5932935579363088,-1.452022,0.44371593,-0.49145335
4,1.1148694534771146,1.5821941144655407,1,,0.874863880404066,-0.4328644303224851,-0.7445844158962057,-1.226022902642126,0.5762839727620268,-0.49982367978167946
5,1.1521751783362195,1.5350842175485648,1,,0.7980057576535884,-0.4693695897867687,-0.8599209601090768,-0.7959568166322207,0.8285549771474005,-0.5157520397172003
6,1.1792745380655665,1.4752107420358225,1,,0.7219929265402063,-0.5009539403822266,-0.9623265453919368,-0.39504572674081817,1.073910449793969,-0.5206814156159074
7,1.1951762149038028,1.4037950993121977,1,,0.661710100727283,-0.44096710201461664,-0.8241002930454707,-0.5366791041774849,1.1905749998256634,-0.3209310158142701
8,1.199618259221563,1.3240445983988214,1,,0.6014272749143595,-0.38098026364700666,-0.6858740406990046,-0.6783124816141515,1.307239549857358,-0.12118061601263272
9,1.1929214452800723,1.241614735558939,1,,0.5458084874703009,-0.4616540271988098,-0.6896166050880754,-0.8216831166312377,1.357888415070801,-0.016731091454415935
10,1.1758492405955008,1.164782485922448,1,,0.49361598928350786,-0.6456596875706747,-0.7976521050454031,-0.9663299737948794,1.3600409294559122,0.017708636383957532
11,1.1495276511068386,1.1041243313940061,1,,0.4414335549317336,-0.8077581914710971,-0.8872622483780009,-1.061975359538825,1.3484062851739775,0.04108351658049294
12,1.1154357530489223,1.0715588819516537,1,,0.38933972754988305,-0.7769754559976288,-0.8146466083362265,-0.726188005859901,1.2153828038368404,-0.03296189268048691
13,1.0754357787463034,1.0787495362002997,1,,0.33724590008665234,-0.7461927204760723,-0.7420309681810129,-0.39040065165641497,1.0823593222918961,-0.10700730205713942
14,1.0317934373989093,1.135042350939719,1,,0.349538502375138,-0.6887887022412079,-0.6977701109736352,-0.08270719638865938,0.8010326125565687,-0.18105271295529274
15,0.9871475239659903,1.2452900213703482,1,,0.40005373013003026,-0.6155811160416365,-0.6703419039531935,0.20830848095209617,0.4316665633449145,-0.25509812475667604
16,0.944408317448823,1.4080262697204617,1,,0.4433839741637493,-0.5666907671589845,-0.6313664065421942,0.5056469264502573,0.10300334476031016,-0.3116241952188322
17,0.9065823034975456,1.614458497570524,1,,0.44693582350751093,-0.6524285132688663,-0.5284613721205489,0.8379902657200018,-0.0003158343094703945,-0.2711575228790155
18,0.8765323443139384,1.8486225601726984,1,,0.4504876728512726,-0.7381662593787481,-0.42555633769890366,1.1703336049897461,-0.10363501337925095,-0.23069085053919886
19,0.8566916520343552,2.088812228413235,1,,0.45671719261253946,-0.6791764312131459,-0.35264110928395753,1.9787796174087076,-0.13334814070819612,-0.3365600197839923
20,0.8487622056283167,2.3101107928227895,1,,0.46421555771072953,-0.5516057557442335,-0.2939368996629549,3.01283243002543,-0.12818218296707248,-0.5117721326410075
21,0.8534445142319654,2.4875894082162047,1,,0.4781944937272445,-0.45700147011912473,-0.22235204543562376,3.6865751534759146,-0.12872428100772346,-0.6301671279240889
22,0.8702589598549614,2.5995823478168143,1,,0.5174621902570903,-0.4910400386396859,-0.10050378997889252,2.9543004619504742,-0.1515405980331593,-0.5268479409332759
23,0.8975172712811499,2.630467515767075,1,,0.5567298868482796,-0.5250786072134216,0.02134446566818825,2.2220257692810854,-0.17435691509423848,-0.4235287537810593
24,0.9324778537676162,2.572558886892059,1,,0.6730807002694775,-0.6076989781966542,0.04969975401931037,2.349596940462696,-0.08757272366120612,-0.42101691806115876
25,0.9716743632508267,2.426950995206011,1,,0.8180159929081754,-0.7083347795012467,0.043385351899104176,2.796021933041145,0.03985426473678348,-0.45588714185201
26,1.0113581801207594,2.2033255109843393,1,,0.9229760133040027,-0.771586532697283,0.043586742829043075,2.9176365463506673,0.09417422513599277,-0.42577331151660897
27,1.0479619490040968,1.9188099774578007,1,,0.911136515491464,-0.7256097914665507,0.06282593996128441,2.09022208379107,-0.06510950353819334,-0.20578945026730355
28,1.0784878780731382,1.5960380534450203,1,,0.8992970176974207,-0.6796330503076425,0.08206513706347054,1.262807622524047,-0.22439323196354877,0.014194410638346288
29,1.100752375468847,1.2606592216001402,1,,0.8819901764023994,-0.680706078914705,0.0273029812493956,0.5324959249644035,-0.202911317034071,0.058452469374938885
30,1.113464201424441,0.9386557075168673,1,,0.863145609416944,-0.6950121593760006,-0.04827253335895265,-0.17050499235415206,-0.13058789653468628,0.053286510421449856
31,1.1161572965142355,0.6538621341854897,1,,0.843365186507932,-0.6857406226099723,-0.10177988534528219,-0.5999143742637185,-0.10081144910439274,0.04956951967452515
32,1.1090290649181302,0.42600159353949785,1,,0.821462090829362,-0.6229912347527699,-0.1052330738556309,-0.4087738853063102,-0.1675384211092858,0.04913902326345182
33,1.0927475363117443,0.2693845428237029,1,,0.7995589951507918,-0.5602418468955674,-0.1086862623659796,-0.2176333963489019,-0.23426539311417885,0.04870852685237849
34,1.0682885382780376,0.1922475938835494,1,,0.7872541288484877,-0.5814153275404443,-0.13970355682153834,-0.3221593689598985,-0.24622605642788806,0.04183493537339948
35,1.0368484771864341,0.19660373854561833,1,,0.7768945682625161,-0.6195977409530465,-0.1763073622840108,-0.4866090674988624,-0.24708704601706027,0.033655499925909896
36,0.9998519461159041,0.27844947346895116,1,,0.7563915034547285,-0.6315408729761922,-0.1986820848632395,-0.5477868495541438,-0.21967120485508207,0.017638463916011187
37,0.9590423367178241,0.4282120847563349,1,,0.7176171316956544,-0.5962196715901319,-0.1954262229698776,-0.4229428339608538,-0.1413208302777286,-0.012496297339822042
38,0.9166165321652591,0.6314005261785025,1,,0.6788427598760077,-0.5608984701488934,-0.19217036107142943,-0.29809881817253436,-0.06297045557797736,-0.042631058642731354
39,0.8753472076830742,0.8695160140681965,1,,0.7051078243530686,-0.5732902930631957,-0.2583943873386128,0.08431993191516951,0.024877515145743653,-0.12633224681346658
40,0.8386285652167462,1.1213373452077144,1,,0.7400343676254314,-0.5920361893250888,-0.33387123946518993,0.5010406105921987,0.11399030658827712,-0.21716702187968434
41,0.8103830616736234,1.3646737376237776,1,,0.7524600386286984,-0.5548720401048892,-0.38298302774157345,1.004523731552562,0.19291641489494865,-0.30975812708130745
42,0.7947820110028345,1.5785587526971112,1,,0.732234213382029,-0.43657562968067454,-0.3938359089781918,1.6339096874109216,0.25706041004988894,-0.4048978808066436
43,0.7957680047636091,1.7456780237915528,1,,0.7120083881353597,-0.31827921925645986,-0.40468879021481013,2.2632956432692812,0.3212044052048292,-0.5000376345319797
44,0.8164212565462566,1.8546555175758028,1,,0.6544824582404338,-0.2001670146443765,-0.3142327308962812,2.379911062228103,0.3961985504712166,-0.6948381151119029
45,0.8582729826866219,1.9017436745848908,1,,0.5942983031510727,-0.08206793742549524,-0.21655679976671607,2.4599834334834365,0.4719659414509444,-0.8967410062637083
46,0.9207167051389987,1.8915129081936652,1,,0.5564525076586371,-0.10972728955462081,-0.057071603264745585,2.147379294109537,0.544293726591053,-1.0597784829696375
47,1.000682400148173,1.8363071289202642,1,,0.5449386017020664,-0.3092029666147121,0.17527278111972916,1.3718980834704666,0.6125669918393397,-1.1770023985272835
48,1.09270474897468,1.7544747324477359,1,,0.5334246957275088,-0.5086786439864213,0.4076171658671689,0.5964168716199506,0.6808402571942819,-1.294226314268055
49,1.1894348343723364,1.6676284452852443,1,,0.5508834468516582,-0.8882466224560459,0.6320686723875937,0.06116981805446651,0.7201342496051197,-1.1754159447548518
50,1.2825326391077676,1.5973660294825882,1,,0.5689907720111542,-1.2718460978571493,0.8563434907209859,-0.4686994178081436,0.7587795197914278,-1.051321775781838
51,1.3637713768371893,1.561960850152973,1,,0.6719961035386341,-1.3619969259326303,0.9095989525039175,-0.6133990792688274,0.8791985724079632,-0.8166301211494449
52,1.4261257062952104,1.5735138086458376,1,,0.8608435540033635,-1.1554357954687084,0.7899332279292898,-0.3686458676481342,1.0823007769003472,-0.4701110760892414
53,1.4646305598174798,1.6359810727742785,1,,1.0467501004751691,-0.9483093544764539,0.6714689902195461,-0.131812587050774,1.274608825959612,-0.12183517058731803
54,1.476877822489009,1.7443864573201888,1,,1.0559021764213674,-0.707206547192043,0.625216617712751,-0.3709837228013176,0.8181655487246107,0.3320317595974731
55,1.463125149547897,1.8854003365077923,1,,1.0650542523675657,-0.46610373990763215,0.5789642452059559,-0.6101548585518611,0.3617222714896093,0.7858986897822643
56,1.4260793030032777,2.0393041007639767,1,,1.0491221274685065,-0.48517034027233175,0.5201170778167372,-1.2687326351185606,0.1554513864823133,0.8612879033805645
57,1.3704585388591872,2.1831446606964926,1,,1.011431350794069,-0.7299142730690414,0.45034487592311334,-2.2911140319319414,0.16618617660711021,0.6083762527161298
58,1.302433518357714,2.2946315781597697,1,,0.9766650495816449,-0.9532514827026026,0.364310658228485,-3.2655969167947143,0.1817999544874599,0.39871870209965615
59,1.22901261215743,2.3561051583295485,1,,0.9925089498479875,-0.8061295839533501,-0.0031497179529997926,-3.411160778847452,0.2818482082907697,0.9376052050249049
60,1.1574025918452684,2.357804886410843,1,,1.0083528501390813,-0.659007684974266,-0.3706100947085258,-3.5567246411275875,0.3818964622503733,1.4764917087919942
61,1.0943606706912,2.299769438491552,1,,0.9272494791785558,-0.3174830540145464,-0.5287049981731102,-2.704994426774071,0.08652553596115846,1.359795354212305
62,1.0455628552710687,2.1920040781885914,1,,0.7741246043464312,0.16846211510101805,-0.5312636384608125,-1.1123808613839457,-0.5025997545189343,0.7560707127464531
63,1.0150355503662136,2.052968892839076,1,,0.6412108627095215,0.5947885523304377,-0.5163534956137512,0.30581168605496517,-1.0324546097676712,0.12849430755500466
64,1.0047165759076973,1.906814674852708,1,,0.7056689573151329,0.43890821848342737,-0.3308519400581326,0.02069564889275841,-0.983503983566914,-0.7320065020628814
65,1.0142172905827784,1.7799729467460772,1,,0.7701270519207444,0.2830278846364171,-0.14535038450251406,-0.26442038826944836,-0.9345533573661569,-1.5925073116807675
66,1.040845856646756,1.6976514839687038,1,,0.8421739370811759,-0.018364471888058863,0.008832359683874804,0.01810363704798839,-0.9045240562817851,-1.8811633294384404
67,1.0799226252338947,1.6805962432931545,1,,0.9190316085082857,-0.4120017275641015,0.14316107076851234,0.6604735295494222,-0.886489610806932,-1.8073079640282765
68,1.1253729549849139,1.742312202269583,1,,0.9785300755681937,-0.7627378612763104,0.25100569533776335,1.1416695441344613,-0.842550208996259,-1.7043939997589423
69,1.1705280747080686,1.8868883853076792,1,,0.9230272549527827,-0.8292625663010286,0.18339849687350018,0.5551205684537911,-0.6269956070199904,-1.408972578888243
70,1.2090189069444364,2.1076415030799676,1,,0.8675244342506662,-0.8957872714296705,0.11579129830362202,-0.03142840814317711,-0.4114410047069855,-1.1135511575560404
71,1.2356287822853615,2.386897100206745,1,,0.910060059463367,-0.9209079707334874,0.008187985496646968,-0.4920466397383716,-0.37179849981280877,-1.0057692732527503
72,1.2469809894371253,2.6972588913755824,1,,1.0053202631038192,-0.9237618058641471,-0.1209250343278093,-0.8849399552736592,-0.4267606279068828,-0.9988989795289295
73,1.2419642244762983,3.004589530812285,1,,1.0498982699754487,-0.9377857367048208,-0.2399349578017948,-0.6745644428665215,-0.3531834966598769,-1.030728684605867
74,1.221832931575435,3.2726118066776246,1,,0.8459941726039413,-1.00657384617856,-0.3094119319694533,2.493486881967198,0.35058939567786296,-1.252294780836359
75,1.1899603083803707,3.468582011770772,1,,0.6420900755509699,-1.07536195554484,-0.37888890602857594,5.661538201851834,1.0543622869161793,-1.4738608767207235
76,1.1512724563990198,3.569009782926393,1,,0.6843547013444609,-0.7815034713644501,-0.36007579669736833,6.241427788725784,0.8608229292341204,-1.4050939870073467
77,1.1114482648496646,3.5641080480652763,1,,0.8379716020741453,-0.3236049634066193,-0.30132543812708645,5.650584986369833,0.2613922012627196,-1.2049975032732112
78,1.076017308748723,3.45976736548879,1,,0.9420490402263118,0.01894668754233845,-0.2415736619003665,4.822540470434973,-0.18162808353644305,-1.0025825050338055
79,1.0495113425909395,3.276415580861882,1,,0.8571218232871048,-0.07857694196568075,-0.17800124225201433,3.0895158391791546,-0.027905887014545504,-0.7913218292509173
80,1.034815431272204,3.0449581849545946,1,,0.772194606347898,-0.17610057147369995,-0.11442882260366219,1.3564912079233358,0.12581630950735204,-0.5800611534680291
81,1.0328254357457698,2.8007773481415246,1,,0.85098668743107,-0.24193889718506076,-0.0766051847395902,0.5659602806641244,0.3350894501347011,-0.5704067275671979
82,1.0424588234188954,2.5772260837052703,1,,0.9913183651542251,-0.29586719878759077,-0.048460122623432085,0.12969841418445702,0.5652433470244368,-0.6365330276416591
83,1.0609960643551912,2.400066681208412,1,,1.1131594314238558,-0.3406954078150483,-0.028931106480323404,-0.4145951228673204,0.794235618036431,-0.6660151597176065
84,1.084664025928176,2.283917583264517,1,,1.178306415283525,-0.3576218138518911,-0.03581975751907117,-1.290124671957453,1.0196662264283831,-0.5831425716994784
85,1.1093286716015427,2.23116403469251,1,,1.2434533992449655,-0.3745482199151761,-0.04270840856858029,-2.165654222415325,1.2450968351724996,-0.5002699835518879
86,1.1311554980571177,2.2331654240732357,1,,1.2007855348059004,-0.3621116386259431,-0.004197381277616447,-2.6725918902621673,1.290173697190145,-0.20649191129943056
87,1.1471230462105693,2.273124141443783,1,,1.1250103569384016,-0.3406583992440671,0.04825478120211515,-3.0663439693355716,1.2798683170670935,0.15205009685056584
88,1.155325332385653,2.3297586491214135,1,,1.0593315072259117,-0.3604015513767554,0.07738190022104202,-3.180886798776671,1.1662018083756829,0.47349436666569655
89,1.155054563253984,2.3809594613656695,1,,1.0190820779288197,-0.4839052322786141,0.047760697830929975,-2.5921908649609127,0.7922016891483985,0.7015013023057965
90,1.1466988000638507,2.4068439361256417,1,,0.978832648694605,-0.6074089129875371,0.01813949548709173,-2.0034949320648066,0.4182015705053717,0.9295082375897076
91,1.13151187877026,2.391956049516356,1,,0.9935264609106392,-0.37888075847004793,0.09176410432519413,-0.09677400954141355,0.19666602496069882,0.6283734938886821
92,1.1113172999474885,2.3266433524349175,1,,1.0216715370018798,-0.06416778885446406,0.190665464454147,2.1326272177649845,0.012457021420935585,0.19769371134085525
93,1.0882011908301752,2.2077637509136148,1,,1.0372503581425614,0.132308101842127,0.26103887569096096,3.4544150445304234,-0.1297982265411516,-0.06101721465739143
94,1.064236644393182,2.038806405690141,1,,1.0264253620923354,0.08034798433847341,0.2714702635460765,2.8691543189589077,-0.18390157094288198,0.04160737813041317
95,1.04126533507168,1.8293770071686748,1,,1.0156003660251989,0.02838786675364851,0.2819016514174878,2.283893592473106,-0.23800491542913182,0.1442319710785364
96,1.020746435372142,1.5939749184080017,1,,0.9875905339136152,0.016435868230631447,0.2617242635448826,1.032661264431525,-0.24513223878194174,0.11791462379187029
97,1.0036722514550094,1.350134942458924,1,,0.9563460492278738,0.012014483735426351,0.23578547324785076,-0.34392499455631864,-0.24341739980414775,0.0673269033253765
98,0.990545721744197,1.1162058747698553,1,,0.9334444467028481,-0.053015378608324996,0.20080273452588815,-1.1470934189094102,-0.19291080557431614,0.022857270379244277
99,0.9814136557372055,0.909137421711076,1,,0.925584213424482,-0.22731617056597364,0.1495146754504485,-0.9164477249401725,-0.054437632353313684,-0.010582072032430745
100,0.9759470740899845,0.7425987388179855,1,,0.917723980158395,-0.4016169622513322,0.0982266164551303,-0.6858020313312462,0.08403554065136802,-0.04402141439186732
101,0.9735547620484323,0.6256279345987366,1,,0.923057293300196,-0.38246949774626154,0.09585749523741831,-0.3744119741667918,0.13391424392818724,-0.15932652607170694
102,0.9735106759368377,0.5619045086100397,1,,0.9303280172902627,-0.3349150576856238,0.10067189222420653,-0.051164983300904,0.17078326188614265,-0.28665324471230313
103,0.9750743471875701,0.5496725950746996,1,,0.9337188854211154,-0.2970221989562675,0.10590470400219247,0.09266742427058805,0.2159508275870959,-0.38178160943519973
104,0.9775877177134936,0.5822941033183759,1,,0.9309677873585313,-0.27442400776202014,0.11179988306475602,-0.047520591955329504,0.27425532475207764,-0.42593869909682813
105,0.9805397059406347,0.6493530702857164,1,,0.9282166892959471,-0.25182581656777264,0.11769506212731959,-0.18770860818124704,0.33255982191705935,-0.47009578875845653
106,0.9835973136690921,0.7381692554487067,1,,0.9376115226284856,-0.27931831413956026,0.10851870989358374,-0.461741549105288,0.39860101678861065,-0.4674458218143267
107,0.9866066621014953,0.8355255096165748,1,,0.9483211397157272,-0.31223307382303017,0.09771088092825239,-0.7502630566532636,0.4654797008070723,-0.4597290423777566
108,0.9895689363043637,0.9293804755917117,1,,0.9456167218795419,-0.33476940963021157,0.08505708878522471,-0.9632509311933866,0.510521642869461,-0.4312494728865334
109,0.9925967059690052,1.0103317897746609,1,,0.9241975287764094,-0.34282614462416167,0.069827875751951,-1.0708570186955457,0.5250977540584987,-0.3738024113993
110,0.9958575570769916,1.0726204164277817,1,,0.9027783356398158,-0.3508828796306979,0.05459866269488644,-1.1784631063658058,0.5396738652703068,-0.3163553498223236
111,0.9995145891186322,1.1145257129218384,1,,0.9110504413101089,-0.3587563467812016,0.04807522435213357,-1.2660764876319792,0.4290957733494547,-0.21932274630614956
112,1.003674952949723,1.1380872814074017,1,,0.9214652421800962,-0.36661658825486654,0.04218004488840048,-1.3522470798628294,0.3094858331249489,-0.11943342213073654
113,1.0083559233363601,1.1481924337994105,1,,0.9328921848438437,-0.37522491551371595,0.037869048706385515,-1.284618984384589,0.18641973398991632,-0.014935899986480188
114,1.0134730408321964,1.1511759173432032,1,,0.9455668602506768,-0.3847554565713128,0.03551097790211789,-1.0273932821935796,0.0590930040808819,0.09524244615448896
115,1.018848980793033,1.153179222419486,1,,0.9582415356377098,-0.3942859976140212,0.03315290710153402,-0.7701675804044047,-0.06823372562924458,0.2054207921233391
116,1.0242376932798518,1.1585910210194348,1,,0.9387441972374513,-0.3882036721689087,0.06296679556413354,-0.3738038531526949,-0.13610681355322357,0.27100890580657305
117,1.0293572184187172,1.1689097807156974,1,,0.9180127991354488,-0.38152246567471954,0.09401474163641352,0.027896954666529597,-0.20169936833633054,0.334886619596986
118,1.0339254605181971,1.1823065975099398,1,,0.9000537586981553,-0.40792134116310436,0.20372185150380512,0.5011522285846255,-0.3384363223231706,0.43853959524567176
119,1.0376934679578116,1.194012210084913,1,,0.8851193319077459,-0.4704102448739634,0.39924529763033234,1.0524726862833147,-0.5527910818630343,0.5855869711882078
120,1.040468649756601,1.1974365671173604,1,,0.8701849050940064,-0.5328991486824417,0.5947687440623034,1.6037931448432685,-0.7671458417377597,0.732634347360459
121,1.0421184784508508,1.18572347434904,1,,0.8665728624224808,-0.2846071175276978,0.5016680580919597,1.5797345272528158,-0.4555249673887604,0.38309256339704795
122,1.0425498739856858,1.1533309684179873,1,,0.8630357451413747,-0.03425850743611329,0.40665741461993204,1.5518683636803472,-0.14042347263591548,0.030264622803618153
123,1.041672867144923,1.0972552454401894,1,,0.8821861143093105,0.0307424047906963,0.3591205714273902,1.3781296015480822,-0.01109699974208563,-0.13482587925994297
124,1.0393710295536958,1.0176577944353307,1,,0.9232558701228741,-0.08332931273737135,0.35745027185573736,1.0634568538778655,-0.06125601335959817,-0.11853491699433523
125,1.0355028342185353,0.9178416372831877,1,,0.9637762522422937,-0.19645423749109323,0.3541154872856716,0.7403891757583978,-0.11138442564171441,-0.10096890469163844
126,1.0299438746232221,0.8036858542613564,1,,0.9817565522817121,-0.2707334994246986,0.2824890581873037,0.07288845072358861,-0.1602573084140954,-0.031089254469570435
127,1.022658801988977,0.6827462119717277,1,,0.9997368523211304,-0.345012761358304,0.21086262908893588,-0.5946122743112205,-0.2091301911864764,0.03879039575249757
128,1.013776590857465,0.5632458260587766,1,,0.9933573471568726,-0.35818069488379506,0.16206027540075407,-0.7500740251364246,-0.16603939885011756,0.08879849759078334
129,1.0036400517593633,0.45312498550194774,1,,0.966141264807796,-0.31907600559740085,0.13278088591989545,-0.46755445804454626,-0.04428589965206216,0.12180912985489592
130,0.992809592381412,0.35923958030095315,1,,0.9391273975499137,-0.282812959994097,0.10503938977190062,-0.19636582075011075,0.07024645385083098,0.1539606548107461
131,0.9820167459240736,0.28674389817451723,1,,0.915644942459901,-0.2961753647540228,0.10415511352946584,-0.12305649469384088,0.0586712979947177,0.17110903653980133
132,0.9720781892287501,0.2386786666085997,1,,0.8921624873332045,-0.30953776953482304,0.10327083728564966,-0.04974716852304826,0.047096142120521885,0.18825741829564552
133,0.9637905493038108,0.21578445415968442,1,,0.8812105104467122,-0.31518048849711156,0.10305783766318788,0.008673080350304174,0.004766497729779789,0.17758031009213182
134,0.9578284140512403,0.21655074353093273,1,,0.879736675671431,-0.3149839826654594,0.10335259641066614,0.05583112608076382,-0.06082605856063633,0.14585580510071233
135,0.9546640363480584,0.23749087422328394,1,,0.8793175934506573,-0.314795781928041,0.10407922042160456,0.10552582091375087,-0.12486038751069847,0.11213821923634865
136,0.9545199526145928,0.2736108729342202,1,,0.8903219446631039,-0.3146975290120614,0.10948313490427022,0.18269353881504966,-0.17201842888794128,0.05683469270185976
137,0.9573575759410239,0.31902015975959114,1,,0.9013262958583594,-0.3145992760962353,0.11488704937849398,0.2598612565957982,-0.21917647019151448,0.0015311662537652176
138,0.9628975933904178,0.36761509633508344,1,,0.9126252640038796,-0.31756503682313403,0.11911249612886463,0.33625765977952393,-0.23239705884473028,-0.07305500666042045
139,0.9706630016813166,0.413754435036116,1,,0.924120879796224,-0.32257593143430346,0.12255135229193878,0.4121392343599203,-0.22296545250101396,-0.16051174677367397
140,0.9800336421582025,0.45284262447475143,1,,0.9343295756787476,-0.3261870204047085,0.12641918096108729,0.47974570898583785,-0.21008588721347551,-0.24323985829244177
141,0.9903022930015821,0.48174582900314494,1,,0.9346243508418423,-0.3190145616419884,0.13359164382759636,0.48360409467968063,-0.1706446127970319,-0.2895404906429979
142,1.000726165721181,0.49898780073490834,1,,0.934919126004937,-0.31184210287926833,0.1407641066941054,0.48746248037352347,-0.1312033383805883,-0.3358411229935541
143,1.0105727028297304,0.5047072014288485,1,,0.9316851576652837,-0.3128413701967859,0.1410029768219844,0.3875945314192623,-0.07096277109651866,-0.34918702605393737
144,1.019162926531901,0.5003998220846785,1,,0.9263794509652072,-0.31863828812673606,0.137171109000978,0.22682846780102794,0.0014891378855195465,-0.3431850856072163
145,1.0259171662592466,0.4885093597183057,1,,0.9286952415035536,-0.32499183266433773,0.13226880884663964,0.06674743140525553,0.06659256472191202,-0.3332598041771463
146,1.030405419738718,0.47195697234873196,1,,0.9758567232495299,-0.33462062663791414,0.12106797232117897,-0.08930283130448823,0.08845674924717012,-0.30024917191303374
147,1.0323981436253777,0.45370229294218684,1,,1.0230182049218313,-0.34424942059644864,0.10986713581321608,-0.24535309377045256,0.1103209337382723,-0.2672385397004899
148,1.0319056940220293,0.43640459407404864,1,,1.0180926781942772,-0.3479078848968411,0.09672863952118808,-0.3444475650367635,0.12425090018176768,-0.2410378123371767
149,1.0291908058633716,0.42221146786379815,1,,0.9863877176774775,-0.3484968304656242,0.08259393644083506,-0.4142594207224816,0.1341016562037628,-0.21833825355210293
150,1.024742347896847,0.41266046276215956,1,,0.9564170167121723,-0.35024194761449,0.07097560529464965,-0.4730915328864163,0.13193404202092957,-0.19111325958460426
151,1.0192094363786777,0.40865255470804535,1,,0.9347241554635318,-0.35750561782909746,0.07136823526385765,-0.4795159423090314,0.07240122814362057,-0.14228779139453882
152,1.0133075037351815,0.41045340701024885,1,,0.9130312942148916,-0.36476928804370484,0.07176086523306563,-0.4859403517316464,0.012868414266311586,-0.09346232320447337
153,1.0077162020365062,0.41769762744320205,1,,0.9034587447465984,-0.37378366385011075,0.07706894207526822,-0.34605044809669444,-0.06282360900396068,-0.05580139858030859
154,1.0029903428789309,0.429402824696692,1,,0.8994343120585672,-0.38359943152944515,0.08462708261438259,-0.13918463515929522,-0.1459125693213229,-0.023251084295909632
155,0.9995001676472213,0.4440281863863578,1,,0.9005799058868156,-0.3885963334502724,0.09427274870290969,0.07627896123799308,-0.22014836274472196,0.007000811893374543
156,0.9974085961954693,0.4596185105713836,1,,0.9225671947876148,-0.3741671588380111,0.1123337625166087,0.32640241457832997,-0.25869478303535487,0.027987198672751144
157,0.996683590730568,0.4740489620469017,1,,0.9445544837227626,-0.35973798420320885,0.13039477635852237,0.576525868309406,-0.2972412033862044,0.04897358548491237
158,0.9971360864592824,0.4853377146955306,1,,0.9492908512668493,-0.33937223988647985,0.14112237973537115,0.6044917117527885,-0.28032440715996665,0.09494889240965451
159,0.9984702068663432,0.49195121325336444,1,,0.9470332511888867,-0.3165996574300684,0.14887682971223531,0.5423891410383636,-0.24092139519515457,0.15105535075475146
160,1.0003335416979318,0.4930173905501868,1,,0.942397842513975,-0.2983625037846602,0.16083646006191823,0.460881295312034,-0.20324756712665695,0.21340608296767083
161,1.0023600055639905,0.4883911121938253,1,,0.9295391647970818,-0.2958104022201256,0.1873390311561979,0.31226342361465786,-0.1715538439951054,0.2973516329502815
162,1.004203526956765,0.47856512884226443,1,,0.9166804871002764,-0.29325830065957786,0.21384160220907567,0.16364555214945037,-0.13986012091306532,0.3812971828017537
163,1.0055647620565098,0.46446418869268924,1,,0.9278417109779218,-0.2987369452492852,0.20279503817248087,0.1012088854107816,-0.10595661961012026,0.38758493602837923
164,1.0062136905966632,0.4471848327760149,1,,0.9475714203306185,-0.30708035310646936,0.17835378066874982,0.06951515906279977,-0.07126483646971025,0.3661702567155058
165,1.0060086571981335,0.42774704208149805,1,,0.9620040045720777,-0.30995497311808035,0.15943035636572273,0.05087602514261494,-0.042779335541138476,0.35074784846479545
166,1.0049091042343639,0.40691187676564505,1,,0.96053164065012,-0.2964092168364527,0.1570745699907825,0.07143411840872407,-0.03292858353968123,0.35331760740919604
167,1.0029774133520124,0.3850980921068263,1,,0.9590592767281619,-0.2828634605548251,0.1547187836158423,0.09199221167483321,-0.023077831538223972,0.35588736635359663
168,1.0003664052704604,0.3624058497714674,1,,0.9512990010438074,-0.2762044547996658,0.15453382488852085,0.09491275702267728,-0.014206942584358907,0.35029159504672996
169,0.9972926424785052,0.3387320354018735,1,,0.9415813909744508,-0.2716891931466258,0.1550246128617401,0.09234299325764571,-0.005641070591153347,0.3421540143474062
170,0.9939998979510415,0.3139437941592849,1,,0.933593751256575,-0.2681470419346723,0.15621820150887153,0.09602426106056358,-0.0022647339873071207,0.3309498917003994
171,0.9907201768786681,0.2880672678088859,1,,0.9301582354386733,-0.26716546598670043,0.15926109104739208,0.11615405929302162,-0.012543780499745551,0.3116766835352435
172,0.9876405222784775,0.2614474327116841,1,,0.9267227196261386,-0.26618389004026194,0.16230398058115908,0.13628385749403318,-0.022822826996126207,0.292403475400196
173,0.9848824242149178,0.23484152950559634,1,,0.926691153487954,-0.26512495747460657,0.16333542680256988,0.14831220743974216,-0.02263750223974551,0.2403869069034491
174,0.9824975844184201,0.20942178058291305,1,,0.9275745390426675,-0.2640452321314528,0.16382621477655585,0.1581629594411994,-0.01963944665347868,0.1795692115436709
175,0.9804799766362929,0.18668126977298588,1,,0.9302006827612359,-0.2615476867852773,0.1643170027497751,0.1569297648248238,-0.011743832966941134,0.1204269989275996
176,0.9787904700526824,0.16825698109534967,1,,0.9368754566047519,-0.2557563804926278,0.16480779072376103,0.12994727178539048,0.007529378414644987,0.0651771274824242
177,0.9773874559658686,0.1557018620410529,1,,0.9435502304482679,-0.2499650741999782,0.16529857869774703,0.10296477874595716,0.026802589796231107,0.009927256037248785
178,0.9762555097694058,0.15024921269823546,1,,0.9402411697514775,-0.2527997566483164,0.16586923681344776,0.037298838826516245,0.04921229552666503,-0.025458146018697694
179,0.9754245553384819,0.1526145626069491,1,,0.9346461622491918,-0.257609486992994,0.16645818238223092,-0.037224249363642825,0.07234014813922852,-0.056295283642236967
180,0.9749743273055913,0.16287118026961692,1,,0.9292113791287295,-0.2629960210969232,0.16544488279434086,-0.10181995707879936,0.0880574229774971,-0.08307757653095783
181,0.9750225939475712,0.18041735177123044,1,,0.9241071596084035,-0.26957257583825345,0.16112594453020382,-0.14593419671604713,0.0884857188145867,-0.10149420103290187
182,0.9756995913417303,0.2040324452890731,1,,0.9190029400801036,-0.27614913058985757,0.1568070062593198,-0.1900484364222095,0.08891401465234537,-0.11991082556361608
183,0.9771144178202088,0.23200229715982593,1,,0.9130749829098718,-0.283549467712475,0.15487701037099547,-0.2007348880301772,0.09976602869185533,-0.12143383816210178
184,0.9793210728895587,0.2622877388275462,1,,0.9069892284411836,-0.2911076106996668,0.15340464645133772,-0.20501782629838386,0.11261483706361476,-0.11972066687535697
185,0.9822920259251776,0.29271275956062187,1,,0.9088504198459632,-0.29576338796814544,0.15272697711767733,-0.21729111544305435,0.11943319027586775,-0.12253033506003455
186,0.9859054962932836,0.32115608649287586,1,,0.9253409121711218,-0.29507628480456516,0.15351223787605486,-0.24427360848248764,0.11515025441329306,-0.1336659665336921
187,0.9899492240978046,0.3457361490783148,1,,0.9418314044705193,-0.29438918164205813,0.15429749863320566,-0.2712561014797693,0.1108673185574091,-0.1448015979899537
188,0.9941393438919027,0.36498097766589727,1,,0.944400834438343,-0.298795141598224,0.1507536582215877,-0.3030535094663012,0.1228809994997755,-0.1626040288910583
189,0.9981496132130724,0.37797151556863223,1,,0.9447934320190705,-0.30399750232209044,0.14653287754550087,-0.3356038242733701,0.1374429775728131,-0.1814489452389933
190,1.0016450016049656,0.384441840718676,1,,0.9438148682367983,-0.31138634254179853,0.1430162194405658,-0.3582904081426114,0.14278802953857941,-0.19010673100157152
191,1.004314598041432,0.38481687487165794,1,,0.9405756922073368,-0.3223799972588915,0.14066043716543325,-0.36471481354468865,0.13293727994944488,-0.18196915431007324
192,1.005900880215768,0.3801707756303467,1,,0.9373365161778756,-0.3333736519759845,0.1383046548903007,-0.3711392189467658,0.12308653036031035,-0.17383157761857496
193,1.006224354946174,0.3720987060186337,1,,0.930776455024668,-0.33623990939396897,0.1397066997862028,-0.34820221845281213,0.09607651951442243,-0.14434025541488757
194,1.0052036834809224,0.3625095506090963,1,,0.92380727400457,-0.3381049036922021,0.14157169408443596,-0.32164800923100645,0.06695255577482229,-0.11221823649575792
195,1.0028713582679176,0.3533635721552958,1,,0.9263735109210288,-0.3395346712971718,0.13793700393585812,-0.2988918772737755,0.05440199669104698,-0.09252627161965857
196,0.9993837152220209,0.34639212631161587,1,,0.9430603020365512,-0.34031993205554933,0.12615808846038756,-0.2817601402563373,0.06639421702584536,-0.09124139214745829
197,0.9950218967152157,0.34284220017477435,1,,0.9597470931260058,-0.34110519281270013,0.11437917300331793,-0.264628403265662,0.07838643734190968,-0.0899565126772652
198,0.9901786035613009,0.3432849548093764,1,,0.9478461806247206,-0.32418045536398976,0.12965968472894487,-0.30437378200961585,0.055075617374473036,-0.07023559860467808
199,0.9853260474498786,0.3475159845364935,1,,0.9333188401955058,-0.30562865354809016,0.14742621758685168,-0.3493446117830804,0.028521413739937815,-0.048820917281535675
200,0.9809645922745799,0.3545594743813827,1,,0.9197622881622222,-0.2939774712711488,0.14407998850148748,-0.3680677878039372,0.00013921161797136368,-0.051629762579501186
201,0.977558083395094,0.3627738254763043,1,,0.9074998199177573,-0.2915249776222558,0.1125899495627443,-0.351802222108538,-0.030679755724122175,-0.08672914044517369
202,0.9754679116238393,0.3700467847756261,1,,0.8952373516732922,-0.28907248397336277,0.08109991062400111,-0.3355366564131388,-0.06149872306621571,-0.12182851831084619
203,0.9749005738173147,0.37406440431691396,1,,0.8977280213514047,-0.29759264434651095,0.1081614263013561,-0.09074781927613232,-0.11726212853823588,-0.13922538925685057
204,0.9758814754023521,0.3726359462698306,1,,0.901161512459855,-0.3068140286611315,0.13896476701840926,0.16864514098593195,-0.17461964586795772,-0.15549095495224977
205,0.9782614044610984,0.3640482967061163,1,,0.9120759862944201,-0.31306957920438583,0.156089858729144,0.3583117991887597,-0.19740373605056605,-0.16750727209167177
206,0.9817535165420764,0.34740396662472606,1,,0.9320883426329069,-0.3157182764384439,0.15658035745815635,0.46318188317162096,-0.17814188249639026,-0.17435593068669333
207,0.9859906925824861,0.3228739043249946,1,,0.9521006990026566,-0.3183669736766398,0.15707085618793493,0.5680519673183088,-0.1588800289121239,-0.1812045892924138
208,0.9905884333680299,0.29178964782819705,1,,0.9505841555341351,-0.31232856551398325,0.14556938485118928,0.37050909825389694,-0.1066576339033625,-0.13243233388170686
209,0.9951985591528769,0.25652563749680146,1,,0.9482297534400931,-0.3059520738420399,0.13360121176589657,0.16119696567424627,-0.05315248536499469,-0.0814954318142011
210,0.9995437053199417,0.22017885581096033,1,,0.9429468537090543,-0.3049212460330661,0.12363184726467825,0.017600033995851333,-0.020943930840807017,-0.037454570442224805
211,1.0034299257002455,0.18611431422360505,1,,0.9344121512265581,-0.3098262415256349,0.11588195913939353,-0.053026761140402535,-0.012383106980931206,-0.0010710703436573315
212,1.0067416115846082,0.1574806011457856,1,,0.9258774487573945,-0.3147312370105413,0.10813207102621554,-0.12365355616632427,-0.003822283134428988,0.03531242969807238
213,1.0094268523224443,0.13679574214638654,1,,0.9385075565579902,-0.32533815060737237,0.11043304081804821,-0.05428131940189637,-0.0348997377861537,0.027419128868326634
214,1.0114812529765056,0.12567034565735064,1,,0.951456747608494,-0.3360310270139373,0.11288553856433267,0.017201559767794125,-0.06657478393806496,0.01885830561117608
215,1.012934817319482,0.12469369858047555,1,,0.9600227780611162,-0.3372270493830802,0.11455880572549072,0.08422189911889182,-0.08422471505045359,0.018585051349742122
216,1.0138420172406004,0.1334735174168494,1,,0.9641429919756052,-0.3287904630361055,0.1154417034390922,0.1467159081929114,-0.087649046362398,0.026717834398350137
217,1.0142722034429672,0.15079517515801003,1,,0.9681277797324238,-0.32041169910281253,0.11633220935665771,0.20853601667938163,-0.0910833367741739,0.0349634874740982
218,1.014297516651058,0.1748521543704124,1,,0.9547862224980708,-0.3194307016447878,0.11819610452690461,0.18413767018348176,-0.09579178870439047,0.057649667111250066
219,1.01397803521406,0.2034980717344614,1,,0.9414446652428758,-0.3184497041852306,0.12005999970006329,0.15973932364946716,-0.10050024064196249,0.08033584678384195
220,1.0133473298580926,0.2344812004961161,1,,0.9368103344764548,-0.3176214676596607,0.12329872413799861,0.1720004883224803,-0.10831919538517833,0.09146872999343746
221,1.012403831634596,0.2656388630100634,1,,0.9402437846109906,-0.3169347735353621,0.1278113124519617,0.21822894496105633,-0.11902022229685102,0.0918967734165147
222,1.0111129977606748,0.29504323547018935,1,,0.9438678690936433,-0.31621531414040743,0.13226134947591678,0.26401551083410096,-0.1293053527375628,0.0923378135558414
223,1.009422092303155,0.3210977754978061,1,,0.9535797521380424,-0.314449514615813,0.1347138472222012,0.2956905513605765,-0.126309068866864,0.0931938963838275
224,1.007284826977711,0.34258620378291665,1,,0.9632916351824415,-0.3126837150912186,0.13716634496848565,0.32736559188705205,-0.1233127849961652,0.0940499792118136
225,1.0046891294347848,0.35867779171546105,1,,0.9630668294654192,-0.31038654580373953,0.13648373046560922,0.33260906358377357,-0.11011483846048581,0.10719442343992863
226,1.0016796153455878,0.36889616633821354,1,,0.9544340764056646,-0.3076397570143708,0.13314833500572332,0.3154874150603883,-0.08828473639226113,0.13073668714595713
227,0.9983676602898852,0.3730636477583226,1,,0.9458169092431605,-0.3047942348975377,0.13004678052913604,0.299068655481468,-0.0673389140036703,0.15382547412048714
228,0.9949257374220026,0.37123700087408534,1,,0.9374783898760363,-0.3001835386500388,0.13112588183035465,0.2952162847706329,-0.062202420258312546,0.1688069135414192
229,0.9915673196962022,0.36365076694144804,1,,0.9291398704958856,-0.29557284239533704,0.13220498313325899,0.2913639140537796,-0.05706592650493063,0.18378835298575505
230,0.9885173891992864,0.35067987367686454,1,,0.9257279951004211,-0.29301029690692204,0.1337269263453784,0.28654541098281533,-0.05265403111019111,0.18427781618783445
231,0.9859803683842442,0.3328253234132538,1,,0.926120402278414,-0.2920293035462888,0.13559082561301675,0.2809808746186827,-0.04880165999753912,0.17357678688197772
232,0.9841119339795141,0.31071834359354555,1,,0.9267648954161349,-0.29097416712745766,0.13678743923163714,0.27551339084154824,-0.044108165613534527,0.1617434762640452
233,0.9829992758635031,0.28513207797080137,1,,0.9304927021520181,-0.28901217220834324,0.12982234907399817,0.2712329767016178,-0.029126724963748157,0.13606100749713565
234,0.9826518773667448,0.2569870557373025,1,,0.9342205088820777,-0.2870501772922939,0.12285725892723993,0.266952562568374,-0.01414528433736558,0.11037853877034685
235,0.9830027279245673,0.22733771767135438,1,,0.9339181776019603,-0.2861820680458217,0.11980714143468882,0.23478784102881595,-0.0056953037411142495,0.09047389913744852
236,0.9839185538921796,0.19733214737766694,1,,0.9307789611470285,-0.2860839642024745,0.11951284219682166,0.18299486409008794,-0.0018429329840792925,0.07463637525785921
237,0.9852171728763445,0.1681450018579617,1,,0.9284777432030835,-0.28655415423375963,0.1196519875354124,0.13384964808415428,0.002807969030051402,0.06022780216494003
238,0.9866899963039347,0.14089218815548707,1,,0.9338732702045625,-0.29224393949919136,0.12377218096294405,0.10902325812706243,0.014793122152605752,0.058943679128411385
239,0.9881274361377661,0.1165418580745624,1,,0.9392687972060415,-0.29793372476462315,0.12789237439047574,0.08419686816997059,0.0267782752751601,0.057659556091882745
240,0.9893443022080638,0.09583754333729702,1,,0.9402397694996306,-0.3012916709005062,0.12950134857469167,0.060935801606363436,0.030154154850696648,0.0524621268747393
241,0.9902016575615373,0.07924606145438112,1,,0.9383758661316891,-0.30315557426844775,0.12950134857469167,0.03867766013322991,0.02801394938799874,0.04475738624466643
242,0.9906217520833499,0.06693737135628593,1,,0.9364527132089893,-0.3050431764684078,0.1290984511073937,0.017401914147809724,0.02726977960048503,0.03875891127263476
243,0.9905938432258524,0.058797736355758856,1,,0.9340983111149472,-0.3071032711302596,0.1257630556527183,0.003276555142625378,0.03668668587181915,0.04517952805251512
244,0.9901705088056202,0.05447201511710179,1,,0.9317439090172269,-0.30916336579532977,0.12242766019283238,-0.010848803884625396,0.04610359215786423,0.05160014484242568
245,0.9894557675581278,0.05342603629316791,1,,0.9300095938490506,-0.30793699455390916,0.12504510443647493,-0.011987083613320057,0.04794470199148261,0.052880043835630636
246,0.9885874740183169,0.05501697078787473,1,,0.9286361892108875,-0.30479779448854327,0.13112729278312102,-0.005566465630013493,0.045376454712974815,0.05116787978692579
247,0.9877169057921164,0.058559761551430355,1,,0.9279943100083939,-0.3018414754926747,0.13622474009016888,-0.0036881222905969656,0.041948858185885125,0.048473602185885124
248,0.9869882953491211,0.06338111465594183,1,,0.9317221167442771,-0.2999775762221245,0.1354399462199146,-0.028942552042360004,0.03338803432600932,0.03991277832600932
249,0.9865204919587559,0.06885768705722892,1,,0.9354499234801602,-0.2981136769515744,0.13465515234966027,-0.05419698179412304,0.02482721046613351,0.03135195446613351
250,0.9863923137305587,0.07443970563732635,1,,0.9309594173953404,-0.2984972324754066,0.13521872110099264,-0.06431773310764782,0.02523253951015271,0.018872189923752537
251,0.9866328406638585,0.07966392765606428,1,,0.9221345509948503,-0.30006610170875525,0.13649341993002415,-0.06645694169783489,0.030366641733120692,0.004325565486034157
252,0.9872179994503145,0.08416050910301749,1,,0.9163324048579617,-0.30192592890791714,0.1377034622584952,-0.06979516206180454,0.03218583002381588,-0.010150528894079833
253,0.988074808769078,0.08765759477094301,1,,0.9258436333594745,-0.30525977551163935,0.13858594889716558,-0.07920768466348059,0.017211364092267853,-0.024269311591704645
254,0.9890938003405287,0.08998587288609068,1,,0.9353548618758455,-0.3085936221205697,0.13946843553721458,-0.08862020727986074,0.00223689813732694,-0.03838809431138561
255,0.9901481977843901,0.0910834422145041,1,,0.9357986124065872,-0.3131849954130179,0.14001999192020662,-0.07319667490215988,-0.0011859148754523384,-0.055972372105842265
256,0.9911162963609397,0.09099975940954859,1,,0.9318764495680523,-0.3183818570785932,0.1404122082040601,-0.04581479374490786,0.0009532945548153726,-0.07522525621515513
257,0.9919024144862179,0.08989671627108342,1,,0.9291887439253927,-0.3220901130125528,0.14145795980684991,-0.02476976678942217,0.003646978684630853,-0.0897254995596015
258,0.9924522768306276,0.0880449983779023,1,,0.9319342742985911,-0.31924654495017263,0.14538012674699582,-0.031615236687799315,0.008781081068250736,-0.08330786977274275
259,0.9927601839524117,0.08581430029843054,1,,0.9346798046675004,-0.31640297689223473,0.1493022936810146,-0.03846070657548257,0.0139151834438502,-0.07689023999590953
260,0.9928670217415708,0.08365639962587434,1,,0.9316303894678631,-0.31853621998423337,0.14831581926699294,-0.045008705511702184,0.01994170195320814,-0.06660547736886305
261,0.9928497364963274,0.08208053845006404,1,,0.9260412828413171,-0.32285059911336184,0.14517808489577946,-0.05142633489693117,0.026359330535177625,-0.05462590605077743
262,0.9928043750859843,0.0816209938116004,1,,0.9219629232593934,-0.32597653051933145,0.1417382028049544,-0.05968968037855393,0.033216415531166464,-0.04255844318607495
263,0.9928260355264834,0.0827969338573729,1,,0.9237279129214263,-0.3245057194525831,0.13712965736699256,-0.07509198664582813,0.04177325390821228,-0.0301510285434329
264,0.9929896888223196,0.08606463541934425,1,,0.9254929025834591,-0.3230349083858348,0.1325211119290307,-0.09049429291310232,0.050330092285258095,-0.01774361390079085
265,0.9933355131460361,0.09176241845568622,1,,0.9269772266250138,-0.323388385738492,0.13128048943724877,-0.09181358496292752,0.04970235410074014,-0.02094997742643441
266,0.9938612378253372,0.10005019773518639,1,,0.9283499918116128,-0.3244669805207741,0.13137854760384904,-0.08753516617603437,0.04542393410895773,-0.030362499239555054
267,0.994522456334914,0.11084893721622191,1,,0.9297670185517879,-0.32550131005177324,0.13202992048705925,-0.08605733139689382,0.04095237073949368,-0.03755386808452094
268,0.9952403710560549,0.12378979542405324,1,,0.9313358754962345,-0.32638379669044365,0.13457932633210704,-0.09418632723994372,0.03581826852454612,-0.03712602596552214
269,0.9959152520580594,0.1381864284237001,1,,0.9329047324431321,-0.3272662833304927,0.1371287321811375,-0.10231532309569262,0.03068416630157814,-0.03669818384585497
270,0.9964431608225347,0.15304474950765815,1,,0.9331026802203469,-0.3272107629898935,0.1362147246263667,-0.11044432072470886,0.03688405513832424,-0.025566016395439685
271,0.9967332546305842,0.16712133109757785,1,,0.9328085425798995,-0.3268185467054273,0.13405753096631876,-0.11857331899023628,0.047152259985889955,-0.010591550332058736
272,0.9967232001042653,0.17903444582289957,1,,0.9327073653755388,-0.32647457456056483,0.13231041349858597,-0.13628029044435355,0.0559469305319572,0.004488168265857352
273,0.9963907179872581,0.1874210188157542,1,,0.9331975947762844,-0.32627846641833175,0.1318201431430032,-0.18334289950995677,0.06022534931885035,0.01989047663365516
274,0.9957598334668538,0.19112000463082904,1,,0.9336878241770301,-0.32608235827609866,0.13132987278742042,-0.23040550857556,0.0645037681057435,0.03529278500145296
275,0.9949008871717341,0.1893511366340332,1,,0.9337332432608961,-0.32914858471494945,0.1265392604677142,-0.24349917479865657,0.05648866708376365,0.03257832562070739
276,0.9939238246178878,0.18185236898998206,1,,0.9336352178581656,-0.33326686389281224,0.1203618539873712,-0.2456383793725461,0.044509094962418526,0.024021487243661578
277,0.9929649085940878,0.16894372694421622,1,,0.9316832553656602,-0.335505113007859,0.11802284108255312,-0.22556064126495357,0.030478727714074748,0.01842690834001527
278,0.9921679567934453,0.15150036176958015,1,,0.9246233172059765,-0.33256349497444143,0.12625938713896048,-0.1442706844409736,0.010798000682503575,0.020993959849118806
279,0.9916624773898498,0.13083960020445795,1,,0.9175633790352634,-0.32962187693642847,0.13449593320823489,-0.06298072749000366,-0.008882726379812541,0.023561011362232553
280,0.9915423058847292,0.10854849070593418,1,,0.9194111003481503,-0.32393945160313076,0.14029621460589012,-0.027201386837730473,-0.023580538597841868,0.007192988462845904
281,0.9918489074887934,0.08629150945453033,1,,0.9238235744963393,-0.31746787472858046,0.14539503039146942,-0.004525766981316473,-0.036843636655839326,-0.014626947557200252
282,0.9925629040360537,0.06563724444709655,1,,0.9263532657291573,-0.31658839187906374,0.14863918065204218,0.016801102822538626,-0.04520218955651024,-0.03056142900633259
283,0.9936057056724171,0.047929188373728754,1,,0.9241960515916907,-0.3296295874330493,0.14726641956092668,0.034770461807815824,-0.04135161369254376,-0.03184495496370434
284,0.9948510167793585,0.03420675921315283,1,,0.9220388374575943,-0.3426707829666622,0.14589365847195568,0.05273982076502155,-0.03750103783459259,-0.03312848091907098
285,0.9961441229478861,0.025167329664988806,1,,0.9238659078810679,-0.3479778330142719,0.14288032689515207,0.03525819262003887,-0.027514712711969726,-0.027594508766794066
286,0.997325588327462,0.02115375842290526,1,,0.9267094841344156,-0.35131167962320214,0.13944843850155633,0.008731995860160486,-0.015962981103772755,-0.020321196347119996
287,0.9982553542595458,0.022154698616781942,1,,0.9293725204896632,-0.3516966618810377,0.13661835436712838,-0.009128781591550597,-0.009006547940149174,-0.012391412911090511
288,0.9988332317772194,0.02781284519602008,1,,0.931627780507279,-0.3454211931386107,0.1351475351094126,-0.007417414116956312,-0.0124292832909675,-0.002978891499599621
289,0.9990124363491585,0.037444120949000965,1,,0.9338830405248946,-0.33914572439618373,0.13367671585169685,-0.005706046642362025,-0.015852018641785825,0.006433629911891269
290,0.9988040484178361,0.050074949173481695,1,,0.9335746913841494,-0.3364753128431699,0.1351700565063186,0.018376871250988108,-0.02067297565274618,0.006757709006371397
291,0.9982718713922162,0.06450418819422668,1,,0.932692196553133,-0.33461228958743905,0.13732725016636654,0.04747011972479512,-0.025807078277343916,0.0050463413309622335
292,0.9975188070632104,0.07939191915811498,1,,0.9301736188968031,-0.3335191799371478,0.13954860217695253,0.07306399749290751,-0.028701583655553073,0.002635099580113719
293,0.996667338691427,0.09337090563237392,1,,0.9242903336841635,-0.33400944619648093,0.14190189988007357,0.09146119856911204,-0.02699021598281738,-0.0012154773622377803
294,0.9958378172426581,0.10517029081072628,1,,0.9184070484623329,-0.33449971245658006,0.14425519758687091,0.10985839967405642,-0.025278848307408217,-0.005066054310604594
295,0.9951287476858633,0.11373672680974035,1,,0.9208160868389264,-0.32907866332202806,0.14693690513366953,0.12324029986274664,-0.03932986699856747,-0.002110146082657193
296,0.9946028811821784,0.11833650787176328,1,,0.9248363365185749,-0.3225090364617351,0.14968242322041678,0.13564771932494574,-0.056443541744510335,0.0021682727443989368
297,0.9942815254298576,0.11862357799191584,1,,0.9286862255166558,-0.31846053700305116,0.1515421383640041,0.13482480356007348,-0.06389461462295852,0.005554759060326637
298,0.9941474078106842,0.11466258133373441,1,,0.9322161638858842,-0.3191469114053833,0.1517382465062372,0.10915428642078728,-0.053198567655725636,0.007266126575083898
299,0.9941543498641785,0.10690325600595782,1,,0.9357461022551128,-0.31983328580771553,0.15193435464847033,0.08348376928150106,-0.042502520688492744,0.00897749408984116
300,0.9942406405983285,0.09611107853138147,1,,0.9343987809921783,-0.3168196611850062,0.1483463621830254,0.07872750442856939,-0.0321733905951126,0.004084361858818962
301,0.9943427264954391,0.08326641858802108,1,,0.932241607809549,-0.31319166464917736,0.14413003302952979,0.07744397806956789,-0.021905185747546886,-0.0019054244829944302
302,0.9944065917070448,0.069448136117773,1,,0.9315265993972365,-0.3123398108945701,0.1408874418369149,0.06766664931201292,-0.012581736299516462,-0.0044341473005319095
303,0.9943954479322799,0.05571736276634726,1,,0.9332910872041739,-0.31626094540776173,0.13931898639387258,0.043286030184157775,-0.004882593247972784,-0.0010123060067496993
304,0.9942934123571675,0.04301492405953416,1,,0.9350555750138676,-0.3201820799270789,0.13775053094838002,0.018905411018215582,0.0028165498155983807,0.002409535292378061
305,0.9941054073497534,0.03208296756263953,1,,0.9332083543189329,-0.3181696179043921,0.13687003314979812,0.01666282967347864,0.009390030016718863,0.0017039457107455363
306,0.9938537881675031,0.023417787708005323,1,,0.9308557039096831,-0.31532679650829204,0.13608580952269117,0.017518289655628055,0.015805982693513552,0.00042075519144759327
307,0.9935725547354637,0.017256038053834077,1,,0.9298299132723545,-0.31396249206116894,0.13408843931262,0.014569161438347104,0.018913597436367974,-0.0011932690745608595
308,0.9933004378017984,0.013591177577238111,1,,0.9309082182023023,-0.3149427767146018,0.13016729660447438,0.005586828118479832,0.01677494627307886,-0.003331919852386095
309,0.9930743362997069,0.01221288914643764,1,,0.9319865231305654,-0.3159230613665033,0.12624615390245433,-0.0033955051873553717,0.014636295113130717,-0.005470570626870362
310,0.9929242836949933,0.012760554843424213,1,,0.9330648280605132,-0.31611264497301733,0.1269813654734622,-0.0016442360616067424,0.012497644669555765,-0.008759250240467812
311,0.992870468100964,0.014782375846206099,1,,0.9341431329904607,-0.3162106734383607,0.12825573552292488,0.0013498750851681696,0.010358994309316397,-0.012181091499443086
312,0.9929221844352414,0.017793216270133715,1,,0.9338691816084775,-0.3162291576101466,0.1278199016010186,-0.0052006506257039125,0.009261576776935034,-0.011611539335952149
313,0.9930782515989932,0.021325751658956085,1,,0.931614510527925,-0.3161311291448033,0.12487904354630584,-0.02573169918336773,0.009689306768677934,-0.005195586970354452
314,0.9933284383303083,0.02497065706345729,1,,0.9293598394473725,-0.31603310067946,0.12193818549159309,-0.046262747741031555,0.010117036760420833,0.0012203653952432463
315,0.9936556023105866,0.028402681560819272,1,,0.9341928632001011,-0.3166528089092111,0.12249630132384864,-0.029604628668614196,0.0066301176563699415,-0.006064954210740062
316,0.9940382418808117,0.031391280640659394,1,,0.9396824900146388,-0.3173390081666141,0.12337856160635244,-0.009501310303455713,0.002780546004126897,-0.014619557739626874
317,0.9944528929374594,0.033797306190921785,1,,0.9401760546293276,-0.3175672365048094,0.12409428590254985,-0.007200751742690495,0.0002026000936123742,-0.019177623359506138
318,0.9948756189166488,0.035559964080217735,1,,0.9339021837241878,-0.3171751185496346,0.12458442822850059,-0.029014990843792436,-0.0006528602097569346,-0.018322162975831856
319,0.9952822120241073,0.03667907073843472,1,,0.9276283128092468,-0.31678300059384723,0.125074570555217,-0.05082922997897226,-0.001508320514462631,-0.017466702590821184
320,0.995647610533163,0.037196267074426866,1,,0.931245011911586,-0.31730667530817513,0.1259310268899678,-0.03468271490293706,-0.009156757169525047,-0.01421372101079495
321,0.9959457416492689,0.03717703286475198,1,,0.9355583135196612,-0.3178948501946491,0.12681328307805734,-0.01586258683422717,-0.017283629783161752,-0.010791879671514702
322,0.9961508479699172,0.03669485485240453,1,,0.938001305683738,-0.3165692442829661,0.12926135843067896,-0.008619208017199438,-0.02180463,-0.011924824913917765
323,0.9962404366865257,0.03581946389538477,1,,0.9380993259602527,-0.3128441625999213,0.13367263937112675,-0.01589062068750283,-0.02180463,-0.018768507793240696
324,0.9961990376544704,0.03461097775704375,1,,0.9381973462367678,-0.3091190809168765,0.13808392031157454,-0.02316203335780622,-0.02180463,-0.025612190672563626
325,0.9960215826849033,0.033120255258569056,1,,0.9347446340562208,-0.3178215160056927,0.13660848257159758,-0.025133231433140134,-0.0116119098058837,-0.02389398751720975
326,0.9957154607479971,0.03139375277839266,1,,0.9311175562720337,-0.3271342284021332,0.13484396610100421,-0.026844152203161477,-0.0009186563182823926,-0.021755336353920636
327,0.995300828924503,0.02948011045977446,1,,0.9298036885781089,-0.32810135709805566,0.1343494323944763,-0.02301374053246291,-0.00012063876931891186,-0.01981458984103727
328,0.9948092562921566,0.027436005243866916,1,,0.9311761362237416,-0.31937681550730423,0.135329721140792,-0.012748216731421253,-0.010813892240215376,-0.01810366867216383
329,0.9942811007423622,0.025329851467347272,1,,0.9325485838715184,-0.31065227390292344,0.13631000988863906,-0.002482692914342949,-0.021507145727816684,-0.016392747500617616
330,0.9937621160554531,0.023242880456619115,1,,0.9327773518455129,-0.31565112810682433,0.13528896270058574,-0.003860431124432258,-0.014319676213303007,-0.018424304686249376
331,0.9932996534187378,0.02126762547660603,1,,0.9329733923982363,-0.3210426895978682,0.1342106454890799,-0.005571351731170875,-0.006620533764046638,-0.02056295624772239
332,0.99293855255371,0.019504013840053225,1,,0.9320834155024971,-0.32270404631970334,0.13332120147590254,-0.004397898729203902,-0.0011876847233214575,-0.020229286971895903
333,0.9927166409401667,0.018053419196644056,1,,0.9300247849749742,-0.3203513631514645,0.13263500221849955,-0.00012059716552293288,0.0018064263029959927,-0.01723517542359612
334,0.9926598900510358,0.01701128748969873,1,,0.9279661544506674,-0.31799867998690096,0.13194880296216854,0.004156704391476099,0.004800537324636087,-0.014241063879973693
335,0.9927776757877591,0.01645922742126069,1,,0.9305713926007233,-0.3198239949450419,0.13145692919901578,-0.006828292819731754,0.0048269792,-0.008279283550840738
336,0.9930589536024188,0.016457548033453357,1,,0.9332181857314774,-0.32168653578656425,0.13096678687229935,-0.017949276821058294,0.0048269792,-0.0022910613496416343
337,0.9934702486360113,0.01703898597768178,1,,0.9318895454809876,-0.3218803851288882,0.1298876959329018,-0.019005274402752438,0.005255276491146842,0.004339606831190462
338,0.9939562766721262,0.018203887672757674,1,,0.9265960001636219,-0.32040996224315316,0.12822121611648019,-0.010022941123037653,0.006110736795852538,0.011611019593844578
339,0.9944439735536145,0.019916734180087277,1,,0.9214468309000559,-0.3189684144850024,0.1265756458938486,-0.001210045310733834,0.006909717946929714,0.018847675954143404
340,0.9948505771301311,0.02210387014410607,1,,0.9303674130435308,-0.3203408089032502,0.12696775975460917,-0.008909188603192434,0.002204686278398514,0.022697247479915243
341,0.9950956614642366,0.024652544873728803,1,,0.9392879952009412,-0.32171320332364195,0.12735987361598233,-0.016608331907678523,-0.0025003453974828172,0.026546819011700827
342,0.9951154764597747,0.027411750349735354,1,,0.9419938281442529,-0.3228308966862606,0.12739540301773739,-0.012971673604332172,-0.003871317952456829,0.02461735464488845
343,0.9948763082377995,0.030195929756529415,1,,0.9389549539121869,-0.3237131528729719,0.12710131762216692,0.001143422124006193,-0.002160397305565724,0.01734594198594435
344,0.9943830160807967,0.03279340032761261,1,,0.9359160796753735,-0.32444969635362325,0.12691008837425172,0.014847123,-0.0006738738580895035,0.01062305580313149
345,0.99367997769287,0.03498161670278192,1,,0.9328772054385602,-0.32033250080920533,0.13014503182499434,0.014847123,-0.006662096272096789,0.02217177039848824
346,0.9928438850321274,0.036550206375384066,1,,0.9298383312017467,-0.3162153052647874,0.13337997527573695,0.014847123,-0.012650318686104075,0.03372048499384499
347,0.9919701621310103,0.037329841835126595,1,,0.9273802751316872,-0.312942944765434,0.1347140382304409,0.015307907961172759,-0.015182652411274944,0.041352525670973216
348,0.9911564091903963,0.03722165643623677,1,,0.9254197058248215,-0.31039420876092283,0.13441994464558257,0.016163367944658558,-0.014754922218769609,0.0456298271945017
349,0.9904868368057429,0.03621987740269912,1,,0.9238366186820747,-0.3079304060462568,0.13405507374619668,0.01652470462419903,-0.014162484244109291,0.04920712064966963
350,0.9900210931285628,0.03442084947124078,1,,0.9297183265934834,-0.3071461783247357,0.1322905654671883,0.007114641367441608,-0.010312912678184965,0.038941596447103106
351,0.9897893968713165,0.03201467221927322,1,,0.9356000345140805,-0.3063619506019894,0.1305260571854234,-0.002295421904016077,-0.006463341106246894,0.028676072228499928
352,0.9897939405445655,0.02926021385439233,1,,0.9363986150637419,-0.30721723742246165,0.13072911049792027,-0.005265979141300372,-0.008098522359014603,0.018650839392943146
353,0.9900148474947869,0.026448594791581955,1,,0.9331647070088136,-0.30937316521084524,0.13249304732260045,-0.0031280209268532886,-0.01408480513468533,0.008816231791128183
354,0.9904182053947531,0.023862754163561022,1,,0.9302232451267813,-0.3113796218989901,0.1341140120615016,-0.0010467749886340554,-0.019560677467483398,-0.00022440397279295993
355,0.990963972371997,0.02174076062987661,1,,0.9313992302989932,-0.31128162518118324,0.13372202519027404,0.00023599989387074676,-0.017850311198313894,0.001913554188798734
356,0.9916123784536115,0.02024864976480578,1,,0.9325752154693681,-0.3111836284635294,0.13333003831965884,0.0015187747743716168,-0.0161399449318163,0.004051512347050541
357,0.9923282186681156,0.019465924932987787,1,,0.9336384896379604,-0.3109729348633396,0.13271265768366539,0.0008346167052059681,-0.015904778053274914,0.0010262714966590978
358,0.9930828925940959,0.019384370265203562,1,,0.9346184568160293,-0.3106789447099189,0.1319286839412103,-0.0013033414323020353,-0.016759960987162245,-0.005815194543366513
359,0.9938542845863972,0.019918812365193803,1,,0.9354754026784525,-0.3107212124729841,0.1311857173046848,-0.0028687320004842725,-0.017400431126979702,-0.012585089639553645
360,0.994624776455613,0.02092691097599155,1,,0.9349854190894181,-0.3144450836565577,0.13089172715126415,0.0018347758217543682,-0.0156900648578102,-0.01857137258513399
361,0.9953779148781347,0.022234007711790273,1,,0.9344954355003836,-0.31816895484013125,0.13059773699784347,0.006538283643993009,-0.0139796985886407,-0.024557655530714335
362,0.9960945045746207,0.023658730224638318,1,,0.9340054519121147,-0.31922247941632015,0.13053595131887163,0.0033896168973828913,-0.010496260374671816,-0.02522472350430605
363,0.9967491232458611,0.025035601678106555,1,,0.9335154683230802,-0.31843850976695326,0.13063394803667852,-0.005162215652649123,-0.005792752271456791,-0.02223158243291071
364,0.9973081937785159,0.026232196201207716,1,,0.9331839494811045,-0.3177832929831157,0.13004856196488646,-0.013886907540578683,-0.0015646071,-0.01876307837134035
365,0.9977307018882844,0.02715987479488328,1,,0.93426190518912,-0.3182732765713847,0.12338478516442813,-0.024149107547933247,-0.0015646071,-0.011066428630745018
366,0.9979722928218332,0.02777818635592078,1,,0.9353398608988194,-0.3187632601604191,0.11672100835355974,-0.03441130757131927,-0.0015646071,-0.0033697788781260948
367,0.9979927590342726,0.028093398221116103,1,,0.9376726413320569,-0.3194922564375061,0.11453876623942016,-0.03241941759936491,-0.0015646071,-0.003755613489886704
368,0.9977659239551613,0.028151756693912688,1,,0.9408085199246256,-0.32037422280330213,0.11522474326299677,-0.022584809058286037,-0.0015646071,-0.009314304694919085
369,0.9972898886108666,0.028028556212230556,1,,0.9433060307061412,-0.3210820880196747,0.11621249694078552,-0.014725322369422528,-0.0016658953973663505,-0.014163977825169063
370,0.9965949247184797,0.02781488733357013,1,,0.941052130755112,-0.3204941077128334,0.11944639272150102,-0.02156678865028504,-0.0025210786925090353,-0.013736385956830561
371,0.9957463510709261,0.027604344471142867,1,,0.9387982308076037,-0.31990612740691055,0.1226802884971646,-0.028408254920459914,-0.003376261986315766,-0.013308794089160038
372,0.9948406632284398,0.027481508630137656,1,,0.935622458088743,-0.3199327118326922,0.12308717880714537,-0.026936927577856037,-0.005572218447345694,-0.0037639450149974207
373,0.9939947564862062,0.027513040414402484,1,,0.9318985664397286,-0.3203246987039198,0.12181321328947942,-0.02052305316533203,-0.008565359920135865,0.011201761947558606
374,0.9933297702416312,0.027741483918243926,1,,0.9290131725637184,-0.31991811838525347,0.12049932108003072,-0.014747987045609248,-0.0118488688086567,0.0234380151913433
375,0.9929523657461542,0.028181678078620372,1,,0.9314630905050635,-0.31443030219664075,0.11893137769065815,-0.013037620377716821,-0.016979968410939145,0.018306915589060852
376,0.9929368039149767,0.02881973702034244,1,,0.9339130084502356,-0.308942485999455,0.11736343429883614,-0.011327253707152483,-0.022111068021237322,0.013175815978762677
377,0.993310966562712,0.029614636074695173,1,,0.9349102553767922,-0.30825476525708784,0.11876397099091507,-0.014026230631535498,-0.022006072452079348,0.0028086206716082286
378,0.9940486750369215,0.030502455529295605,1,,0.935106232439747,-0.3102146996101638,0.12180187333127106,-0.019157330233817944,-0.019012931385359852,-0.010446720402465833
379,0.9950696408071612,0.03140319872225432,1,,0.9350770338161531,-0.3118593798534353,0.12459958096181913,-0.021078791611439614,-0.01667481838416687,-0.021998988035101176
380,0.9962473947217321,0.03222973108016624,1,,0.9338031010431929,-0.3117613872287166,0.12606953172892243,-0.005257900912206587,-0.01795759278499787,-0.024136945771214346
381,0.997424653704091,0.0328979216947889,1,,0.9325291682722225,-0.31166339460415105,0.12753948249372943,0.010562989762311277,-0.01924036718382494,-0.02627490350398763
382,0.9984346742854998,0.03333678079850046,1,,0.9365090381512198,-0.3157165535549273,0.1299823633903641,0.01987457432243978,-0.016560955793564622,-0.022469582022115363
383,0.999126031940827,0.0334973777246965,1,,0.9431728313344409,-0.321890342683673,0.13292226901765894,0.025860857268020124,-0.011857448051604949,-0.01562811574125285
384,0.9993870086227472,0.03335947979910518,1,,0.947814127181169,-0.32662665903211374,0.13495957362414326,0.03097195439313714,-0.005184771899672326,-0.00929717461838854
385,0.9991649076826795,0.03293502049307746,1,,0.9426202847650511,-0.32437273452255533,0.1326076483036897,0.03182713812981414,0.011063711069294038,-0.005448850075236791
386,0.9984759317886129,0.03226761480355043,1,,0.9374264423489332,-0.3221188100129969,0.1302557229832362,0.03268232186649114,0.0273121940382604,-0.0016005255320850407
387,0.9974030569581076,0.03142750631365995,1,,0.936559292787582,-0.3209299175922894,0.12870257451069422,0.028890422423065058,0.023810576253097012,0.00021470063101301472
388,0.9960819951190779,0.03050191657001793,1,,0.9377352370289117,-0.32024394056764116,0.12752661389701156,0.022904138674695044,0.010982826504840873,0.0010698839100999064
389,0.9946778229214024,0.029582040941625084,1,,0.9366642511485006,-0.318581837594754,0.12738203322578354,0.01876616946114754,0.0008873676617772197,0.0017643442
390,0.9933565981480037,0.028749461169208127,1,,0.9258846122065827,-0.3127020386286143,0.13169389289563888,0.022614494263208083,0.00259773412897223,0.0017643442
391,0.992257328463128,0.028065438146516058,1,,0.9151049732478249,-0.30682223965328914,0.1360057525722302,0.02646281907128042,0.00430810059883915,0.0017643442
392,0.9914699506501331,0.027565680657408043,1,,0.9207777481528221,-0.3078374232886116,0.13417356009481712,0.027332424137681947,0.0045291072817574335,-0.001810119462042722
393,0.991023967842802,0.02726117914205532,1,,0.9336153509101754,-0.31185528871241736,0.12966570698965418,0.026904832671406257,0.004101515735202777,-0.006941218943906719
394,0.9908897066997431,0.027143674823150988,1,,0.9426502244790529,-0.314545223414752,0.1263248241452348,0.02472142451079811,0.005166368305484238,-0.013389180844838582
395,0.9909906059133593,0.027193108333283464,1,,0.9369663575430185,-0.3120953054695798,0.12750078475891746,0.01574199989173018,0.012007834586346751,-0.02493415466696335
396,0.9912222919193101,0.02738409112752634,1,,0.9312824906158633,-0.30964538752823484,0.12867674537076304,0.006762575286689772,0.018849300856521627,-0.03647912847105273
397,0.9914736231366669,0.027688982214420742,1,,0.930846421636651,-0.3139825430900983,0.12719385130072047,0.0023626706093055417,0.018363535288009557,-0.027568914672413798
398,0.9916459680122509,0.028076608393193918,1,,0.9325123903978974,-0.321038302679106,0.12464593663774139,-0.00020287919584354661,0.014942801946880885,-0.010465249692768219
399,0.9916683922270904,0.028507921424152243,1,,0.9337419023591311,-0.3242750652680029,0.12340739146331252,0.001516478484105518,0.011998169611236701,0.0028296087
400,0.9915073610393845,0.02893199137967173,1,,0.933447936764699,-0.31418139925657346,0.1267392757704535,0.018192552091174763,0.010715395212409632,0.0028296087
401,0.9911701802917702,0.029286209885926447,1,,0.9331539711698075,-0.30408773322937577,0.13007116008279948,0.034868625724295124,0.00943262081157863,0.0028296087
402,0.9907021213408241,0.02950280364565471,1,,0.9332183532947499,-0.30553335173604085,0.12895935305378992,0.012453367285737192,0.014091728531009063,0.004080531288716628
403,0.9901779964958002,0.029520750626329605,1,,0.9334143508231458,-0.31121716545304945,0.12621544905257173,-0.02431951406697582,0.020933194801183937,0.005790897796051121
404,0.9896895823458904,0.029299561365581754,1,,0.9328106304207583,-0.3151836911108936,0.12370688906866074,-0.04887783063681422,0.024387601593835188,0.0058591364285742
405,0.9893306438942783,0.02883009432512163,1,,0.9296753629491252,-0.31371405558402554,0.1219433223442086,-0.03477033189661452,0.017120102340110188,0.0007291372150269223
406,0.9891815976155396,0.028138072184271966,1,,0.9265400954823897,-0.31224442005945324,0.12017975562251149,-0.02066283317845334,0.009852603097738367,-0.004400861990506346
407,0.9892961834737153,0.02727846491886399,1,,0.9248710163711004,-0.31334053378928567,0.12237477958926597,-0.016471084199280034,0.002585103844013368,-0.007611683891973577
408,0.9896926517294689,0.026322536148942796,1,,0.9236953243184476,-0.31530004782510984,0.12590190894595982,-0.015616084263470694,-0.004682395409711633,-0.010176683418485466
409,0.9903515009256516,0.025342086709970582,1,,0.9243783714969013,-0.3169832641442743,0.1283489602664796,-0.015418674342005952,-0.01052511629056411,-0.011536101373934403
410,0.9912205533283281,0.02439581866480621,1,,0.9304528895612185,-0.3178650495526055,0.12766313035394114,-0.01712867421362463,-0.01223511596152841,-0.009398601735065433
411,0.9922263643398957,0.023521141695170916,1,,0.9365274076255359,-0.31874683496093686,0.12697730044140268,-0.018838674085243305,-0.013945115632492712,-0.007261102096196463
412,0.9932891992144,0.022732553670824992,1,,0.9376581892076974,-0.3215012320818988,0.12778956177829662,-0.019241339,-0.009772108405780695,-0.0041431013370666625
413,0.9943377479844582,0.02202602609350443,1,,0.9372662782161117,-0.3248324018505894,0.1290632418093719,-0.019241339,-0.0037871091761623294,-0.0007231019148763116
414,0.9953198676937246,0.021387868363992934,1,,0.9363400538901495,-0.3254920071790966,0.13119182540714833,-0.018308785605144002,0.000449352536585745,0.0045620042532550555
415,0.996206947140622,0.02080602827700699,1,,0.9339886288664132,-0.3190256149631891,0.13560073607307552,-0.014888785867249323,2.1852609479785146e-05,0.014822002985368595
416,0.996991498219081,0.02028132320294829,1,,0.9316372038390034,-0.31255922273717984,0.14000964674589025,-0.011468786124011969,-0.00040564731829400875,0.02508200173351015
417,0.9976795540723346,0.01983563324636709,1,,0.9333404143529628,-0.3117539955214212,0.13883388194340848,-0.012388246043692718,-0.00517260656429683,0.02532786353558096
418,0.9982807142826537,0.019514037177888494,1,,0.9361817178848901,-0.31253779704231593,0.13609055820532986,-0.01452574608053127,-0.011157605824696394,0.022762863732159952
419,0.9987988725442161,0.019378820268093837,1,,0.9381453007782999,-0.31255714280303704,0.13473458676149336,-0.013080585814898953,-0.013065784912413702,0.017356443926132382
420,0.9992259532849971,0.019495447209859358,1,,0.937949324821455,-0.31069560856121453,0.1367920805913191,-0.0028205869864956438,-0.004943286043926365,0.004958945860168858
421,0.9995398875124165,0.019913427748190087,1,,0.9377533488649162,-0.30883407432230003,0.13884957441793067,0.007439411825879647,0.0031792128118721236,-0.007438552186427476
422,0.9997070229417029,0.02064728453778322,1,,0.9381041244950032,-0.31275192715211264,0.13934506671659447,0.007476148602424136,0.0038046530811864346,-0.013361318155908509
423,0.9996883089723921,0.021663370714736202,1,,0.9385940439260634,-0.3181405866584186,0.13944304241838568,0.004911148915388746,0.002522153337995928,-0.0176363178349552
424,0.999447864738625,0.02287684926800329,1,,0.9388147506135199,-0.32215334779298677,0.13906244558824962,0.0044343227772474,0.004502424573522719,-0.01642986200022389
425,0.9989619777909761,0.024160601349997174,1,,0.9384228396225466,-0.32303512910773013,0.13759281415588778,0.008709322329223125,0.013907423009984711,-0.0027498638512626745
426,0.9982263966680115,0.025365199989045836,1,,0.9380309286309608,-0.323916910423851,0.1361231827212301,0.01298432188787719,0.023312421461139054,0.010930134319069234
427,0.9972601366042012,0.02634679131953679,1,,0.936762351677723,-0.3201762394402344,0.13584901062034435,0.006826934237513978,0.026457988017785452,0.01487323769134422
428,0.9961048715643844,0.026997888942108382,1,,0.9352927161531509,-0.31537543415217545,0.13584901062034435,-0.0017230647059139712,0.02816798788673279,0.01658323715898281
429,0.9948201010609731,0.027275073363799796,1,,0.9335079828804083,-0.3126856942637413,0.13449414558646422,-0.007660911625058499,0.029190579504000235,0.016643456612355802
430,0.9934753348485498,0.027217823455397642,1,,0.931058549413524,-0.314449256895983,0.1302811863172319,-0.008088411392308792,0.028763080138058696,0.0132234572704272
431,0.9921412380319011,0.026954183497216355,1,,0.9286091159504662,-0.31621281952546976,0.12606822705458104,-0.00851591115889125,0.028335580772784988,0.009803457933841271
432,0.9908818477303135,0.026691234302330877,1,,0.9272978547425011,-0.3168382506448158,0.1260013216921135,-0.01355473296389157,0.02436090981453306,0.009221195
433,0.9897495916959167,0.02669083645076403,1,,0.9262201302072186,-0.3172301534519806,0.12678512730644315,-0.019539732113248186,0.01965840996692732,0.009221195
434,0.9887840189287763,0.027233428579919138,1,,0.9261686906373453,-0.3174234199238402,0.12604605297080843,-0.023646848459974293,0.01582262542892353,0.008498932428923526
435,0.9880140786818248,0.028574578999936734,1,,0.9281282046731695,-0.31722746852025785,0.12232297221053216,-0.02407434822722459,0.013685125790054556,0.006361432790054557
436,0.9874626840944964,0.030900469547598425,1,,0.9300877187089935,-0.31703151711667543,0.11859989145025589,-0.02450184799447488,0.011547626151185587,0.004223933151185587
437,0.9871514184193632,0.03428951271607349,1,,0.9320472327417567,-0.31973680693637346,0.11736359531677193,-0.01624883845010824,-0.003972326075925891,0.0020864334817029123
438,0.9871028434775645,0.03868759323179335,1,,0.9340067467775808,-0.3229700010032729,0.11657978970244226,-0.006416340203611993,-0.02192732352399574,-5.106619729693259e-05
439,0.9873381967009441,0.04390337600786436,1,,0.9334676035836383,-0.32450271751468435,0.11600420600708931,-0.00824344011308135,-0.03185688289598525,0.0002342078760831159
440,0.9878694799916605,0.049627181914975727,1,,0.9283728834672962,-0.32293510628847394,0.11580825460381301,-0.031328436325287416,-0.027154383055725685,0.004936707355164801
441,0.9886869836168938,0.055472283217797944,1,,0.9232781633429952,-0.3213674950598146,0.1156123032002306,-0.054413432573556526,-0.022451883208119947,0.009639206841592661
442,0.9897456679749054,0.06103225739540813,1,,0.9191973127349297,-0.31785661039865293,0.11448695846725429,-0.06570134785646393,-0.026965853467626255,0.014341705947340749
443,0.9909556453973531,0.06594385163692507,1,,0.9152782846694038,-0.3140355621269755,0.11321327434595833,-0.0751063447278218,-0.03295085381155945,0.019044204984982806
444,0.9921822681268799,0.06994299357807035,1,,0.9180023914840552,-0.3140261421078834,0.11114096119786858,-0.07579966250484697,-0.03988621835292456,0.019311666741116555
445,0.9932594221981659,0.07290280994417579,1,,0.9320129332090396,-0.32049253433389263,0.10771180754296593,-0.0616921669751173,-0.04843621570447418,0.01204416788870031
446,0.9940157316729616,0.07484651707314341,1,,0.9460234749121367,-0.32695892654980013,0.10428265389342024,-0.047584671467426135,-0.056986213042667114,0.004776669047637243
447,0.9943087074558351,0.0759335387136557,1,,0.9473790737777463,-0.3195651704876363,0.1207398194980996,-0.01244191683941278,-0.06891687845177417,-0.003617718804681869
448,0.9940583784444831,0.07642234358246888,1,,0.9469871627861606,-0.3102574788174717,0.13994306932580738,0.02560557809690464,-0.08131437732035521,-0.0121677177614665
449,0.9932712418393432,0.07661692976469947,1,,0.9452687921225907,-0.3014045717376147,0.15126335406831903,0.032729811651326615,-0.0801519435390508,-0.011457274738194722
450,0.9920476964665828,0.07680563742532762,1,,0.9414477315742822,-0.2932725844094378,0.1500876456486612,-0.00916518273003071,-0.05749444748269668,0.003932723279713834
451,0.9905703517653615,0.07720201030953884,1,,0.9376266710200043,-0.28514059706855727,0.14891193722716675,-0.05106017717683578,-0.03483695139094735,0.01932272132166442
452,0.9890751989486944,0.07789806862149276,1,,0.9321395786925729,-0.283935767675239,0.1481746599544873,-0.01069608006825123,-0.0454656885968938,0.018643501499257507
453,0.9878114008814306,0.0788395232075507,1,,0.9264569716287185,-0.2835438648686864,0.14748883413523067,0.03932141348995158,-0.06000068346985867,0.016078501896490873
454,0.9869977090040808,0.07982900982213802,1,,0.9234601294145759,-0.284771317956134,0.14502566499062405,0.06417786983044808,-0.06436786400500599,0.005930723811347694
455,0.9867839598638533,0.08055791320648029,1,,0.924439886432488,-0.28839642301461904,0.1399309244052709,0.051780371764484565,-0.05368036741589615,-0.015444273580613888
456,0.9872248052821795,0.08066194988029124,1,,0.9254196434488694,-0.292021528067441,0.13483618382787668,0.039382873717888234,-0.04299287084348216,-0.03681927093918376
457,0.9882701812837997,0.0797921788609096,1,,0.9287203046381421,-0.2993061867521863,0.13188461560030412,0.05581099683035305,-0.03308587049317147,-0.03521009352202149
458,0.9897736654882662,0.0776913290456968,1,,0.9322469291927633,-0.30694713979120397,0.1291417067583545,0.0750455841002411,-0.023254859302144975,-0.0313631755062966
459,0.9915165493512363,0.07426391939685287,1,,0.9359787911126306,-0.31257659683968664,0.12504411811024055,0.09051868412121293,-0.015035914377678105,-0.025904191329451848
460,0.9932428196523231,0.06962731622822618,1,,0.9399951791710432,-0.3154174624739861,0.11906850009822605,0.10077713243064468,-0.00905182060050441,-0.018210356100498187
461,0.9946987606649582,0.06413118397638246,1,,0.944011567229456,-0.3182583281082856,0.11309288208621152,0.11103558074007641,-0.003067726823330715,-0.010516520871544524
462,0.9956707428408507,0.0583368097338752,1,,0.9397657908290944,-0.3238229943017723,0.10920550536758891,0.06622779986866317,0.00014324770365291994,-0.008765084399731273
463,0.9960158495586214,0.052956228854756704,1,,0.9348677466320263,-0.32960269463749564,0.10548298768622572,0.01707274070354621,0.003135294572177365,-0.007482778661988349
464,0.9956819077794039,0.04876197968338794,1,,0.9317152497491089,-0.3315932634604883,0.10495355442220239,-0.006632370153824929,0.0014831904490181997,0.00011557239933285911
465,0.994715585343282,0.04648703830730196,1,,0.9308335936118312,-0.3286544246720639,0.10857811121396202,0.002771205910346486,-0.006210644647541851,0.01593067754345096
466,0.993258833108756,0.04673628841838627,1,,0.9299519374731757,-0.3257155858790486,0.11220266801138387,0.012174781989208029,-0.013904479756121097,0.03174578271227518
467,0.9915347389927763,0.04992467087307715,1,,0.9361786832423267,-0.32028421410857516,0.11268845630006198,-0.014271506263417244,-0.011125320752945363,0.04594965904742707
468,0.9898239778133986,0.05624647110281902,1,,0.9428400397062988,-0.31470044782423195,0.11298233895142695,-0.04290967036992483,-0.007705838456599381,0.06005502414680434
469,0.9884330678002101,0.06567032563570442,1,,0.9402408146761145,-0.3124681215680146,0.11393769039510232,-0.06462094467311613,-0.003709115358323694,0.06877280763306265
470,0.9876563202293297,0.07794919464428547,1,,0.9263303446068922,-0.3143293783629005,0.11570098630604682,-0.07787143836645449,0.0009926727613566895,0.07090998319388743
471,0.9877350617038523,0.09263502179088208,1,,0.9124198745594007,-0.3161906351548787,0.11746428221423671,-0.09112193203909315,0.005694460873692009,0.07304715875137355
472,0.9888198423728685,0.10909340629304483,1,,0.9138053589809959,-0.33043879894318984,0.11153268474154102,-0.021253055985782403,-0.019903423665100044,0.05348321891550852
473,0.990942504040606,0.12652180838988755,1,,0.9158625293605815,-0.3452309046931098,0.10526318407770242,0.052265812196450115,-0.04683184724731151,0.0329663255066295
474,0.9940040151883739,0.14398115202044418,1,,0.9203832606409239,-0.3504881225496131,0.10506133709408617,0.10707293000026075,-0.06619594566416334,0.008468208680569505
475,0.9977810508085364,0.16045063565762285,1,,0.9277303269250484,-0.3448063831067071,0.11182064216707227,0.1404128799319897,-0.07688182666157836,-0.0205973905374353
476,1.001950682633101,0.17490818452786883,1,,0.9350773932206504,-0.3391246436549251,0.11857994725061767,0.17375282991580185,-0.08756770767568672,-0.04966298980084596
477,1.0061294973143553,0.18642853853466582,1,,0.9369887489064546,-0.346412372938118,0.12448097573912051,0.17505288476625475,-0.07911286982876274,-0.044192074317391354
478,1.009921469150236,0.1942835081831616,1,,0.9387520611810105,-0.3540533300567905,0.13035862876642015,0.17548032228524033,-0.07013672807359243,-0.03778054523744467
479,1.0129678908179198,0.19802730951843048,1,,0.9430140629198729,-0.35716836943474806,0.13491622557616925,0.18927882567383694,-0.06116058726992868,-0.02087787093995148
480,1.0149924018986385,0.19755256200935678,1,,0.9499693184124415,-0.35540507352380357,0.13805097795388427,0.2174895535091735,-0.05218444750697627,0.007332857697881207
481,1.015834594683536,0.19310651429226633,1,,0.9569245738941448,-0.3536417776156137,0.14118573032670226,0.2457002813004397,-0.04320830775804625,0.03554358629164351
482,1.0154669793483289,0.1852615036998261,1,,0.9526408492882654,-0.3449026041880227,0.1395730132596222,0.1880927318180174,-0.02619991385105489,0.05445381175193412
483,1.013992473691363,0.17484022865411852,1,,0.9482325685949892,-0.3360861205417088,0.1379076823242106,0.12953410058651946,-0.009102502422865267,0.07326096431090526
484,1.0116229250528637,0.16280590921378804,1,,0.943288959422777,-0.3317958021588475,0.13526897845497302,0.09688293492031624,0.0024736453167474026,0.08357386562037711
485,1.0086427279572379,0.15013671866545605,1,,0.9378031581052438,-0.33208968071908007,0.13164442165755116,0.09047140422536133,0.008457739174170711,0.08528360767402916
486,1.0053642933723532,0.1377078495748419,1,,0.9323402942916812,-0.3323511768489402,0.12804460142453622,0.08411874646959358,0.014424171155917128,0.08693840165233466
487,1.0020832179269785,0.12620098051300782,1,,0.9318504898727397,-0.3255918676843626,0.1298078932411346,0.0905302771545325,0.016561347917147414,0.07667995335892851
488,0.999040434851522,0.1160522117872745,1,,0.9313606854530327,-0.3188325585092257,0.1315711850604876,0.09694180784948742,0.018698524681716365,0.06642150504949676
489,0.9963968190075347,0.10744017380824676,1,,0.9308708810333258,-0.31513496467553975,0.13032296397205403,0.09744023234210063,0.021930720275811506,0.05178298090799432
490,0.9942232234929256,0.10030909511108665,1,,0.9303810766143843,-0.31435128169682464,0.1262086109445358,0.09231100618915726,0.026205072594527905,0.032975829381523575
491,0.9925062403783997,0.09441803635155924,1,,0.9299761228632311,-0.3136682350004869,0.12217121502985327,0.08722483009727558,0.030488034917571544,0.014530297516823923
492,0.9911674470861238,0.08940657608240737,1,,0.9336986528193689,-0.31788054891837386,0.1218773282864377,0.08423278551586506,0.03518982275637828,0.013675427091869983
493,0.9900917561564312,0.0848676845360643,1,,0.9374211827696913,-0.3220928628296804,0.12158344154348119,0.08124074093912868,0.039891610587839965,0.012820556668251508
494,0.9891590219105995,0.0804193405364987,1,,0.9362307224583191,-0.32299539164972535,0.121186126040787,0.06786872945842222,0.04481904996386792,0.019412182840977694
495,0.9882726956301889,0.07576737978924689,1,,0.9306469275241125,-0.3209382171785483,0.12069632162108021,0.045214658482478125,0.04994827331608768,0.03266267653431607
496,0.9873803333724599,0.07075325938282778,1,,0.9253988238476759,-0.3189719584819862,0.12014707208369313,0.02338449556337951,0.05490966354905673,0.045440186
497,0.9864828413697964,0.065381840357246,1,,0.929219306504572,-0.31946175881010147,0.1179919326369832,0.023811931076792525,0.05533709866122168,0.045440186
498,0.9856316599919628,0.05982574793647081,1,,0.9330397891614681,-0.3199515591382167,0.11583679319027326,0.02423936659020554,0.05576453377338664,0.045440186
499,0.9849149688841146,0.054404592928928054,1,,0.9303651044191686,-0.3179391324341379,0.11586444919622438,0.019556224411222924,0.05201058743050568,0.036148226832087224
500,0.9844354887084273,0.04953997275099572,1,,0.9222343346856695,-0.31382477940019227,0.11772570189951871,0.010580083364276724,0.04474418771496502,0.019050815403897598
501,0.9842839590942472,0.04569098994097604,1,,0.9145403305532882,-0.31009196742171724,0.11947650886648023,0.0019106139779269966,0.03758731360718246,0.0027638933443929056
502,0.9845137801568592,0.04327923944100104,1,,0.9149321822722366,-0.3134226374757235,0.11918263030624766,-0.0010814329307222543,0.03245809065621076,0.0014815874622006802
503,0.9851227904649199,0.042615261391172804,1,,0.9153240339905728,-0.31675330752452663,0.11888875174647419,-0.004073479834697373,0.02732886771325186,0.00019928158201165409
504,0.9860469368318632,0.04383904079751643,1,,0.9193302274083615,-0.3198101629124127,0.11952583527423903,-0.013039190605917676,0.023633323881140082,-0.004428275872110578
505,0.9871677422896369,0.04688496481558552,1,,0.9261875302001719,-0.3226510244551206,0.12089729174100958,-0.026717120213917124,0.021068712405654232,-0.011694675724075567
506,0.9883319199407135,0.05147731197666778,1,,0.9326194731409366,-0.3254918394344617,0.12231452013805261,-0.040023729476696565,0.01916069139645203,-0.018618407781001392
507,0.9893784011692675,0.05715688583337613,1,,0.9331091143682871,-0.3283320039872941,0.12437118509686437,-0.04814297222689184,0.02642527735285654,-0.020755050968921936
508,0.990166386441503,0.06333406743663905,1,,0.9335987555956377,-0.3311721685401265,0.12642785005567614,-0.05626221497708711,0.033689863309261055,-0.022891694156842477
509,0.9905982005364254,0.06935954567445504,1,,0.930884403945438,-0.33215736846674937,0.1287655675534732,-0.06241932295251057,0.03850178080170688,-0.016689264763719232
510,0.9906325338976627,0.07460200615921883,1,,0.9257917261239936,-0.33176562685087907,0.1313119105547654,-0.06711993692295128,0.04149308078341818,-0.004296735918486392
511,0.990286380310574,0.0785220886371251,1,,0.9210406114587482,-0.33136594152772475,0.13340548181564033,-0.07182055089339198,0.043791189961136553,0.007367942611836348
512,0.9896267527248815,0.08073336514703906,1,,0.9201591754394944,-0.3308762593954393,0.13036945668604055,-0.07652116485648945,0.0382359180021398,0.010786571265906016
513,0.9887552977613147,0.08104323655541656,1,,0.9192777394188636,-0.33038657726238885,0.12733343155169793,-0.08122177882693016,0.032680646034464696,0.014205199925316218
514,0.987789807885882,0.07946905377892204,1,,0.9196061547745462,-0.32845658292351004,0.12740846037632064,-0.08441410898562927,0.026622612874868966,0.006814453236068123
515,0.98684638733053,0.0762273747409874,1,,0.9207813755297514,-0.3255184778580874,0.1296609940942637,-0.08655075337365563,0.020212684524564477,-0.008142047050271451
516,0.9860250537177452,0.07169725291339146,1,,0.9216201915815044,-0.3230849829684184,0.13190418438979964,-0.08440617753199028,0.013598888540846002,-0.022323850381102375
517,0.9854003304569819,0.06636205437001505,1,,0.9192697091617225,-0.3254354653882004,0.13405879395636144,-0.04167331938964975,0.005052317273410989,-0.029161107539463625
518,0.9850172659235726,0.06073839410927754,1,,0.9169192267456123,-0.3277859478043105,0.13621340351955735,0.0010595386859341416,-0.0034942539806726972,-0.03599836468714381
519,0.9848924584892075,0.05530426318459991,1,,0.9166342387021963,-0.331375707131118,0.13671563237412196,-0.0010116988363779431,-0.006633370112241721,-0.03305081900506673
520,0.985019035186834,0.05043929372351478,1,,0.917711572119467,-0.3357828463285718,0.13612801381446143,-0.03263401224107249,-0.006205934689091542,-0.023649589860741674
521,0.9853740399127358,0.04638707506998037,1,,0.9190145623303299,-0.338588857716782,0.13566934507354747,-0.0578327369984679,-0.006622486119754179,-0.0156549861417956
522,0.9859263758057123,0.04324353396924369,1,,0.9221485116195726,-0.32840346116819336,0.13625696363320797,-0.03091103780490278,-0.013887071474436867,-0.019073615322698044
523,0.986643489755009,0.04096949463909778,1,,0.9252824609088154,-0.3182180646196046,0.13684458219286846,-0.003989338611337658,-0.021151656829119556,-0.022492244503600493
524,0.9874954884812122,0.03942184760288464,1,,0.9256977512978315,-0.3171552840935648,0.13767385679670996,-0.005537387516295635,-0.023144066711840324,-0.02854696122387514
525,0.9884562022607901,0.03839615802837066,1,,0.9244245613896204,-0.32175829614423873,0.13865321697224078,-0.024767172356560865,-0.021862081120006302,-0.036238875577175034
526,0.9895015720271988,0.03767266741787147,1,,0.9232485549013675,-0.3261426630036768,0.13919528372118334,-0.03912081982527237,-0.020686098476221222,-0.04244674796122945
527,0.9906063864576237,0.03705716621251515,1,,0.922758913674017,-0.3289828316470792,0.1366489325387512,-0.01903637795052765,-0.02025876967817796,-0.03817346158538836
528,0.991740741640971,0.036409289411540896,1,,0.9222692724474314,-0.33182300028604467,0.1341025813602969,0.001048063892841451,-0.019831440880802267,-0.03390017521622294
529,0.9928676237075926,0.03565420795321909,1,,0.9230777333727381,-0.33348865719356763,0.13242165743197537,0.007106922249348265,-0.021022449333007027,-0.023692988408409648
530,0.9939427190060203,0.0347784584911397,1,,0.9246447080173594,-0.3344680173690985,0.13124642440322434,0.004970279582919968,-0.023159092922075453,-0.01001847441260546
531,0.9949169517123355,0.033814681551844285,1,,0.9265774891004408,-0.3354744746308769,0.12992215993998604,0.0017695582135912932,-0.02517750537149871,0.0018234596849130943
532,0.9957414300587334,0.03282180952689013,1,,0.9307887718069543,-0.3366497117501979,0.1276696221279541,-0.008058999046825622,-0.02645949056218485,0.002250788282382415
533,0.9963736583942404,0.03186661000729905,1,,0.9350000545134678,-0.33782494886951886,0.12541708431592216,-0.017887556307242536,-0.02774147575287099,0.0026781168798517357
534,0.9967833492149099,0.031010325955204497,1,,0.9344700294404693,-0.3353335897810461,0.12499784196996182,-0.018337663456811613,-0.027092603893386042,0.0017262616451735136
535,0.9969562545789512,0.030301706964400064,1,,0.9313360392455269,-0.3308285059758423,0.12558546052962233,-0.013637048884649087,-0.02538328950350876,1.694733552580697e-05
536,0.9968952149324498,0.02977596471468246,1,,0.9289794290051084,-0.32680180685703386,0.1260684327123106,-0.010110564801144917,-0.024065351943184262,-0.0002573187276845776
537,0.9966187481277982,0.029458337533026294,1,,0.9309381779871,-0.3254306968866346,0.12597049628585352,-0.013101864978757196,-0.02492000913678777,0.007434595252566025
538,0.9961583268468244,0.02937057932632355,1,,0.9328969269721517,-0.3240595869140935,0.12587255985924345,-0.01609316516104244,-0.025774666331726412,0.015126509244832822
539,0.9955555728445101,0.029538341547316365,1,,0.9331109654909435,-0.32314080508628706,0.12861782891382337,-0.003295223787751663,-0.025783471633682626,0.01605160568468161
540,0.9948600427295158,0.029997126640595256,1,,0.932425406415174,-0.32245525010108744,0.1328290952514782,0.017643875650368828,-0.025356143638602693,0.013487634505018966
541,0.9941275797663461,0.03079461445750671,1,,0.9315926862241051,-0.3220313063747637,0.13597756516924792,0.03323221630322396,-0.024786128526730403,0.009924854981873036
542,0.9934187636119802,0.03198794107987266,1,,0.9300256706737838,-0.3229127342142545,0.13382295969325608,0.022121673972465266,-0.02350414213260062,0.0013782838347823876
543,0.9927968949194886,0.03363594798979696,1,,0.9284586551259105,-0.3237941620523683,0.13166835422063017,0.0110111316590633,-0.022222155740473534,-0.0071682872989569345
544,0.9923250721718176,0.035788241584648835,1,,0.9290703225947963,-0.3255998715522703,0.13149433733349866,0.00652607775196801,-0.02439694660888788,-0.011681952225647805
545,0.9920620870778553,0.03847435753662291,1,,0.9307352663905876,-0.3278524216360122,0.13227782874637933,0.005244091959560049,-0.028242903785537826,-0.014245923409315847
546,0.9920570328873446,0.0416964732803877,1,,0.9312818285240707,-0.32951915374023383,0.13185418925336062,0.00566616985597442,-0.03301835027956053,-0.01603532029825165
547,0.9923428212303781,0.045427659468784444,1,,0.9267767201754469,-0.32853977720242306,0.1259780036567556,0.01378541280674363,-0.041992250625842324,-0.014326006309522249
548,0.9929294081899182,0.0496152782679485,1,,0.9222716118268233,-0.3275604006646123,0.12010181806015058,0.02190465575751284,-0.05096615097212411,-0.012616692320792848
549,0.9937983134241013,0.05418692949750076,1,,0.9239692574524938,-0.32921045023670936,0.11759666992446709,0.035024936092018906,-0.0496437965334902,-0.01590841669769886
550,0.9949004354712416,0.059055255755189336,1,,0.9284743658011176,-0.3320506188801118,0.11661730565836625,0.05040876359517504,-0.04366119737236336,-0.021463688665373966
551,0.9961586849056094,0.06411846878954755,1,,0.9322133442880828,-0.3353121535475541,0.11567624768535308,0.0591068775377673,-0.038765026452028874,-0.026517531894381743
552,0.997475633500506,0.06925566119368066,1,,0.9328009751194534,-0.3403069072140984,0.1148927562724724,0.04030442165600449,-0.038337697252837734,-0.029508831474945166
553,0.9987449009812898,0.07431923090731653,1,,0.9333886059499057,-0.3453016608728399,0.1141092648608157,0.02150196580361459,-0.037910368054314164,-0.03250013105083562
554,0.9998641066252517,0.07912979164738522,1,,0.9325997686257892,-0.34616709918331856,0.11607865226833138,0.031527608982004206,-0.03958508776841705,-0.02017650307616681
555,1.0007471602125384,0.08347997674561068,1,,0.9312286300192582,-0.3452856713438278,0.11921261791985407,0.05374869524811311,-0.04214905855093721,-0.0013740459909603493
556,1.0013342208545604,0.08715118456975901,1,,0.9309879859400274,-0.3430682078774167,0.12201771453913313,0.07453481448185632,-0.04650673790813578,0.015545017532932925
557,1.0015983649035813,0.08994187418152541,1,,0.935003371249901,-0.3358209041271305,0.12358470145546446,0.08991864158386458,-0.057617281843486,0.02537357507415336
558,1.0015484883513637,0.09169986421473388,1,,0.9390187565597744,-0.32857360037684435,0.1251516883717958,0.10530246868587283,-0.06872782577883622,0.03520213261537379
559,1.0012280917348666,0.09234752146255121,1,,0.9426123456209745,-0.3244165449007579,0.12475259176379365,0.0928066628983591,-0.05992432700220226,0.03461353714961039
560,1.0007095438340181,0.09189016515366097,1,,0.9460394748909187,-0.32147904058152577,0.12357759003610079,0.06930829813731684,-0.043261849945588786,0.029913863876547916
561,1.0000835834063277,0.09040438062137195,1,,0.946882120874262,-0.3187824623912732,0.12268731810697632,0.05240404617124654,-0.03042204680529486,0.02607429229969843
562,0.999444551571832,0.08801118757795466,1,,0.9387550092447464,-0.31692204708174987,0.12278523491746442,0.058385449457414355,-0.03084928961068718,0.025219806287846258
563,0.9988732193660128,0.08484473789823967,1,,0.930627897602535,-0.31506163176932017,0.12288315172810549,0.06436685275292622,-0.03127653241674693,0.02436532027465922
564,0.9984206524288423,0.08102771746685376,1,,0.9288653838089567,-0.3139878484208174,0.1254839949408327,0.06535575267564327,-0.028271430600275357,0.02226270878441654
565,0.9980974493236003,0.07666062328687984,1,,0.929452876492384,-0.3132045139369125,0.12900899602865384,0.06450126586165604,-0.023999000942082026,0.019699250748860024
566,0.9978720720154753,0.07182641917045215,1,,0.9319664240486656,-0.3121195088140136,0.13179142518286405,0.06425429719248073,-0.02327042180696407,0.012478160527455307
567,0.9976797328302461,0.06660711148462076,1,,0.9406810283752222,-0.31006325579055116,0.13218309651517904,0.06596327202632754,-0.033951495969133216,-0.009738474211137552
568,0.9974401436313738,0.06110543510729692,1,,0.949395632688165,-0.30800700277030096,0.13257476784688213,0.06767224685750461,-0.04463257011461654,-0.031955108915023914
569,0.997079557891459,0.05546340931997132,1,,0.9486442337493393,-0.3121400565328785,0.13405867032520272,0.050635892503306634,-0.03116712404553201,-0.0373327224499773
570,0.9965510734742524,0.04987054652575712,1,,0.9446296526925566,-0.31840672832415634,0.13591909381713374,0.027137526539061787,-0.009377732714600209,-0.03690547924285001
571,0.9958477448623541,0.04455814115071671,1,,0.938727905213377,-0.32322739519535804,0.13672564652730584,0.010162434480497471,0.00877573592768897,-0.034339457968839644
572,0.9950055042112511,0.03978104449475941,1,,0.927173705198728,-0.32371697924856335,0.1343756389821695,0.012725892520058584,0.016038866638711263,-0.025367355431977046
573,0.9940962553947598,0.03579226887686866,1,,0.915619505184079,-0.3242065633017687,0.13202563143703314,0.015289350559619698,0.023301997349733553,-0.016395252895114447
574,0.9932144123495237,0.03281705391990346,1,,0.9210384905638013,-0.32425143604694456,0.12930503423526837,0.012031546900724504,0.02021621896744415,-0.013891218415675732
575,0.9924613558012461,0.03103191164738375,1,,0.9319072892629656,-0.32415351923630353,0.12646544672667734,0.006904630941922536,0.013807574470142667,-0.013463975208548445
576,0.9919313546800351,0.030551856864072958,1,,0.9382073968422631,-0.3242362844431347,0.12499388020751895,0.006057462751184276,0.011340802597153558,-0.01697860494290813
577,0.9917003190184853,0.03142633390470655,1,,0.9317448546219469,-0.3248237853069811,0.1273438836629046,0.017165780401227976,0.019885661525821337,-0.03150486636495271
578,0.9918169853475302,0.03364156332059868,1,,0.9252823124117265,-0.3254112861699097,0.12969388711461918,0.02827409803391843,0.028430520441140462,-0.04603112776430458
579,0.9922958471402339,0.037124883615168726,1,,0.9260602779055971,-0.3277334954196454,0.1290270228563721,0.018978869883991778,0.02677360735026635,-0.03817930681365084
580,0.9931119900362502,0.04174661741761454,1,,0.9289977822248291,-0.3305730951974885,0.12746035388611496,0.00359812244876016,0.02207393487933894,-0.02365304539160626
581,0.9941989039462099,0.047317831726676335,1,,0.9299830099497011,-0.3317857966802302,0.1244565962980651,-0.010836137032588244,0.021870079332895448,-0.006523942823760975
582,0.9954507103139765,0.05358657634636382,1,,0.925870479364272,-0.328750363281105,0.11770033227408057,-0.022798940014004176,0.033405640310386696,0.01740166354013842
583,0.9967301563697691,0.06023771899532484,1,,0.9217579487788431,-0.3257149298819798,0.11094406825009602,-0.034761742995420106,0.044941201287877944,0.04132726990403782
584,0.9978832757980644,0.06690064378088453,1,,0.9281567717751911,-0.3274364554429813,0.10856111979278586,-0.024964140793677314,0.05379855858991555,0.04081426703153925
585,0.9987604310809274,0.07316614142833903,1,,0.9374589096835995,-0.33047188884210643,0.10738611397534233,-0.009156151033666987,0.06191617591572618,0.03355113652105073
586,0.9992412486605673,0.07861145604011353,1,,0.9463347657241572,-0.33308104749509165,0.10714890452813469,-0.0032679214170395596,0.06556990042856116,0.03062790082448678
587,0.9992583255249602,0.08283184684258181,1,,0.9541681105632056,-0.33464771237315066,0.10920516163813558,-0.021639369990046467,0.05830676792408133,0.03831827372795373
588,0.9988129785465446,0.08547717608037782,1,,0.9620014554144912,-0.3362143772536571,0.11126141875134873,-0.04001081859175298,0.05104363540825513,0.04600864664343447
589,0.997977171498912,0.08629142405135592,1,,0.9440075141546791,-0.32475036363277615,0.10574895242048779,-0.03863549890876222,0.050589734746088674,0.06152963328223833
590,0.9968795600871239,0.08515124207341411,1,,0.9194303620041592,-0.30996491297982015,0.09830726664389039,-0.03222685361933716,0.051871463964400705,0.07904659351720136
591,0.9956791622122185,0.08209759533409106,1,,0.9094760312293766,-0.3022233777730153,0.0943429581196241,-0.026855672893632606,0.0426488676321668,0.08709669365287806
592,0.9945346610712141,0.0773537357168031,1,,0.9330740153118798,-0.31064422757789806,0.09835755144565868,-0.023864972449079275,0.009323915925345047,0.07342492065042573
593,0.9935778873784559,0.07132422026887436,1,,0.9566719993575189,-0.31906507736962586,0.1023721447654217,-0.02087427200919797,-0.02400103572941695,0.059753147669331236
594,0.992896303059039,0.06457304249622263,1,,0.9480614901229978,-0.3212187655844627,0.1085286782619313,0.012231265377382618,-0.03551869356839756,0.03292776639704158
595,0.9925244374382871,0.05778234812046834,1,,0.9319051754697144,-0.3219041832589502,0.11518702547527473,0.05239210639290327,-0.04192733886783412,0.0030207579408329088
596,0.9924419664395387,0.05169493504747849,1,,0.9207437807458735,-0.3215658008943579,0.11979776871476852,0.06940483683032789,-0.044139542960439385,-0.01510914185321423
597,0.9925773040211125,0.04704393597366232,1,,0.9203521053238078,-0.3190199679074407,0.11999360233605068,0.03650712672636329,-0.037303655256010614,-0.007846011033903704
598,0.9928178115490691,0.044473783163439105,1,,0.9199604299017423,-0.31647413492052356,0.1201894359573328,0.0036094166223986906,-0.030467767551581846,-0.0005828802145931794
599,0.9930282624468909,0.04445933454618158,1,,0.9278741302978004,-0.31626668870994384,0.12707791643508098,-0.007122777958112233,-0.03137221723105469,0.0035137482519088997
600,0.9930771975714578,0.04723381269754236,1,,0.9375679436282744,-0.3165604350521164,0.13540084942932262,-0.013104179649353967,-0.03393567366634567,0.006931691995835051
601,0.992867359608515,0.052738178489630416,1,,0.9454514103863455,-0.3140740228896076,0.1400384533331597,-0.01823925070930616,-0.03170325764984166,0.0011810542013692288
602,0.9923633502869804,0.060603150187965506,1,,0.9496618496029143,-0.3059469235166481,0.137198861734818,-0.02165719436098678,-0.01974045527002703,-0.02317179657286006
603,0.9916086251643067,0.07017083789409567,1,,0.9538722888129055,-0.29781982415638464,0.13435927014091223,-0.025075138007327937,-0.007777652908900515,-0.04752464730904568
604,0.9907256730891432,0.08055702481583825,1,,0.941285492473812,-0.30698152314035826,0.12938930955106465,-0.033855875856121355,-0.0008201239272152485,-0.06758726225572256
605,0.9898973586893415,0.0907482462014904,1,,0.9254229037139479,-0.3195148789921659,0.12400388496580578,-0.04368246440617099,0.005161277964560252,-0.08681319654976209
606,0.9893326617060295,0.09972100103343877,1,,0.9148067085511087,-0.3229007166719594,0.12315858819689311,-0.05703083994971156,0.005566516853407226,-0.10031622585682966
607,0.9892246871912401,0.10656533949044346,1,,0.9142192158667636,-0.30880068776014397,0.13099193713792942,-0.07711125985587058,-0.004687314903769698,-0.10287968108891803
608,0.9897112196451959,0.11059330604159041,1,,0.9136317231824186,-0.29470065884832847,0.13882528607896572,-0.09719167976202961,-0.014941146660946621,-0.10544313632100641
609,0.9908473611359351,0.11141503775646762,1,,0.9256968137449356,-0.2968325530341208,0.13983290708625387,-0.07078177874242127,-0.030279856562695558,-0.10001607018653455
610,0.9925961363662493,0.10897142412859888,1,,0.9399927008165374,-0.30182632264606746,0.1396370734649717,-0.03617509741421766,-0.04651508920897914,-0.09318018288317333
611,0.9948376394448495,0.10352076178269579,1,,0.9471973625119878,-0.31034749330251,0.13783457366426285,-0.01376261475229902,-0.05253845209989995,-0.08512549805227626
612,0.9973923085030569,0.09558545220212089,1,,0.9416170262977508,-0.3252283285379524,0.13313536382856223,-0.013335444402428445,-0.04015050714165911,-0.07487340404138924
613,1.00005109862045,0.08587106387028051,1,,0.9360366900747961,-0.34010916379664147,0.12843615398552055,-0.012908274051890553,-0.027762562164066005,-0.06462131001448658
614,1.0026053692692183,0.07517273638958472,1,,0.9365395421769376,-0.3413029488339299,0.12449733209653886,-0.018748127200797413,-0.024222179814637593,-0.056949758230869514
615,1.0048713916653869,0.06428315240769537,1,,0.938008086141165,-0.3403239467848256,0.120679220015975,-0.02558285560572321,-0.02208632726328569,-0.04968786148107073
616,1.0067070050548095,0.053913219256606144,1,,0.9396211945183238,-0.34006790267037545,0.11772865896267783,-0.028632182563367886,-0.02137000044040889,-0.03927146276958828
617,1.0080200088146654,0.044632562083627585,1,,0.9414812657020711,-0.3410469047210091,0.11626015588672732,-0.02521481855606619,-0.023078683045559014,-0.02346615366439363
618,1.0087690618698737,0.03683322442082363,1,,0.9433413368829123,-0.3420259067701134,0.11479165281307088,-0.02179745455410305,-0.02478736564803986,-0.0076608445838897985
619,1.0089583787773475,0.030717295959046268,1,,0.9450300420718726,-0.33803384514472773,0.1149516028036885,-0.01202256288828102,-0.022756325646805686,-0.0041966179382946335
620,1.0086277214820492,0.026307409209833026,1,,0.9466943700922924,-0.33333463939074315,0.11534320362394196,-0.001343299713839008,-0.020193302340579776,-0.0024879358945438346
621,1.0078393911937369,0.023477583297779346,1,,0.9461913316562284,-0.32818701283700924,0.11637005905957377,0.0018357178638414584,-0.014532351556079981,0.0029708690131067055
622,1.0066642632998732,0.02200022711393229,1,,0.9421773905361736,-0.322312992355093,0.1184259592768474,-0.0071348631064499495,-0.003853088381637969,0.014504473329723974
623,1.0051692910594525,0.021603022179860064,1,,0.9381634494161187,-0.3164389718731767,0.12048185949412103,-0.016105444076741356,0.006826174792804044,0.026038077646341244
624,1.0034090198513517,0.022027095489038993,1,,0.938843673036796,-0.3175192086091205,0.11940835285968988,-0.025076025389077085,0.0053679673579327845,0.02770998680135699
625,1.0014231062814714,0.023076198218518397,1,,0.940116392058848,-0.3194772086213307,0.11793985387279646,-0.034046606760368005,0.002377773741268934,0.02813715715189488
626,0.999240465704106,0.024646809865778562,1,,0.9410032298395067,-0.31939004127762305,0.11774476137076768,-0.03510367688200599,0.00022944295288309058,0.027554092171721993
627,0.9968888271267242,0.026732125253859096,1,,0.9412969468109254,-0.316159338599589,0.11950696506190832,-0.023997242555027047,-0.0006248981090922609,0.025418239617033492
628,0.9944068722864445,0.029398546003795045,1,,0.9415906637818852,-0.3129286359266019,0.12126916875029604,-0.012890808245398414,-0.0014792391697329734,0.02328238706568159
629,0.9918553873617071,0.0327401323369037,1,,0.9383584494146905,-0.30987422613375587,0.1216210035877341,-0.010246008425427847,0.004589574509244351,0.01576185848903482
630,0.9893241451267928,0.03682235009059883,1,,0.9347361581835743,-0.3068393197767914,0.12181680808691793,-0.008537326622276757,0.011424302844647355,0.007645618500518861
631,0.9869323423459586,0.041629445867202436,1,,0.9312730866074704,-0.30583463354869367,0.12368455690767512,-0.012213230482811739,0.018432727455771777,0.0012663418126093804
632,0.9848219037051932,0.04702893749012947,1,,0.9280423634841509,-0.307792637649961,0.1279921659304633,-0.02374683395733002,0.02569462622191258,-0.00257819282592987
633,0.9831443856688933,0.05276235752102621,1,,0.9248116403608313,-0.3097506417512284,0.1322997749532515,-0.0352804374318483,0.03295652498805338,-0.006422727464469121
634,0.9820433146038711,0.05846499699208623,1,,0.9214915563109125,-0.31063622135208574,0.12945791220499503,-0.03823528525577621,0.04294802834020029,0.0006511547183708728
635,0.9816345408769523,0.06371091765776675,1,,0.9181629411606439,-0.3114194189035356,0.1259335048227138,-0.040371137810464704,0.053200121164104414,0.008767394586586976
636,0.9819876041427553,0.06807452613972247,1,,0.9190192110056405,-0.3098229720697543,0.12281937924147159,-0.05163701469470399,0.04769844692271358,0.009006751174233968
637,0.9831110921335161,0.07119719903759276,1,,0.9256764004052073,-0.3049279577351757,0.12027396982474332,-0.07555856471344355,0.020359533303010394,-0.0016725115825255397
638,0.984944420658549,0.07284667879544127,1,,0.9323335898151737,-0.3000329433929502,0.11772856040403865,-0.09948011476955301,-0.006979380359401238,-0.012351774355968036
639,0.9873574833774589,0.07295794888117065,1,,0.9306566892032667,-0.30464973025158176,0.1190784607312053,-0.08387494245276635,-0.0023016490667398808,-0.027378978093184833
640,0.9901586050557859,0.07164715062815888,1,,0.9283071169978732,-0.31003424561071247,0.12074276421468262,-0.0650794394394703,0.004960250089056007,-0.04275711830751631
641,0.9931104972804052,0.06919496440229697,1,,0.9285769249177713,-0.3147850322377659,0.12084387449360962,-0.05070818829926014,0.007797897094173607,-0.04983978514721989
642,0.9959533558135947,0.06600199434920472,1,,0.9322971081758367,-0.3187010404403006,0.11888587039234226,-0.042164777679506625,0.004807703236910045,-0.045995249586381744
643,0.9984334523011643,0.06252435922439459,1,,0.9360172914280906,-0.3226170486367178,0.11692786629413367,-0.0336213670730995,0.0018175093843177201,-0.04215071403154948
644,1.000334342219906,0.0592013636528406,1,,0.9420327286420223,-0.3256149820992906,0.11845858991946231,-0.029083866790745573,0.004034998288786527,-0.04070972519961883
645,1.0015063942099411,0.056388288677063914,1,,0.948200457917243,-0.3285520005183629,0.12022079361060294,-0.024812162082368094,0.0065980213945126785,-0.03942821374700564
646,1.0018893610893915,0.05430627897747289,1,,0.9498039864249219,-0.3319671660356474,0.12141790759216162,-0.012005415936342688,0.009540379602297408,-0.03283600968982069
647,1.001522830747957,0.05301850299141975,1,,0.9456921941684888,-0.33598107035418834,0.12190741270653556,0.011488962566230323,0.012957743609599103,-0.01959372308885291
648,1.0005410268049442,0.05243748626167788,1,,0.9415804019120556,-0.3399949746727294,0.12239691782090951,0.03498334106880333,0.016375107616900798,-0.006351436487885131
649,0.9991514661597712,0.05236275121635785,1,,0.9326310531180633,-0.33368268518444055,0.12121189787983465,0.05523040267790179,0.010862348071726613,0.008920423042142895
650,0.9976007251344217,0.052541014419314566,1,,0.9234283847734215,-0.3268296626518906,0.11993919112495377,0.07530741797517214,0.004881960958698767,0.024298561556199944
651,0.9961339071875486,0.052734875062727615,1,,0.9203927821099173,-0.32252389931855185,0.11777271238884697,0.07842018591743831,0.002606409168797707,0.03402195137292579
652,0.9949561599297243,0.052782885316625706,1,,0.9247003993040904,-0.32125119665471624,0.11454200562680278,0.06133336390262502,0.004742261720149609,0.03701214502501836
653,0.9942039948493523,0.05263608211521603,1,,0.9290080165049929,-0.31997849398889244,0.11131129885971164,0.04424654186111895,0.006878114274838107,0.04000233868178216
654,0.993931380181918,0.05236298980286384,1,,0.9318076599515644,-0.3228527407984965,0.11100230649576283,0.03168334510641538,0.009425205334036285,0.03888014767949275
655,0.994111699960323,0.05212394418537575,1,,0.9345488820495672,-0.3258876471554609,0.1108065060856361,0.019295400930821313,0.011988228439762437,0.03759863622687955
656,0.9946530711784659,0.05212302037106602,1,,0.9377491922030565,-0.32575484781277964,0.11102388492960727,0.02153045772016411,0.009743689375545992,0.031309247466803455
657,0.9954221122633715,0.052549888122073896,1,,0.9414694163516929,-0.3220346441094288,0.11170918636505085,0.04032595996082319,0.0020546200583675405,0.019348472960048102
658,0.9962703503903203,0.05352438677547583,1,,0.9451896405003293,-0.31831444040607787,0.11239448780049442,0.059121462201482275,-0.005634449258810912,0.007387698453292748
659,0.9970579234903847,0.055054571031326556,1,,0.941367768534106,-0.3227091027467936,0.11164775475532421,0.029595747135130697,6.472921565580989e-06,0.021253781402875135
660,0.997670766036087,0.057015912594646195,1,,0.937353827414051,-0.3273104205628861,0.11086455311481724,-0.0011605297325835903,0.0059868604355929455,0.03577757841385736
661,0.998029617199591,0.059156110651567256,1,,0.9357906216147488,-0.3254079395839851,0.11055264067149471,-0.0060063121154361595,0.005592443469063892,0.04742243201573181
662,0.998091374401398,0.061126221418558696,1,,0.9368675565812203,-0.3164990127590218,0.11074844108131558,0.017060896401563223,-0.0016694556867319964,0.05596584262213893
663,0.9978449505032276,0.06253398738136037,1,,0.9379444915493741,-0.30759008592014114,0.11094424149144233,0.04012810495459786,-0.008931354853872316,0.06450925324189245
664,0.9973045101080805,0.0630100609198719,1,,0.940084642431819,-0.30457962312590303,0.11471697853795852,0.050537231758974815,-0.023363187759217658,0.050694772274374626
665,0.9965027273563245,0.06227422439772301,1,,0.9422381111382103,-0.30164304441237383,0.11853452023557497,0.060787803596695465,-0.03788483112916523,0.036600236699153806
666,0.9954857984829515,0.06018829918010377,1,,0.9417830907878646,-0.30044547319680825,0.12017830760499464,0.06366130970063824,-0.038284662706194544,0.021873380527565763
667,0.9943108151651183,0.0567853832452746,1,,0.9386507652310372,-0.3010327873050513,0.11959099349675155,0.05896313116822521,-0.02419012630707537,0.006497522145554791
668,0.99304517803859,0.052270356736679804,1,,0.9355184396791032,-0.3016201014123769,0.11900367938942595,0.0542649526431516,-0.010095589929974473,-0.008878336212436243
669,0.9917671371605596,0.04699275287314158,1,,0.9378641519578242,-0.30240306819247764,0.11919893919640327,0.03932284391308,-0.0015498486372117987,-0.01272977377318667
670,0.9905661331436239,0.04139858179233452,1,,0.9402134165676977,-0.30318616184703634,0.11939470647736702,0.0243740923241129,0.006992294440586469,-0.016573738118101887
671,0.9895412612725909,0.03597127417274491,1,,0.9405845546267828,-0.3048594083154947,0.11543640862873786,0.012014704709715681,0.010355710919247963,-0.017828339012195712
672,0.9887960957316837,0.03117290579833009,1,,0.9390183918483691,-0.3074044361178815,0.10740977962083341,0.0021912402504356814,0.008647282343782314,-0.016547017229773937
673,0.9884286760916966,0.027395286540005153,1,,0.9374153698956444,-0.3099147734440712,0.09949914695610376,-0.007296381219799982,0.006891551937998232,-0.015289346371392147
674,0.9885168161994828,0.024926960543372987,1,,0.9325210447834248,-0.3093274593367456,0.10194629193187588,0.013204761653761226,0.0009120518329745351,-0.016143561158965584
675,0.9891007325889903,0.023937680737162445,1,,0.9276267196635594,-0.30874014522850246,0.10439343691147088,0.03370590455934902,-0.005067448281390248,-0.016997775947873463
676,0.9901666730162989,0.024477728545699108,1,,0.9274382869666518,-0.3076468222504042,0.10709358590329968,0.034998557772824554,-0.007955927,-0.018735139588562485
677,0.9916360853647367,0.026486883034387468,1,,0.9316473877562879,-0.3060806472090853,0.11003016052837833,0.01834137935845559,-0.007955927,-0.021297782748462668
678,0.993364493069467,0.02980786067778975,1,,0.9356690339421349,-0.3046081990976694,0.11280829213921695,0.0016549894335460944,-0.007868292640591334,-0.023636471416790625
679,0.9951527207182715,0.03420136313943418,1,,0.9316556881615352,-0.3071532309885068,0.10879497497777182,-0.016283511831710354,-0.004024328295676119,-0.016375649199252034
680,0.9967709237882307,0.0393627486345732,1,,0.9276423423809358,-0.30969826287934415,0.1047816578163267,-0.034222013096966805,-0.00018036395076090193,-0.009114826981713443
681,0.9979934020707146,0.04494181216347298,1,,0.935789863884455,-0.31312300962999795,0.10552917822901091,-0.043580333721421526,-0.006271344607291035,-0.009982597091173523
682,0.9986394027175678,0.05056656772131914,1,,0.954779735779056,-0.31733208998395623,0.11052135223752788,-0.04528876209641715,-0.02122009439202794,-0.01809763369667995
683,0.9986121588336463,0.05587018616025443,1,,0.9726308483280708,-0.3212607052247767,0.1154290485761694,-0.0468644933726718,-0.034974570502628595,-0.026035740828432567
684,0.997926366261458,0.06051878407424491,1,,0.958633179083008,-0.31734528193105654,0.11797407637458034,-0.044728956804678255,-0.01532764201570078,-0.029025490580239385
685,0.9967150537518418,0.06423737266252944,1,,0.9446355098160784,-0.3134298586312198,0.1205191041769671,-0.042593420233348604,0.0043192865019191775,-0.032015240336716745
686,0.9952113064890303,0.06683165987399521,1,,0.9350810837179899,-0.3104136600119754,0.12063092980663197,-0.05615236500535627,0.01658057740304914,-0.02577294281258849
687,0.993707186821079,0.06820356013414977,1,,0.9293058201523868,-0.3081622892672273,0.11867321611554663,-0.08306011678101805,0.022560077307602816,-0.01167840635529958
688,0.9924985384332714,0.06835770655825421,1,,0.9238293126548102,-0.3055171026244819,0.11713195119160363,-0.10619541067839657,0.02686073475626102,0.0015668333065768658
689,0.9918278561811594,0.06739606491923111,1,,0.9245144960939581,-0.2947496650413399,0.12417972866742207,-0.05152569385785553,-0.0034638730095468157,-0.0027042385129802983
690,0.9918374917298656,0.065499790647132,1,,0.9251996795320354,-0.28398222747501867,0.13122750613223055,0.0031440228772812847,-0.033788480727982,-0.006975310325865257
691,0.9925427792837924,0.06290172354826898,1,,0.9285870461044748,-0.2875902976185282,0.1341679905267074,0.03423292435040385,-0.04289035552228556,-0.011717998443516344
692,0.9938301542854713,0.05985635288970626,1,,0.934166554663488,-0.30286047669820065,0.13377643961097743,0.046191924980073455,-0.03477532023988127,-0.016843284570853333
693,0.995479989421941,0.05661372160693267,1,,0.939592860423162,-0.31739869271135396,0.13324871041248276,0.05701205501701725,-0.026387946278026986,-0.02179526425755661
694,0.9972088067563699,0.053400185624150984,1,,0.9425294309643775,-0.32004160210999727,0.13050791532913225,0.04932412672812686,-0.013574731019825514,-0.023930799626066136
695,0.9987218990902245,0.05040548385403325,1,,0.945466001505593,-0.32268451150864064,0.12776712024578174,0.04163619843923647,-0.0007615157616240419,-0.02606633499457566
696,0.9997659715100137,0.047774384956931856,1,,0.9470228039666595,-0.3242236087478903,0.1250815112793667,0.037801311042279476,0.011088438646214284,-0.016642744781181135
697,1.0001722083128348,0.045601797254563106,1,,0.9475122323901953,-0.32490880854084053,0.12243859370382212,0.03694709545149152,0.02219322464735203,0.001722863156837174
698,0.9998825950873099,0.043931051201972895,1,,0.947776545662091,-0.3248845578293992,0.1199457524211654,0.03424744844842377,0.03195858451492704,0.01967176076243355
699,0.9989556750231101,0.0427551673529702,1,,0.9450357301407691,-0.31538964233918465,0.11945632399839407,0.006912591283675487,0.02384354844331986,0.0320578687672077
700,0.9975516414489665,0.04202055362293941,1,,0.9422949146151655,-0.30589472683413726,0.11896689557485816,-0.020422265923774906,0.01572851235903549,0.04444397679133125
701,0.9959002870650318,0.041632480695440184,1,,0.9379766426287136,-0.30107588718580147,0.11988592537901326,-0.01580025195844881,0.009580053169992005,0.03986836016992795
702,0.9942582976893257,0.04146227603824939,1,,0.9324950524705758,-0.2997054876020417,0.12184364315854922,0.012388820795752983,0.004881874685012404,0.02278407335942216
703,0.9928641409791756,0.04135720186590547,1,,0.9273880109535351,-0.298629947177581,0.12359416274642313,0.037378870095648636,0.0007052760689639977,0.005456382544714944
704,0.9918989938371364,0.041154625574039226,1,,0.9265070316142693,-0.30088132610274754,0.12300684863818004,0.026274083052066775,0.0024137046444296473,-0.014617654690461094
705,0.9914607127132011,0.04070146285638574,1,,0.9256260522750033,-0.30313270502791395,0.12241953452993692,0.015169296008484916,0.004122133219895297,-0.03469169192563713
706,0.9915550133077011,0.03987777615947632,1,,0.9298038282588761,-0.3072236230447865,0.12160227503440596,0.01685679182241258,0.0043255875389732355,-0.04372925011508633
707,0.9921043057249445,0.03862065117679695,1,,0.9375368055276448,-0.3126073357036816,0.12062341409888352,0.0275344714715405,0.003471373311381417,-0.04501057149656806
708,0.9929708092151076,0.036942414869532876,1,,0.9445222181590268,-0.3175260986773807,0.11942575369228521,0.035825413259817446,0.0033729593587379595,-0.044859850173413915
709,0.9939876139796995,0.03493717618200645,1,,0.9442285856360675,-0.3179176414155978,0.11609764041744013,0.02087666208311491,0.010633781043711748,-0.030765313194902957
710,0.9949901583660811,0.032772128684671824,1,,0.9439349531126497,-0.31830918415442655,0.1127695271373959,0.005927910883059656,0.017894602740028284,-0.016670776194373717
711,0.9958415112588277,0.030664305209701714,1,,0.9421168362699267,-0.3154758976619229,0.11278350960618698,0.0024917812056239313,0.021062048166939105,-0.01050715664644578
712,0.9964474247283863,0.028847583283857548,1,,0.9392781432409517,-0.31048372774965527,0.11503488035093512,0.006762852749879061,0.021489155560725823,-0.009652942660752428
713,0.9967602913843712,0.027536859551370068,1,,0.9367268487468313,-0.30669246556018637,0.11716308103157907,0.010272563494522614,0.021647547308185355,-0.009112230128751527
714,0.9967738306834472,0.02689603436081223,1,,0.9366289712390254,-0.3131529166624098,0.11823982356335809,0.007282813457387224,0.019512011137795743,-0.011247765697731074
715,0.9965118835999259,0.02701476605977553,1,,0.9365310937313723,-0.31961336775454086,0.11931656609345503,0.004293063424922378,0.017376474970742236,-0.013383301263374517
716,0.9960150341977609,0.027897021988796403,1,,0.933982418137187,-0.3203948118598291,0.11907819282254721,0.007302314133184976,0.01602351648106547,-0.0032602350817326066
717,0.995328307707025,0.029462657054022564,1,,0.9298715771543349,-0.3175563950626983,0.1180015504178157,0.014135393243766494,0.015169381527096081,0.014676597348013506
718,0.9944924256351935,0.03156135104395668,1,,0.9269906382116144,-0.31491157243666357,0.11761957161869438,0.019030593190262544,0.013420840837900017,0.031222131978772924
719,0.9935401709041973,0.033996111541403105,1,,0.9334505253445669,-0.3137370534496837,0.12251340481918079,0.009208041941239545,0.004879492100011655,0.03720107665655864
