id,ASVM,GSVM,walking_nonwalking,normal_abnormal,ax,ay,az,gx,gy,gz
1,1.5062700628947971,0.03764191405531029,1,,1.3852539858157475,-0.5273437922226245,0.26446533729663035,-0.002130529,0.0,-0.020240024
2,1.4075046279484065,0.6069592666593463,1,,1.2066315678766257,0.06103039171743572,0.17771681107209403,-0.3942031100333669,-1.2561548120346457,-1.0118410888072775
3,1.3144438634211149,1.142240648793056,1,,1.0874204203672637,0.21857536869820612,0.005644527670021165,-0.2768802895730217,-2.365985964028222,-0.9269582570419843
4,1.2321633175697495,1.6154698506842813,1,,0.9762653786487722,0.31770036832693876,-0.1779975626031372,-0.09048400454394272,-3.4559757700157387,-0.6961053728390268
5,1.1642813939322638,2.0053570303122417,1,,0.8693530298005121,0.3423681711079677,-0.39633784843786757,-0.33700699125511635,-1.9175189757052147,-0.4311338780838347
6,1.1125766904685181,2.2990716150606176,1,,0.7629556808453345,0.3579980021365302,-0.6188899644889047,-0.6360797905809448,-0.06000875717310759,-0.16202090657211352
7,1.0769333934121128,2.492709698357121,1,,0.859734179925396,0.30196020226929793,-0.5185882403128788,-1.6673679309542393,0.545404781612814,-0.26835610584061553
8,1.0555947251786293,2.590772081324477,1,,0.9882115666811752,0.2347410328675873,-0.36791582700136966,-2.812894125741362,0.9554699591520512,-0.4332676040373566
9,1.0456472031851805,2.605009436642137,1,,1.0101533551039865,0.4139209322930007,-0.0848535547895152,-1.8969214965546313,1.9272776445947024,-0.8500092914509575
10,1.043622435974523,2.5528584310028535,1,,1.0253039867669087,0.6088076475972747,0.2066479690792833,-0.8495377353920063,2.934893858171372,-1.282804006982214
11,1.04609030174131,2.455535032458542,1,,1.0405651261459832,0.6519072411605993,0.26536959883081895,-0.06058377905110415,2.5171771269490226,-1.0465560346069267
12,1.0501282553760254,2.335817275187279,1,,1.0558416993000883,0.6738079146903995,0.2915806815335728,0.6922773091052677,1.9003952906684647,-0.7168681024366504
13,1.0535873824010211,2.215644686621344,1,,0.8627562998981118,0.5800049048528552,0.19882944685859133,0.828151539446327,1.5421176496335482,-0.38921164659430696
14,1.0551336807420586,2.1137951106041726,1,,0.6590961425371924,0.48032971753362985,0.10004065290670576,0.9327125289810683,1.1969595855464075,-0.06165829628472829
15,1.0541078032300666,2.0439750098993223,1,,0.7551927489731313,0.4758301050817558,0.1954461347912963,1.1966092339408676,1.1311048012268836,0.01072315206932096
16,1.0502920114451275,2.0136273341849797,1,,0.865460944405786,0.4758301050817558,0.3000325315541518,1.4680388446069714,1.0784546293600041,0.07104084620755376
17,1.0436794550653115,2.0236337108436606,1,,0.915282922493033,0.384153527952894,0.1639642892634619,1.6336858969015402,-0.043123082937793746,0.41518938896655405
18,1.0343122665533218,2.0689163988539536,1,,0.9561422488991684,0.27888362124028726,-0.007786979238816702,1.7836480609270653,-1.3231958533366521,0.8014229054590782
19,1.0222145086670604,2.1397845600450487,1,,0.9537736042787999,0.20031637766338228,-0.1791700068489097,1.373852740585416,-1.8293810917264623,0.7021611272920739
20,1.0074130340227887,2.2237567154933515,1,,0.9463919243664863,0.12484577131596475,-0.35051033291180106,0.8991437963559924,-2.2458206148519495,0.5465977223723973
21,0.9900177737621676,2.307547339321589,1,,0.9909828635168103,0.060323081899139326,-0.4432901138375429,0.5906717767166701,-2.290876011842513,-0.05821026894667574
22,0.9703204159187268,2.3789306523198395,1,,1.0411325524423334,-0.0030286693056201207,-0.527667424205359,0.29997968528803937,-2.2962098893170064,-0.7110673735091658
23,0.9488689821951182,2.4282632813614313,1,,0.9029966966828655,0.06827730616466544,-0.3300382683408426,0.08134521366324607,-2.312213009395478,-0.8784138935241064
24,0.9264906150246786,2.4495218007197606,1,,0.7453675679642977,0.15352444688954764,-0.10321287728070662,-0.12982910185123622,-2.3293207200438903,-0.9954953136636697
25,0.9042631861981067,2.4407678853963417,1,,0.6461676544370722,0.2732493126826907,-0.2524383537300471,0.5951243611974086,-2.6811973317048055,-0.38327423455706405
26,0.8834613480648152,2.403996809052316,1,,0.5524925190973752,0.3962342242074973,-0.4372213539048359,1.4085934752750855,-3.0647280497598177,0.2979061122383657
27,0.86550442042521,2.34438008592661,1,,0.717877572312223,0.3437165691273329,-0.5251846869285796,0.5008349700465868,-1.769270866463378,0.954022436077143
28,0.8519090132288858,2.26900778873477,1,,0.9068415771388455,0.27522515004065096,-0.6043357600273631,-0.5635849747490325,-0.3209967818382629,1.6078575100891865
29,0.8442188824780871,2.185363138056107,1,,0.830425872351331,0.2660100638829451,-0.4042028217835327,-0.8997583443473648,0.11630060316504949,1.4796486835957856
30,0.843876055403932,2.099860233793266,1,,0.7321811990990462,0.2616707883021838,-0.18109720820654557,-1.1760293521609666,0.47043948924610446,1.287112363336706
31,0.8520223311255167,2.016776770855649,1,,0.6806092042885677,0.284486642315672,-0.07804485853502227,-0.4194753122211955,0.3284662563502162,1.4513418668313935
32,0.8692635228340873,1.9378085088802148,1,,0.6327312771733071,0.30945178060192574,0.015505468109975279,0.41882514931778897,0.14722655367691467,1.6438088059468439
33,0.8954605318709975,1.8623102774008427,1,,0.776018059872519,0.2052653150041877,-0.14871353409220603,0.9255662037196674,-0.31574682138603266,1.645747324558945
34,0.929611787104997,1.7881235237072364,1,,0.932784438628703,0.09197198322138526,-0.3311086238487206,1.4089280014943695,-0.7985860778614996,1.634251111841865
35,0.9698641369156701,1.7127608197282378,1,,0.8793078465060882,0.21648212644831863,-0.3481725882956779,1.1445038889472265,-0.7806635723591747,1.41334685207576
36,1.0136534038907417,1.6346548987161331,1,,0.8013116862829108,0.368726079961087,-0.34595482544451595,0.7928693090481326,-0.7043397715076918,1.1680203950325603
37,1.0579494994664032,1.554197771683837,1,,0.9327154030400883,0.3575502805405228,-0.3495996053598005,0.4170753755489926,-0.26070672317182486,1.523073867021236
38,1.0995683607662503,1.474369649147689,1,,1.0771180255060941,0.3362298824889014,-0.3536083140492521,0.03978169827554296,0.20572776581106847,1.9153970936018567
39,1.1355077334221924,1.400842295305198,1,,1.1165093244649167,0.3059991422045929,-0.27427510653614856,-0.22806249387516545,0.07294974543781084,1.6173621421873006
40,1.1632624146993276,1.3415161138152722,1,,1.1424010578556265,0.2746229468317127,-0.1842280098591653,-0.4818365799344499,-0.13685909741678967,1.2305792798613284
41,1.181080081496036,1.3055263513088362,1,,1.1221895131942008,0.3033679219945204,-0.24310190802998902,-0.17646002422416762,-0.3406255355787784,1.1842635483847541
42,1.1881326083061081,1.3018371934805097,1,,1.1006471706464518,0.3338483296175965,-0.3062744972559297,0.1450567386020864,-0.5442175535670999,1.1477756008139028
43,1.1845945030547436,1.3376131971251266,1,,1.0346656247296389,0.3210449929141709,-0.36541457604554883,0.24533463108139977,-0.1524273179871935,1.3821100226536127
44,1.171632608931295,1.4165960829414104,1,,0.9667111001406238,0.306319976077287,-0.4243756215883628,0.3357901192807813,0.2657962621298985,1.6284682166497155
45,1.1513155808120736,1.53772883424288,1,,1.0643155603498549,0.13722980937377793,-0.4322333900918772,0.05256580781133864,0.566549632537768,1.1803492588339148
46,1.126447418291056,1.6942799264659258,1,,1.1696384957789674,-0.03905696914202921,-0.43770868868979124,-0.24807971705602846,0.8618264645493328,0.6998532918595349
47,1.100320422926131,1.873728969762974,1,,1.186876871923476,0.002590257731526663,-0.40295326889071936,-0.1858023357514985,-0.06880662442779806,-0.09881948687887578
48,1.0763793083078144,2.058639103296823,1,,1.2015061574991794,0.05069275506625035,-0.3670062028244907,-0.11277506944458371,-1.035751541106112,-0.906916767498313
49,1.057801873107322,2.2285980522354945,1,,0.9630270506394705,0.10227620796097099,-0.34864355995605756,0.5163352184079515,-2.0654650396817447,-1.1282367438173118
50,1.0470362619538753,2.3630423617759515,1,,0.7174664029611512,0.1539570520679066,-0.3307728992236458,1.1610037601256737,-3.096934696385747,-1.3331396929356896
51,1.045377533576921,2.4444752623355486,1,,0.7148725514379332,0.03683455565515962,-0.4649643468884994,1.558396859598862,-2.8073612236580585,-0.6496387286531459
52,1.0526919146998441,2.4614029014599317,1,,0.7168293889991596,-0.08344957092015036,-0.6020038666670985,1.9511585654213253,-2.4930450465572247,0.05050174321440851
53,1.067385568128112,2.4103496343861255,1,,0.5847859705829491,-0.05138140636230858,-0.681801379812996,2.0730651884945495,-1.9191503309116529,0.34248255451429577
54,1.0866663472042641,2.296544040536761,1,,0.4507578964750707,-0.017056775649385052,-0.7607510893116234,2.190960216675841,-1.341411044376594,0.6284181715916091
55,1.107078982903616,2.133179231844529,1,,0.5603328980664255,-0.02111321924186823,-0.9818878280095836,1.3394414490403193,-1.2232794073520574,0.8425420759770302
56,1.125223871342701,1.9394369787586667,1,,0.6727378899245753,-0.025615544012942682,-1.2046763865217724,0.4766607838950358,-1.1104871289617888,1.0558317310529521
57,1.138510451205651,1.7376680421340716,1,,0.9958343627961012,-0.10280075601876863,-0.9934438670049154,-0.5457631479175047,-0.8138476792301471,0.8610760546111527
58,1.1457655564272018,1.5502197877776347,1,,1.3194289746557444,-0.18026122548303017,-0.7803904091780678,-1.5676994116019636,-0.5163727408983535,0.6643978962306226
59,1.1475342395276704,1.3964013547560743,1,,1.1267494270701741,-0.2113827176897991,-0.6181958697362884,-1.096172382392978,-0.15870087018115958,0.24729917318627026
60,1.1459799699271438,1.2900108396523522,1,,0.9442236882766545,-0.23907442765662137,-0.4787143197196072,-0.6054728887905572,0.17749514836884026,-0.1219850831565264
61,1.1443932306545697,1.2377609499544986,1,,0.8742628202425702,-0.22874365691799411,-0.5910284067560138,0.09777207684058319,0.27561040535590137,0.038800650701623356
62,1.1464167687126399,1.238836185303495,1,,0.8040760789881793,-0.21914253987871013,-0.7015488846488267,0.7957417545751813,0.376020100356641,0.1991463598441664
63,1.1551605578356257,1.28566408646288,1,,0.7090201879394574,-0.2898776117275465,-0.6145898790428721,0.9128935810844236,0.7290517404740906,0.31104476649562457
64,1.172399013354307,1.365772688678625,1,,0.6139642957027099,-0.3606126844604426,-0.527630872350088,1.0300454090578508,1.0820833850037934,0.4229431745456092
65,1.1980242748156633,1.4643829657797873,1,,0.6963237281450965,-0.41282847602466566,-0.5483583808604,0.9692327655218189,1.3059137087987085,0.6560715163529106
66,1.229881497697395,1.5672226192302918,1,,0.7771271585304823,-0.460221233145297,-0.5695899817932714,0.9723073606785481,1.5170969393215015,0.9080760018241272
67,1.2640400094602884,1.6629899328137223,1,,0.8079444346951674,-0.46243497101244363,-0.5751242753639862,1.6555653753037953,1.6253810817261305,1.3274866434988921
68,1.2954659722110955,1.7449485326624166,1,,0.8387617108598523,-0.4646487088795903,-0.5806585689347012,2.3388233899290425,1.7336652241307595,1.746897285173657
69,1.3189715155382364,1.811295280074211,1,,0.9112557994635172,-0.46435587562491565,-1.289455583180891,1.5110547930444085,1.1389814030341592,1.1251689800710631
70,1.3302381989478125,1.8642189079285425,1,,0.9835276609218172,-0.4638741040145239,-1.9976812440393872,0.6759985969951416,0.5435026798515359,0.4995660302193207
71,1.3266733323950402,1.9079196126379732,1,,0.9021001889840873,-0.40334052508442214,-1.2011114350120022,0.15739974583818087,0.9842832922427697,0.48479761044270986
72,1.307889239433114,1.9461718803067825,1,,0.85450679448964,-0.3577569459628115,-0.4777359306732496,-0.2671655876019284,1.3392418029544049,0.44311011327695055
73,1.2757075310189514,1.9801465107464713,1,,1.0384466510242378,-0.4144791558284561,-0.2552434060597457,-0.0482410770124229,1.1069028007512558,0.2172100646305635
74,1.2337348788816633,2.007118494987472,1,,1.1757522148525394,-0.45773197924264064,-0.054752345871271875,0.21767437726190908,0.752418755420526,-0.07890834602755702
75,1.1866587454135593,2.0204380447917116,1,,1.0317722087406316,-0.4197410689233968,0.013031758612034329,0.7670265891771445,-0.3388114299484585,-0.7985650751973395
76,1.1394394848402194,2.0108119873775507,1,,0.8926050648767987,-0.37613678440380865,0.027446359406378226,1.2884220485605868,-1.396904443656575,-1.443109306930342
77,1.0965549060487378,1.9685828476223561,1,,0.7813992214155,-0.2999204802897333,-0.26819987716380733,1.6473971023784508,-2.262480322141231,-1.651272364443856
78,1.0614173075953992,1.8863769962992758,1,,0.6722076404341203,-0.21177434239528994,-0.5690911510948725,1.8391994630466446,-2.896392742669769,-1.752448835635238
79,1.0360377429156786,1.761346107913398,1,,0.5753068253531496,-0.050833911707968284,-0.9019869635192358,1.0109358292187058,-2.1167249282509566,-1.200807094932423
80,1.0209552500685013,1.5963493232322639,1,,0.51267224127675,0.05811101072827532,-1.1342136433081833,0.3009455843424701,-1.3503987771331083,-0.6947254705999902
81,1.0153915575851895,1.399790995923876,1,,0.6504683818686994,-0.1370772338619323,-0.7776044204345676,0.2827623726048068,-0.6621108866870443,-0.4551349552158844
82,1.0175564753382431,1.1842745488259196,1,,0.7673385598176459,-0.3062972245588271,-0.49419641927533353,0.23416009120285494,-0.10050142538743877,-0.26382871031693833
83,1.0250267290277917,0.9645558749102255,1,,0.7693485434435401,-0.3329804677436842,-0.6125814860995507,0.018591031448743144,-0.23421525439227933,-0.33754926001630803
84,1.0351394520640542,0.7553727303767068,1,,0.7726554888252554,-0.359247922622787,-0.7141084874344995,-0.1893762401651941,-0.350204268958428,-0.3977708010024214
85,1.0453600720448388,0.5696168823788004,1,,0.7967020948632415,-0.3788665184634503,-0.5460588448936543,-0.2757835904347383,-0.18275649026788393,-0.2421302437283739
86,1.0535944725276476,0.4171088063784783,1,,0.8237959580307277,-0.3939743347573771,-0.3991996846862762,-0.3274835901156466,-0.0442992516202846,-0.09630859666152627
87,1.0584215383036422,0.3040326853181801,1,,0.8890315799309628,-0.3526218373067724,-0.5175765721236368,0.055239736368657234,-0.26870945107433225,-0.07338784316393465
88,1.0592277547527509,0.23294471294696403,1,,0.9455937292494381,-0.3102473141954127,-0.6282948295582318,0.40099239134237413,-0.45938937033300387,-0.04497606358847133
89,1.0562296049789355,0.20318708341015343,1,,0.895972377624652,-0.2553608165541458,-0.6452536230792784,0.29413794058453535,-0.23713211727055497,0.050658662065931705
90,1.0503753768895212,0.21151594895726206,1,,0.8462882334888248,-0.2020833980561999,-0.656306022968203,0.19928738581479627,-0.031110601385897912,0.14276494172258286
91,1.0431325138004786,0.25277700251987834,1,,0.795897872878372,-0.16690281041396685,-0.6009309556847564,0.2394410977623208,-0.007687606152741024,0.1951878429955819
92,1.036190069623298,0.3205207713619569,1,,0.7585279915914891,-0.14057900642693597,-0.5512456289589899,0.2663119374422174,0.020965835441697465,0.25071933097468474
93,1.03112840265272,0.4075133265280855,1,,0.7840505478380883,-0.1570358634454791,-0.5290432863457359,0.22902291000497818,0.07488375057793148,0.3212661375941816
94,1.0291181622320738,0.506145733554894,1,,0.8073090058528698,-0.17297906335095045,-0.5125591348408226,0.18922394133842024,0.11870450583690854,0.3945063745056518
95,1.03070301341773,0.6087733024598021,1,,0.7934583007110753,-0.18050328628952864,-0.589797624440126,0.10828639263575245,-0.0029698214755281525,0.5118926175816543
96,1.0356995535538918,0.7080272545435937,1,,0.7793512033086271,-0.1903083207347987,-0.6617089219251392,0.02917233274321444,-0.10957109913167658,0.6270310957644214
97,1.043222625543098,0.7971382452543284,1,,0.7618433863994631,-0.2303654597092388,-0.6629616793393877,-0.025755419212303923,-0.016247243944174813,0.7123557690570431
98,1.0518229431651116,0.8702940467957277,1,,0.7477486952431565,-0.2707685596714134,-0.6628487439476655,-0.08324995979424815,0.08984392604663397,0.7934296410466439
99,1.059710136866271,0.9230264099031487,1,,0.7772963888883117,-0.3155953361784138,-0.6452731964168334,-0.17356508419132607,0.3591860608855838,0.8201500795842099
100,1.0650268185729408,0.9525909199922765,1,,0.8076743001693423,-0.36114758391441715,-0.6254274706844378,-0.24839610302468484,0.6181135325012985,0.8418361617641812
101,1.066135224170965,0.9582762340190516,1,,0.8477067289876222,-0.4151362667382834,-0.5791820805410227,-0.1431641140336739,0.7559300320991827,0.8049782517878603
102,1.061876460669281,0.9415651796075025,1,,0.8818423901008586,-0.46383606844039627,-0.5346227194635271,-0.02595546156927046,0.8691045794871254,0.7590864017918115
103,1.0517651262446375,0.9060795411418564,1,,0.8524606605226182,-0.45556636905659187,-0.5082245179616827,0.22026057242287658,0.7168468413232025,0.6158849061787995
104,1.036091325953532,0.857276084823118,1,,0.8226849741434071,-0.4436215785984774,-0.48172812344749066,0.42047634032277037,0.5770471272054344,0.46799290254409354
105,1.015917611086206,0.8019145199126225,1,,0.791361653950332,-0.41723941416388916,-0.45484598520976793,0.4399828114103856,0.4861880214531225,0.30167452877272327
106,0.9929762204620532,0.7473698817096475,1,,0.7648152828791549,-0.39215360436802815,-0.4310628736208739,0.4687130358724257,0.36267586318151296,0.14666044151827443
107,0.9694864410564754,0.7008934553167802,1,,0.7709015621278642,-0.375923548625446,-0.42845006340863157,0.5604532517744488,0.01610173883991952,0.06886903637848174
108,0.9479188515384783,0.6689285997180588,1,,0.770573950731066,-0.3682167975987862,-0.4246031939228141,0.6110652033765055,-0.30811170795028947,0.0037207251555694677
109,0.9307327058768333,0.6565641430235016,1,,0.7315186196551894,-0.4119746207951265,-0.4133049495398186,0.413340544800789,-0.49730915332346204,0.01491268648032248
110,0.9201084050186658,0.667171730084751,1,,0.7030387318201089,-0.4510072467037182,-0.40584550343435016,0.1936364722569345,-0.6440073383357423,0.01607794839614005
111,0.9176933068982317,0.7022403681186216,1,,0.7377938770798184,-0.46178592814158886,-0.42133985064717816,-0.15749180241727495,-0.5365845329792578,-0.042710654026240275
112,0.9243787953092849,0.7613992944589901,1,,0.7554348143107947,-0.4646552649360011,-0.4108120033271124,-0.4726181735192595,-0.4780088039698719,-0.10045899117170852
113,0.9401305514854487,0.8426044639843197,1,,0.6761334802318356,-0.422722655564333,-0.2528832020739915,-0.5838141790311332,-0.6961240285653792,-0.15231481144867584
114,0.9639012140427431,0.9424457567055825,1,,0.6165397754961273,-0.3861725203790691,-0.18161437410483022,-0.7201752034643921,-0.8127899594765982,-0.13701331022156818
115,0.9936588666853567,1.0565127187174852,1,,0.6624476479441683,-0.3784365838806525,-0.5742655540862455,-0.9912530326107754,-0.38636366940277767,0.23780393351191784
116,1.0265557076831882,1.1797487853192516,1,,0.6828211399319156,-0.3637532364784875,-0.9048212431370979,-1.1908992810665877,-0.09632187388267395,0.5417474091925201
117,1.0592354872756327,1.3067369988655873,1,,0.5046147743847784,-0.2950401515581969,-0.752462781517848,-0.8350249797460793,-0.866936845920521,0.29450842302190516
118,1.0882474050832665,1.4318897793645855,1,,0.4090628060754038,-0.2782094761299071,-0.6280419873934749,-0.5599155928354905,-1.4955404640315,0.14583344695450662
119,1.1105112878065926,1.5495489377132021,1,,0.9009821202534911,-0.6301362657945486,-0.702189897776659,-0.8588478529742298,-1.1147895756977,0.6977083153799098
120,1.1237624494438034,1.6540322977586068,1,,1.2547780459980462,-0.8929461310521133,-0.760209010630645,-1.1239667707973382,-0.7121412208182566,1.108570940855745
121,1.1268921170390893,1.7396901428712983,1,,0.6947992671582521,-0.5661904505856978,-0.7115257961387866,-1.1653887811145047,-0.16462705798375765,0.5865472424574671
122,1.1201083804240801,1.8010554304405306,1,,0.25645679104104036,-0.2927938928670586,-0.6652840938380078,-1.2438114708321513,0.3249030446192095,0.1878252542562056
123,1.1048891727679597,1.8331693895208898,1,,0.6668060406978176,-0.3916994023813673,-0.6360775332067145,-1.5803985998184515,0.4098615312950721,0.6494150177478627
124,1.0837587449487567,1.8321166129259376,1,,0.9762222251154691,-0.4685681066328472,-0.6289511940409981,-1.8223794839705991,0.4697961535596973,1.040209939857088
125,1.0599479368305809,1.7957142645131043,1,,0.742817746559678,-0.42692229545590593,-0.7405728582068335,-1.5555655144826812,0.39515178030192705,1.0502683407740645
126,1.0369879126303474,1.7242110522316723,1,,0.5569409707514449,-0.38834727522884777,-0.8129360917893804,-1.322991549100059,0.37334020729977824,1.0805898491832648
127,1.018269914871101,1.6208113692845987,1,,0.6523341967920814,-0.3679452638038064,-0.6529670590805537,-1.2930506882574848,0.6641943234913674,1.2308288797407332
128,1.0066060179927356,1.491859151063178,1,,0.7234156949349301,-0.34310664863167917,-0.5249021871586014,-1.211680357336099,0.8011042457679683,1.3225120400457426
129,1.0038414912162614,1.3465737536817401,1,,0.6589989433445362,-0.29354119707272874,-0.5746509981853434,-0.843674552681964,0.08002622307795053,1.0878416757061928
130,1.0105792638705355,1.1963102658909774,1,,0.5978536867051183,-0.2569203594185697,-0.6261345251558957,-0.5375146204097249,-0.4954251565262398,0.8684767331081996
131,1.0260713691612129,1.0534112310213353,1,,0.5545720364448741,-0.29098204973115593,-0.6870902665107975,-0.5690567254879039,-0.27569954561399307,0.732685217474556
132,1.0483113930344503,0.9298049339366619,1,,0.5177751928264829,-0.354608763887922,-0.7285775394984112,-0.5716049930174704,-0.07958732209680329,0.6112189332129153
133,1.0743297376344663,0.8355586015593854,1,,0.5144746277392228,-0.5709490765427819,-0.66950341712749,-0.4243900322942845,-0.0054464503829870165,0.5637474473528753
134,1.1006551284574067,0.777602716721432,1,,0.5399836129965901,-0.7654185628597361,-0.6234642697697117,-0.21385371585107585,0.03881226702049774,0.4742580684731169
135,1.123868068867766,0.7588154419608873,1,,0.7112555393264531,-0.8492318119526949,-0.6433760448534735,0.3170592324732442,-0.06811883978520991,0.17217767456948732
136,1.1411437820106534,0.7776042520684667,1,,0.839790849321631,-0.8953189711187469,-0.6692447990470756,0.7403200739653001,-0.14996586222402983,-0.14892332658387872
137,1.1506745150334965,0.8280477657457366,1,,0.7634546948714264,-0.7605542054018386,-0.7236702140612943,0.6475165515521776,-0.11156440605495052,-0.5612056190552661
138,1.1518831096699524,0.9005728309851027,1,,0.6914081720322475,-0.6298492315573027,-0.7670831819778444,0.5601086619221944,-0.13772835596640584,-0.8684070014518706
139,1.1453905925196262,0.9830639104375634,1,,0.6395418644311305,-0.5182432065538777,-0.758688998099232,0.4980840783114294,-0.4676349694515747,-0.6812638757858146
140,1.1327645148447294,1.0622579864359545,1,,0.5920997785237957,-0.32039339331497374,-0.7458014742770298,0.458701214543546,-0.7402703812440604,-0.4636340437803422
141,1.1161283643852187,1.1252704575105412,1,,0.5644072728243757,0.2624459182342088,-0.7128558252445999,0.5203902552236493,-0.7572490122480983,-0.10991252645443668
142,1.0977374298031368,1.1611035491176152,1,,0.5668402281463735,0.4702962480031951,-0.6920702921833642,0.5395972612933861,-0.7251458106660745,0.4308560536893961
143,1.0796177751654839,1.1619826982551467,1,,0.6393078539987775,-0.19361535380255251,-0.699554193481913,0.46004344429649224,-0.5789387971448995,1.4064654069183613
144,1.063329722292094,1.1243428128037296,1,,0.6634646118419765,-0.6387462608658944,-0.7078601955779541,0.35343882446283525,-0.43428525217380654,1.9241812232545525
145,1.049871043365906,1.0492739139907246,1,,0.5844783530774287,-0.6167834808010737,-0.7179213708514324,0.18908112972441293,-0.2929483461166374,1.464300834573292
146,1.0396958796291655,0.9422843115881373,1,,0.5155523016605272,-0.6003132859343132,-0.720675144866269,0.06049738069110194,-0.18083497411577404,0.9738606453277557
147,1.0328060359500144,0.8123740928374515,1,,0.4671258390276791,-0.595035279925238,-0.7085386962788855,0.004809861869139134,-0.12827012048509417,0.42114903251878844
148,1.02887311908572,0.6705918582827669,1,,0.43756984937386395,-0.5864675980062731,-0.7064004464663315,-0.03701108284497742,-0.09704822166682724,0.03750256736781061
149,1.0273633021956405,0.5283864871550389,1,,0.4559746368404514,-0.5695389480547606,-0.7296733981473996,-0.04358904987119458,-0.1200711052294269,0.08354834169713257
150,1.0276493625755405,0.3960958570801272,1,,0.47144844410682335,-0.5514727522713667,-0.7505846083769128,-0.04594555890662512,-0.09473762850597708,0.15616352921221505
151,1.0291016723759996,0.28183279852007265,1,,0.48120799331874897,-0.5311887906256498,-0.766891351806104,-0.04007188673164461,0.024871712280417263,0.2805786095703926
152,1.031152838316371,0.1908868464968589,1,,0.4774972612339671,-0.5235002724251702,-0.768554687082851,-0.0374992918244626,0.10515964861499394,0.30786866735001356
153,1.0333335827989043,0.12562422025181402,1,,0.44810357494659503,-0.5398267094806461,-0.742298339358702,-0.04122065738659016,0.11047588598783885,0.14997643544224687
154,1.0352819384340832,0.08578137378447638,1,,0.43466196910424565,-0.559237035273989,-0.7289185361651624,-0.043858383080566984,0.1055865102887965,0.03667942950872714
155,1.036732570554304,0.06901756551741564,1,,0.45215227433268373,-0.5846271814994449,-0.7405070204115077,-0.044394874906893984,0.08090792153132308,0.009854877978547378
156,1.037495699357428,0.07160093035874147,1,,0.4711655852925693,-0.5656077042156888,-0.7495049487399321,-0.06367896900008939,0.0695262165155737,-0.0180620515067217
157,1.0374350163298576,0.08912549302463722,1,,0.4929505099996955,-0.4657702157129383,-0.7537885033611516,-0.11708053197104071,0.08234259263119927,-0.04796692526655856
158,1.0364526849130973,0.11717802728235319,1,,0.5012402232638528,-0.42515114723933417,-0.7515318020282418,-0.11740132366978753,0.10451491118339065,-0.03535010602825405
159,1.0344880243098182,0.15189112587480105,1,,0.48551888552065053,-0.48989511873222097,-0.7376384974555621,-0.023279347902337818,0.14333358021286907,0.05292247862262095
160,1.0315334187385394,0.1903353415202366,1,,0.4794736009207461,-0.5496875312051501,-0.7276810460020344,0.05084448900229463,0.20994743457357914,0.06445779778805606
161,1.0276646734270376,0.23072014425026954,1,,0.49089092182788757,-0.6005437442007545,-0.7248267234667678,0.08887720222576259,0.3267239245422049,-0.062496467866636075
162,1.0230748888462051,0.2723903131219762,1,,0.49977967273596907,-0.6141889113806239,-0.7218107375966332,0.10586839885078081,0.3647037890086817,-0.1509700122573957
163,1.0180954844903511,0.3156234013750928,1,,0.5043238379385911,-0.5638981116971159,-0.7185169821151657,0.0867060907777324,0.26729540146299996,-0.17332603267963265
164,1.0131893394259954,0.3612594620979862,1,,0.5086989654252995,-0.5256093919240173,-0.7125546073996836,0.0515634900179877,0.23328004882166767,-0.15141934793449285
165,1.0089093795752375,0.41022529218478343,1,,0.512782023414267,-0.5080583046237992,-0.7019812946243341,-0.0111904457718696,0.3087975016801811,-0.05303394088989945
166,1.0058275554339153,0.46304122380425666,1,,0.5087474703166682,-0.48249254178744544,-0.6973732720778618,-0.08738528604628826,0.3510164064950274,0.05948342124033075
167,1.004448989291239,0.5194057781298176,1,,0.4904993413723074,-0.4428934379313187,-0.7032102070562499,-0.18711455445535935,0.3349310372129461,0.196745211598753
168,1.0051307280316624,0.5779380926329434,1,,0.49498713211917206,-0.4435268315459084,-0.699527618720963,-0.22877340344460953,0.3633154263866607,0.31135117073231366
169,1.0080228874395236,0.6361268077640684,1,,0.5370882025308625,-0.5107190534857492,-0.6800963605107062,-0.17436317185198907,0.46526857782547254,0.38847634740821857
170,1.0130426971180986,0.6904982387948538,1,,0.5545670517624122,-0.5519568323902829,-0.6809747995380191,-0.13586809881089687,0.47140326186294607,0.4523560892912477
171,1.0198818435964627,0.7369850189399262,1,,0.5283045325591023,-0.5470865503479558,-0.7179334089975742,-0.12564630103795718,0.30731646986355554,0.4927053184044258
172,1.028039229413056,0.7714517800442066,1,,0.5053204566677343,-0.5339369290983809,-0.7412152157339305,-0.20619895326107612,0.24540348227331663,0.5676293995885426
173,1.0368687325527115,0.7903124588792892,1,,0.4876835693524322,-0.5072835879003363,-0.7421899613155613,-0.43480602599523416,0.3501374295783714,0.6989455553683099
174,1.0456348442592998,0.7911487106240377,1,,0.4850787615406723,-0.5317827202074394,-0.7194870953859017,-0.5617406753440718,0.3769728102884465,0.80128152950999
175,1.0535743642162267,0.7732154637679363,1,,0.5073819922538142,-0.6410411026687235,-0.6575506114729147,-0.5202049132992469,0.2747308737305064,0.8555975698662439
176,1.0599651161698498,0.7377166057709176,1,,0.5118451041446049,-0.6876609735166991,-0.6319278358167867,-0.4467214670387631,0.19730439507715256,0.8077880547388944
177,1.0642011564275196,0.6877686923430031,1,,0.48668942553406674,-0.6302861931571064,-0.666594350724642,-0.32019735308227054,0.16107740696230757,0.5904261108225828
178,1.0658697473024457,0.6280404869333673,1,,0.4807607981844788,-0.6223679992675374,-0.6948772103410682,-0.20645660531784976,0.11556035059634981,0.4479797197349243
179,1.0648207422630414,0.5641356167044894,1,,0.5029911787581023,-0.6868815263914295,-0.713810878122006,-0.11143775444547487,0.05643750939281704,0.4152510162448404
180,1.0612150989068867,0.5018431607155328,1,,0.5119439684218765,-0.6925851208089141,-0.7218411813724356,-0.052847417986394564,0.04206987045328662,0.37712554218034644
181,1.055537480993257,0.44639824111334486,1,,0.4999323988799046,-0.605432070676616,-0.7126558577511604,-0.05177508168560577,0.09836747012465262,0.3304789576397473
182,1.0485611534233432,0.40187423626869684,1,,0.4899653142046993,-0.5777720732588282,-0.7037413094078301,-0.05973215342347132,0.11962357407814475,0.30683484406091166
183,1.0412624373906603,0.37078634282609135,1,,0.4830529015253582,-0.6390008459700558,-0.6952313275918212,-0.08118009369785106,0.0885240612843115,0.31755880010436277
184,1.0346931187753612,0.35393991457839247,1,,0.472924630385773,-0.6477817382478516,-0.6919472727811744,-0.07845899790287315,0.07828185765796998,0.32339736154411236
185,1.0298277709922083,0.35051692766225795,1,,0.45824909174930234,-0.5824006181324326,-0.696052749416902,-0.04156255808767547,0.0975321712460676,0.32232790899244307
186,1.0274081889796958,0.35836436572773134,1,,0.4390452550759786,-0.5516583826246596,-0.6938847989842408,-0.05986353590225411,0.07597317144681084,0.33223136722344904
187,1.0278104269722685,0.3744293083694605,1,,0.4136416379680524,-0.5683409110247694,-0.6831277786214498,-0.15373636220305417,-0.0014586461064264647,0.357158049232799
188,1.0309604105834764,0.3952746421277836,1,,0.40924287335341547,-0.5888163842605252,-0.680195769055027,-0.21524163202897195,-0.08868409467140005,0.36755156972432695
189,1.0363189391267764,0.41760424236564503,1,,0.4346357406985365,-0.6146714717125636,-0.6883621398567643,-0.23083930193298532,-0.18980005706246209,0.3573323958893763
190,1.0429453708129617,0.43872686721534637,1,,0.451115590603678,-0.6319963506694376,-0.6918140891373924,-0.23552250534860258,-0.27951242902852225,0.34413815887986215
191,1.049634390998088,0.4568950842435662,1,,0.45592010035619485,-0.63814733853678,-0.6890905233472009,-0.22590863084343069,-0.354287007399011,0.32704682754040487
192,1.0551065116828227,0.4714701464599879,1,,0.44487088607379366,-0.6411398107664783,-0.7003716229172798,-0.2034701700376534,-0.4356536019255598,0.3100803357362173
193,1.0582232112859666,0.4828856615931342,1,,0.41351494368823843,-0.6400866015466437,-0.7295910271608601,-0.164604944823511,-0.5254637832491129,0.2932737482620558
194,1.0581919817582763,0.4924120005035777,1,,0.4128861136027879,-0.670671286446578,-0.7602548008827654,-0.1069581487627252,-0.5020946690059278,0.2286063757800926
195,1.0547240201787833,0.5017593156931293,1,,0.4564475124226856,-0.7467560430364453,-0.7929957970259257,-0.02230061504636393,-0.3159566309002439,0.09510796294864755
196,1.0481089576569804,0.5125951095772973,1,,0.43151786811122755,-0.7650517193568435,-0.7745015244118152,0.03812089249488115,-0.2620364227158922,-0.0630419489743914
197,1.0391811475666124,0.5260790979995916,1,,0.3219117935023982,-0.7119019516886144,-0.6926643756320121,0.06857906448162691,-0.3715789570968255,-0.2516688547786029
198,1.029174182551377,0.5425170177358972,1,,0.28478473412249466,-0.6373535728391593,-0.6654522206601239,0.10405737749422293,-0.4043852287132046,-0.3629437105934178
199,1.019490412904238,0.5612022858040216,1,,0.33496195958623354,-0.5370295916424531,-0.7040383660982128,0.14558267865512903,-0.34475916652800703,-0.38104448661048324
200,1.0114376384046448,0.5804666646423137,1,,0.370379021781069,-0.48021146377148255,-0.7263736402361153,0.15529992145587335,-0.28200243815636966,-0.421794992549757
201,1.0059935968385656,0.5979203972080782,1,,0.38794749834185993,-0.47600236976625604,-0.7290577048341458,0.12655357709937287,-0.21545998371488842,-0.4899344641787787
202,1.003648135672538,0.6108365681460715,1,,0.39433299375061104,-0.4898606404034947,-0.7357103902483012,0.06836602132143225,-0.3149555801169825,-0.46185561939040537
203,1.0043503380642156,0.6166171783975408,1,,0.3871354295259222,-0.5256638728894596,-0.7471834373997783,-0.025581385560925454,-0.616124124235191,-0.31690819335688947
204,1.0075627284448825,0.6132630826288316,1,,0.3800260718407274,-0.5593820151606129,-0.7507791191868199,-0.05142424395038842,-0.7635994811744138,-0.21896912685530281
205,1.0124032761913722,0.5997597774474649,1,,0.37301729369820946,-0.5907225815919495,-0.7453924364012172,0.0003908272371306766,-0.7358223064088999,-0.1746325261055446
206,1.0178411304997799,0.5762965751007634,1,,0.37823717793188594,-0.6030705028203891,-0.7653132761170849,0.035752225037381825,-0.674110568595692,-0.17190938978152623
207,1.022904604831595,0.5442657775648243,1,,0.3970812880442836,-0.594258294115128,-0.8134297920186562,0.05278221841665239,-0.5745915755098913,-0.21554874331966634
208,1.0268596883081826,0.5060375046913034,1,,0.3947772188805148,-0.6025015609226858,-0.8258063243071556,0.04388176957846453,-0.36261260473819035,-0.25274036340577005
209,1.0293242722762648,0.4645601494692864,1,,0.36875287255381156,-0.6298746354288688,-0.7980960805590903,0.005897149241794599,-0.024495979579768783,-0.28270005852056357
210,1.0302974818093205,0.4228778383424025,1,,0.34666194606847495,-0.6120630793196085,-0.7749107042719695,0.008479751751118045,0.12335731995288891,-0.30588592947390486
211,1.0301035039436022,0.3836709285473865,1,,0.3288293425270207,-0.5453346190364308,-0.7566239524582135,0.05498045077468443,0.06523144022091402,-0.32173845425858777
212,1.029270375370856,0.3489103153912732,1,,0.33338753241089714,-0.5247807307686568,-0.7476689453990546,0.08413298896940281,-0.02773879592417773,-0.27563453660463233
213,1.0283794434382318,0.31968095759938814,1,,0.3637886048226926,-0.5575203551210588,-0.749484399924483,0.09326272293773337,-0.16092550035031486,-0.15802207332895457
214,1.0279253598341354,0.2961899163924537,1,,0.36207988018929477,-0.58456437137595,-0.7246549089396355,0.08679722010816211,-0.09866832355016572,-0.15042752939431103
215,1.0282192622422996,0.2779384021457047,1,,0.32567485332347024,-0.6054539881858072,-0.6710341708273919,0.06348025436619179,0.17477611196293658,-0.26171305697918673
216,1.0293534374299174,0.2640065926595407,1,,0.3511456744804964,-0.6253875663430889,-0.6780087435394667,0.07520698870214623,0.2841014203651941,-0.3307811439107444
217,1.03122863403636,0.25337621447351866,1,,0.4462661947030405,-0.6442449929989374,-0.7531915959424258,0.12638018300934928,0.2086882883994439,-0.35232774943193457
218,1.0336279695429225,0.245208455299829,1,,0.49094747317376725,-0.6352308416013343,-0.7783298934065528,0.12559654181728278,0.16441354378499076,-0.27911455726903184
219,1.0363079301815548,0.23901345258645684,1,,0.4837254456709585,-0.5975361044074387,-0.7519710284920267,0.07134795197014367,0.1521810189072766,-0.10839104573274953
220,1.0390734410124771,0.23468928710447348,1,,0.45402239175799364,-0.5925030638901039,-0.7418415713190923,0.04210449699571551,0.09172977814279328,0.02714455773185534
221,1.0418133245084316,0.23245419071494522,1,,0.40091152348603526,-0.6214782108168272,-0.7486105855392473,0.03889702366035083,-0.01892801153019684,0.1260416150200807
222,1.0444898699894127,0.23272293761014126,1,,0.3562969734047073,-0.6206222865156682,-0.7527152961763489,0.03063359791071653,-0.1397449524717133,0.12655376604093468
223,1.0470930376059902,0.23597664401145557,1,,0.32027498293831064,-0.5895973797356944,-0.7541255234024299,0.01725694837969638,-0.2708361239031269,0.027566556497677506
224,1.0495802937997056,0.24265205726214564,1,,0.32571548457464533,-0.5862800215433737,-0.7513798598898517,-0.023713389310887824,-0.32581675208739974,0.01820212218296455
225,1.051825818176704,0.2530503213632022,1,,0.3715896672833211,-0.6099827028845421,-0.7445814259230935,-0.09159273242541958,-0.3065753736017667,0.09623664786825892
226,1.053598405372842,0.2672525317797738,1,,0.38348599069318695,-0.6163975581484582,-0.7537124196640604,-0.13475392243762446,-0.24962693778945155,0.07160122816979145
227,1.054577698131384,0.28503558150404534,1,,0.3631532092168379,-0.6064143479882792,-0.7779529939639229,-0.15446914052961566,-0.15691213061448617,-0.05041997542218778
228,1.0544069919727068,0.3058003237824809,1,,0.3622146019092691,-0.6019957413957633,-0.7834984750147745,-0.13893641226084688,-0.02273745040942053,-0.15184948151437794
229,1.0527714073937815,0.3285415107508177,1,,0.3796136520839336,-0.602838601226974,-0.7713672962705884,-0.09007590454855485,0.1506385322097739,-0.23380904061089602
230,1.0494843085072358,0.35189330728789797,1,,0.4201858582457927,-0.5951262301267577,-0.7777821354696236,-0.0579123140984057,0.10432975613548542,-0.23218155715369165
231,1.0445620684257844,0.3742716357659792,1,,0.48522712414125024,-0.5783801972021875,-0.8037801343201721,-0.0433793756103004,-0.17394912310546054,-0.14229262599302225
232,1.0382674177054128,0.39410917848897065,1,,0.44400764871205656,-0.5802092275811215,-0.8105539199083419,-0.05196545093452446,-0.4025495631511508,-0.024430352668382397
233,1.0311059778596827,0.41014677319494075,1,,0.29958548439427596,-0.6000787538311083,-0.7986567416159943,-0.08300520349778769,-0.5829012540170312,0.12060022733922907
234,1.0237705947755422,0.4217139802987911,1,,0.23799383489378728,-0.5831919926095861,-0.791293769201917,-0.08557674573399823,-0.6137129731547397,0.11114581706833324
235,1.0170421976737638,0.42891522681442484,1,,0.2538545695521887,-0.5319355048859241,-0.7881705996243934,-0.06152849953314785,-0.5046942512917966,-0.04276297647637082
236,1.011668893517714,0.43265022250076535,1,,0.2669475174579944,-0.5027155629857227,-0.7848267343341833,-0.06414694042207002,-0.46850644998095314,-0.09189706953639165
237,1.0082512400390595,0.4344387421665457,1,,0.2775202973833531,-0.4935606756543286,-0.7812819178767563,-0.09104634239847151,-0.49863377696234545,-0.045630093288715076
238,1.0071587754445381,0.4360739783136453,1,,0.28952436903243334,-0.5058477096733388,-0.7895504198941603,-0.09323062581066353,-0.4278405678302196,-0.03084966861781763
239,1.0084924401443718,0.43917659464245895,1,,0.30273147248620735,-0.536157148508233,-0.8077482749557112,-0.07464131003738841,-0.27222143661969184,-0.042534381361100077
240,1.0120934094123146,0.44475341853355305,1,,0.32776526318695476,-0.5696249963099467,-0.812870452212047,-0.07868568750455104,-0.1953863512582364,-0.041617253787039656
241,1.017586008905935,0.45287500644936707,1,,0.36296968854029144,-0.6058089916661634,-0.8067478967578215,-0.10219443512849022,-0.18630343470313454,-0.02986288097818187
242,1.0244355658849413,0.46256790539665865,1,,0.34957262846045745,-0.5874144332852563,-0.8050968934998652,-0.13891179212100108,-0.27631538186877685,0.04712615805724663
243,1.0320039610190757,0.4719670295305999,1,,0.29541086080071066,-0.5232418751757341,-0.8071964240551014,-0.18670792850866058,-0.4494435790064187,0.17883105886117637
244,1.0395949738523769,0.4787016998479354,1,,0.2814403561517443,-0.5259442743173464,-0.8078024283037147,-0.23218717651457982,-0.5187496494457929,0.29745077270629433
245,1.046492739355221,0.48041992867739436,1,,0.30198962971357085,-0.5860847465730368,-0.8071256612991506,-0.2756764782532835,-0.498884180993628,0.40483178269854997
246,1.052003229451438,0.4753162350011766,1,,0.29821616794173345,-0.5888386684573407,-0.8054192873483265,-0.25334883506010075,-0.46434200940482545,0.37102945016139166
247,1.0555078686285675,0.4625332828076588,1,,0.27485148421160666,-0.54536947288708,-0.8028835964194405,-0.17800764908736677,-0.4179782015110289,0.2235082387303772
248,1.0565322523801484,0.4423515569553057,1,,0.26956690670972716,-0.5649255795412461,-0.8186166085648388,-0.09773274622626893,-0.4166344369586183,0.10285643989808861
249,1.0548245797950917,0.41614284307208715,1,,0.2801895335749448,-0.6399324857644755,-0.8504227554974199,-0.013117071959840895,-0.4549001202704777,0.005844838747735811
250,1.0504295147714926,0.38611882627205635,1,,0.2831296768184767,-0.6513633520263362,-0.8553962278410154,0.034870864781860966,-0.36673293091886267,-0.09535503585277051
251,1.0437362568889594,0.35494284383668473,1,,0.2799205412984859,-0.6119061444707137,-0.8388920629188091,0.05354091731497429,-0.17736526652847495,-0.19990732513086554
252,1.035479148760435,0.3252907252307351,1,,0.3034852487850702,-0.5443287478459935,-0.8468591840050887,0.04881947195888503,-0.1193734732799081,-0.11732200969416479
253,1.0266775922994675,0.29944926632725116,1,,0.3482222875652146,-0.45451434981186223,-0.8741778104502218,0.02560040064997867,-0.165271635726946,0.1132487598411979
254,1.0185162840208504,0.27902784882797177,1,,0.33911304383680607,-0.44609803557972866,-0.8580460028529858,-0.02242561190182542,-0.09571245295688405,0.1898992635018886
255,1.0121810206590347,0.2648293593664375,1,,0.29190317225869045,-0.49527749107527513,-0.8111694763185587,-0.08800455500377696,0.055542199983388475,0.1576386511762933
256,1.0086758176963764,0.2568863613408664,1,,0.2780017659103204,-0.5328018426866244,-0.7757085316348558,-0.1530678364706351,-0.028980913015338543,0.19277476464433932
257,1.0086527006057957,0.2546277309314736,1,,0.2890879521159254,-0.5615826809352378,-0.748811413847719,-0.2177442736325242,-0.2903815427250472,0.27847105450878884
258,1.0122858408871591,0.2571101351949953,1,,0.20777939337178533,-0.5544399488092419,-0.7628713667280219,-0.21303410979891735,-0.3285230022760835,0.2572973669195858
259,1.019216433202409,0.26323808726664627,1,,0.06355075630280647,-0.5228335536209298,-0.8048227558412502,-0.16107222747102445,-0.21462675734315498,0.16334608254094277
260,1.0285841772963908,0.27191363971782156,1,,0.036492302529420616,-0.5529748120103326,-0.8274748288305723,-0.047814237837711306,-0.09348659011605122,0.02367496302081883
261,1.0391463833546486,0.28209677007295514,1,,0.099534658439936,-0.6305984032934112,-0.8352862321754905,0.1125788584408023,0.033223965630416886,-0.1511535170922095
262,1.0494685408980007,0.29279748977476816,1,,0.12930706765626834,-0.6403840508608794,-0.8546348334371999,0.18109496,0.061778355756594745,-0.27297726482813817
263,1.0581545187931976,0.3030375685898425,1,,0.1342688369122361,-0.5995804128603837,-0.8825871540807222,0.18109496,0.0171340314239253,-0.35527340858888706
264,1.0640749599231842,0.31181229534267646,1,,0.1870398916115606,-0.6753106510104915,-0.8441432843535548,0.18140628901808556,0.03785065949829868,-0.2870174479559313
265,1.066551248379052,0.31807023155544,1,,0.2727129852020364,-0.831238743362667,-0.760005989108432,0.18193187263865507,0.1035482689232348,-0.11515251036998343
266,1.065459106431853,0.32072752207949606,1,,0.29389998968001607,-0.8170009947130707,-0.7485374485952851,0.09690979937013318,0.12750943558098224,-0.03986893336430114
267,1.0612295423083975,0.31873897558544917,1,,0.2655426739309475,-0.6720257345418948,-0.7928999266290859,-0.05383808243617575,0.11940471440679444,-0.03878830438162149
268,1.0547451765999074,0.3112434861989275,1,,0.254903647129553,-0.5619341438260904,-0.8269061261083356,-0.1481495836416236,-0.13087071998641422,-0.0011108710174930491
269,1.0471539080697132,0.2977743931681479,1,,0.25637737850447534,-0.47569008640764865,-0.85383245977952,-0.20387946699944828,-0.5467013695443127,0.06158524335851231
270,1.0396421638662774,0.278482552078649,1,,0.25989118456054744,-0.4032088347678471,-0.851408728611299,-0.17269840329815592,-0.5831954071408791,0.049349262536903145
271,1.0332192593410787,0.25428686263275424,1,,0.26473127907408245,-0.3396750242010094,-0.8299040043035487,-0.0850150046799172,-0.3730760452395779,-0.011601390788433308
272,1.0285598637241324,0.22687287995703315,1,,0.2695617849571154,-0.4039497193782043,-0.8274210035679223,-0.031185883032033748,-0.19182140870691874,-0.01422592644443134
273,1.0259347714116722,0.1985113365742298,1,,0.2743862522463744,-0.5487143772383636,-0.8369173135945326,0.0013228311604804434,-0.028744908733402567,0.01988157678203562
274,1.0252353097091222,0.17173757604890988,1,,0.2749114361470479,-0.6070844231373269,-0.8477518046627074,-0.016313436490372986,0.00097597047673338,0.006467634088436092
275,1.0260710691766814,0.14898008971030602,1,,0.27274178727800696,-0.6113014824623568,-0.8594250804387756,-0.06538106746794027,-0.05289175463424033,-0.03673321411355763
276,1.027903616440724,0.13223072083839324,1,,0.26640180339273867,-0.5918290732090411,-0.8524907282891594,-0.06718571922014537,-0.05653307422014538,-0.07389363333227118
277,1.0301766815329356,0.12281915466304753,1,,0.2574771358102907,-0.5576744419309756,-0.8340237692486385,-0.039697794326330145,-0.02904514932633015,-0.1073103240090644
278,1.0324145194833756,0.1213136163143628,1,,0.25759550342889886,-0.5472584956326951,-0.8279235420474591,-0.007863628680411024,-0.026038439435419634,-0.12651648297227663
279,1.0342770046147927,0.12753748014451313,1,,0.26278031629042153,-0.5501423699922494,-0.8287518922096365,0.02640555948670775,-0.036747559700926906,-0.13776105857248064
280,1.0355743430720568,0.1406740243541655,1,,0.26514376239704907,-0.5551016376294581,-0.8261991528459418,0.03453473946865866,-0.0564327695810119,-0.14826933542525844
281,1.0362520771081132,0.15942599825465548,1,,0.2659977818912932,-0.5611712374138615,-0.8218375359969557,0.028679057440242982,-0.08092017328732333,-0.15838369383878872
282,1.0363589511450884,0.18219836131009565,1,,0.2657856507970721,-0.5630184557772882,-0.8173659254326895,0.03040296147333402,-0.10216766776034907,-0.1663772404308873
283,1.0360088567288943,0.20727828835041892,1,,0.2650003186607096,-0.5625955694878119,-0.8128351782466486,0.03620192458157543,-0.12167327022278958,-0.1732305620875085
284,1.0353454438141687,0.23299411367615555,1,,0.2597185587050133,-0.5694883921252604,-0.8162452562360903,0.039027402249001066,-0.13567582885352777,-0.1889873476961705
285,1.0345147584128007,0.25784244584418925,1,,0.25179217130285864,-0.5806840359237735,-0.8243258250192381,0.04010398899939181,-0.14644170646373056,-0.20998081130998236
286,1.0336477283301333,0.28057883292473806,1,,0.24468329279901818,-0.5768789338574423,-0.8313277939559935,0.03592103441222553,-0.14634465953254758,-0.23870624376011146
287,1.0328512006965753,0.30027152538189106,1,,0.23801326973347706,-0.5650211282585801,-0.8377507485578773,0.02891465179893155,-0.14041617512604462,-0.2715823528240017
288,1.0322045493953846,0.31632037535443924,1,,0.233558980522404,-0.5522598365032665,-0.8417752250409104,0.03703203227200192,-0.1327462106669032,-0.29090232236627583
289,1.0317590386328788,0.3284445615559042,1,,0.2301756718801097,-0.5390618422444189,-0.8446403910423048,0.05245952240756063,-0.12423449727528897,-0.30366989744759737
290,1.0315385062498343,0.33664443293965884,1,,0.2323336331711061,-0.5399301371117825,-0.8430935437923319,0.061471081705807736,-0.11354654524111298,-0.3082202253604408
291,1.03154131436291,0.341144571621972,1,,0.2371998752932345,-0.5476732930108275,-0.8393903368916722,0.06734687221404856,-0.10179496221888439,-0.30875439588339404
292,1.0317440442186299,0.34232674576647704,1,,0.2440664639859155,-0.5483429803047705,-0.8392344438518302,0.08084358684810544,-0.098004326,-0.3071139789772853
293,1.0321070160674228,0.3406619591401192,1,,0.2518855256341888,-0.5456446076081336,-0.8407676183067684,0.09796903466398549,-0.098004326,-0.30443812367419576
294,1.0325809135900144,0.33664976668769564,1,,0.2553585915748176,-0.5513896741542158,-0.839134669676311,0.10625165892396693,-0.10749760508858161,-0.2955675907461913
295,1.0331132032893133,0.3307705859549131,1,,0.2568508780717026,-0.560983016451982,-0.8360586935749131,0.11050397933677289,-0.12131764655494466,-0.2838737027500718
296,1.0336530433022233,0.3234536750338092,1,,0.2562592423001346,-0.5633159265860911,-0.8303010748759252,0.11148830674644769,-0.1395506067924038,-0.2670440531359927
297,1.0341540594234735,0.31506060330997887,1,,0.2546995573614314,-0.5622761315175734,-0.823297746712688,0.11095454587341062,-0.15983350994662773,-0.24782867673843534
298,1.0345754930059,0.30588185594535183,1,,0.2483741341056927,-0.5636725062579688,-0.8231637399048308,0.10858865069364687,-0.1746101838084473,-0.23118724688519954
299,1.034883196626741,0.2961427920836696,1,,0.2398778234868314,-0.5661786041496049,-0.8261588437154211,0.10538818237001639,-0.1868786624067625,-0.21571829996325387
300,1.0350520670332752,0.28601459109363014,1,,0.23557398213762992,-0.5701697016458098,-0.8299050016448818,0.10330311995892792,-0.17975433958927925,-0.20509409471004642
301,1.035070517020662,0.2756262135580606,1,,0.2331540363508541,-0.5748280871778192,-0.8339886475256485,0.10171926770404961,-0.16391581704049604,-0.19664688499685318
302,1.0349460007175546,0.26507474776596235,1,,0.22839545227116895,-0.5774193721901215,-0.8333026930003785,0.09245792152456639,-0.1518034860434686,-0.19424239042898525
303,1.0347093212217915,0.25443333474804464,1,,0.22249657263804393,-0.5790027606664745,-0.8302911312947927,0.07945310970540571,-0.14150800692556234,-0.19478426042818642
304,1.0344151179975296,0.2437573999932521,1,,0.21970836101221508,-0.5814500966136693,-0.8326602979896881,0.07638590695808335,-0.12043325240098687,-0.19531945994879105
305,1.0341366058103676,0.23309064966043908,1,,0.21821356728429805,-0.5842566624567216,-0.8372667751287662,0.0774507687976449,-0.09487646828888646,-0.19585188587044067
306,1.033953994647258,0.22247223237770922,1,,0.21872715448741936,-0.5831972699994645,-0.8287392089472619,0.054309559022454955,-0.08772999072159036,-0.19298223357351962
307,1.0339378019355963,0.21194592106683335,1,,0.22007884150828183,-0.5805246084186596,-0.8147307905234463,0.021067126271097355,-0.0882661567917805,-0.18869288991241523
308,1.0341302300772874,0.20157134584028666,1,,0.22295719925652152,-0.578947266137668,-0.815406362076366,0.011717909,-0.07991825474948741,-0.1848999817824356
309,1.0345292607381642,0.19143631830382388,1,,0.22643293065592987,-0.5777985132100265,-0.8218276573360874,0.011717909,-0.06809409030817122,-0.18130132471802626
310,1.0350802023152499,0.18166832579335235,1,,0.2276406044375551,-0.5742311789126819,-0.8267654127045194,0.00132743585149645,-0.06069123243183291,-0.17501360364339202
311,1.0356778544383847,0.17244267506748528,1,,0.22760886562211424,-0.5693421761231687,-0.8308924664616492,-0.014741060401629457,-0.05570446087135955,-0.16725640494083638
312,1.0361799584061004,0.16398482556694022,1,,0.22933324379342934,-0.5682125552662491,-0.8309562744890632,-0.03525649253528829,-0.056625877543200566,-0.15439483778767826
313,1.0364301624634855,0.1565652478848703,1,,0.23172682959502933,-0.56851553100714,-0.829471691840099,-0.057466528704769766,-0.059798741484195755,-0.13958813707977621
314,1.0362867604108097,0.15048652143342595,1,,0.23717396082229222,-0.5672457784461743,-0.8405594606042375,-0.046716419325037783,-0.04352063163408736,-0.1314664831884767
315,1.0356519277672493,0.14606401690290582,1,,0.24387061257375572,-0.5653324604225038,-0.856791875852414,-0.022478912449195063,-0.0192831209661487,-0.12608037212241813
316,1.0344952951319242,0.14360278878137406,1,,0.23564429586960242,-0.5617508724676817,-0.8497541631037687,-0.06529575322197871,-0.021259497230588772,-0.11885662758460244
317,1.0328661856176418,0.14337343182101572,1,,0.2219494425388008,-0.5575579453047622,-0.8341890888884022,-0.13268472642771328,-0.032841978266766464,-0.1109594803565035
318,1.0308911715193236,0.14558852401665395,1,,0.21849404505115447,-0.5579893084797336,-0.8339922723000868,-0.1296013356241675,-0.024672844962699635,-0.09891490810159477
319,1.0287569960496432,0.15038039004057255,1,,0.21925276435782778,-0.5603238294233439,-0.8401203654002266,-0.09751456982600086,-0.008374801913732213,-0.08516343499619385
320,1.0266817280339682,0.15778220717840505,1,,0.22459106829640232,-0.5610218464643412,-0.8438823537593781,-0.08350719746939204,0.029749127731472397,-0.09223534541801315
321,1.0248785029724738,0.16771745258260778,1,,0.23277369595901878,-0.5607034510670494,-0.8461747835979383,-0.08072871388072277,0.08142884736302503,-0.11224040326050129
322,1.0235172508120618,0.18000411636656766,1,,0.21525011385754397,-0.5335303273894698,-0.8354012769216548,-0.11341723521791189,0.0932953255254771,-0.09638192178466179
323,1.0226916270259634,0.19437760580424493,1,,0.18670318701430227,-0.494841351066691,-0.8190248313818803,-0.16131472831470905,0.08808907659456108,-0.06514442624425248
324,1.0224003876349477,0.2105309962588899,1,,0.18812908575804804,-0.5054446091040141,-0.822546583060417,-0.14406898930632422,0.1012833025711688,0.030072572970521617
325,1.0225519502661686,0.2281659225273083,1,,0.20542959733341018,-0.5421546861020279,-0.8366070867326728,-0.09232121187108319,0.12422303643018316,0.15917525954652573
326,1.0229953574148705,0.24704292196210456,1,,0.23011397326783475,-0.5491383707622528,-0.848500772702635,-0.11024048000723753,0.14701677462776186,0.22421348196248705
327,1.0235712668637953,0.267016191347982,1,,0.25865430635410275,-0.5405985192706594,-0.8592629164281145,-0.1645408501946278,0.1697342721417476,0.25579634943450397
328,1.0241675485993493,0.28803623681673507,1,,0.29299855202936415,-0.5619754726512507,-0.8490813719211223,-0.12772579544374937,0.18887619017462115,0.25544720655025255
329,1.0247603312494635,0.31010895548211737,1,,0.32944209655424506,-0.594173453694589,-0.8313244119158453,-0.05795392850761541,0.20672480721516442,0.24354812852322372
330,1.0254247770708431,0.3332135440632075,1,,0.31561318621102996,-0.5627838772803953,-0.8266156696453612,0.030822043660745518,0.20445376979548546,0.19061818306862818
331,1.026309462357413,0.3572002282964476,1,,0.28632604634696834,-0.511841823011029,-0.8259191114527874,0.1254415704641524,0.195996158899103,0.12507169490004785
332,1.0275811531518275,0.3817028395097146,1,,0.25131159020840166,-0.49601146186914163,-0.8157458758772406,0.1011062900548842,0.16265815346913762,0.22072867070037674
333,1.0293585444268512,0.4061020187952798,1,,0.21438366130689063,-0.49191177653611773,-0.8024065206485064,0.03702868709209695,0.12100770878636709,0.37024307427177866
334,1.0316590156038223,0.42956006840898037,1,,0.21659585363927114,-0.534310204203418,-0.8070048209743398,0.062054651845944,0.14610361457131812,0.42400692781266336
335,1.0343783693053434,0.4511244654886015,1,,0.23153528748761715,-0.5918284799895918,-0.8174359308304584,0.11605453332653469,0.19290351314190055,0.4466354558750415
336,1.0373109551633153,0.4698751278211129,1,,0.2518918523385322,-0.623033214670388,-0.822911039928409,0.14803279353004123,0.20276832327357075,0.44565697391024234
337,1.0402020728309385,0.4850799487890525,1,,0.274759561057875,-0.6420401497106236,-0.8260887651753319,0.16980279931829426,0.19551165143363813,0.43373532064061454
338,1.0428132127214054,0.49632586884116847,1,,0.267796009110002,-0.6291607085114992,-0.830423200911583,0.21554699499531713,0.19281286,0.4090296898185337
339,1.0449781575045929,0.5036040415164909,1,,0.24316890616906525,-0.5974008504839359,-0.8354425429061719,0.27548668023523304,0.19281286,0.3767544676605451
340,1.046634061993035,0.5073405610671273,1,,0.21116782304127046,-0.6060792975833794,-0.8227930616296172,0.3058135462852734,0.18199404064054214,0.3556330581967296
341,1.0478222621215258,0.5083739105271793,1,,0.1731026742662907,-0.6480125837377728,-0.7956134491814355,0.31178801878707435,0.1622782583899608,0.34368409636778263
342,1.048663610915428,0.5078852844591711,1,,0.19079152409020556,-0.6525244701177214,-0.7821028359976955,0.2878650632795992,0.19350046854500638,0.36464899331785583
343,1.0493191842989884,0.5072889524842825,1,,0.22553939530172018,-0.645586550384048,-0.7727745195621822,0.2547944078129682,0.2403081489805631,0.3956845260141359
344,1.0499485088231364,0.508088517258152,1,,0.2535944612577389,-0.6402261185062853,-0.7788443201199929,0.23497327179897642,0.26858354610703317,0.4141202586401694
345,1.0506751096123135,0.5117038237853381,1,,0.2783820461591782,-0.6356358287931874,-0.7924316032341507,0.22162065648664311,0.28781133522038316,0.42640466873857513
346,1.051564832965711,0.5192755746745543,1,,0.29272158104763984,-0.6399815718193728,-0.7910291875695156,0.19994380058250888,0.26397711677379965,0.43145247646176355
347,1.0526178948946168,0.5314624511336526,1,,0.30208685800669827,-0.6485817100508406,-0.7824902602317245,0.17430382007224737,0.21964131735040576,0.43305497837765483
348,1.0537726258481879,0.5482575218791277,1,,0.3058980175245569,-0.6345756158298601,-0.7769412004567379,0.10917660650091426,0.19241128900755447,0.4343382138019254
349,1.0549181223075041,0.5688620261102091,1,,0.3071338130712819,-0.6100873378602248,-0.7727784989872556,0.025739732071301768,0.17311295916254754,0.4354734099885866
350,1.0559135502107206,0.5916584836710801,1,,0.32384463259929297,-0.589420031604587,-0.8048167269562595,-0.06952459797742033,0.22946755763844207,0.42358860322295866
351,1.0566117341625239,0.6143160815308574,1,,0.3442703932611641,-0.5696699894422167,-0.8455453661123563,-0.16762823252554682,0.3039834316302668,0.4085782087691986
352,1.056882838900467,0.634038189704324,1,,0.3691534251747567,-0.5897306495744635,-0.8327081878786696,-0.32253794449375556,0.30095223976912294,0.42583528199536996
353,1.0566317665436773,0.6479290324534864,1,,0.3950195574677354,-0.618572002661373,-0.8080564729286837,-0.48997686640656096,0.28081717991687954,0.45020930391085195
354,1.0558033777667217,0.6534232403837384,1,,0.4235136094558678,-0.6091334921450398,-0.7538990206728239,-0.550546979308328,0.2032052035376628,0.47107032871505605
355,1.0543745776028282,0.6486995465538531,1,,0.45262862297751455,-0.5906496863987003,-0.6927695444278845,-0.5858646540922918,0.1120117861523596,0.49110125428097406
356,1.0523399111294214,0.6329970475150303,1,,0.39475630816796653,-0.578765052269973,-0.7173177937831418,-0.5408956663655384,0.029559459676229933,0.47487709242998194
357,1.0497027563069414,0.6067711609765115,1,,0.3134801244018506,-0.5686559195650619,-0.7649175640453806,-0.47432561842970666,-0.05054108489880708,0.4488985293311508
358,1.046482731835252,0.5716607155188393,1,,0.23502852062013763,-0.628384257607195,-0.8045672965066824,-0.45763179727166325,-0.044929356802882875,0.3512091749519028
359,1.042740627639508,0.5302767832954932,1,,0.1571980977409026,-0.7034712397195507,-0.842468658205023,-0.4519067468187873,-0.02046780122427038,0.2377491960860019
360,1.0386095423411548,0.48585732445848223,1,,0.17266723432707157,-0.6995380818258193,-0.8323403842711893,-0.40377657102146747,0.04457340896362928,0.09891992269536551
361,1.0343128761292484,0.4418524771570043,1,,0.21554328319334146,-0.6723926164812388,-0.8081033190966177,-0.34318981455862124,0.12153496424891563,-0.047361624109396434
362,1.030152524164644,0.4015107288629163,1,,0.22696946780679592,-0.614702951241649,-0.7883087790674275,-0.2662514766319241,0.07712761386084957,-0.1760171865210123
363,1.0264636468762198,0.36752696632818066,1,,0.2315523767818927,-0.5503670777884595,-0.7694809024411976,-0.18575514753187278,0.006311219973733553,-0.3008374532652411
364,1.0235485705556362,0.34179325868430677,1,,0.22357232530245924,-0.5337781465494426,-0.7790689662363711,-0.15081924115374823,-0.0595068731946642,-0.3100974855934547
365,1.0216125428438712,0.32526890017417426,1,,0.21095436120647654,-0.5348161225295849,-0.7991474433174818,-0.1327030366359202,-0.1234797268420374,-0.2766957378317149
366,1.0207229673863003,0.3179654355738362,1,,0.20404514644848695,-0.5639698185321274,-0.8292943834712279,-0.1291066657626004,-0.07968307225984518,-0.26950344743830734
367,1.0208027819940608,0.31902975722488236,1,,0.19815355138397237,-0.598135315545468,-0.8612360897388662,-0.1280985447777959,-0.01667583720119346,-0.2669831544398216
368,1.0216545695797767,0.32690303830129047,1,,0.22013256726986427,-0.590743636664638,-0.8410932519811376,-0.11056703249236423,0.04473126348231536,-0.30516168985260544
369,1.0230025813621668,0.3395310344484073,1,,0.2521429182561601,-0.5683944832318301,-0.8022038746166651,-0.08708833533929765,0.10556243576962683,-0.3579887590731488
370,1.0245390440617355,0.3545993315137307,1,,0.2562703846851521,-0.5607524305022014,-0.7994911965600656,-0.09319206700277963,0.0839550767658889,-0.36112364800484575
371,1.0259666863450116,0.3697664697062167,1,,0.25054952158164945,-0.5583049757874213,-0.8095562515318965,-0.10974441282649346,0.033230149071707654,-0.34670709014571904
372,1.0270354216855495,0.38287104295114704,1,,0.2423637752428082,-0.5566570615532527,-0.8238890624868832,-0.1604052002526445,0.04179305175261743,-0.3624957838418371
373,1.0275732273661038,0.39209591956988127,1,,0.2333294982754357,-0.5552843874420331,-0.8396910390430102,-0.22280774467930828,0.07076566271105758,-0.38868257032378367
374,1.0275095792912927,0.3960813234400169,1,,0.20381297368824094,-0.591261277920583,-0.8363604704809582,-0.2064290342765036,0.030434231421313674,-0.34404534402549297
375,1.0268872894918684,0.39398733512584455,1,,0.17015987625865367,-0.6347812463296574,-0.8291659138544486,-0.1741397470465753,-0.02389376943984947,-0.28510457650490006
376,1.0258581119844787,0.3855152430733657,1,,0.14270812934502575,-0.6050433320177063,-0.8288831532775578,-0.1538135419713559,-0.03856367249211954,-0.28763607190525975
377,1.0246603576209612,0.37090337142194507,1,,0.11728481714865759,-0.5513430777837384,-0.8308612115573973,-0.13740040945379184,-0.04026158198309494,-0.3102748810571262
378,1.0235822573625053,0.3509115091089028,1,,0.11010430586202131,-0.5452963708158397,-0.827341166297118,-0.09764373694234016,0.10539373784897933,-0.28401299718247763
379,1.0229200689863536,0.3267972545965687,1,,0.1056176528895973,-0.5462865166627876,-0.8230092329831008,-0.05443999557042495,0.27280825632378375,-0.25053009825294376
380,1.022941383575952,0.30027233236931666,1,,0.17113740965015695,-0.5748902388980596,-0.823304459211714,-0.001220462038050903,0.3120413387390327,-0.22342923664779787
381,1.0238602646900852,0.2734155628325479,1,,0.24454020293881956,-0.6066033739640181,-0.8241207244675165,0.05312689411909753,0.3368406128571107,-0.1970470216028798
382,1.0258238583524555,0.24851923174739615,1,,0.2686565221857867,-0.5964693614689344,-0.8180609611268551,0.007574900128562461,0.25743841947607654,-0.1569487382325698
383,1.0289043495885586,0.2278607247696938,1,,0.28604465794581607,-0.5806227214986566,-0.8110625391306459,-0.0516145289793559,0.163811501862056,-0.11497805085210562
384,1.0330891157363735,0.2134181184608236,1,,0.2884103724788209,-0.5700686291412068,-0.8232182543669206,-0.0442462687359115,0.10592992558988552,-0.0888101028459845
385,1.0382658133527207,0.20657623532160072,1,,0.289109808762776,-0.5601015829736465,-0.8374985355846762,-0.029495467971967563,0.05201320119292993,-0.0643949852292572
386,1.0442053074970798,0.2078854725899101,1,,0.28235030604595135,-0.5383546589205997,-0.8303893844036885,-0.03680166244196873,0.06273291649627284,-0.09652123827754587
387,1.0505509015180485,0.2169316686564951,1,,0.27379376220937557,-0.5137696735528733,-0.8181269951918353,-0.049421927176154255,0.08902513271798076,-0.14226969226224662
388,1.056825239959634,0.23235270378811898,1,,0.297947973100746,-0.5090318583286282,-0.8220345172654597,-0.0927115162699367,0.11276815557592249,-0.15692713566455233
389,1.0624646866342558,0.252005322138614,1,,0.3313264821194542,-0.509890863283994,-0.830501887704073,-0.14464972860673755,0.13579231649341353,-0.16281704225088187
390,1.0668835063249633,0.2732548666462274,1,,0.3587632373806284,-0.5674912836880817,-0.8586685347413716,-0.19488899867565807,0.14321010259389713,-0.17140377365254655
391,1.0695580610189779,0.2933389586205779,1,,0.38462569577581746,-0.6401256159866103,-0.892054600065975,-0.2446781249689628,0.14649290399227075,-0.18070504171320861
392,1.0701098541996075,0.30974608349277055,1,,0.38230065342269853,-0.5774520971559883,-0.8930975100729593,-0.26521377878300406,0.14920410156487293,-0.21072910810645568
393,1.0683630275983549,0.3205507945640573,1,,0.37474776210206767,-0.4896834485859567,-0.8881418346007695,-0.2803238807949724,0.15180928549515046,-0.24459656767631655
394,1.064360883449177,0.3246574364663288,1,,0.37927576665775714,-0.4175359706485597,-0.8604906984792657,-0.2500386113325884,0.15874083868184397,-0.2048374322161699
395,1.0583433362100862,0.3219222891722376,1,,0.38684204210030915,-0.34931711991399733,-0.8271317935837134,-0.20833668544301642,0.1667604471496945,-0.14656166154079037
396,1.050702681732634,0.31314638101317244,1,,0.40779089697980225,-0.3966727160681913,-0.830544639997277,-0.22825104924789463,0.13817803693220396,-0.08147831492000389
397,1.0419393840171123,0.2999517441682864,1,,0.43194941742099374,-0.47174758102114506,-0.8427767893116123,-0.26294340715573694,0.10081703225430319,-0.01476224537334867
398,1.032630999403023,0.2845662259318429,1,,0.43376133604614403,-0.494142096234534,-0.843207081495226,-0.2917619391037151,0.060368216131000886,-0.03133370195126745
399,1.0234126752565753,0.26954429541795616,1,,0.43035407543284065,-0.504232808116105,-0.8408809810945225,-0.31920860429016434,0.019198224255832723,-0.06735744584848942
400,1.0149569454476042,0.25744820133543056,1,,0.3914545509260021,-0.4513952977974976,-0.8367415853906355,-0.29066491582376563,0.015519840384276036,-0.026051116989497334
401,1.0079398298460893,0.2505128507034798,1,,0.3505955718686646,-0.3950836501495333,-0.8325020814283244,-0.2590301151944075,0.013911291310636351,0.019524445969182378
402,1.002987949953345,0.25032338414556154,1,,0.3586290881160357,-0.42696558362968434,-0.8299579227373278,-0.18742473111689095,0.028023543049738454,0.07749945193242018
403,1.0006110147625198,0.25754465313639824,1,,0.3686507416555764,-0.46243377215992054,-0.8274827025901944,-0.11419400460613825,0.04277505685163548,0.1359786626630262
404,1.0011301672222677,0.2717495813715199,1,,0.3550948495809213,-0.45270206393611356,-0.8196584976573852,-0.037495670832196556,-0.021027122839528897,0.15259055007455055
405,1.0046146158698217,0.29139106746671783,1,,0.34000558287600496,-0.44003076348309805,-0.8114864194050799,0.03942818109098142,-0.08993807205810138,0.1664795807605794
406,1.0108391012481903,0.31394557594912775,1,,0.33144564284912975,-0.44486663917277874,-0.8111216603492161,0.1332448033414966,-0.10984555336056735,0.18334880336056733
407,1.0192741976541784,0.33622713774667756,1,,0.3232673185714183,-0.4507257465985037,-0.8112132111332642,0.22804874757402951,-0.1268889575148057,0.2003922075148057
408,1.0291186988174081,0.35483448559624636,1,,0.32628958495903265,-0.46685120157108306,-0.8404218745057546,0.3199272394491954,-0.1336073549111283,0.20037238036628938
409,1.0393767948490362,0.36666097692972777,1,,0.32996770188287244,-0.48357780230158115,-0.8713354899929194,0.4116344302486858,-0.1397211714572575,0.19935341572463847
410,1.0489733759711037,0.36937635312655154,1,,0.34530002717997604,-0.4886015943394817,-0.8744480022407323,0.4677733329182612,-0.1351596541890484,0.1405604877711918
411,1.056891864404403,0.3617880627295178,1,,0.3626276893049099,-0.4916217283073487,-0.8728006397598965,0.5178225270040203,-0.12877039473152466,0.0718759810909612
412,1.0623136684953705,0.3440104762823168,1,,0.3419216757955873,-0.5130543532250517,-0.8687353559596177,0.41577697489824517,-0.09015509882444975,0.06223927344658086
413,1.06473753180911,0.317410434520833,1,,0.3146657583620974,-0.5376578536928557,-0.8642536739705984,0.2875386878684968,-0.0459900513065337,0.06277138026220362
414,1.064059181688669,0.28434853382583897,1,,0.3412348934283342,-0.5879523183686113,-0.8736479979241342,0.1801604436748643,-0.014810433655162169,0.018466279614881686
415,1.0605951025019755,0.24778258701216227,1,,0.3772191939827965,-0.6427406887270403,-0.8854695353815834,0.07643107028141331,0.014097752093386491,-0.03368181841401411
416,1.0550396723354818,0.21082654362787506,1,,0.3580997646417438,-0.5845848404674138,-0.8400492688263984,0.004789058867164722,0.015404517420576155,-0.09797812947846807
417,1.048355157987424,0.17635534243691295,1,,0.33737982604515926,-0.5231484834658349,-0.7929663918125287,-0.06592096267498448,0.015909588765956145,-0.16262729013477872
418,1.041609954978056,0.14671713213482337,1,,0.33036240408955125,-0.5047564735139173,-0.7826973449206097,-0.051673352956277535,0.009528082677652185,-0.15630192427628056
419,1.035796681155859,0.12357408338630803,1,,0.3255268861573867,-0.4932185791781227,-0.7782903045828029,-0.023897616189016077,0.002050000723983753,-0.1386750142890361
420,1.031669484234575,0.10785928526311442,1,,0.3309978332332573,-0.5080041213188038,-0.7889162713375146,0.029351888360078564,-0.010521631238560253,-0.11364353589260699
421,1.02963455274137,0.09981958011323445,1,,0.3380317879171821,-0.5267816948039152,-0.8018220405314418,0.08646456878221427,-0.02386571582630672,-0.08748913187438287
422,1.0297124505669726,0.09911104536300622,1,,0.3283898806465874,-0.5341520190140433,-0.8141163568179931,0.10199338027979225,-0.04012536543558928,-0.06425856696498611
423,1.0315728322723416,0.10491853460490612,1,,0.31631231348737376,-0.5398562118623516,-0.8263213650562831,0.11144849354325384,-0.056810859767767875,-0.04145505478986847
424,1.0346274672395528,0.11607854998176914,1,,0.3322311873106281,-0.5397707938872376,-0.8295076359994878,0.10662781702728083,-0.026174576124861265,-0.04361501853034137
425,1.0381588641504325,0.1311939804294683,1,,0.3492946542336409,-0.5394909001462893,-0.8323369603259264,0.10113767103160368,0.006519470673773464,-0.0470946894338306
426,1.0414587596199,0.14873836547097907,1,,0.3475946395469266,-0.5505713707664377,-0.8432960063974193,0.09001109179636585,0.029302464623558712,-0.0868324680114919
427,1.043951873659248,0.16715375371633698,1,,0.3458946248602123,-0.561651841386586,-0.8542550524689125,0.07888451256112804,0.052085458573343964,-0.1265702465891532
428,1.0452846471270991,0.18494779870558375,1,,0.35222922888826474,-0.5532185660344383,-0.8425117856045939,0.030696381328269573,0.05808090075809585,-0.15404194496964493
429,1.0453658485866766,0.20079260553936593,1,,0.3584433570560489,-0.5446530466862478,-0.8307188502167328,-0.01715469588739628,0.06403322899146659,-0.18142635462330242
430,1.0443554349147577,0.21362211595338465,1,,0.3525341804689571,-0.533410457151177,-0.8236884219885888,-0.025617031018916346,0.07302446379240118,-0.206813357038907
431,1.042608214396093,0.22271887730755163,1,,0.34662500395571927,-0.522167867756618,-0.8166579938483125,-0.03407936604467262,0.08201569848096171,-0.23220035913722023
432,1.04058721154884,0.22777674518142785,1,,0.35207646389417957,-0.5150422285209908,-0.8101807723614423,-0.03943995824785409,0.08577141223082303,-0.23811428889499292
433,1.0387661363765097,0.22892508217413587,1,,0.35756832803335115,-0.5080037277413748,-0.8038070051576257,-0.04469197474890723,0.08938940896674144,-0.24373263069134782
434,1.037540318426106,0.22670356995996607,1,,0.36572277682784543,-0.5087803426251877,-0.8071524231186658,-0.04000003276108686,0.08052685155237815,-0.22340089284397782
435,1.0371614581397246,0.22198467057154003,1,,0.3738772256223397,-0.5095569575090005,-0.8104978410797059,-0.03530809077326648,0.07166429413801487,-0.20306915499660783
436,1.037704992927133,0.21585102535249404,1,,0.3780898451416518,-0.511670707856445,-0.8147552700194277,-0.022499015998651443,0.07390366125984649,-0.19227648020885063
437,1.0390715862785243,0.20944451790477633,1,,0.3821683685032866,-0.5138299458531449,-0.8190437243772821,-0.009413806681503965,0.076520701944057,-0.18180831255859614
438,1.041017901275724,0.20380961712688675,1,,0.39099667148868816,-0.5220194982038427,-0.8191948539578265,-0.005074510756835522,0.06290861995202329,-0.17124465930524435
439,1.0432074695108247,0.1997548868726329,1,,0.4001723174237066,-0.5306500367756,-0.8190434282189627,-0.0013747882245080825,0.048109730815015066,-0.16067402349859453
440,1.0452704719673038,0.19775362668275426,1,,0.4051863844596056,-0.5327974485198362,-0.8171005777364642,-0.008321199487453575,0.023548986453337768,-0.16808216698951034
441,1.046861548849649,0.197898275631161,1,,0.4095419359589858,-0.534163307952604,-0.8149422423674056,-0.01631225601485189,-0.0015651995066343018,-0.17741715743604047
442,1.047707031334297,0.1999141775217913,1,,0.4057128284821679,-0.5299570986757653,-0.8112581695708013,-0.026438101484596795,-0.016753967235977864,-0.19513738427526978
443,1.0476365743203415,0.20322786089257863,1,,0.4018837209574931,-0.5257508893463567,-0.8075740967281527,-0.036563947080896345,-0.03194273515515339,-0.21285761133596967
444,1.0465980267977903,0.20707540665538862,1,,0.4008367456579365,-0.512611335163405,-0.811959599948934,-0.03572435410411228,-0.02522368959189604,-0.2291971988271338
445,1.044657356385104,0.21063037931348344,1,,0.3998600294542727,-0.5000384655618892,-0.8165415003183462,-0.03436702531464047,-0.01771278062312607,-0.24386871446682726
446,1.0419867529737912,0.21313000166108204,1,,0.3935094277773609,-0.5345351786210119,-0.8052583747330041,-0.04512807355391955,-0.043539299023854304,-0.19974841501899207
447,1.0388436486866974,0.21398271710423752,1,,0.38685648056503824,-0.5661831958684789,-0.7954173473326182,-0.05641425332763188,-0.06954589280444518,-0.1581569467292389
448,1.03554216262577,0.21284747412388796,1,,0.37393797035232657,-0.5387971833618995,-0.815461178677247,-0.07858283189689733,-0.09928422830018689,-0.16897089244664337
449,1.0324177863530597,0.2096808498532595,1,,0.36127870741876367,-0.5115199800572382,-0.8336111515779178,-0.10069814778108938,-0.12485292031500987,-0.17802802179256627
450,1.0297870687843704,0.20474994038149458,1,,0.35177742184188665,-0.48556821449714693,-0.82869139338592,-0.12216465614932799,-0.09962977077827631,-0.16568477475785792
451,1.0279066092406064,0.19860847312179805,1,,0.3434335070123743,-0.4613818609808724,-0.824784276320792,-0.14226075687850764,-0.075295955724877,-0.15088306606592417
452,1.0269384094044072,0.19203502370478567,1,,0.3466666026663732,-0.45485466777193495,-0.831006460025031,-0.14864886881827738,-0.05985802603301892,-0.11148972909312752
453,1.0269294722992854,0.18593761647824103,1,,0.350484878402672,-0.4502624134085455,-0.8373374853059016,-0.15365158006869525,-0.042368286428838976,-0.07458325436475492
454,1.0278111111438772,0.1812364622152138,1,,0.36023470113204276,-0.4652832361825576,-0.8447717580969268,-0.14461148520626319,-0.004080835231540763,-0.06288430983404548
455,1.029418275658852,0.17874247342231867,1,,0.36957606178957053,-0.4793895313865673,-0.8509618772554055,-0.13768149993756632,0.03157938543159832,-0.05100765309718189
456,1.0315235699381293,0.17905078071546254,1,,0.37460674558461077,-0.4838444216190288,-0.8440219048813815,-0.15302041413599374,0.03951330595234285,-0.037255522407076046
457,1.0338770620189808,0.18246507877461765,1,,0.3795653416831529,-0.4878611347137284,-0.8376526709876447,-0.1680795372812599,0.04774251768374736,-0.024501082
458,1.0362427455215097,0.18896157098409425,1,,0.3836023716896559,-0.4862762051355462,-0.8385797395817748,-0.17956182260306333,0.059746724798389515,-0.024501082
459,1.038425067710307,0.19819316861380265,1,,0.38764994140314823,-0.4846801042496479,-0.8392622707230778,-0.1906146246570718,0.07215144596692429,-0.024924302686709577
460,1.0402826894422517,0.20952807102770357,1,,0.39202149672858333,-0.48274060367895216,-0.8324278724703382,-0.18846538163845175,0.09686772554930594,-0.038357064995993694
461,1.0417301789037563,0.2221133516722484,1,,0.3963266274671545,-0.48064823681948704,-0.8260874041105055,-0.18647433532340796,0.12053404597022392,-0.052034634149301824
462,1.0427309218858374,0.23495362111729856,1,,0.39934036667578093,-0.47558392784929715,-0.8293496517710012,-0.18755886316696951,0.12378762950090856,-0.0704716003632694
463,1.0432857700099654,0.24699618323465292,1,,0.4026944044495758,-0.47057325050119525,-0.8327286202544771,-0.18800782738114163,0.12785443438662547,-0.08930095998704507
464,1.0434216558477636,0.2572160632863334,1,,0.4097380530404534,-0.46614406279848863,-0.8373731077347488,-0.1815658345943675,0.1407384098813158,-0.11238475487441328
465,1.043182849441589,0.2646958602907521,1,,0.41666390307807044,-0.46194494947372317,-0.8413641988331167,-0.17458192835141764,0.15319586560632473,-0.13434476114222002
466,1.0426255048541835,0.26869613435193934,1,,0.42253064211623625,-0.4598144041521949,-0.8394806902305286,-0.16272575039128453,0.16181853910669466,-0.14620093404335457
467,1.0418145683693782,0.2687122365970091,1,,0.4289952359341252,-0.4573866708386886,-0.8365189318592514,-0.1552004595618559,0.16272930948326247,-0.15665904417348778
468,1.0408215565630652,0.2645137550202983,1,,0.4397062151700392,-0.45284809932370557,-0.825898685635291,-0.17843617172478118,0.10886472474521618,-0.15718713113214614
469,1.0397221278647304,0.2561634964554854,1,,0.4497846247396313,-0.4472706128257831,-0.8172063406307615,-0.1997032033668335,0.05722887134373014,-0.15649540513058305
470,1.0385932041103805,0.24401403753718448,1,,0.4545387006931827,-0.43294858523618257,-0.824741126459546,-0.20439986638924448,0.024352229354057703,-0.1455365214790926
471,1.0375099206321832,0.22868106582329564,1,,0.45883512946685445,-0.41901961607465993,-0.8324900723676696,-0.20611867900833938,-0.005363448010240046,-0.13508295247888477
472,1.0365425118135554,0.21099414030939148,1,,0.4565347612231435,-0.4107564254489622,-0.8433260463932316,-0.16491300042730073,0.010484887544238094,-0.1319132887104387
473,1.0357526705160598,0.19192766279429574,1,,0.45421842977270255,-0.4024902897447906,-0.8531016329008214,-0.12486492118330977,0.025853817840170695,-0.128897
474,1.0351887481252338,0.17251778369304355,1,,0.4515881650356514,-0.3941662379927952,-0.8420235388827448,-0.10758230681713571,0.03179471646516889,-0.128897
475,1.0348800050243343,0.1537736175991571,1,,0.44883159273986717,-0.38702928510777485,-0.8318299546458238,-0.09082330646663803,0.036370173896249386,-0.12665334630724165
476,1.0348317008835552,0.13659234570390957,1,,0.4445388406837838,-0.3943300841597642,-0.8323939686925111,-0.08043261230987893,0.024338841577369486,-0.09712189327173207
477,1.0350238642839362,0.12168751332960309,1,,0.44036036695240177,-0.40277446479520634,-0.8346278453339218,-0.07005975977288771,0.014539469616539739,-0.07075079151916644
478,1.0354157915584552,0.10953876018661285,1,,0.43695988201967495,-0.419004172641951,-0.8482298883602402,-0.059808369340358186,0.01993493762546142,-0.06589487010854053
479,1.0359556521582631,0.10036922663656152,1,,0.43477584161500094,-0.43147196808930977,-0.8587837981712085,-0.054684536068090414,0.025066147590670194,-0.060897379331421246
480,1.0365915876954956,0.09415309760738765,1,,0.43928938078488505,-0.4232271805692657,-0.8525550970242186,-0.07779234090852326,0.028742388014915972,-0.05512042713530919
481,1.037279490707738,0.09065021453833849,1,,0.44259414300584987,-0.4148718074626296,-0.8463521249652799,-0.09733216622862395,0.03142020198098564,-0.04872310932148434
482,1.037984275950837,0.08945920791348422,1,,0.43746199191510343,-0.4057445798259087,-0.840328735107164,-0.09196852601065185,0.027129288195396548,-0.03799581982247595
483,1.038675015587106,0.09007769530206725,1,,0.43421174806767954,-0.3988687403442069,-0.8357849882427433,-0.08675899665185066,0.025287983808847336,-0.02779901379609082
484,1.039317584003683,0.0919590552863794,1,,0.44259568774890495,-0.4059112610858318,-0.840388577496957,-0.0825021996391542,0.038590467980026716,-0.02088172214695749
485,1.0398695193280825,0.09455916358031648,1,,0.44980117370761724,-0.4119275061418032,-0.8444082581968927,-0.07959517478516702,0.04853622056033855,-0.015261704127558614
486,1.0402803074050175,0.09737091307239677,1,,0.44959778290169633,-0.41149160974829535,-0.8447569364725703,-0.08517409720846866,0.03737837666593961,-0.01779757761007596
487,1.0404974995713054,0.09994749161549311,1,,0.44942902089657477,-0.41088521406381284,-0.8452148810018074,-0.09048827884667389,0.027026286750701668,-0.020555763811676172
488,1.0404767121470175,0.10191682336503015,1,,0.45016555316569323,-0.40582148677730195,-0.8485293531218837,-0.08888139288095465,0.037738870582182,-0.029125831178548466
489,1.0401925055297208,0.10298973195196091,1,,0.4509615459923176,-0.4009045909725025,-0.8516084404328644,-0.08697179839873909,0.048153980984146305,-0.03731139013257054
490,1.0396472236407897,0.10296387461150261,1,,0.4529359958182206,-0.39889777036846696,-0.8500224020903174,-0.07906278147379146,0.05267342066641053,-0.03787632029172315
491,1.0388755724697292,0.10172489146259006,1,,0.45477814259690746,-0.39704733880701704,-0.8482090265129614,-0.07219150787191256,0.0548158062320427,-0.03884248348490594
492,1.0379437177075788,0.09924585681370611,1,,0.45593779222293845,-0.39600365414358923,-0.8452229117734062,-0.07067352582994658,0.04469594701028445,-0.04187844281890971
493,1.0369428217402046,0.09558589713649382,1,,0.4569281429213547,-0.39499332899886386,-0.842389766987875,-0.06918118851685112,0.035977247363972134,-0.0444666034117263
494,1.0359780229634665,0.09088830315152395,1,,0.45512179175162326,-0.3945340801537063,-0.8420835806309391,-0.0681124844736797,0.05040474040966053,-0.039657436722297365
495,1.0351546757901375,0.08537736206959864,1,,0.45367411540513275,-0.3936890905276812,-0.8416258742837773,-0.06685693202967717,0.0630788968251005,-0.034098426213461056
496,1.0345640945190466,0.07935187904201695,1,,0.45751478421432656,-0.38715669150687765,-0.8389341385878951,-0.06284646367523004,0.049901646119109695,-0.017483625671760695
497,1.0342710567840607,0.07317284087355978,1,,0.4610607689760455,-0.38336521559608555,-0.8371101276835746,-0.05976159434198143,0.03685196299535031,-0.0008439607607091228
498,1.0343049304735439,0.06724344258813417,1,,0.4634581063681002,-0.3902575706113469,-0.8386684170146185,-0.06028461286619692,0.024299524305878905,0.015892623667611044
499,1.0346555181234602,0.061981276368926544,1,,0.4651550769384072,-0.3957383144611919,-0.8400328636727392,-0.06000018843509195,0.014658310438317031,0.029647433337654797
500,1.03527375560993,0.05778390465314117,1,,0.46336876984582887,-0.3941984034252996,-0.8404332328238635,-0.05569994285738454,0.01949608702861186,0.028572371817078345
501,1.0360766832780373,0.054990007056248055,1,,0.4618337822192776,-0.39217023908502563,-0.8402202682935517,-0.050196364682496525,0.023736057344599663,0.026996317591899643
502,1.0369559912608903,0.053839393888430655,1,,0.46140133447413334,-0.3880001051470866,-0.8373166057918754,-0.03941376064273985,0.025353448203613085,0.023222405924934884
503,1.0377898010157054,0.05443691838013332,1,,0.4602538313271628,-0.3839568646344633,-0.8371684740275277,-0.02819256345180449,0.025281558710060482,0.020690041763313172
504,1.038457555605958,0.05672725145257435,1,,0.4564120916524907,-0.380391742128898,-0.8474028266216097,-0.015318803704625704,0.018844678760939614,0.02283566841302013
505,1.038857319107865,0.060488305959973614,1,,0.45416956608014125,-0.37970025030063187,-0.8560046244349877,-0.0075757853337936705,0.013493259667774121,0.029710365021001387
506,1.0389233619819118,0.06534939491325487,1,,0.45747323070921064,-0.388974717739418,-0.8589446045148098,-0.017626549207134946,0.011906297136494359,0.05298581912134793
507,1.038640325020372,0.0708354007718983,1,,0.46058538096466856,-0.39792764980823964,-0.8586611105720546,-0.029292663570509164,0.012296608141430219,0.07246869535903151
508,1.0380496098829977,0.07643137631568765,1,,0.4629772045518682,-0.40567121850738597,-0.8462534364267947,-0.04703445964883814,0.020123870872239658,0.07768687018633924
509,1.0372447567358356,0.08165569501446243,1,,0.46399116929497974,-0.41020112299542166,-0.835804080743335,-0.0611586271298777,0.026810672675957437,0.08157771197392556
510,1.0363553884241046,0.08612688494643482,1,,0.45820968022997105,-0.39888157598393104,-0.8350129448594256,-0.057441032877375744,0.027872841607734095,0.07892228765029481
511,1.0355228307630804,0.08961084026825758,1,,0.4534488953180628,-0.38952394180544025,-0.8335530387330226,-0.05363250968942467,0.027109196384884213,0.07704702791028642
512,1.0348733324852952,0.09204033740245995,1,,0.4539389215530109,-0.3902589811578625,-0.8286527763835411,-0.049356220856930005,0.016953011160390198,0.07918517082117213
513,1.0344957678897209,0.0935055192542737,1,,0.45404008382323635,-0.3909817509128785,-0.8269226829477211,-0.04402833905075358,0.007399148945980243,0.080960095
514,1.0344293950482206,0.09422005598044239,1,,0.45224100251979493,-0.3916445634020109,-0.8406841074917649,-0.033561686366179164,0.0007886306444703109,0.080960095
515,1.0346640483912606,0.09447172354957731,1,,0.45121690822508226,-0.39158626872008756,-0.8522683263500777,-0.024942658703876647,-0.00438579562409603,0.08071062017335164
516,1.035151177976971,0.09456781262545451,1,,0.45270009792672355,-0.38919500523899514,-0.8568087205327112,-0.022301176915262677,-0.004914091833039912,0.0796540295408108
517,1.0358209409260126,0.09478526196960171,1,,0.4563735612663374,-0.3901613908954891,-0.8564851780114945,-0.020814824664324858,0.004675208406708427,0.07825476965942607
518,1.0365993647174934,0.09533303849969131,1,,0.46782621567581406,-0.40305313294602196,-0.8388864003081031,-0.02343114383095083,0.05019915802547691,0.07563845196641661
519,1.0374207215572102,0.09633061662748447,1,,0.47586160639830627,-0.4123549904526286,-0.825490047373439,-0.02646971699743656,0.08152997235390591,0.07440661952631208
520,1.0382328953358706,0.09780249232430885,1,,0.4687311076938948,-0.40572486341389075,-0.8307441458003308,-0.031382262184284936,0.04987134844270162,0.07931916215117549
521,1.038996413706623,0.09968595238912276,1,,0.4626616396898647,-0.4002289341657355,-0.8347237106594796,-0.03456345834405551,0.02320526870868572,0.0839170037178005
522,1.039679893350218,0.10184869647374249,1,,0.4600990626879844,-0.3984817258906673,-0.8344907203654551,-0.0320222447643077,0.013040415821008471,0.08747470358823585
523,1.0402554038156115,0.10411369211610316,1,,0.4580568222449123,-0.3976068075543939,-0.8348860898677016,-0.03033710886311645,0.002877575910059923,0.09200377670293716
524,1.0406966779686466,0.10628909402743554,1,,0.45931175774021643,-0.4022592608209768,-0.8392631379630977,-0.034076613524357424,-0.007272509459986291,0.10268807537685005
525,1.040981448385947,0.10820014897825003,1,,0.4600341483578708,-0.4072478055302981,-0.8440246388293073,-0.038167038072508826,-0.01605921905453295,0.111852765
526,1.0410969959422436,0.10971832415221437,1,,0.4575447860600338,-0.4142633022110598,-0.8511047565321751,-0.0443738441698817,-0.01662347449136672,0.111852765
527,1.0410461217324678,0.11078193607601285,1,,0.4544134638301937,-0.41808580842554866,-0.854054585795199,-0.04996374098029135,-0.014571602865753135,0.10951750516707365
528,1.040850174812313,0.11140346542099576,1,,0.44939983636154557,-0.4125460741099609,-0.8448939017548315,-0.05374478369230675,-0.004848925372986822,0.10033497670560325
529,1.0405469882075182,0.11166153932484006,1,,0.4435236112352913,-0.40709938392406647,-0.8397283771861243,-0.05512432058694696,0.00391012398538094,0.0938915695241093
530,1.040184066061123,0.11167919104491196,1,,0.43545271956173454,-0.4018894217995093,-0.8447275499170016,-0.05039381867973089,0.010217459039320382,0.0944171805730171
531,1.039809676699438,0.1115930545674671,1,,0.43134861891268494,-0.39912359525362906,-0.8490848460069215,-0.04358743203806261,0.020113691627810546,0.094808534
532,1.0394652357803795,0.11151967341145966,1,,0.43880749138817293,-0.4034822866928431,-0.8515711077721924,-0.030729957832230054,0.04047135920419646,0.094808534
533,1.0391812081694822,0.11152498902189747,1,,0.44470112701371634,-0.4076007003755855,-0.852501689774672,-0.02295833744181518,0.05429171854454232,0.09411976527786783
534,1.0389766517414902,0.11160185832086128,1,,0.44629745148113253,-0.4110594387839431,-0.849161199086545,-0.029149777775452527,0.05016409230124142,0.09154000238729151
535,1.0388608335383274,0.11165884245277972,1,,0.44719977700520186,-0.413351390607739,-0.846055228803193,-0.03353024556513646,0.0476531401782412,0.08925893294221177
536,1.0388349223461548,0.11152197856048247,1,,0.445366178791529,-0.41104356729111624,-0.8438737986114083,-0.03077139023390271,0.05151553650244279,0.0881553903953453
537,1.0388925467229388,0.1109498365869462,1,,0.44507271254971437,-0.408439271418823,-0.8420640853589989,-0.027797778884938507,0.051986466130661296,0.0901070067326012
538,1.0390192898229575,0.10966066615044463,1,,0.448907433807546,-0.4050403072114979,-0.8412507265578731,-0.02424853316794118,0.04336686932138619,0.10024770606132967
539,1.039192169895796,0.10736881697665535,1,,0.45232000271917094,-0.4043512060080732,-0.8400852053258111,-0.023380154496244313,0.03468539732604283,0.10712337483415052
540,1.0393803819210286,0.10382624940629409,1,,0.45368225505842047,-0.41682341119098815,-0.8372092960056127,-0.0355322541847,0.02570340956469968,0.0981413900487006
541,1.0395480872660854,0.09886442396577583,1,,0.4543646385556563,-0.42701375771311667,-0.8345671046280856,-0.0454720182087723,0.017022853384259237,0.08845778022590749
542,1.039659224782523,0.09243244318832462,1,,0.45132758047876953,-0.42472046124767465,-0.8332035425366968,-0.043308487197205994,0.009991375692624423,0.07493570442212227
543,1.0396836365908773,0.08462860603703314,1,,0.44894886035237114,-0.42230753444552926,-0.8334069773865441,-0.04055629085992766,0.0027775245577842693,0.06361915409143712
544,1.0396034568189656,0.07572359416392829,1,,0.44946946517757774,-0.4193677546092776,-0.8405114781528285,-0.0352116079697104,-0.005239501031850738,0.06201575318798874
545,1.0394185607209028,0.06617349537121797,1,,0.4494028985976795,-0.41792559444337657,-0.845636071351426,-0.03212219718042208,-0.014074502810567272,0.05856840238616974
546,1.0391497568136407,0.056619652884139025,1,,0.4468640243684023,-0.4227892190702479,-0.8424241883238003,-0.03852869561750647,-0.026353625065562276,0.0473570298706888
547,1.0388384999861067,0.04787071197838328,1,,0.44444963660127484,-0.42584602123868714,-0.8391135484969181,-0.04422989628948211,-0.03477845615276064,0.035246825348119785
548,1.038542527564607,0.0408615758082376,1,,0.44254404338459147,-0.42151807528730667,-0.8353992753829288,-0.04704844136994715,-0.027450234392662316,0.01946296358406786
549,1.0383279126730849,0.03658544926562761,1,,0.44210419029043907,-0.41833808996173766,-0.8346246532692122,-0.04586060247171777,-0.022205209611007085,0.006703317590283404
550,1.0382590261956661,0.03599909331251545,1,,0.4449755888499166,-0.4177514611469024,-0.840490993001119,-0.035621946700902594,-0.021666332671998793,0.0007756740940186316
551,1.0383882120138366,0.03990715231047907,1,,0.4452766918330831,-0.41754874212224163,-0.8449422640141057,-0.02788801511102781,-0.022529064713269733,-0.00844054316052997
552,1.0387465705289416,0.04883750897594701,1,,0.4403595294659762,-0.4181254444097029,-0.8465206343402668,-0.025239224423559532,-0.026237371277883705,-0.024333288578324883
553,1.0393366909912496,0.06292448052923169,1,,0.43608740909769705,-0.417220112150897,-0.8466512738684492,-0.02395067810052577,-0.029276999456103635,-0.038414507562626335
554,1.0401281058752951,0.08181922512198289,1,,0.4331913171675365,-0.4131532462920312,-0.8436935579232241,-0.025563857752960464,-0.03089017708940987,-0.04863130866283194
555,1.0410566915004893,0.10464665030029134,1,,0.4331533046849369,-0.41060515514407614,-0.841201963415302,-0.028961159239603632,-0.037871397816635705,-0.05521455409731142
556,1.0420295583061978,0.13002538108438097,1,,0.4387104231083832,-0.41103029945142533,-0.8396228733824558,-0.03585115420699658,-0.055361390208201286,-0.054684554599249376
557,1.0429363517572314,0.1561615854435434,1,,0.4422318839104262,-0.4153938319522349,-0.8436089127480813,-0.05281199948672149,-0.07151592844994076,-0.05626636405182294
558,1.0436660021122068,0.18101790386574043,1,,0.4415859784855712,-0.42781997031898056,-0.8589877968653409,-0.09038972963006253,-0.0849365454583918,-0.06217143533396715
559,1.0441254017897887,0.20254501156312035,1,,0.4377758358915761,-0.4368104879087247,-0.8664378502558648,-0.14388742453167025,-0.10513640092411598,-0.07743952759789613
560,1.0442546817316631,0.21894665583904804,1,,0.4279259847648855,-0.43924329616960484,-0.8587538212870133,-0.22777220586473523,-0.13827606546322807,-0.11057919991434155
561,1.0440342211029225,0.2289332088738787,1,,0.4206510017746818,-0.4312186731395309,-0.8533226908846614,-0.28226072698748655,-0.16713195744794368,-0.13720147903324245
562,1.0434816281945365,0.231910525808466,1,,0.41978750275613286,-0.3971547914863683,-0.8535013324737805,-0.26355184755106353,-0.18532115283565764,-0.14759529172738936
563,1.0426412319470175,0.22805746129686738,1,,0.4222249994606423,-0.369520907008219,-0.8554660748599395,-0.21708901290523616,-0.1634909822434111,-0.14534415009006518
564,1.0415716579764922,0.21826967632646924,1,,0.43530576822975736,-0.3626190109185358,-0.8631896725729412,-0.08114017936713916,-0.01262792742916244,-0.10232237451594045
565,1.0403370375212284,0.20398323235660681,1,,0.443010377601236,-0.3648868693753936,-0.870042656199922,0.0065753815513435645,0.08791807196693312,-0.07046499759015738
566,1.039004412744878,0.18692436323585954,1,,0.44193028440163,-0.38213820537747634,-0.8754730468146296,0.015477253004041151,0.1062454579550291,-0.05685036926300716
567,1.0376458825533188,0.1688468486677093,1,,0.4375454934083709,-0.39261648239330804,-0.8730130902782436,0.021481145381630578,0.11718922688480982,-0.0551469665198199
568,1.0363414556440096,0.1513107968701601,1,,0.426894945397944,-0.39025293638962644,-0.8555929158717642,0.02199042522962223,0.11413354540646949,-0.07602742833552564
569,1.0351787709008746,0.13553435257554933,1,,0.425028888774109,-0.3892932756056049,-0.8442223756051203,0.02504507719579408,0.10449782955784923,-0.09361863205482862
570,1.0342480615977447,0.12232574682977995,1,,0.449018385581503,-0.3924656957398953,-0.8506578335176492,0.035591569304145955,0.07549497861121496,-0.10152850274489959
571,1.0336329261011288,0.11208578081573427,1,,0.46666985971283714,-0.3940805915329401,-0.8527498459182,0.0390075429516911,0.04279109014233063,-0.10607766616067743
572,1.03339833349532,0.10486222911942596,1,,0.46351150750712594,-0.3905816192258717,-0.8405808884827445,0.019011663403771563,-0.0020645318616062374,-0.09959251494012138
573,1.0335775027031595,0.10043564810692499,1,,0.4587528252172216,-0.38756619886515725,-0.8312421512777897,0.005103261335413963,-0.04006658138286846,-0.09719477724485909
574,1.03416015128904,0.09841742693601574,1,,0.44949374149052657,-0.38591060898263335,-0.8298624759682202,0.008313884189222102,-0.05879521695718987,-0.10629154375543595
575,1.035085940579365,0.09834327143023446,1,,0.44451382676355267,-0.3846425223543014,-0.8327684383567795,0.009104812747089581,-0.06934232462237751,-0.10904845314977354
576,1.0362471117856442,0.0997483481103553,1,,0.45101273781924334,-0.38441390916258894,-0.8471705783800784,0.003404936928359203,-0.05794256977451643,-0.09479876280034752
577,1.0375021739549894,0.10221511781061832,1,,0.45533411279234504,-0.38591182635660276,-0.8567253854107383,-0.001915997588919396,-0.05070691633612123,-0.08586064353519601
578,1.0386987393617848,0.10539177264952365,1,,0.45642473808002226,-0.3899713484821321,-0.8590883393823596,-0.0066747073012550125,-0.04964942424108253,-0.08480315441826584
579,1.0397001533061903,0.10898639868773206,1,,0.4565302695912593,-0.39069827041569294,-0.8602357071834378,-0.007291645493443067,-0.05275881982148723,-0.08290367455747592
580,1.0404091622336122,0.11274690934685251,1,,0.45508152252593337,-0.38616702383580453,-0.8594651260790362,-0.0013737066062987277,-0.0624427207368756,-0.0796757037137548
581,1.0407829352625984,0.11643810656353308,1,,0.4522930948586042,-0.3842016696942343,-0.8587984413840201,0.001266565656041171,-0.07012084140873868,-0.07819628187473734
582,1.0408364757849229,0.11982540535888903,1,,0.44755970699092257,-0.38596150076735236,-0.858282594392159,-0.0008517073179114494,-0.07488695286595166,-0.07925541885883737
583,1.0406345789787834,0.12267103926657648,1,,0.44358970684200466,-0.386131545907411,-0.8570299014851908,-0.0046908016786804145,-0.08480505151871907,-0.08010818617338938
584,1.0402750574993787,0.12474405111652317,1,,0.4407826529309348,-0.383879708114212,-0.8546546960754807,-0.01115139871036091,-0.10257169752537844,-0.08064656955417858
585,1.0398675231439916,0.12584099040392763,1,,0.43891584041571935,-0.38228735714615175,-0.8540778609960024,-0.014487226567421518,-0.11142536913523778,-0.08117333366711356
586,1.0395124584606685,0.12581099266467252,1,,0.43836003169762194,-0.38161454635541203,-0.8560085418137395,-0.013466105038500993,-0.10785144174707229,-0.0816838967081579
587,1.0392846770848112,0.12457778156049237,1,,0.43746544560830924,-0.38103908301828127,-0.8588683487376807,-0.011323101210778121,-0.1010809625326883,-0.08184285418216579
588,1.0392237731750062,0.12215243879238305,1,,0.435886741899493,-0.3806602004581722,-0.8636044071140724,-0.006914599379623325,-0.0878554552286692,-0.08129178909308404
589,1.0393322644504401,0.11863375671806028,1,,0.4349015523443127,-0.37926721476544234,-0.86661820487191,-0.005480965452878185,-0.08233464605092497,-0.08136673119934892
590,1.0395804310910077,0.1141961414971018,1,,0.434813770114047,-0.3763408813055578,-0.8670279041699476,-0.008545401635684775,-0.08846352129322857,-0.08238821088584793
591,1.039915784800693,0.10906722641357411,1,,0.43660432077840705,-0.3747579408419658,-0.866718089297337,-0.008654428128435289,-0.08385255238506346,-0.083090626
592,1.040274759462168,0.10349855080546291,1,,0.442529988922405,-0.37613245678116064,-0.8648242763995924,-0.0022571712654107924,-0.05559800199070391,-0.083090626
593,1.0405943798919406,0.09773363656833589,1,,0.44548816242411443,-0.3775464854228484,-0.8640832109135496,0.0028019954355319636,-0.03470819333489411,-0.08107622718190863
594,1.0408220627360407,0.09197896147546467,1,,0.441967057244085,-0.379046786816294,-0.86585907390201,0.004939553235754296,-0.029898687694955607,-0.07466355533635533
595,1.0409222206187494,0.08638400939184712,1,,0.4387411731647912,-0.37950664975647747,-0.8666533095495079,0.005192830341086688,-0.029885379149672778,-0.06773869186851444
596,1.0408790072303828,0.08103568317472458,1,,0.4361406074944846,-0.37776272309248554,-0.8653683254824548,0.001454945672045758,-0.04003106576477118,-0.05972893743086857
597,1.0406953391339093,0.07596955420466361,1,,0.43391329724864186,-0.3753547018003882,-0.8655340518289453,-0.0019843278851481585,-0.04870976270127583,-0.05212273392395876
598,1.0403890742013506,0.07119635464110718,1,,0.4324585105202004,-0.37157220985593153,-0.8687023006080872,-0.004805568548314124,-0.05435224381573618,-0.045351756480670545
599,1.039987649386562,0.06673789749387336,1,,0.4318299863080467,-0.3704600479256301,-0.870334653379788,-0.008751837011752332,-0.060828632204539844,-0.04366953853094525
600,1.0395224514585297,0.06266329360762635,1,,0.4322623781198366,-0.372776573434104,-0.8699949250652809,-0.01414263435887182,-0.06837575252880614,-0.04852125671519212
601,1.0390238540075831,0.05911486027845769,1,,0.43187306093494254,-0.37341552756680824,-0.8685538116137606,-0.015070255775330197,-0.06873678474547483,-0.04743149036688297
602,1.0385174987495083,0.05631433436619675,1,,0.430525898885278,-0.37209898027883,-0.8658288420612545,-0.010795268815119304,-0.06072118049552492,-0.039415889628374605
603,1.0380222101438763,0.05454436656365775,1,,0.42966689298490857,-0.374780609751503,-0.8645510950927641,-0.006031757365879857,-0.047991797643991516,-0.029923974868347702
604,1.0375498267012337,0.054107132287952664,1,,0.4293622055049679,-0.38200230883746106,-0.864916720068693,-0.0007135093836158379,-0.029909754504293846,-0.01875565410559326
605,1.0371070041700685,0.05526912467224476,1,,0.4297214440358969,-0.3850880387940204,-0.8634045739653228,-0.0010716325462533508,-0.024427466057597314,-0.013522133652278896
606,1.0366986532410185,0.058205900764265364,1,,0.4308438478965627,-0.3834195818567178,-0.8597339798533001,-0.007954593769122359,-0.03342826157935229,-0.01511050887942261
607,1.0363323040268853,0.06296059246300699,1,,0.4319587090331606,-0.38022421092887426,-0.8593419480307639,-0.01414766638898801,-0.04685367063336847,-0.017922771728718756
608,1.0360224848920425,0.0694252989596076,1,,0.4330644711869488,-0.3751868813659806,-0.8629049366079787,-0.01950850737586139,-0.06561661358418497,-0.022211444115625204
609,1.0357940655065394,0.077347166689531,1,,0.43450162479748783,-0.36969876968400245,-0.8681513249588598,-0.022621056953593215,-0.08239734191806301,-0.02149505455924589
610,1.0356833175082865,0.08635411859888238,1,,0.43631834490893096,-0.3636943446827753,-0.8753258322471635,-0.02315847681237345,-0.09690769778043437,-0.01504600767746807
611,1.0357353717619096,0.09599123824946594,1,,0.43534486978101994,-0.3588728901743505,-0.8762920815454691,-0.023435818,-0.10742806208240789,-0.006158980346665005
612,1.0359972381652063,0.1057586119112689,1,,0.43139600235489567,-0.3553129248438187,-0.8706380045555826,-0.023435818,-0.11369360236765622,0.005327846613842277
613,1.0365068387649141,0.1151443879716918,1,,0.4285260541177505,-0.35205482289936957,-0.8694848022369066,-0.021757305801195254,-0.11142419096835612,0.01867174489846783
614,1.03728020351208,0.12365144369225524,1,,0.4270087995442917,-0.3491751818891935,-0.8739745659366116,-0.017974361081184335,-0.09845409464051547,0.034343943655595434
615,1.0383002254197289,0.1308204757946539,1,,0.4242639151708887,-0.3482158435458657,-0.8766925373211248,-0.015490631566827354,-0.09551941684063023,0.04798226014014817
616,1.0395104953406773,0.13625463220464293,1,,0.4201486597506915,-0.349400088998252,-0.8774327030946404,-0.014457182158439878,-0.10378701501813367,0.059350206542814025
617,1.0408167333091416,0.13964963033315164,1,,0.418984555838962,-0.3513313641873079,-0.8798636032367058,-0.01934602329051128,-0.11575801777442644,0.06696265907521358
618,1.0420966472276254,0.14082878682479072,1,,0.4220504355639928,-0.35433338197813175,-0.8847178892357205,-0.03272348056881832,-0.13303723368719542,0.06919223738124373
619,1.0432171205794631,0.13977644430389816,1,,0.4237523111138268,-0.3557431454406103,-0.8873908287394132,-0.040216077256049476,-0.14435113918194442,0.06897196990462934
620,1.0440558330160066,0.13665882617098796,1,,0.4240891311432334,-0.3555594272847531,-0.8878807404113641,-0.04181927743133966,-0.14969513642184887,0.06629996827472058
621,1.0445231699210513,0.1318208467049124,1,,0.42372480586819816,-0.35464168019430825,-0.8911187451504078,-0.03580155141116391,-0.13871475614609827,0.0636193249981218
622,1.0445798993540103,0.12575179984828028,1,,0.422677120910563,-0.3530085239281017,-0.8970351333994695,-0.022356215606488823,-0.1118240910999765,0.06093025925080521
623,1.0442466338825909,0.11902112193833693,1,,0.4177745006619386,-0.34908470594172225,-0.9006524861502672,-0.010704662592526714,-0.0851898481622237,0.06021000013409886
624,1.0436024512018134,0.11219476901530473,1,,0.40939372770410076,-0.34309411625260827,-0.9021955116963872,-0.0006715678091843609,-0.05878696519669511,0.061266115948425674
625,1.0427721276069246,0.10574960804826192,1,,0.40235945467678086,-0.34213292092264863,-0.8997921368026294,0.006966308357240728,-0.03769061892827781,0.06638426438834409
626,1.0419039972274662,0.10000489286045482,1,,0.39662737191113423,-0.3460356155715995,-0.8935722273937521,0.012287786189396098,-0.021726185431811703,0.07543077430519096
627,1.0411428922106374,0.09508581413543189,1,,0.39156197266895854,-0.3499808192846109,-0.8886544422478123,0.014100355276188206,-0.013035091276188206,0.08287710191448928
628,1.0406041443177052,0.09092594700161113,1,,0.3871460315517241,-0.3539674337894444,-0.8850051378636353,0.012494676541990803,-0.011429412541990803,0.08876459177889512
629,1.0403546031297595,0.08730606068655476,1,,0.3888619836729509,-0.3618494371787813,-0.8837332311481246,0.01560747221437239,0.002127347897042824,0.09189056737830936
630,1.0404048697264374,0.08391894207472575,1,,0.396324095133226,-0.3733817856337832,-0.8846891690798706,0.02314192119823821,0.026883393547910035,0.0924287450843454
631,1.0407138590830365,0.08044528415793105,1,,0.4053430849636854,-0.38663506821045324,-0.8827012312732031,0.02691633102636725,0.03778008221454105,0.08897666051902131
632,1.041203355456843,0.07662480522806994,1,,0.41570530085000107,-0.4013731190593506,-0.8781734095424967,0.02744669672573667,0.03671935131367476,0.08208190244423849
633,1.0417776567283512,0.07230932216444133,1,,0.4138666147807983,-0.4078077780188871,-0.8754716358156374,0.0206414501255286,0.022954791990394872,0.07431409780063866
634,1.042342672648114,0.06748965020589562,1,,0.40113370815457716,-0.4068283142223863,-0.87440034569019,0.0072862142738285346,-0.0021530521028444434,0.0657667475375642
635,1.0428200845296065,0.06229447743690904,1,,0.39271889046901326,-0.40520138996491,-0.8757206452181251,0.002169713486627406,-0.01578122394691453,0.05819588023618961
636,1.0431546109082757,0.05696498113032412,1,,0.3880693570601978,-0.40300989363974427,-0.8791263613360926,0.004237219078144235,-0.01939935914449703,0.051476486020559556
637,1.0433148456143035,0.05181260678215718,1,,0.38577880035174067,-0.4007591285385685,-0.8809781176126182,0.0030603496265543617,-0.020549965877936244,0.0429014055377756
638,1.0432896563317149,0.04716887839123505,1,,0.3861141255998382,-0.39844238869608045,-0.8811000920315596,-0.001727978137562763,-0.01895385683965483,0.032260677949978604
639,1.043082594950864,0.043335887502735725,1,,0.38673116996076745,-0.395913013246859,-0.8814678009881741,-0.005848654822714321,-0.02472448388550393,0.020810423749402895
640,1.042706508178354,0.04054474751648976,1,,0.3876646394326167,-0.3931448067854386,-0.882111517405851,-0.009219430221946458,-0.03876938164599296,0.008450914163169156
641,1.0421799048884153,0.038927051065787574,1,,0.3879586365154847,-0.39056144287370353,-0.8824366799014903,-0.010353310899315859,-0.03845509669558268,-0.004886223215945327
642,1.0415258240588359,0.03850164072132828,1,,0.38777961547895345,-0.3881148070865498,-0.8825262078667424,-0.009832559176228285,-0.0275193153992148,-0.01894651260214192
643,1.0407730438189722,0.0391765532765072,1,,0.39131391755514494,-0.3878834108244951,-0.8838221829358484,-0.008202372918751134,-0.027079578348160268,-0.025289345427731823
644,1.0399585741713449,0.04076437838786318,1,,0.3981519937834346,-0.3896229314653782,-0.8861915439246921,-0.00558511363354803,-0.03597825854198094,-0.024765893275861945
645,1.0391296841456368,0.04300840605595227,1,,0.3977752126891973,-0.3892947126272442,-0.8858345885295453,-0.0008343311014618581,-0.0365261318236964,-0.024764676510050248
646,1.038343586265532,0.04561649264470862,1,,0.39001144919942293,-0.3868494241830039,-0.8826862749339155,0.006100874265200621,-0.028523972748303785,-0.025298154115605306
647,1.0376636468817437,0.04829937296502451,1,,0.3850515096994602,-0.3866612432500537,-0.8789581871334502,0.005732917372083175,-0.033586601348736984,-0.02363911598326034
648,1.0371524475748177,0.05080994288735892,1,,0.3829261308394865,-0.388754913247506,-0.8746439692898473,-0.002018262326956022,-0.05185723980845371,-0.019763526731436505
649,1.036863434263138,0.05297944663957711,1,,0.38161079796531083,-0.38844142892175876,-0.8770450705116762,-0.009663532998825627,-0.05996461093661686,-0.014701688064071032
650,1.036833410633778,0.05474560090479666,1,,0.38089857300578767,-0.38633573294211737,-0.8844459646453618,-0.017229950719989798,-0.06050506964605557,-0.008756644644774792
651,1.0370775049485241,0.05616732532864867,1,,0.37723112388154645,-0.38441878946520586,-0.8898413917912753,-0.025986783035057602,-0.05656963798572602,0.0012707578908554254
652,1.0375869857015738,0.05742179518836483,1,,0.37161135511200566,-0.3826265422314838,-0.8939119403954685,-0.035530042782258645,-0.04967728383445838,0.013995102909849467
653,1.0383292863043647,0.05878197626439868,1,,0.36881677901862375,-0.38231340419712706,-0.894174778194513,-0.04004678878633339,-0.0449756252678676,0.023598783657315128
654,1.0392493874745923,0.06057588526998557,1,,0.36796178340227337,-0.3830157194740493,-0.8918235070892242,-0.0411126806313781,-0.04177794573037406,0.031060033576757077
655,1.0402722342859139,0.06313183140613104,1,,0.37026820489307305,-0.3851490487911975,-0.8894966569343012,-0.042184093067913604,-0.023233002855830735,0.03760174932592781
656,1.0413066080608377,0.06671653308764422,1,,0.3747344541599098,-0.3882600231992229,-0.8871864907386556,-0.04325927709440775,0.0057969360848412225,0.043515254658797395
657,1.0422512707617233,0.07147506465451169,1,,0.3769492117957128,-0.3913096458022006,-0.8859375319403501,-0.03619752450549844,0.02452254988405351,0.04840752455370071
658,1.0430039758939575,0.07738267967849996,1,,0.3777399297864535,-0.3943204642345741,-0.8853597732367707,-0.02398926332554319,0.0367308100674601,0.05265387618181135
659,1.0434731579529124,0.08421828921966744,1,,0.38053944415097335,-0.3962577834745907,-0.8869793819741048,-0.01534372920736561,0.042822323034446635,0.050816708630041695
660,1.0435910400843829,0.09156760421185905,1,,0.38464700203808294,-0.3974960853192816,-0.8900298237524416,-0.009018092662796856,0.04493086816992489,0.04501820987860714
661,1.043325892767739,0.09886059719582305,1,,0.38690823519776113,-0.39976417273641496,-0.8885352782938072,-0.0024514663520568258,0.06459771314535656,0.03897354533804543
662,1.042690634090446,0.10544272330455062,1,,0.3878585162637549,-0.40276344215686316,-0.8838136405653628,0.00428627057809807,0.09673153533781208,0.0327540950182355
663,1.0417452002042444,0.11067227393371976,1,,0.3878944371395093,-0.4008190383789786,-0.8838454257805644,0.0008534491449895834,0.12104010754329902,0.03355976293348223
664,1.040591150941908,0.11402858798790448,1,,0.38711765118683616,-0.39448057090220884,-0.888102175425786,-0.01161922576846132,0.13839339595087014,0.040609536396782955
665,1.0393585189237908,0.1152102803225231,1,,0.38449067010989496,-0.3922737398077062,-0.8848785396601332,-0.01580538977609596,0.14408296707388535,0.0411981612614563
666,1.0381866144892808,0.11420189974219343,1,,0.380439485141684,-0.39324727188088887,-0.8758968118426912,-0.01361293968327862,0.14079429000516464,0.036813260561289696
667,1.0372020811605052,0.1112926258359868,1,,0.3792728322376619,-0.3930291921888161,-0.8732490424024714,-0.01630208977366965,0.1277132862031506,0.03291441730277565
668,1.036498562506003,0.10704067998094205,1,,0.37986263008561083,-0.39208551563209776,-0.8744581501617661,-0.02196374645865521,0.10866953341448227,0.029311544317827194
669,1.0361223823584136,0.10218941193918588,1,,0.3836291748964422,-0.3928137913420314,-0.872389566152797,-0.02846290244374818,0.07438302961274368,0.02458401715581205
670,1.0360674343904965,0.09755228602539281,1,,0.3899756315682697,-0.3948998992915854,-0.8676590906208872,-0.03564221161092039,0.02771752455119104,0.018943131519145333
671,1.03628034248933,0.09389105252744384,1,,0.39490137755893034,-0.39437554436119426,-0.8703769607833343,-0.043826062307869916,-0.013151877419814046,0.029472283627989742
672,1.0366744843954883,0.09181177980100767,1,,0.3982538466789229,-0.3909603964165015,-0.8813430331258479,-0.05312232916302367,-0.047602748277773214,0.05790792734574025
673,1.0371492367599002,0.09169673621088274,1,,0.396551271872521,-0.39694615547547213,-0.8855639805494417,-0.05603666493498624,-0.04011401058092692,0.07137272
674,1.0376094112708865,0.09367925675804299,1,,0.3903021875979848,-0.41138709573271,-0.8837183585162128,-0.05321108803262451,0.005095235771658766,0.07137272
675,1.0379799838617685,0.09765863990421218,1,,0.38446251815429217,-0.41070426489133394,-0.8773925808958705,-0.06077921568418679,0.006545529320980802,0.07137272
676,1.038213157645476,0.10334608307496482,1,,0.3788517045541644,-0.40156750361263066,-0.8685624725373575,-0.07415724723166839,-0.016464686347229935,0.07137272
677,1.0382878880467,0.11033034595069563,1,,0.37771698085058697,-0.39613751184448487,-0.8702314092330008,-0.08191459821889742,-0.036155633656974884,0.07822833862174994
678,1.0382047216161696,0.11815121174391954,1,,0.378984558611398,-0.3926969299503915,-0.8775351460027002,-0.08665535014122037,-0.05406514185309857,0.08876334344299916
679,1.037979722436079,0.12636899425148745,1,,0.379573959956007,-0.38899159641171477,-0.8840768153080243,-0.08738386251712173,-0.04419065749436534,0.09956526613564771
680,1.03764011101043,0.134619851411432,1,,0.379762349385353,-0.38512971277596736,-0.8901678671977596,-0.0857399009461395,-0.01788724406583733,0.11052501988754813
681,1.0372220812800592,0.14265000429538227,1,,0.37878196207626713,-0.3856788451623379,-0.8902597664104043,-0.08122848734407105,0.006020339545924322,0.11906487950417594
682,1.0367695444933416,0.15032653344260602,1,,0.3772627539292764,-0.3882615117029593,-0.8875859803768803,-0.07539514217860972,0.028823414879910365,0.12648913716851382
683,1.0363320730936219,0.15762686735535533,1,,0.37469662861189834,-0.39038463820571334,-0.8849771217904174,-0.0731413741376947,0.04779906917181483,0.128897
684,1.0359609653681998,0.16461224477027395,1,,0.3716279844102206,-0.39228718612676716,-0.8823994282597608,-0.07260579833727268,0.06493756668076217,0.128897
685,1.0357034847396656,0.1713919949392194,1,,0.3710199354824446,-0.3927585584692941,-0.881612582656864,-0.0753408225820504,0.0721217292165066,0.13034841884570442
686,1.0355962950961306,0.178085724223286,1,,0.3715346297183074,-0.39257690078753,-0.881642881699377,-0.07956818652176971,0.07476383583322413,0.13246210453591595
687,1.035659553154676,0.1847898096529429,1,,0.37035454734302414,-0.3919812402578354,-0.8828436084304336,-0.08442394662977533,0.07875124630421602,0.13662191000395768
688,1.03589301274888,0.19155321562970254,1,,0.3683425090436213,-0.39118234815008557,-0.8846188912692656,-0.08958818276783802,0.08339905858608027,0.1417861437180984
689,1.0362750462448025,0.198365723597662,1,,0.36804976149016505,-0.39233890867110055,-0.8845065352501811,-0.09065078887515612,0.0941993785253625,0.14573460525974513
690,1.0367649272377206,0.20515943516165236,1,,0.3688656631220417,-0.3947564024672482,-0.8831769742460556,-0.08906854342626366,0.10896701591777401,0.14889910110856075
691,1.0373081775822768,0.21182223975717981,1,,0.3725659036248102,-0.3970675879795041,-0.8819527960458833,-0.08776089302133054,0.11931292882169472,0.15184242782770338
692,1.0378442820974907,0.21822018848022265,1,,0.3782856058475165,-0.39930434199482095,-0.8808024013473603,-0.08664549959670267,0.12656298346413275,0.1546309035363438
693,1.0383156123029147,0.2242245780005816,1,,0.3850924362582831,-0.40244404080127716,-0.8784332837876442,-0.0873880825620864,0.14064804204930828,0.15405972577647142
694,1.0386760410708942,0.22973900570464728,1,,0.39241540905087613,-0.4060124361001231,-0.8754855459182164,-0.08901278800564336,0.15797819616548378,0.1518934654087344
695,1.0388976198676902,0.2347216325232716,1,,0.39485824361550814,-0.4051837554727044,-0.8745112033760123,-0.09304903767596581,0.16084536738544378,0.15554774188081788
696,1.0389739686167052,0.23919845409783494,1,,0.3953180905045072,-0.4025683738906845,-0.874338727180907,-0.09806519051855518,0.1578356728545889,0.1615671262336922
697,1.038919708027259,0.2432647311297628,1,,0.39419442025992646,-0.4013369868224956,-0.8737726690035766,-0.10345705405222778,0.15127835764524078,0.1653796088683543
698,1.0387661829446946,0.2470738791338005,1,,0.3919584555473804,-0.40107774547853864,-0.8729301508775517,-0.1091128244206513,0.14222912187020328,0.16764191913943025
699,1.0385546045944405,0.25081564833890163,1,,0.3914483956985038,-0.39526823394774485,-0.8741573192440114,-0.11344048648210918,0.14296061855382075,0.16679579874101752
700,1.0383283059388586,0.25468761093638526,1,,0.39166434988981874,-0.38712396229255064,-0.8762551157821737,-0.11720947035762515,0.14780644918875882,0.16464209511340402
701,1.0381258855363682,0.25886517102607265,1,,0.39654213290817814,-0.3835173049017336,-0.8769858205418161,-0.11014312515273494,0.15569516215051152,0.1667511404086276
702,1.0379765840863955,0.2634752769998628,1,,0.4031844776582668,-0.3816281925886839,-0.877199063571478,-0.09897546947541985,0.16473564484242167,0.17047369063702542
703,1.0378984342583346,0.26857791110326873,1,,0.4049630938128392,-0.38233942857951336,-0.8771921034089488,-0.09818495302650161,0.16955766941057346,0.17767065112140948
704,1.0378988428787643,0.2741576091356543,1,,0.4048714267617279,-0.38405059451445916,-0.877100466988396,-0.10138482975503733,0.17275754113272307,0.18620365072445194
705,1.0379766406881967,0.2801251192993299,1,,0.40839478308158056,-0.38546924110381564,-0.8747389312962415,-0.10726630370401252,0.17671559007862087,0.19393740409568114
706,1.0381244664444544,0.28632732005729916,1,,0.4132906325835519,-0.38677682874277075,-0.8715155972243881,-0.11416588285681742,0.18096149145707888,0.20136771282470728
707,1.0383306106196146,0.29256224247696866,1,,0.4177635746339338,-0.3890530395668085,-0.8681943449607864,-0.11496610200540833,0.17030037956265048,0.21494277635454864
708,1.0385799484463671,0.29859591507409355,1,,0.4220701470397809,-0.39171030189613343,-0.8648345721562182,-0.11336686357894173,0.15377492349559363,0.2309351556150203
709,1.038854143062674,0.3041787710510683,1,,0.418125290805462,-0.39204807690581067,-0.8645358509808898,-0.11591622376341507,0.14239109690225726,0.2387964097898072
710,1.0391317426264408,0.3090609749517778,1,,0.41096115726203003,-0.3914809088529048,-0.8654313926095438,-0.12008415084994745,0.13301326633734978,0.24348532262690165
711,1.0393889914864356,0.31300735654763495,1,,0.40661019870946424,-0.39304011236647984,-0.868848686099093,-0.12069786194467887,0.13367370679255217,0.24872225330849862
712,1.0396019795166598,0.31581295299492934,1,,0.4036158407308519,-0.39562471836807794,-0.8734820467197723,-0.1195976195116021,0.1391749137937636,0.2542234551455376
713,1.0397501272354333,0.31731927264888865,1,,0.40455584675892003,-0.3982804531672999,-0.8740989877737237,-0.11930962,0.14841501876582133,0.2564063249731688
714,1.0398201836363028,0.31742976060488354,1,,0.4068908725601808,-0.400961408360139,-0.8732918143771602,-0.11930962,0.158980836610622,0.2574126034602529
715,1.0398093587877681,0.3161214370967939,1,,0.41056690215368713,-0.4019370895324815,-0.870316235414712,-0.1175446758576872,0.1651033900547852,0.2532051427116316
716,1.0397262923475856,0.3134491586291039,1,,0.4150614131657329,-0.40187195713303037,-0.8660171705727484,-0.11470249844381215,0.1685139982556711,0.2458154773801238
717,1.039589282296858,0.3095398449128147,1,,0.4172772439421073,-0.40096053960985634,-0.8617396638512225,-0.1103787996781439,0.16737454580304087,0.23833855797733372
718,1.0394222296478375,0.3045760857315795,1,,0.41872112384563,-0.3997624251879926,-0.8574694603785514,-0.10555320435920919,0.16469366454802437,0.23083207939007028
719,1.0392496046851656,0.298771010920587,1,,0.42186871200013576,-0.4014827108468358,-0.8574725118671499,-0.1076553983700669,0.15712433549944224,0.224957509168869
720,1.0390919937966594,0.2923382680571315,1,,0.425553788582126,-0.4041236977889445,-0.858823696352758,-0.11194318189737706,0.14801279160460304,0.21959777598621025
721,1.0389633404447625,0.28546181515728436,1,,0.4272740453239413,-0.4007650764869419,-0.8600848845056057,-0.11708059819921984,0.13719984776061486,0.21754670075509297
722,1.0388701750148575,0.27826992517458926,1,,0.42841614074330936,-0.3956410306447549,-0.8613195906190928,-0.1224680245078587,0.1258862558503307,0.21646922014613618
723,1.0388124758263402,0.27081669339663594,1,,0.4292295198609939,-0.3918632242225135,-0.8603647299896631,-0.11724795584704162,0.12188461969829065,0.2120335392457266
724,1.0387856310779655,0.263073038240633,1,,0.4299583061703573,-0.3884318629591752,-0.8588463998121068,-0.10929812321223889,0.11976466366565196,0.2067336491641299
725,1.0387831404932941,0.25492819252518195,1,,0.43124629529076697,-0.3858896505851423,-0.8607595217014566,-0.0954059274709872,0.12099041840632342,0.19719205191293757
