id,ASVM,GSVM,walking_nonwalking,normal_abnormal,ax,ay,az,gx,gy,gz
1,0.9383385998585733,0.7320742070299182,1,,0.16896051148965244,-0.09893438024197866,-0.9172871469869935,0.5663147,0.13043213,0.45082092
2,0.9881810073383589,0.7315725248614457,1,,0.19633073926747735,-0.10464552274401732,-0.9681114007721806,0.5663147,0.13043213,0.45082092
3,1.0353413832764784,0.7295818773524635,1,,0.22370096704530223,-0.11035666524605599,-1.0189356545573676,0.5663147,0.13043213,0.45082092
4,1.0775089225628234,0.7245661753140696,1,,0.25973514423831406,-0.12268956837369265,-1.0505502875233477,0.5274570699921806,0.16408260848525638,0.4620104450576186
5,1.112814294353182,0.7152824538323567,1,,0.3050571571338569,-0.14212106149786297,-1.0615720254050958,0.4469436932600145,0.2338067180348068,0.48519524676160225
6,1.139988885440522,0.7008792391578312,1,,0.3503791699939965,-0.16155255460685444,-1.072593763278234,0.3664303165907414,0.30353082752989224,0.5083800484474751
7,1.158467724741731,0.6809619200268157,1,,0.35087261389039376,-0.25027892812750235,-1.0942512828475133,0.2795630480789473,0.4239105550811645,0.46745838111219135
8,1.168424008588288,0.6556167194442374,1,,0.34975201747566176,-0.34150024478206453,-1.116291740815112,0.19246700943677764,0.5461141242454487,0.4242285779698514
9,1.170726786475677,0.6253838961046273,1,,0.3326155188710272,-0.40460902395902687,-1.109118177241542,0.1069156414512529,0.5953028260905853,0.3506075840336653
10,1.1668192188984319,0.5911736223157309,1,,0.29573475146344,-0.4330609046291568,-1.0659298149207774,0.023268530390827127,0.5544794168558946,0.23952058704872045
11,1.1585251516116795,0.5541277383799176,1,,0.25885398402704346,-0.46151278532151185,-1.0227414525662766,-0.06037858073493956,0.5136560075893147,0.128433589977
12,1.1478060234458278,0.5154461702224827,1,,0.237437251802215,-0.4330183956209475,-0.9935453523586025,-0.038956697454585715,0.45535961364441907,0.04285665832435083
13,1.1365038456008498,0.47621164786700176,1,,0.21717566702135546,-0.40027017838540657,-0.9653944596678707,-0.009686268900068882,0.39575800580237674,-0.040814697816097305
14,1.1261131165472429,0.43725233874662606,1,,0.19965774254686358,-0.38056537959090947,-0.96337306589122,-0.0010617950787915069,0.3577939645142826,-0.10039952533630923
15,1.117621017720669,0.39907486839935996,1,,0.18603753115307134,-0.3793903902472042,-0.998471897775584,-0.021767485651594816,0.3505687964008649,-0.12576642235913066
16,1.1114410094469682,0.36188174437660875,1,,0.1724173197592791,-0.37821540090349903,-1.0335707296599483,-0.042473176224398126,0.34334362828744724,-0.1511333193819521
17,1.1074441817114176,0.32566388625632253,1,,0.1688884315999406,-0.37226908278183823,-1.044470180780986,-0.07444491991345813,0.31445506553786157,-0.15685113175447096
18,1.105072327282008,0.2903389592172326,1,,0.1665341308053501,-0.36576740216722936,-1.052552926278748,-0.10772798452817443,0.2830449752635784,-0.1602818737386229
19,1.1035029632111708,0.25589591501083464,1,,0.16618192184474204,-0.35999233168293054,-1.0569011374651174,-0.11762521259031619,0.23634017277144914,-0.1625177538354262
20,1.1018318783167198,0.22250775906095582,1,,0.16911907924865355,-0.35541105604969353,-1.055113640317566,-0.089100334904603,0.16450669682365954,-0.16279051793735883
21,1.0992417637658396,0.19058604416377178,1,,0.17205623665256506,-0.3508297804164565,-1.0533261431700147,-0.06057545721888983,0.09267322087586995,-0.16306328203929144
22,1.0951331084529794,0.16076724259369057,1,,0.18096430336740743,-0.34745332244652133,-1.0403029767956329,-0.03600640714714825,0.04240370135862016,-0.1460358240952844
23,1.0892032670889342,0.13383749493567412,1,,0.19083642554970323,-0.34427139280903496,-1.0254657134776999,-0.012076059976227817,-0.004384129084201228,-0.12621509418178872
24,1.081469664019141,0.11061405781897471,1,,0.20040208194603698,-0.3404370317961133,-1.0089776315901395,0.0060788226393161515,-0.034984829380810545,-0.10151448224653266
25,1.072242115977033,0.09180767155174878,1,,0.2093823028487806,-0.3353563440711284,-0.9893360237316219,0.013200949979386058,-0.034663576304170066,-0.06749192850934385
26,1.0620561318328676,0.0778911706154781,1,,0.21836252375152423,-0.3302756563461436,-0.9696944158731042,0.020323077319455967,-0.034342323227529586,-0.03346937477215504
27,1.0515830119957013,0.06899767299536419,1,,0.2239471919475828,-0.3254467306005658,-0.9596883971641005,0.005048912569257878,-0.02655396968776607,-0.006007452797700778
28,1.0415333195436236,0.06486717871613122,1,,0.22881773280653542,-0.32067075355803265,-0.9517088637478276,-0.014935473406480892,-0.01719519123333866,0.02007468600294782
29,1.0325680976092986,0.06485283279152589,1,,0.23204996581160403,-0.3158934403550576,-0.9464695101501512,-0.035700523140480646,-0.008296948428934017,0.04077829327778047
30,1.0252279655740784,0.06798735449654579,1,,0.23161606999804643,-0.3111131371509006,-0.9473620030046374,-0.05821250579894749,-0.0004292707923185645,0.04944607384945716
31,1.0198852621336012,0.07309803248228491,1,,0.2311821741848278,-0.30633283395047767,-0.9482544958584262,-0.0807244884398291,0.007438406838151054,0.05811385441436301
32,1.0167200001177417,0.07894876352524384,1,,0.22708168188916128,-0.30335574338679966,-0.9467362289688224,-0.08962607425934706,0.007169589852818004,0.05738820527181369
33,1.0157174171261953,0.0843831428532907,1,,0.22201520010376433,-0.30085372131325494,-0.9445828312199785,-0.09494190954879309,0.004757158668393695,0.054187793931307675
34,1.0166835822965188,0.08844470445648045,1,,0.21720759386692481,-0.2992330203907786,-0.9440148568981134,-0.09680526770324743,0.0016751663302795952,0.048732805898933584
35,1.0192754234435262,0.09045769827497849,1,,0.21308555933709003,-0.29994629364749487,-0.9476455079435954,-0.08952554279705409,-0.0031800030639031335,0.037307095641805454
36,1.0230418376887511,0.0900615449868111,1,,0.20896352480403535,-0.30065956690476825,-0.9512761589919135,-0.08224581788517418,-0.008035172461878477,0.025881385375752134
37,1.0274725190525842,0.08720152919606138,1,,0.20699722619732078,-0.300514568662099,-0.9599530840153999,-0.07587428378472172,-0.009179614333935427,0.014148358800853278
38,1.032050545941832,0.08208527105680935,1,,0.20572395853646117,-0.3000936513225496,-0.9702522968110167,-0.0697947169546427,-0.009131122982173952,0.002316535468848361
39,1.0363038970812208,0.07511796148280457,1,,0.20503091066987755,-0.2995676965663448,-0.9785558103245932,-0.06417504934621276,-0.008683665017157989,-0.007839627612093482
40,1.0398504781813667,0.06682929581890622,1,,0.20618179829125696,-0.2987079334464033,-0.9805170019012757,-0.0600169390718333,-0.006968293230604183,-0.012670551131776016
41,1.0424315033960536,0.057802484513479066,1,,0.20733268591263637,-0.29784817032646177,-0.9824781934779582,-0.05585882879745383,-0.005252921444050376,-0.01750147465145855
42,1.0439293952998487,0.048612110647472395,1,,0.20854738030136188,-0.29536988297835653,-0.9830047125190033,-0.04685194027199977,-0.0026710711647851934,-0.017798703489376042
43,1.0443684589877404,0.03977431276287972,1,,0.20978664630554875,-0.29226831132108666,-0.9829787474702457,-0.03597781531773383,0.0002444549638371237,-0.01635003274717413
44,1.0438988941515863,0.03171062860958566,1,,0.21070331731047026,-0.28949502574636765,-0.9823806905630397,-0.025267388194256304,0.003202145648542093,-0.014210607271914708
45,1.0427667745646454,0.024725885185283725,1,,0.21036584053868373,-0.2879980130881319,-0.9795585206535251,-0.015193366690837186,0.006323758850295869,-0.009385744903066089
46,1.041274233533034,0.01900015610075127,1,,0.21002836376689724,-0.2865010004298962,-0.9767363507440107,-0.005119345187418069,0.009445372052049645,-0.00456088253421747
47,1.0397351787618219,0.014594248872519488,1,,0.20994617128727167,-0.2867756728962988,-0.9730331875212661,0.0009599623760154956,0.012062959834653051,-0.0007024161425598435
48,1.0384323619435092,0.011466974580774976,1,,0.2099801688932348,-0.2878567100807394,-0.9689290490265968,0.005221115948617344,0.01445114550209219,0.002716204811088806
49,1.0375814546366788,0.009500737666782453,1,,0.21041255567670047,-0.2895666689664546,-0.9655433841230978,0.008345723469402384,0.01605383784984442,0.005459486842793718
50,1.03730684357704,0.008530495591789642,1,,0.21279219366005533,-0.2943506785661932,-0.9656694827140226,0.005915108117446279,0.013817186911836914,0.004901839515171996
51,1.037632146101908,0.008370772563356771,1,,0.21517183164341025,-0.2991346881659317,-0.9657955813049474,0.0034844927654901735,0.01158053597382941,0.004344192187550274
52,1.0384861298904924,0.008836575710960515,1,,0.21690461052086465,-0.3027467613604585,-0.9685196195239649,0.0006663025439820587,0.009320155812406505,0.0026159105120190386
53,1.0397222009729565,0.009756330300772683,1,,0.21829284139943297,-0.30573460535336444,-0.9726274442459805,-0.002358328530726701,0.007047136335299054,0.00026409317266171703
54,1.0411474393759603,0.01097736631023966,1,,0.2192630854296202,-0.3079501015187066,-0.9764072078131101,-0.005278149816821815,0.00511065454120675,-0.0018125984791971515
55,1.0425558083391018,0.012366186604959238,1,,0.21755715742064793,-0.30522061994491867,-0.9780865510147296,-0.007526923614388262,0.005328864313415411,-0.002127790518041709
56,1.043759933483619,0.01380634961506343,1,,0.21585122941300822,-0.3024911383732629,-0.9797658942150375,-0.009775697410198078,0.005547074085453617,-0.002442982556640054
57,1.0446167228233176,0.015196425186483056,1,,0.21496159284730249,-0.30085933512557195,-0.9800822036324998,-0.011957075850875791,0.005757795566492488,-8.482150864804788e-05
58,1.0450437290470107,0.016449527825173386,1,,0.21457713999588368,-0.29990685936351397,-0.9795549632664616,-0.01409674487983818,0.0059638827190717295,0.003927815346029266
59,1.0450250294302388,0.017494819171796145,1,,0.2142078197621392,-0.29907481945311915,-0.9789549190488938,-0.016104440446746693,0.0062818736030981915,0.007523245857649737
60,1.0446070874457498,0.018280406562088104,1,,0.213974186982545,-0.29932267427424036,-0.9777020750660117,-0.016928788659824747,0.00760325549036866,0.00737777259684315
61,1.0438863444322983,0.018776438601400127,1,,0.21374055420276833,-0.2995705290955552,-0.9764492310821511,-0.017753136873546738,0.008924637378671326,0.007232299335922926
62,1.042991124110011,0.0189770227099092,1,,0.2142596261726746,-0.298823177860384,-0.9747762473393566,-0.018347805187869597,0.007542862754212306,0.005390727855331831
63,1.0420608590199358,0.018899866066235296,1,,0.21531717329194414,-0.2973638692074269,-0.9728027010982885,-0.018778163501664308,0.004227285257681603,0.002335789855080192
64,1.0412257216064398,0.018583137362049893,1,,0.21624942541829187,-0.2960293290208243,-0.9709445576857663,-0.019097216623697108,0.0010428888783383988,-0.00047666183622203196
65,1.0405894839997902,0.01807974418356768,1,,0.21539646749053648,-0.2964724969083965,-0.97073068021706,-0.017830387159574246,-0.0002724316197548047,0.00016584493988140624
66,1.0402178266241917,0.01744981845041921,1,,0.21454350956278112,-0.2969156647959687,-0.970516802748354,-0.016563557695451384,-0.0015877521178480083,0.0008083517159848445
67,1.0401333813046627,0.01675258814158114,1,,0.21344285469128754,-0.29757501457445884,-0.9717792607046264,-0.015050834901194014,-0.0020424456818623656,0.002039008942359692
68,1.0403176358491593,0.016038956013889733,1,,0.21213806440805155,-0.2984125271463775,-0.974258416522284,-0.013335463114640206,-0.0017878675350366747,0.0037543808083612823
69,1.0407186471600431,0.015345999057339504,1,,0.2108905533310198,-0.29922383917156664,-0.9766932893212158,-0.01169521087993241,-0.0014742401783456726,0.005448263254503878
70,1.0412625632897263,0.014694241621592554,1,,0.2114437465936867,-0.29921147640576184,-0.9777360229953518,-0.012416515516720841,0.0006957356773313686,0.006466576080149992
71,1.0418664792424106,0.014087972353834879,1,,0.2119969398563536,-0.2991991136399571,-0.9787787566694875,-0.013137820153509271,0.00286571153300841,0.007484888905796104
72,1.0424502781402807,0.013518196210999603,1,,0.21297221683527784,-0.2991753262863263,-0.9778573472514686,-0.013062393906932587,0.003613398191411641,0.007516624640401
73,1.0429457881710054,0.012967265594307865,1,,0.21434746111118821,-0.2991407129724988,-0.9750747122679877,-0.012231984026610026,0.003013321020377386,0.006613478129675147
74,1.0433025756003904,0.012414040381957826,1,,0.21572270538817284,-0.2991060996586442,-0.972292077282333,-0.011401574145638794,0.002413243848874381,0.0057103316182438016
75,1.0434906237211667,0.011838635918251031,1,,0.21597129307088717,-0.2993485366860065,-0.9750122394564282,-0.009762126804789866,0.0021995728263856634,0.005489433605741111
76,1.043500656612947,0.011226261994854046,1,,0.21621544149269278,-0.29959206534923793,-0.9777540837938886,-0.008119491688363244,0.0019874243243530477,0.005271223793979014
77,1.0433428355426733,0.01057006897331752,1,,0.21590925504823458,-0.2996622082995141,-0.9778682184670314,-0.00765489634397993,0.0015286418837391316,0.005331565254992832
78,1.0430442368531245,0.009873101753649841,1,,0.21500375536580896,-0.2995435346593495,-0.975120784150275,-0.0084731832473285,0.000801275725492876,0.005695248327561518
79,1.0426453203088475,0.009149379219641882,1,,0.2140982556833833,-0.299424861019185,-0.9723733498335188,-0.009291470150677071,7.390956724662052e-05,0.006058931400130203
80,1.0421956643522585,0.008423896646214546,1,,0.21431397734483748,-0.2973109185647089,-0.9747537373449305,-0.008093635355377443,0.0009839139639838614,0.005076590995932395
81,1.0417493525675636,0.0077312175653570705,1,,0.21457481064480788,-0.29511669772059185,-0.9773404395547567,-0.006814683166948617,0.001959796938982878,0.004040094180789746
82,1.0413602833777877,0.00711244099197099,1,,0.21463670599240783,-0.2940820844912116,-0.9781015867240244,-0.005998569656974672,0.0022494946894125478,0.003221562069093903
83,1.0410774074031612,0.006610667886209704,1,,0.21444942548316226,-0.29449991519001945,-0.9765761704898308,-0.00576217571740467,0.0016797245039885118,0.0026760374006550374
84,1.0409397885419818,0.006265470598992711,1,,0.21426214497391666,-0.2949177458888273,-0.9750507542556375,-0.005525781777834667,0.0011099543185644756,0.0021305127322161716
85,1.0409716242739235,0.006107135438154051,1,,0.21310814112436435,-0.29394276444313094,-0.9747486004135515,-0.004469409705056803,0.0009726383119777845,0.002736327122325546
86,1.041177815204387,0.006151554976140829,1,,0.21187752338428606,-0.2928574010999529,-0.9745433914633029,-0.0033480534611406883,0.0008695947753315627,0.003433386401568881
87,1.0415410429460037,0.00639660685153263,1,,0.21101616558347022,-0.2939187971795152,-0.9744618498427056,-0.003246087530890521,0.0008087158,0.0038848991072686456
88,1.0420213759653696,0.006820675442541345,1,,0.21068796088603728,-0.29807977523177687,-0.974558864338454,-0.004615960412407439,0.0008087158,0.003981881294381001
89,1.0425591281794995,0.0073836560835308495,1,,0.21035975618860434,-0.30224075328403854,-0.9746558788342023,-0.0059858332939243565,0.0008087158,0.004078863481493357
90,1.0430811424584938,0.008030377479096164,1,,0.21139747849806778,-0.3029852611078178,-0.9744414972446681,-0.007323272596913782,0.00012220030146447848,0.0037488005696082417
91,1.0435100269178472,0.008695988310929253,1,,0.2126008997726982,-0.3033153210302634,-0.974189340569915,-0.008656777421434348,-0.0006475955679137509,0.0033669333295077595
92,1.043775275235376,0.009312583100083526,1,,0.2132685460360538,-0.30361436815505655,-0.9752130813624277,-0.009534089676275885,-0.0011586553796366712,0.0028216538338557353
93,1.043824703931225,0.009816242745627458,1,,0.21304109058847467,-0.3038616032177968,-0.9783684221418518,-0.009649255991286108,-0.0012374533595548918,0.0020033668504201773
94,1.0436342616341685,0.010153722922266694,1,,0.2128136351410732,-0.30410883828034396,-0.9815237629188112,-0.009764422306206368,-0.0013162513394115595,0.0011850798676238243
95,1.043214137114023,0.010288172965607748,1,,0.21367320255870315,-0.30378130439185846,-0.9793112537035137,-0.010118557596341136,-0.0006573622071133643,0.0013434491288076165
96,1.0426094583652354,0.010203421129872438,1,,0.21471406075427824,-0.3033579120687223,-0.9762035087647608,-0.010512547495624474,0.00012455641678506087,0.0016647025168593356
97,1.0418948698713646,0.009906459873279205,1,,0.21490774990227712,-0.3022983548761543,-0.9734768234744934,-0.010649167415080176,0.0005276263110937499,0.001617401981666034
98,1.0411636901453465,0.009427820896482158,1,,0.21345462263222253,-0.3000021534098527,-0.9714908820619435,-0.010285484461683165,0.00019425014468750002,0.0008536675145739541
99,1.0405136875827607,0.008819617192852567,1,,0.2120014953610328,-0.2977059519417574,-0.9695049406478422,-0.009921801508002063,-0.00013912602197916658,8.993304688528348e-05
100,1.0400322843447383,0.008151215483424998,1,,0.2118098684315585,-0.2974758273080003,-0.9704877584829457,-0.008511409907747725,-0.00021830155853734833,-0.0007485663194472562
101,1.0397839771221504,0.0075027943199008395,1,,0.21189083806644432,-0.29769215950674516,-0.9721120930464158,-0.006874835902431127,-0.00024254709141207514,-0.001603221570968303
102,1.0398020336662883,0.006957379755630322,1,,0.21175280012323983,-0.298271871828093,-0.9731287889494511,-0.0057095801180092895,-0.0002593994,-0.002212052063109278
103,1.0400854183169836,0.006592227729469765,1,,0.21111555058494558,-0.2996798822942376,-0.9727604174152815,-0.005618659399521982,-0.0002593994,-0.002260543176527402
104,1.0406008324961624,0.006470544178128411,1,,0.21047830104665133,-0.3010878927603821,-0.972392045881112,-0.005527738681034676,-0.0002593994,-0.0023090342899455257
105,1.0412889858374172,0.006634472373456895,1,,0.21039500284233859,-0.30135927002121493,-0.97465568015291,-0.005508423,6.0436625204019525e-05,-0.002963781725928032
106,1.0420737470175698,0.007100087213158941,1,,0.2104611347291462,-0.3013240369481136,-0.9776293061547163,-0.005508423,0.0004665494102167712,-0.0037820686852511765
107,1.0428725692088412,0.007854903817137236,1,,0.21053561807875645,-0.301399688673478,-0.9792626377643344,-0.005734419080966957,0.000992210865963767,-0.00438746075968124
108,1.0436065567318868,0.008858185142447749,1,,0.21063266092947233,-0.3017748694505432,-0.9772754811388943,-0.0065708901121234314,0.0018408047747845012,-0.004417767665843676
109,1.0442088334541986,0.010044122525084315,1,,0.21072970378018818,-0.3021500502276085,-0.975288324513454,-0.007407361143279906,0.0026893986836052357,-0.0044480745720061115
110,1.0446304510042477,0.011327737552189075,1,,0.2120504809018749,-0.3043357055244331,-0.9757732998109754,-0.009206629077213835,0.0019591881963240297,-0.004770414711978683
111,1.0448436676629413,0.012613086878973237,1,,0.2137730978345547,-0.30711586957720866,-0.9770700534873094,-0.011322052352500167,0.0007105428868404162,-0.0051886503271933535
112,1.0448427613767837,0.013803043794380057,1,,0.21482169586342276,-0.30854275940433107,-0.9775660480492727,-0.01304362396068054,-0.0004467744831963629,-0.005909409730786431
113,1.0446426210325763,0.014809628206692167,1,,0.21368131983354513,-0.3055746950859077,-0.9754614613515257,-0.01348610521172535,-0.0013074911385925149,-0.0076126589773290575
114,1.0442754409139805,0.015563644143205956,1,,0.2125409438036675,-0.30260663076748423,-0.9733568746537785,-0.013928586462770162,-0.002168207793988667,-0.009315908223871683
115,1.0437860648940396,0.0160223394442442,1,,0.21290422264080391,-0.3005945487531124,-0.9748072557100053,-0.013439661552516385,-0.002685087653187899,-0.010993043208333334
116,1.0432267141887823,0.01617396213150832,1,,0.2138579338693004,-0.2989578473731279,-0.9776535475953937,-0.012585006194932549,-0.0030669548932883805,-0.012659924040364584
117,1.042651735885194,0.01603844750714259,1,,0.2144911447661034,-0.29766000315372204,-0.9792961068667428,-0.011732783560954748,-0.0027895631475068914,-0.013566589188093534
118,1.042112683607397,0.015664004887010963,1,,0.21384771384440412,-0.2977119210991491,-0.9761438648801914,-0.010890251139962864,0.00011384020502888677,-0.011445104166110177
119,1.0416538346180797,0.015120030782590738,1,,0.21320428292320753,-0.2977638390445356,-0.9729916228961025,-0.010047718719629124,0.0030172435552966725,-0.009323619145784019
120,1.0413083853544853,0.014487437973632285,1,,0.21364837009250265,-0.2992647976092821,-0.9717162307559287,-0.009793309031617565,0.0030877169508305344,-0.007810965831910107
121,1.0410958672028177,0.013847970034169963,1,,0.2145965196966709,-0.30143738356966493,-0.9713107547215065,-0.009811493040253794,0.001845133043416733,-0.00658050478229862
122,1.0410213945660163,0.013274200003937616,1,,0.21541114628792363,-0.3032718546086728,-0.9712774387171431,-0.00989404130778528,0.0008046930369497226,-0.0056286201500437075
123,1.0410770082950367,0.012821649516231843,1,,0.21555454140898805,-0.3034065933632481,-0.973115002635778,-0.010300154144318716,0.0007804475040749957,-0.0060771627108180005
124,1.0412447678510532,0.012523914401214796,1,,0.21569793653016453,-0.30354133211792866,-0.9749525665558484,-0.010706266981169386,0.0007562019711813294,-0.006525705271942673
125,1.0415007044959352,0.012391024897634927,1,,0.21513702973186605,-0.3028543213750013,-0.9752504683053339,-0.010805757296309771,0.0005629210069265719,-0.0071943868952044155
126,1.0418185484768547,0.012410691264400281,1,,0.21419444580273575,-0.30172198600374833,-0.9747139923213289,-0.010739081935912068,0.00027803592136485446,-0.007982366852666657
127,1.0421723758936188,0.012551731719312493,1,,0.21332523077393797,-0.3006818283794629,-0.9742911738179646,-0.010545200656958903,0.00027856914638120007,-0.00860338904072227
128,1.0425378549580209,0.012768902961029902,1,,0.2129420133889577,-0.30025225872413397,-0.9746212256389909,-0.00950870382267656,0.0021697212278149612,-0.008118478303779951
129,1.0428923286869012,0.013008505566972558,1,,0.21255879600397742,-0.2998226890688051,-0.9749512774600172,-0.008472206988394218,0.0040608733092487225,-0.007633567566837631
130,1.0432143035741066,0.01321438788976922,1,,0.2122905315488577,-0.2998730276955729,-0.9755764750007624,-0.009429845914979782,0.003820234731030768,-0.0067952185813510875
131,1.0434829416633131,0.013334160329242338,1,,0.21209459872383263,-0.30022533816604124,-0.9763873865625109,-0.011642251375726007,0.002238213268033451,-0.005734476269807467
132,1.0436779571301942,0.013325445315919716,1,,0.2120025318601282,-0.30053271711881663,-0.9771119553469302,-0.013456691945333884,0.0008087158,-0.004923265553748124
133,1.0437800433769704,0.01316184678561311,1,,0.21288392578702237,-0.30041898534214767,-0.977027295513886,-0.01154129443678725,0.0008087158,-0.006450734623932445
134,1.0437717332492558,0.012838161580942815,1,,0.2137653197139165,-0.30030525356547866,-0.9769426356808419,-0.009625896928240616,0.0008087158,-0.007978203694116765
135,1.0436384963398233,0.012374295754276307,1,,0.21404151384490835,-0.30010419885357587,-0.9764521106610417,-0.009040694244187804,0.0008297742967081849,-0.008350965282661006
136,1.0433699025032268,0.011817391090075239,1,,0.21387771935012417,-0.29983965915946975,-0.9756665160345095,-0.00942256160345996,0.0008661426119098318,-0.007884238554354916
137,1.0429607684214623,0.011241731461932586,1,,0.21367916900738215,-0.29959405974009556,-0.9749641926814093,-0.009778267882110961,0.0009182075634451916,-0.0074048050320968525
138,1.0424122692547155,0.010746052849227956,1,,0.21295168181055818,-0.2996367056111285,-0.9755291451541456,-0.009735837998974537,0.0012091540254725293,-0.006731991349830979
139,1.0417329778748834,0.010447982940324136,1,,0.21222419461373415,-0.2996793514821614,-0.9760940976268817,-0.009693408115838112,0.0015001004874998667,-0.006059177667565105
140,1.0409397016141948,0.010475558875312003,1,,0.2118529664263442,-0.29993595912094184,-0.975008241592208,-0.009604791130524027,0.0013324727721070126,-0.0061352585009968544
141,1.040057917715962,0.010956126050486487,1,,0.2117800293486638,-0.30037171420988273,-0.9725401847189494,-0.009477502275592586,0.0007808867661319403,-0.0068383791291490555
142,1.0391216610224674,0.012003355586488493,1,,0.21174357658401036,-0.30081570058024487,-0.9701333235488084,-0.009408431365607524,0.00029322635308065196,-0.007509536961587477
143,1.0381728661521519,0.013703558444050487,1,,0.21302673202809033,-0.3015574057684657,-0.9699398616565093,-0.011445056621251743,0.0021177031343332592,-0.007024626224266369
144,1.0372602646563436,0.01610284889549821,1,,0.21430988747116797,-0.30229911095610706,-0.9697463997643613,-0.013481681875305051,0.003942179914160677,-0.006539715487324049
145,1.0364378784337418,0.019196959026375846,1,,0.21471721110353348,-0.3030634927301924,-0.968577908637485,-0.015258878147619788,0.006208303807424857,-0.005804640976651554
146,1.0357630016735133,0.022925580526021044,1,,0.2142814560145926,-0.303849703064589,-0.9664708510068608,-0.0167863471874695,0.00889955873510781,-0.004828757954694082
147,1.0352934867125512,0.027172953096397466,1,,0.2138457009256517,-0.30463591339898566,-0.9643637933762367,-0.01831381622731921,0.011590813662790763,-0.0038528749327366107
148,1.0350841984564574,0.03177593376123472,1,,0.2144561334125859,-0.3062242386526767,-0.9661746944725796,-0.022318973455228302,0.015015752863093632,-0.0016982859235702042
149,1.035182576261574,0.036539850813500245,1,,0.21507484285336592,-0.30781890987073846,-0.9680165926519623,-0.0263437330119563,0.01844649663750063,0.00046562846517212905
150,1.0356232741235756,0.04126102951088734,1,,0.2160404115662219,-0.30646408875113224,-0.9687219544727482,-0.03310814573375162,0.021618239678404955,0.003351867448964035
151,1.0364219733798468,0.04575312014446723,1,,0.21738969889479384,-0.301846344579055,-0.9681700047779392,-0.042903343573359884,0.02450345902003651,0.007037189566136256
152,1.0375688850812537,0.04987264149251455,1,,0.21873898622336574,-0.29722860040697785,-0.96761805508313,-0.05269854141296814,0.027388678361668063,0.010722511683308476
153,1.0390231609528893,0.05353805587720533,1,,0.21903613089971657,-0.29029945122715034,-0.9698177604726386,-0.05884936011929528,0.027790148363384448,0.007275759202100052
154,1.0407100668964961,0.056736868075466705,1,,0.21928645665371488,-0.28326744765647144,-0.9721399107848595,-0.06483800889238774,0.02808109488499762,0.003511639065347271
155,1.042522908004891,0.05951713157731935,1,,0.2174934573692398,-0.2756980288462705,-0.9763033285043093,-0.0623478409988033,0.028313364368407905,-0.0041544966488017265
156,1.044331099380814,0.061963275894469635,1,,0.21310007795311287,-0.2674446836615378,-0.9828099833903495,-0.04906734557398415,0.028470960169225675,-0.01678642271662342
157,1.0459945102767905,0.06416060346089013,1,,0.2087066985369859,-0.25919133847680503,-0.9893166382763896,-0.03578685014916501,0.028628555970043445,-0.02941834878444511
158,1.0473825366542129,0.06615684864054922,1,,0.20585135557129922,-0.2614042728476084,-0.9963022734347999,-0.012954369091826165,0.023903900931318594,-0.03592648883218181
159,1.0483946834839633,0.06793133884089216,1,,0.20312496469109464,-0.2644947212562217,-1.0033280672676088,0.010678969752371727,0.018769908111668353,-0.04192119827942147
160,1.0489782861337236,0.06938141786879043,1,,0.2019561286187852,-0.2699560662193055,-1.0041998096689118,0.03150701014748706,0.016340498625187775,-0.04478880994878678
161,1.0491389328458272,0.07033171960801556,1,,0.20307301865638225,-0.2788967238402624,-0.9960404245828224,0.04821824908004997,0.017880090235624025,-0.0430673766594213
162,1.048940491714293,0.07056568077839454,1,,0.2041899086948518,-0.2878373814682032,-0.9878810394903594,0.06492948802566686,0.019419681847262924,-0.04134594336871113
163,1.0484941184508292,0.06987234562709779,1,,0.21187971750262832,-0.2949296995427466,-0.9819475455307226,0.07150671177705625,0.018908790784724197,-0.038026102327923264
164,1.0479383355038479,0.06809712839020726,1,,0.22039945760647975,-0.3017886365442877,-0.9762951042924246,0.07680436146891038,0.01813899499479375,-0.03450443791715667
165,1.0474142588356103,0.06518406929304482,1,,0.22710589278475177,-0.3086597108626381,-0.9708240549311605,0.07528368576614582,0.016929017375278282,-0.03124778074066543
166,1.0470408429258633,0.061199413865086864,1,,0.23073160196447962,-0.31555140595299414,-0.965661182459299,0.06217897253421417,0.014971190021633857,-0.02844135929944276
167,1.046894717089669,0.05633125784754973,1,,0.23435731114420744,-0.32244310104335017,-0.9604983099874372,0.04907425930228253,0.013013362667989432,-0.02563493785822009
168,1.0469980863523405,0.0508660836790222,1,,0.2357772668390297,-0.3246559339011008,-0.9634191293560745,0.03261344188206038,0.008645760448982014,-0.025698527695201118
169,1.0473164945268272,0.04514852025125561,1,,0.23681751337744997,-0.32606332460867127,-0.967731514833058,0.01557488834524799,0.003863327844098145,-0.02625617526116619
170,1.0477662613333505,0.03953401255563293,1,,0.2367084599048013,-0.3256654129009575,-0.9709224163862051,0.0012064799777831037,0.0012402121163881442,-0.02651872288944487
171,1.0482295809429891,0.03434445179546669,1,,0.23432572717928563,-0.32169604151583114,-0.9718946677126991,-0.007879535963667363,0.0028889087411637063,-0.02619746942194537
172,1.0485741452021704,0.029834407812728916,1,,0.2319429944537699,-0.3177266701307048,-0.9728669190391931,-0.01696555190511783,0.004537605365939269,-0.025876215954445867
173,1.0486739572963455,0.026171610620941057,1,,0.23104033142078226,-0.3131553582550224,-0.9743440168364066,-0.01738054914672148,0.0014985946924798862,-0.023848537942465567
174,1.0484284765445993,0.02343138613545874,1,,0.23046612712679218,-0.30845046306148177,-0.9759331507343937,-0.01587126411432902,-0.0025807172874383346,-0.021442168264510463
175,1.0477779118999728,0.021602174670021956,1,,0.2293696823082312,-0.30558819909654705,-0.9771373423429777,-0.014788916218075788,-0.006132743715059219,-0.017879054449653625
176,1.0467130583913475,0.020598443951977678,1,,0.22706049831755076,-0.3070048659291808,-0.9774476267009873,-0.014697995380416806,-0.008460315490725704,-0.011629766617244916
177,1.0452785444162918,0.020277767299147258,1,,0.2247513143268703,-0.30842153276181444,-0.9777579110589968,-0.014607074542757822,-0.010787887266392189,-0.005380478784836207
178,1.0435689040222347,0.020459749531663882,1,,0.2239014888923067,-0.3071166133983043,-0.9744655718204601,-0.017100090248148205,-0.00941530014608948,-0.005676529641355648
179,1.0417176786752051,0.020945214735466674,1,,0.22345461055470922,-0.30506023014520894,-0.970178503278693,-0.020306563057279264,-0.0070210530100252916,-0.007779830136634986
180,1.0398807939624541,0.021534410678163484,1,,0.2231446528913758,-0.3031738445331212,-0.9668023158808388,-0.022220331081685276,-0.005261054291790683,-0.009026169131330994
181,1.038216505170106,0.022043112072961512,1,,0.2232120242940709,-0.3017559422329414,-0.9659363551744801,-0.020571634257002376,-0.005248931592874466,-0.007910874395768555
182,1.0368648845731996,0.022315736592418842,1,,0.2232793956967134,-0.30033803993386915,-0.9650703944687976,-0.018922937433607356,-0.0052368088939677175,-0.006795579661077327
183,1.0359298986114351,0.022235047414742432,1,,0.22285288598319647,-0.2998357060418994,-0.9638452695585008,-0.0194076782651666,-0.0018474998048765953,-0.003360738839746663
184,1.035466657889571,0.02172849729885763,1,,0.2222607613502315,-0.29964039297544837,-0.9624997048320829,-0.02060783236889176,0.002674293264004317,0.0008519236591609527
185,1.035475638825989,0.0207714489168941,1,,0.2221162127917496,-0.29918508906362157,-0.962018950783233,-0.021347733805894994,0.006025809559142809,0.0038760676359062135
186,1.0359047194720212,0.019387294018297554,1,,0.2234574635390429,-0.2978667045726696,-0.9644090720505886,-0.020559753991679516,0.005492407698189329,0.002954737098247065
187,1.0366587661139313,0.017644146540196547,1,,0.22479871428738396,-0.2965483200806878,-0.9667991933198112,-0.01977177417684851,0.0049590058368191815,0.0020334065598682192
188,1.0376152944099706,0.015647685799842014,1,,0.225504802081302,-0.2969178148490567,-0.9698867458678729,-0.017122506791401846,0.003776317675529661,0.0002117324064265462
189,1.0386435959489753,0.013530080904249163,1,,0.22595662228465366,-0.2979629992025215,-0.9732534931806616,-0.013728131235566692,0.002333708084161666,-0.0019703661084333507
190,1.0396239649384458,0.011435652048275518,1,,0.22615306933391702,-0.2989212365175579,-0.9758334390517333,-0.010294401337701502,0.0011737342432335705,-0.0036122367988773996
191,1.040463556437171,0.009504748950089112,1,,0.22530690849692847,-0.29952449655130836,-0.9752011232777739,-0.006700000097912154,0.001167672854056305,-0.003048528002630629
192,1.0411060919323747,0.007857957594086145,1,,0.22446074765993992,-0.3001277565850588,-0.9745688075038146,-0.0031055988581228065,0.0011616114648790397,-0.0024848192063838584
193,1.0415340052681643,0.00658296502632196,1,,0.22343486105899932,-0.3010186510418708,-0.9725071395504363,-0.002159021080211989,0.0018267712513098677,-0.0014516673899929466
194,1.0417633499155203,0.005726108664423471,1,,0.22232415242648537,-0.30204529529733803,-0.9697708851922715,-0.0024620903404558034,0.002808715582996821,-0.00019696074394850584
195,1.0418333898891157,0.005289836168383153,1,,0.22125369493822028,-0.3026961657470486,-0.9675777105770943,-0.002994924648807856,0.0035373292092307305,0.0007189897297910458
196,1.0417938376725733,0.0052361929966044975,1,,0.22039146088540165,-0.3014031184710433,-0.9681939450338043,-0.004716357903986711,0.002955436245452164,-0.00011748138081321195
197,1.0416929234805579,0.005495348630038386,1,,0.21952922683258302,-0.300110071195038,-0.9688101794905143,-0.006437791159165567,0.002373543281673597,-0.0009539524914174696
198,1.04156885763978,0.005977363347474187,1,,0.2200559201111097,-0.3005446230695582,-0.9704567489700481,-0.007647372352434376,0.0017135049960506066,-0.0011457244817092273
199,1.0414460027571357,0.00658503976487543,1,,0.22134834357884084,-0.30193161845520194,-0.9726713529432005,-0.00857476414252648,0.0010103843752939413,-0.000982067092966894
200,1.0413356033642447,0.007225802605492719,1,,0.222640059386878,-0.30315801912830115,-0.9744925749668601,-0.009309343971661502,0.00040444099942019623,-0.0008261221847834883
201,1.0412396842336338,0.007821020814846645,1,,0.22392692122927133,-0.3032828701006584,-0.973615515316779,-0.00872138985704902,0.0004650548435241808,-0.0007230786482177589
202,1.0411560990876891,0.008311893769924706,1,,0.22521378307166462,-0.3034077210730157,-0.9727384556666978,-0.008133435742436535,0.0005256686876281654,-0.0006200351116520295
203,1.0410828342537575,0.008661798345786165,1,,0.22528875191049882,-0.3034307999107793,-0.9713027448886944,-0.007785761309654923,0.0006676080418928253,-0.0008422935478958498
204,1.0410203889804128,0.00885565023551459,1,,0.22458845712745182,-0.30338877379832047,-0.9695096577618472,-0.00759179689570632,0.0008615723763936449,-0.0012726518616905638
205,1.0409719981778025,0.00889722018663805,1,,0.22389296440894946,-0.3032621439851192,-0.9680273186828893,-0.007463422008595339,0.0009899472061002976,-0.0016553596852594843
206,1.0409422503196404,0.008805407808735908,1,,0.22324459162149213,-0.3023053461151337,-0.9695941736778686,-0.007978639890445907,0.00047472948314529673,-0.0015705003161592633
207,1.0409350337782095,0.008610266858488506,1,,0.22259621883454128,-0.30134854824589563,-0.9711610286716239,-0.008493857771894011,-4.048823940724185e-05,-0.0014856409471253303
208,1.0409516822778289,0.008349222908840033,1,,0.22273271899015865,-0.30094378899369395,-0.9714862295004779,-0.008712769,-6.069971384124255e-05,-0.0010591575333488423
209,1.0409898583507056,0.008063572757246363,1,,0.22344908293832608,-0.30094687563443545,-0.9708940967660936,-0.008712769,0.00028479921502998164,-0.0003802824221818114
210,1.0410433653056121,0.007795124374610162,1,,0.22414753356849088,-0.30100213233788414,-0.9703394328212548,-0.008681624322457901,0.0006079019795530922,0.0002737469435021877
211,1.041102855638609,0.007582785988448643,1,,0.22455361720935837,-0.3019088674867484,-0.9703963047845245,-0.008142160884300734,0.0005654722870913472,0.0005222637289573371
212,1.0411572798990543,0.00745903414746151,1,,0.22495970085054315,-0.30281560263632085,-0.9704531767478386,-0.007602697445722165,0.0005230425945964585,0.0007707805146066153
213,1.041195808853531,0.0074464241909425145,1,,0.22476126599672958,-0.30298389164836365,-0.9709058101961318,-0.0070599588011736325,0.0004085561779314567,0.0005869569610996083
214,1.0412098416655322,0.007554565151255973,1,,0.22404860843372487,-0.30252403482796447,-0.971695090984106,-0.006514434161624869,0.00023277601382736866,3.537092828081521e-05
215,1.0411946386753672,0.007778167204626365,1,,0.2233368883048872,-0.3020817190322774,-0.972447103400992,-0.005999970391646684,7.761023950631066e-05,-0.0004982471560268765
216,1.041150158577431,0.00809679562892912,1,,0.22266502545276542,-0.30238520224881044,-0.971614561049795,-0.006806134476916831,0.0007989150129449287,-0.0002679145321449396
217,1.0410808652551151,0.008476778503486137,1,,0.22199316260064356,-0.3026886854653435,-0.9707820186985979,-0.007612298562186978,0.0015202197863835468,-3.75819082630028e-05
218,1.0409945606153577,0.008875330012284853,1,,0.2217116231230883,-0.3035618684049589,-0.9700866546872301,-0.008565566022717571,0.0015795597814594348,0.0005697028976327087
219,1.0409005916723382,0.009246462765108415,1,,0.2218117566652553,-0.3049921253684167,-0.9695254288673579,-0.009662676748772569,0.0009916054761722724,0.0015455858619905373
220,1.040807952746629,0.009547816144256285,1,,0.22191189020742233,-0.30642238233187435,-0.9689642030474857,-0.010759787474827566,0.00040365117088510976,0.002521468826348366
221,1.0407237981149544,0.009747254710607747,1,,0.22256846699857807,-0.30580397574147516,-0.9689765293671979,-0.010826615115782916,-0.0010828057602601789,0.0005143231379439569
222,1.0406527254949878,0.00982806595100076,1,,0.2232316734842108,-0.30516116052814296,-0.9689956892237696,-0.01088116753893052,-0.002579967822444449,-0.0015283635847344013
223,1.0405969581266001,0.009791816526743258,1,,0.22381223019347204,-0.30431870340102707,-0.9693917262624845,-0.010222220537473398,-0.0032152225153645833,-0.0031686365773201278
224,1.0405573055390365,0.009658354541807336,1,,0.22429990322818047,-0.30325188420657057,-0.970211306343491,-0.008761426856880292,-0.002881846348697917,-0.004356667983066571
225,1.0405345655822902,0.00946297875544707,1,,0.2247875762625079,-0.3021850650129474,-0.9710308864238573,-0.007300633177428283,-0.0025484701822916667,-0.005544699387884983
226,1.040530890475327,0.009251329917899164,1,,0.22456864090831086,-0.30173880736364317,-0.9711839211308679,-0.006961035955720819,-0.0006835627322311184,-0.003386479434794077
227,1.0405506305435115,0.00907298201833745,1,,0.2243152244628613,-0.301322831889848,-0.9713044297424971,-0.006676150902732693,0.001256080414157619,-0.0010649690363876906
228,1.0406003196478002,0.008974903022992916,1,,0.22443566946482715,-0.3011615782326824,-0.9708138893403506,-0.0071710523510591095,0.002270553176951568,0.0006379988768877613
229,1.0406877458614208,0.008995831575155202,1,,0.22503954520644204,-0.30132969888535643,-0.9695332169822791,-0.008674275913647542,0.002088711620805279,0.0015411452168008798
230,1.0408203660599427,0.009162205831785845,1,,0.2256434209480569,-0.3014978195380304,-0.9682525446242074,-0.010177499476235976,0.0019068700646589904,0.002444291556713998
231,1.041003542518395,0.009485763483003362,1,,0.22528989800582813,-0.3020503748528449,-0.9695754828267403,-0.010305251421409737,0.0011069017986827627,0.0013371338048438063
232,1.041239087469512,0.009962562684694044,1,,0.2248516719840101,-0.3026369419121912,-0.9711287679432197,-0.01031131249279587,0.0002522465602706003,5.2120212913038216e-05
233,1.041524381216976,0.010573109092131126,1,,0.22461363399740958,-0.30294964325959917,-0.9721705199401001,-0.010237094960456673,0.0004412153385189892,-0.0008825860097582351
234,1.0418520174738446,0.011283464132453432,1,,0.2246742042585756,-0.30285383587532183,-0.9724492492700563,-0.010043130745127528,0.00218689422985469,-0.0012947601560211529
235,1.0422097432607456,0.012047457254430873,1,,0.2247347745197416,-0.3027580284910445,-0.9727279786000124,-0.009849166529798383,0.00393257312119039,-0.0017069343022840704
236,1.0425805334761933,0.012810239852516546,1,,0.22449320634467507,-0.30310587906676395,-0.9711195780408045,-0.010582145723148945,0.0047995308211267506,-0.0019690829298143826
237,1.0429429234260765,0.01351331562436908,1,,0.22421197772665474,-0.3035119667586584,-0.9692634618705932,-0.011436800882780939,0.005551142483836413,-0.002211538338198828
238,1.0432720144591556,0.014100886346445494,1,,0.22415552076938047,-0.30396019867253893,-0.9691688170869394,-0.012460330929692108,0.005482822877243326,-0.0027628567420317066
239,1.0435416152767383,0.01452696058813851,1,,0.2244874359168387,-0.3044812495542554,-0.97211773370092,-0.013775651745576444,0.0039977836013583646,-0.0038478446102843894
240,1.0437276310244676,0.01476230676186006,1,,0.22481935106429693,-0.3050023004359718,-0.9750666503149007,-0.015090972561460782,0.0025127443254734034,-0.004932832478537073
241,1.04381217028547,0.014800095508526382,1,,0.2250646561185324,-0.30447619746150534,-0.9752877169363317,-0.015361370606033396,0.00139317051393499,-0.005796482175471625
242,1.0437872722560178,0.01465904407215775,1,,0.22529458250337714,-0.3037641596570871,-0.9750244208048544,-0.015446229976752584,0.0003384895150098606,-0.006620830603540195
243,1.0436570334442887,0.014383093095073986,1,,0.22539324405755706,-0.3033971055338003,-0.974317884928132,-0.014919629090503653,-2.2264553641788426e-05,-0.007235995202834768
244,1.0434373239257546,0.01403712154396484,1,,0.22522759838846987,-0.30372469047265915,-0.972718867299878,-0.01316182742081342,0.0010142322568062192,-0.007429959418163912
245,1.043153008652877,0.013698887051091083,1,,0.22506195271938262,-0.304052275411518,-0.971119849671624,-0.011404025751123188,0.0020507290672542268,-0.007623923633493057
246,1.0428333081812213,0.013448147049352644,1,,0.2255170031665322,-0.30414477052928285,-0.9702840211353131,-0.010312685189064136,0.0019764576216544697,-0.006475092551471021
247,1.0425064042536831,0.013354595749400648,1,,0.22611345395738686,-0.30418371000100014,-0.9696220541668286,-0.009373170661065824,0.001649142844425485,-0.005020360221472387
248,1.0421945136533644,0.013466655459808522,1,,0.22660247797305128,-0.30432087348941605,-0.9692849015909248,-0.00929792590209888,0.0007276819520511917,-0.003673715774961385
249,1.0419104400949157,0.013803143326107914,1,,0.22683732230306283,-0.3046904422570915,-0.9697162838617154,-0.0112676072597604,-0.0015995725379814815,-0.0025828152451705935
250,1.0416561837740193,0.01434934954101918,1,,0.22707216663325777,-0.3050600110250557,-0.9701476661328431,-0.013237288618960535,-0.003926827029832089,-0.0014919147145276452
251,1.0414236993488486,0.01505821391138723,1,,0.22593703742320517,-0.3052778761639514,-0.9698502446865149,-0.01400255587540303,-0.004156866801004225,-0.0034006469473870054
252,1.0411974916792681,0.01585632759059588,1,,0.22441406781763099,-0.3054527939073923,-0.9693464984363573,-0.014426852720572694,-0.0037931837284355396,-0.006158577156019879
253,1.040958502352006,0.01665370091668592,1,,0.223204270444386,-0.30547387835662504,-0.9691724434727217,-0.014490674907075202,-0.003364392890890326,-0.008760883837321428
254,1.04068864214671,0.0173557816767852,1,,0.22287668145481754,-0.3050616133328551,-0.969927131184742,-0.013539037441826792,-0.0027521930209493234,-0.01092479794630618
255,1.0403752746727193,0.017876059738650807,1,,0.22254909246524907,-0.3046493483090852,-0.9706818188967622,-0.012587399976578383,-0.0021399931510083206,-0.01308871205529093
256,1.0400149056537196,0.018147644196376503,1,,0.2235119999347527,-0.3031509309148518,-0.9709960518817168,-0.012994283891073922,-0.0022995777607403016,-0.013957292397370329
257,1.0396153342287595,0.018132352406002094,1,,0.2249175313666009,-0.30127997699669895,-0.971159214465798,-0.013867123455913448,-0.0027238746853577504,-0.01438158963977891
258,1.039195681792381,0.017826079514786618,1,,0.22604371065066078,-0.2993937123036526,-0.9709277154560897,-0.014511324548328866,-0.002909891758358879,-0.014265969466892858
259,1.0387840874319285,0.01725957167514636,1,,0.22621987196195945,-0.29745537888143797,-0.9693540552701481,-0.014377974224772376,-0.0022855691100633455,-0.012314203581873481
260,1.0384134013965611,0.01649427905196191,1,,0.22639603327325808,-0.2955170454592234,-0.9677803950842068,-0.014244623901215886,-0.0016612464617678123,-0.010362437696854104
261,1.0381157708519473,0.015613716068763188,1,,0.22552883214634045,-0.29609584951042,-0.9668508283848286,-0.01271719685928947,-0.0009465670152429424,-0.008509633886484812
262,1.0379173848518894,0.014711577809036046,1,,0.22423516916146014,-0.2977035032528707,-0.9661845271565146,-0.010619957711825247,-0.00019495531280938809,-0.006697279633335689
263,1.0378346473628457,0.013878534430080438,1,,0.2233386248043293,-0.299400145922032,-0.9659442556653457,-0.008957892504883597,0.00038865357551780597,-0.005331766252306249
264,1.037872632552915,0.013189928542518757,1,,0.22410814621503145,-0.3014701314580804,-0.9674913431960843,-0.009121549774326415,0.00026742587936505854,-0.005840922625405413
265,1.0380259702504018,0.012696397792696297,1,,0.22487766762573355,-0.30354011699412875,-0.9690384307268228,-0.009285207043769233,0.00014619818321231112,-0.006350078998504578
266,1.0382815643780852,0.012418766482019917,1,,0.22495242880723143,-0.3041513081449286,-0.9692869465003341,-0.009559349764900794,8.602282811927682e-06,-0.007194783593868316
267,1.038622057711523,0.012347613721920066,1,,0.2246928309737241,-0.30406044262460097,-0.9689105140465162,-0.00988666450890616,-0.00013687094910455676,-0.008200973502246654
268,1.0390289233101977,0.012447034999244678,1,,0.224562892503015,-0.30382529590865676,-0.9685193677585405,-0.01031723075642585,-8.157733908641304e-05,-0.008782684941888882
269,1.0394844634626577,0.01266150183986944,1,,0.22512535378932583,-0.30281966673477373,-0.9680496474693138,-0.011299174968941127,0.0010458402534071283,-0.007097619942325835
270,1.039972593283055,0.012924473064986685,1,,0.22568781507563665,-0.3018140375608907,-0.9675799271800869,-0.012281119181456406,0.0021732578459006694,-0.005412554942762789
271,1.0404787834902183,0.013167471295455948,1,,0.22569577278898284,-0.30206306626211066,-0.9683513714782233,-0.012444088666483711,0.0016510812723024891,-0.004907434918818992
272,1.0409897402912718,0.013328583895408605,1,,0.2253922936231594,-0.3030167734398976,-0.9698199157491472,-0.012147081073484405,0.00020241029175722884,-0.005065030878532327
273,1.04149327877517,0.013359638422815148,1,,0.22514186699693972,-0.3037743822323647,-0.9711799290841633,-0.0118359112376396,-0.0011851396428139511,-0.005414189132114643
274,1.0419785259026795,0.013231535346500945,1,,0.2252698086607482,-0.30313342629475476,-0.9717659047399028,-0.011423736932481115,-0.002136777068338469,-0.0071295609186684495
275,1.0424362797357194,0.012937354425693716,1,,0.22539775032465664,-0.30249247035664417,-0.9723518803961003,-0.01101156262700066,-0.003088414494606358,-0.008844932706562218
276,1.0428592165117108,0.012492921712360248,1,,0.2256342436432073,-0.3023444823391643,-0.9726466252898008,-0.010489266161944451,-0.0034637451,-0.008761640062272407
277,1.0432417028138234,0.011934636547059055,1,,0.22594143325905602,-0.3025175489083021,-0.9727517006977219,-0.00989525057870692,-0.0034637451,-0.007506933535399641
278,1.0435791532646932,0.011314618497119538,1,,0.22612730125632283,-0.3027698974311653,-0.9728223672167153,-0.009278241811884648,-0.0033573348948025975,-0.006242601954362783
279,1.0438670752728696,0.010693652981282435,1,,0.22505924659626114,-0.3038416665919619,-0.972537399793922,-0.008423586414576918,-0.0021511193224523885,-0.004878790382575347
280,1.0441000979127792,0.01013287499075329,1,,0.22399119193619943,-0.3049134357527585,-0.9722524323711286,-0.0075689310172691905,-0.00094490375010218,-0.0035149788107879114
281,1.044271355489482,0.009685458158799095,1,,0.22435104155919822,-0.305548397385674,-0.9721696536160207,-0.00741321400161203,-0.00032344339582139934,-0.0027912839104529386
282,1.044372559880004,0.009389632899012516,1,,0.22578438921410712,-0.30585496724294864,-0.9722388802436758,-0.007782958661977439,-0.00014160184841436688,-0.002548828541981779
283,1.0443949410902298,0.009264101472355004,1,,0.22713832723211125,-0.30613007744018733,-0.9723125032496152,-0.008162101362255895,7.508559590240102e-06,-0.002352391209140794
284,1.0443309982920699,0.00930642545940896,1,,0.22708640523601506,-0.30584822906381265,-0.9724639592828526,-0.00870762599097087,-0.00042284974546521765,-0.0029706524285351703
285,1.0441767597916998,0.009494390240707152,1,,0.22703448323991893,-0.3055663806874379,-0.9726154153160897,-0.009253150619685842,-0.0008532080505206754,-0.003588913647929547
286,1.043934075246466,0.009789864015202366,1,,0.2268960819490451,-0.3052649819622564,-0.9728145691624495,-0.009564715807089154,-0.0009456250160182018,-0.003999210976279346
287,1.0436123954060776,0.010144367748181669,1,,0.2266828444922945,-0.30494666504679285,-0.9730549990329984,-0.009673820653469592,-0.0007455993319077585,-0.004229543606299791
288,1.0432295402600293,0.010505481413943198,1,,0.22646455299763335,-0.30464378780444595,-0.9732583276055568,-0.00977498632988341,-0.0005531725688652102,-0.004467475157795245
289,1.0428111179417356,0.010823288093453311,1,,0.22598121017190526,-0.305150620695345,-0.9715159351097865,-0.009459794331008955,-0.000759259641996669,-0.0051039205844453095
290,1.0423885310410648,0.011056216588038273,1,,0.2254978673461772,-0.305657453586244,-0.9697735426140164,-0.009144602332134502,-0.0009653467151281278,-0.005740366011095373
291,1.0419958429853746,0.011175798201979828,1,,0.22491474307628806,-0.3049341042332185,-0.9694568560667657,-0.009421972883322274,-0.00095871904303927,-0.006000002437169063
292,1.0416660518258865,0.011169951281834517,1,,0.22423236863266446,-0.302987122545934,-0.9705582845235066,-0.010288750979536751,-0.0007405091915532803,-0.005884836122248803
293,1.0414274030293273,0.011044450630831072,1,,0.22354999418904092,-0.3010401408586496,-0.9716597129802478,-0.011155529075751227,-0.0005222993400672906,-0.005769669807328543
294,1.0413002448930737,0.010822289033395582,1,,0.2235293143355398,-0.3002134157170649,-0.9720447068683257,-0.010817549109845984,-9.534432029924642e-05,-0.005022303807432882
295,1.0412947027151067,0.01054078434287329,1,,0.22351942250241566,-0.2994049548185899,-0.9724180202756633,-0.010459927220732952,0.0003350140020421229,-0.004264630661638362
296,1.0414092706182354,0.010246579930227755,1,,0.22360527731801616,-0.29884739323868637,-0.9723847222704044,-0.009714851821003097,0.00045427818697335625,-0.0037728016272530977
297,1.0416303680163863,0.009989088602321146,1,,0.2238005944351768,-0.2985766721616778,-0.9718865659995426,-0.008526820416184685,0.00021788417669482642,-0.0035848987216534354
298,1.0419329522063576,0.009813320640296644,1,,0.22399591155233742,-0.29830595108466934,-0.9713884097286809,-0.007338789011366273,-1.8509833583703425e-05,-0.003396995816053773
299,1.0422823235945107,0.009753278125425632,1,,0.22499147851727447,-0.3003450387476481,-0.9716095286176882,-0.0070137816393072,-0.00043901564807526664,-0.004026089034013961
300,1.0426372025743522,0.009827088878055522,1,,0.2260298698314932,-0.3025077328767927,-0.9718691385983718,-0.006734957895830753,-0.000869373970945411,-0.0046989027565292945
301,1.0429539573277478,0.010034761809107168,1,,0.22662973092887673,-0.30321017326642924,-0.972193591759633,-0.00731728324807862,-0.0007081830440783832,-0.005007887511261303
302,1.0431915855341105,0.010358927263718893,1,,0.22665260123547362,-0.3019913025852525,-0.972603361546268,-0.009032655034632428,0.0002313316030916039,-0.004838168733469546
303,1.043316824394274,0.010768311327169107,1,,0.22667547154207052,-0.30077243190407577,-0.9730131313329031,-0.010748026821186234,0.001170846250261591,-0.0046684499556777885
304,1.0433086612313318,0.011223142140093996,1,,0.2262659534006495,-0.30229597004514497,-0.9734048247413464,-0.011587630132684788,0.0008410505406403182,-0.004260389032584775
305,1.0431615335275075,0.011681342674278714,1,,0.22581598437160083,-0.304076066546194,-0.9737948270649645,-0.012345303382604053,0.0003925080632861971,-0.0038300306790661695
306,1.0428866141258444,0.012104310894375279,1,,0.22541460932004304,-0.3046157716865091,-0.9735190024635715,-0.012693817074161213,0.0001990885692505454,-0.003818459141925826
307,1.0425107960630118,0.012461312282480395,1,,0.22508702033047456,-0.3032720419315558,-0.9722321730268554,-0.012421054759803726,0.0003930528838894191,-0.004442781829945251
308,1.0420733615589697,0.012731916414440724,1,,0.22475943134090604,-0.3019283121766025,-0.9709453435901392,-0.012148292445446239,0.0005870171985282928,-0.005067104517964677
309,1.041620796211623,0.012906377114753434,1,,0.22382177405616888,-0.3017867772941169,-0.9704001289147048,-0.011736893299600587,0.0006796699722495807,-0.004960917614698142
310,1.0412006312641082,0.012984281315438667,1,,0.22280068737432027,-0.30180964760071377,-0.9699563331671394,-0.011306534985805874,0.000758467967995805,-0.0047548304621189
311,1.0408553877655904,0.01297209948709316,1,,0.22258715542739677,-0.3020007025838192,-0.9697214730579821,-0.01087617667201116,0.0008087158,-0.004858402840482617
312,1.0406175934684871,0.012880408663885803,1,,0.22379490691156997,-0.3024877599106626,-0.9698543363341003,-0.010445818357880271,0.0008087158,-0.005506971045993841
313,1.040506521525888,0.012721504000879656,1,,0.22500265839479971,-0.3029748172371256,-0.9699871996101149,-0.010015460044085558,0.0008087158,-0.006155539250998435
314,1.0405269046233427,0.012507883094131311,1,,0.2252572947453793,-0.3025500191595463,-0.9696109133856966,-0.010824512341206769,0.001116007743591985,-0.005749071829994144
315,1.0406695437821885,0.012251742561018053,1,,0.22533702486311694,-0.3019578864251622,-0.9691411930964695,-0.011861008976869654,0.0014796908558845623,-0.005148994738407673
316,1.0409135177517608,0.011965272240010694,1,,0.22535419520341232,-0.30166256897149324,-0.9694602636551278,-0.01225022857409754,0.0013787639892022278,-0.004584656874671892
317,1.0412295649767338,0.011661289070663376,1,,0.22524294246329832,-0.30197655567810877,-0.971398568722375,-0.011310714046099228,0.00032408301519481277,-0.0040936847088284154
318,1.041584074696994,0.011353706836267522,1,,0.22513168972318431,-0.3022905423847243,-0.973336873789622,-0.010371199518100916,-0.0007305979588126023,-0.0036027125429849384
319,1.0419429915020213,0.01105747947825517,1,,0.22482463210911008,-0.3028138584594536,-0.9732540858270885,-0.010364751857424819,-0.00045443095521927507,-0.004074272405922587
320,1.042274939761077,0.010787873490446664,1,,0.22447170188006765,-0.3033862156294017,-0.9726978018729705,-0.010576900478629109,0.00013352336992983327,-0.004771331565449739
321,1.0425531430183503,0.01055910325938964,1,,0.2242847349869263,-0.3030277628499254,-0.9718926731345405,-0.010297413151783128,0.0006895302377230968,-0.005182638531651283
322,1.042756217028413,0.010382487648113323,1,,0.22449859220633148,-0.30042127697385107,-0.9704865502711609,-0.008830557895127432,0.0011683796347217014,-0.004903814941750937
323,1.0428684325045108,0.01026442208658107,1,,0.22471244942573665,-0.2978147910977767,-0.9690804274077813,-0.007363702638471735,0.0016472290317203061,-0.004624991351850591
324,1.0428802797217582,0.01020462395091687,1,,0.22424236340240827,-0.29921996270767187,-0.9713552008771507,-0.00808715206385021,0.0008946196231655779,-0.0036317335365179653
325,1.04278990906293,0.01019520130401073,1,,0.22357421099978983,-0.30178688930369674,-0.9746959426366947,-0.009444902247520986,-0.0002146138026626443,-0.0024315793126836304
326,1.0426053030390197,0.010220998419498004,1,,0.22310527841851063,-0.3039968444522389,-0.9765617567220426,-0.010292721581450986,-0.0007669902137665887,-0.0015114178029050282
327,1.042346223871977,0.010261390479370499,1,,0.22320911430928367,-0.3051804861117236,-0.9741870687058612,-0.009674460322332719,0.00028162939887028477,-0.0013962514879847679
328,1.0420445991603569,0.010293365397219666,1,,0.22331295020005673,-0.3063641277712083,-0.9718123806896798,-0.00905619906321445,0.0013302490115071582,-0.0012810851730645076
329,1.0417423338571905,0.010295460279473928,1,,0.22335223773040783,-0.304610924041841,-0.9712098772998089,-0.00913382128952844,-6.794734734602138e-05,-0.00358130772531785
330,1.041486379996834,0.010251915884164077,1,,0.22336892665410232,-0.301829520474089,-0.9712278219434902,-0.009455074757027943,-0.002322782532333104,-0.006727166364609014
331,1.0413218051014277,0.010156232721933486,1,,0.22350307447042284,-0.2997405828148294,-0.9709231940190143,-0.009711357760401974,-0.0037600728391142288,-0.008603394104104958
332,1.0412842301019862,0.010013218083019465,1,,0.22404576019229763,-0.30006013519648284,-0.9694966150999048,-0.009741664706288301,-0.002353831543085935,-0.0060636739455775315
333,1.0413932516268978,0.009838773950228856,1,,0.22458844591417243,-0.3003796875781363,-0.9680700361807953,-0.00977197165217463,-0.0009475902470576411,-0.0035239537870501055
334,1.0416483362457172,0.009657184266956508,1,,0.22464374940360743,-0.3008218475798618,-0.9691981806296587,-0.008929379558020117,-0.0007437245207858274,-0.0012238529024669231
335,1.0420281967896687,0.009496372010484847,1,,0.22449602407394356,-0.3013150822385175,-0.9713905462051873,-0.007723163906222125,-0.0010407323918523764,0.0009764297799247702
336,1.0424938950694662,0.00938220505061855,1,,0.22442673250084993,-0.3018071521377103,-0.9732625380073846,-0.006886104072972623,-0.0012085928810624078,0.0026281218352647035
337,1.042995048311916,0.009333185136693482,1,,0.22469498264498133,-0.30229420946417324,-0.9737557929195885,-0.007637715933714623,-0.000820664243839882,0.0019189398179352368
338,1.0434778259055302,0.009356693873776765,1,,0.22496323278932223,-0.30278126679101675,-0.9742490478321777,-0.008389327795043743,-0.000432735606314326,0.0012097578000517932
339,1.043893114249966,0.009447496535418659,1,,0.22474528188173742,-0.3035823607386941,-0.9747352340113488,-0.009210099956046922,-2.0397400067869937e-05,0.0004029374639677804
340,1.0442033205030048,0.009588605582030738,1,,0.22428913146978635,-0.30453730743362917,-0.9752179570785027,-0.010064755115011302,0.00040389953646674607,-0.0004517178141682736
341,1.0443866677653526,0.009754068170787127,1,,0.2237551252941583,-0.3051312072059836,-0.975512079169911,-0.010728300405320914,0.0010854955956852226,-0.001115263233424839
342,1.044438386110325,0.009912896873009676,1,,0.22279276174988233,-0.303738650197095,-0.974768530909386,-0.010340371577423709,0.0031827347613731325,-0.0007273345882575348
343,1.0443688486078109,0.010033267278059433,1,,0.2218303982056063,-0.3023460931882064,-0.9740249826488608,-0.009952442749526504,0.005279973927061043,-0.0003394059430902307
344,1.0441993500295887,0.010086248830512918,1,,0.2223234906001943,-0.30243338226732924,-0.972770816386675,-0.009537510793253403,0.004190828345352282,7.552595433096476e-05
345,1.0439567308888653,0.010048646611645357,1,,0.22364805644786634,-0.30336607841424157,-0.9712249440688269,-0.009107152479458688,0.0012813636059072313,0.0005058842800428463
346,1.0436682483367945,0.009904896466059446,1,,0.2250792421443965,-0.3041545547058232,-0.9699650887663079,-0.008728027,-0.001133090912823786,0.0007341976196819658
347,1.0433579026615758,0.009648233903955635,1,,0.22729941993636754,-0.3038757970153637,-0.9708217733639404,-0.008728027,0.00011555440856462024,-0.0005326318179583031
348,1.0430448869810147,0.00928143320012309,1,,0.22951959772833852,-0.3035970393249042,-0.9716784579615728,-0.008728027,0.0013641997299530264,-0.0017994612555985719
349,1.0427441050314887,0.008817265954162221,1,,0.2294664363721555,-0.3040646569135275,-0.9719096251628385,-0.008965079242938752,0.001609932394031344,-0.0017971503711101775
350,1.0424680425897375,0.008278556580805889,1,,0.2279082336929624,-0.30502640475069037,-0.9717266748620494,-0.00935906953976877,0.0011916968185405647,-0.0009546178984772346
351,1.0422289047999314,0.007697478703425804,1,,0.22636362920744008,-0.3059159406366332,-0.971601504501817,-0.009578319830866084,0.0008087158,-0.00018310547
352,1.042039931462504,0.0071136845292036725,1,,0.22496674604066172,-0.3060210160445544,-0.9721040152855361,-0.007899316061584737,0.0008087158,-0.00018310547
353,1.0419151103615953,0.006571053060451673,1,,0.22356986287388336,-0.3061260914524756,-0.972606526069255,-0.006220312292303391,0.0008087158,-0.00018310547
354,1.041867006417855,0.0061132324056719116,1,,0.22354061450520213,-0.30635240611266285,-0.9714064170478532,-0.005256059240404409,0.000788098001671731,-0.00018310547
355,1.0419030236716,0.005778576759105208,1,,0.2245561395627225,-0.30667133873574226,-0.9689056304407472,-0.004837823704964226,0.0007517297063320299,-0.00018310547
356,1.042021031984332,0.0055953514520742185,1,,0.22550041101043272,-0.30690609664263263,-0.9665779399734333,-0.004444511543708088,0.0006787270527988336,-0.00018100349863793737
357,1.0422057591592224,0.005578097939346275,1,,0.22507763439516099,-0.3055259064502584,-0.967571214482931,-0.004529370952465913,-9.713020575666121e-05,-0.00013857380418999795
358,1.0424274489711858,0.005725837027236028,1,,0.2246548577798893,-0.3041457162578842,-0.9685644889924285,-0.004614230361223738,-0.0008729874643121561,-9.614410974205852e-05
359,1.0426438748384346,0.006022428954493878,1,,0.22484848623380937,-0.30459960652928103,-0.9697462310493974,-0.005499050136232083,-0.0008198534277665517,0.0003269119392830791
360,1.042805947368428,0.006438988116397191,1,,0.22558401003854836,-0.30666587756459446,-0.971093659102247,-0.007087132789787207,-3.7934780033791444e-05,0.0010845850481825288
361,1.0428661221039877,0.006937849820988654,1,,0.22628888008310277,-0.3086912585913391,-0.972433839681124,-0.0086462657155212,0.0007265961022903515,0.0018192238493162617
362,1.0427879247571206,0.007477309956636108,1,,0.22495133576176152,-0.30799219927473065,-0.9732911318681883,-0.008276521412670814,0.00033260608383533857,0.0010191210459688726
363,1.0425544363469859,0.008016311970854426,1,,0.2236137914393754,-0.3072931399575761,-0.9741484240559224,-0.007906777109531605,-6.138393492743951e-05,0.00021901824199648348
364,1.0421736638528551,0.008518463116623983,1,,0.22366097398008247,-0.3070776901345999,-0.9735336772965915,-0.007953101756946648,-0.00027748936166162725,-0.00018310547
365,1.041679339234254,0.008955103061463616,1,,0.22510730415937025,-0.3073508861951951,-0.9714315615317217,-0.008419828366081064,-0.00031385767686327416,-0.00018310547
366,1.041126674408514,0.009307425562956937,1,,0.22655363433865802,-0.3076240822557903,-0.9693294457668516,-0.008886554975215477,-0.00035022599206492106,-0.00018310547
367,1.0405837166511511,0.009567743925701649,1,,0.2257574869304563,-0.3067524150641307,-0.9669946979622089,-0.00965623989191767,-0.0006954929386922672,-0.00018310547
368,1.040119950222506,0.009739913833400768,1,,0.22491565225135748,-0.30585742292249724,-0.9646552106127522,-0.010432097150473165,-0.0010470532527683677,-0.00018310547
369,1.0397944397464292,0.009838795370956126,1,,0.22459255365651357,-0.3056950676786336,-0.9640784146927317,-0.010809738260686132,-0.0010172234498038613,-0.0002223662185031262
370,1.039645917762656,0.009888570066572667,1,,0.22487193110001114,-0.3063836194544499,-0.9655488627971838,-0.010724878891652198,-0.0005444354383832967,-0.00030722560739900506
371,1.0396867181778349,0.009919805211755355,1,,0.22515130854350876,-0.30707217123026626,-0.967019310901636,-0.010640019522618267,-7.164742696273202e-05,-0.00039208499629488395
372,1.0399015019087883,0.009965384358366337,1,,0.22397176665557286,-0.30612711074643406,-0.9679820264527419,-0.00982748775206323,0.0005844911247751034,-0.0012504544674146669
373,1.0402506508609533,0.010055738186971556,1,,0.22270777106906683,-0.30508748396658797,-0.9689153504596475,-0.008972832593098851,0.0012512434444787192,-0.0021536007715762828
374,1.0406773494917414,0.010214109367578024,1,,0.22249482933569947,-0.30406134580504784,-0.9703670558313297,-0.008273798482037418,0.0013992587322615476,-0.0030852776447556737
375,1.041116858935428,0.010452757745065848,1,,0.22368712333557322,-0.3030532416267702,-0.9725118256129209,-0.007782826266336116,0.0008537340922866484,-0.004055099257829633
376,1.0415062748131625,0.010770974292228896,1,,0.2248794173345156,-0.3020451374492802,-0.9746565953928369,-0.007291854051018337,0.00030820945273788537,-0.005024920870146017
377,1.041793107067228,0.011155492446764734,1,,0.2262557416342727,-0.304213404178287,-0.9722771019616983,-0.009041616387202338,0.0011976380774940526,-0.004361103379706549
378,1.0419413672540847,0.01158339707082791,1,,0.22765014981746434,-0.3066937995130926,-0.9694530282186556,-0.011011566280857945,0.00222807352259913,-0.0035367550474568223
379,1.041934492642818,0.012027035308873373,1,,0.2275790163302673,-0.30799587804952505,-0.9680337616308785,-0.012373843247896723,0.001747666962921343,-0.003830048534044895
380,1.0417751973732126,0.012459889944555602,1,,0.22524573061726105,-0.3074791533256983,-0.9687828998706994,-0.012798140291685847,-0.001064815629135244,-0.005848489779461975
381,1.0414829308662712,0.01286205925669694,1,,0.22291244490425474,-0.3069624286018716,-0.9695320381105202,-0.01322243733547497,-0.0038772982211918313,-0.007866931024879054
382,1.0410898652049303,0.013224018566670057,1,,0.22301557290844146,-0.30576203639059457,-0.9693511987062365,-0.011804720566592698,-0.0034198082403651235,-0.008722833269726157
383,1.0406362684381354,0.013547741343316747,1,,0.22346430242034196,-0.30446466700740915,-0.9690384434153501,-0.010125716995930808,-0.0024984777210030414,-0.009413831159247718
384,1.0401659084275363,0.013844946063305249,1,,0.22368220949066997,-0.3033287855018976,-0.9690597378983924,-0.009356939607165006,-0.0015467339295615434,-0.009164189516490864
385,1.0397218939277195,0.014133012110998029,1,,0.223486896424219,-0.3024820008556253,-0.9696790508944246,-0.010217656234754433,-0.0005405440610274736,-0.007230607640107718
386,1.0393431443187426,0.014429716598227563,1,,0.22329158335776803,-0.3016352162093531,-0.9702983638904569,-0.01107837286234386,0.00046564580750659625,-0.005297025763724572
387,1.0390615207003306,0.014748183618979047,1,,0.22346326324516796,-0.30283498467099745,-0.9689558797121341,-0.011939089489933288,0.0003299412613861012,-0.005815458422957287
388,1.038899600305007,0.01509325761434578,1,,0.22370431692500098,-0.3044216192811379,-0.9672425510566536,-0.012799806118195065,-2.161905296462054e-05,-0.00679740283485907
389,1.0388691515881208,0.015460016489436366,1,,0.22386135363466622,-0.3050570649026231,-0.966320767741414,-0.013605594496916862,-0.0001828921811597875,-0.007453701087101786
390,1.0389704941856972,0.015834525828763484,1,,0.22384280948595905,-0.3037046909333096,-0.967053176550444,-0.014296592386438423,5.350182196844186e-05,-0.0074294554906688326
391,1.0391929698445852,0.016196407033063697,1,,0.22382426533725192,-0.3023523169639961,-0.9677855853594741,-0.014987590275959986,0.00028989582509667125,-0.007405209894235879
392,1.0395166174113013,0.016522473506428954,1,,0.22391137139902448,-0.30156954423765525,-0.9694429438148595,-0.01512146,0.0011713855890055059,-0.008167785812770788
393,1.0399148660837778,0.01679059659308343,1,,0.22402386365628663,-0.3009236383328719,-0.9713225540995015,-0.01512146,0.0022078823994535137,-0.009119423397190872
394,1.040357765847333,0.016983050440716834,1,,0.22428848866881004,-0.3006203877472936,-0.972340973981283,-0.015098696124183379,0.0029204313188544214,-0.009377637307002687
395,1.0408151227641773,0.017088801259082402,1,,0.22492759343211696,-0.301160594434872,-0.9712395455245418,-0.015019898223774496,0.002835571910096597,-0.00792896616756186
396,1.0412590062443514,0.017104507596685612,1,,0.22556669819542388,-0.3017008011224504,-0.9701381170678007,-0.014941100323365611,0.002750712501338772,-0.006480295028121032
397,1.041665416132265,0.017034318534330267,1,,0.22541134941993343,-0.30257815467707627,-0.969846889900277,-0.014731361962938741,0.0023197969243423273,-0.006789963575005644
398,1.0420152631438435,0.016888798232937534,1,,0.2250207192363218,-0.30355535597074373,-0.9697956079163031,-0.014482844927223074,0.001786395073981884,-0.007620373256708744
399,1.0422950150834336,0.01668338670935756,1,,0.22475983543105799,-0.3041241511560312,-0.9702433579871999,-0.014356020797557418,0.0012221849080548768,-0.008122674404885163
400,1.0424972921501947,0.016436726707738124,1,,0.22487974453775475,-0.30349431441587627,-0.9721557182607315,-0.014586353427577864,0.0005675553530855441,-0.007662009144844275
401,1.0426214195756875,0.016169024143775232,1,,0.22499965364435787,-0.30286447767621333,-0.9740680785327691,-0.014816686057418383,-8.707420137242493e-05,-0.007201343885163233
402,1.042673642360746,0.015900461637840438,1,,0.2241031485200332,-0.303196416806839,-0.9737194591316928,-0.014408412075631387,-0.00018348112351162954,-0.007562382306874779
403,1.0426665780396542,0.015649611064709835,1,,0.22284348311711036,-0.30387199417311234,-0.9725630017615994,-0.013771966795237471,-8.043758489951794e-05,-0.00821701179488551
404,1.0426176417444506,0.015431806200792602,1,,0.22194044029803234,-0.304298612175769,-0.9716014042188971,-0.01308765003283685,4.654166950925392e-05,-0.008728027
405,1.042546552737234,0.015257524152836524,1,,0.22230634900074406,-0.3038393710723667,-0.9713331662268947,-0.012232994675253014,0.00025869013181797814,-0.008728027
406,1.042472407659761,0.015130947857358044,1,,0.22267225770345575,-0.30338012996896446,-0.9710649282348923,-0.011378339317669177,0.0004708385941267024,-0.008728027
407,1.042410984526034,0.015048987598127306,1,,0.22311973854039,-0.3033764825698262,-0.9710925975234951,-0.01134492361964248,0.0004702306924183433,-0.00880461951665104
408,1.0423728644418027,0.015001066050770926,1,,0.2236018458996795,-0.30356622996123916,-0.9712458763760679,-0.011660115618516934,0.00037930992626236643,-0.008913724760185166
409,1.0423626936577017,0.014969882753593296,1,,0.2240999294481143,-0.30358411851992867,-0.9715484243790719,-0.011917114,0.00037679869800015515,-0.008994852208552185
410,1.0423795724097769,0.014933193216468767,1,,0.22466856806661786,-0.30284303309086136,-0.9725101843676123,-0.011917114,0.0007647273352226809,-0.00895242232541576
411,1.0424182596221907,0.014866438097926898,1,,0.22523720668512145,-0.30210194766179405,-0.9734719443561529,-0.011917114,0.0011526559724452067,-0.008909992442279335
412,1.0424707167084053,0.014745907792182603,1,,0.22574563671330428,-0.3021733295349652,-0.9728904064910716,-0.01200204805751265,0.0010350254115949276,-0.008527826859209536
413,1.0425275425791007,0.014552049561553726,1,,0.22622404172436147,-0.30264987527029863,-0.9715392517843026,-0.012129337309782441,0.0006652809296982048,-0.007976240761438642
414,1.0425790716057772,0.014272499613842134,1,,0.2264240730929858,-0.3029340155509888,-0.970445168696884,-0.012244816614297997,0.0004036424876174765,-0.007548204464383234
415,1.0426162101156775,0.013904424646524787,1,,0.22504511431634047,-0.3021267941857176,-0.9708092464788408,-0.012293307568820553,0.0007552028016935769,-0.00782096697736018
416,1.04263129841916,0.013455779068600827,1,,0.22366615553969518,-0.3013195728204463,-0.9711733242607977,-0.01234179852334311,0.0011067631157696775,-0.008093729490337124
417,1.0426192634925904,0.012945151472062958,1,,0.2236097524601204,-0.3013395796754818,-0.9723118388190677,-0.01181521663599183,0.0009407577982908845,-0.007335194358482554
418,1.04257905870455,0.012400035285936679,1,,0.22432179430110769,-0.30184023118347847,-0.9739003246022718,-0.010954500008402401,0.00047403117167795725,-0.005977444056700709
419,1.042514999420219,0.01185363445768787,1,,0.22497072021777734,-0.3022643901845412,-0.9751525281868577,-0.010125184409621653,9.522736267511153e-05,-0.004794143803314175
420,1.0424373185107512,0.011340644622976718,1,,0.22513451066185192,-0.302100595689757,-0.9738199257312706,-0.00953723029500917,0.00039223521149628116,-0.004951739802751401
421,1.04236129874565,0.010892706988383911,1,,0.22529830110592655,-0.30193680119497274,-0.9724873232756837,-0.00894927618039669,0.0006892430603174509,-0.005109335802188628
422,1.0423047554279097,0.010534314687535642,1,,0.224702485771025,-0.30090662429867093,-0.9715788588044177,-0.008629435989231934,0.0008087158,-0.004832151927876329
423,1.0422842774688623,0.010279853766583217,1,,0.223595491639246,-0.2992934129838573,-0.9709558191555216,-0.008490023799811479,0.0008087158,-0.004262381742452293
424,1.0423111810442767,0.010132248118286552,1,,0.2226160127672707,-0.29789425154722887,-0.9705219407120372,-0.008397864837683008,0.0007965371460411532,-0.003728173232206998
425,1.0423883235534988,0.010083411485526756,1,,0.22309564514334815,-0.29894438586868743,-0.9722525658976707,-0.008846407557703247,0.0006450025356628205,-0.003600884178556667
426,1.042508675562153,0.010116416052702273,1,,0.2235752775190509,-0.2999945201893257,-0.9739831910819525,-0.009294950277373107,0.0004934679254028591,-0.003473595125005767
427,1.0426559721047213,0.010208982364899016,1,,0.2244582216957048,-0.30092982134487806,-0.9740671914494974,-0.009934593391664442,0.00035558335214029975,-0.0038035826301003675
428,1.042807145956634,0.010337620836872917,1,,0.22565422614474617,-0.3017759862493805,-0.9728730422255055,-0.010722573205879922,0.00022829426428240277,-0.004488519144047088
429,1.0429358751990938,0.010481582190850271,1,,0.22674359947532402,-0.30256232237619063,-0.9717465039384864,-0.011438941476978026,0.00010515256483697167,-0.005122581030271848
430,1.0430165504111124,0.010625782135118063,1,,0.22560199202971748,-0.3020968958391763,-0.972034549900602,-0.010657023147036399,6.87842571828642e-05,-0.004692222716477134
431,1.0430281398130745,0.01076210362239083,1,,0.22446038458411088,-0.30163146930216206,-0.9723225958627176,-0.009875104817094771,3.2415949528756716e-05,-0.00426186440268242
432,1.0429575864511933,0.010888913637616082,1,,0.22448992401805795,-0.3016832182965989,-0.9727879194121946,-0.009535042700481373,-0.00018325640497030135,-0.0038315060675678356
433,1.0428023979440995,0.011009117544342929,1,,0.22556539552746058,-0.30219684827826476,-0.9734115666675359,-0.009589595123628978,-0.0005590622634410573,-0.00340114771404923
434,1.042572024339959,0.011127425774605909,1,,0.22662494228444682,-0.30270101207463285,-0.9740130927035149,-0.009640328908158777,-0.000935065637580236,-0.002988763293083872
435,1.0422875959045181,0.011247610757047905,1,,0.22623431210083525,-0.3023431440305458,-0.9726001646758738,-0.009343320917920553,-0.0013290556441180813,-0.004213163032965877
436,1.0419797481308706,0.011370394316953686,1,,0.22584368191722368,-0.30198527598645875,-0.9711872366482328,-0.00904631292768233,-0.0017230456506559268,-0.005437562772847882
437,1.0416846322457383,0.011492311252594267,1,,0.2252779703448332,-0.3020748643667982,-0.9703657225415852,-0.009111240725786758,-0.002182842139750326,-0.006703839418550814
438,1.04143867052925,0.011605544025997202,1,,0.2245325547065843,-0.3026237233705848,-0.9701512374662661,-0.009547660508547431,-0.0027101826013454355,-0.008013098647661155
439,1.04127295859887,0.011698420630628968,1,,0.2237871390689176,-0.30317258237394273,-0.9699367523911147,-0.009984080290967194,-0.0032375230625286133,-0.009322357875748767
440,1.04120831234793,0.011756126997012438,1,,0.22382905414190435,-0.30306623922021575,-0.9697457932127741,-0.009497515274922699,-0.002338970329538214,-0.007525417969056996
441,1.0412518242204276,0.011761296437202313,1,,0.2238902401109348,-0.3029438591807356,-0.9695554098599485,-0.008988359060719101,-0.0014055170914074383,-0.005652449984446504
442,1.0413955230070298,0.01169447556245553,1,,0.2243574553242547,-0.302852384546966,-0.9697217245398438,-0.008879601940742337,-0.0009503184595566205,-0.004410666877723999
443,1.0416173909756186,0.011534835562716736,1,,0.22530375375411993,-0.3027973759101283,-0.9703089154084737,-0.009243284894139349,-0.0010594234051615613,-0.003913633282979365
444,1.0418846121665604,0.011261644692521765,1,,0.22625005218472433,-0.30274236727324766,-0.9708961062775624,-0.009606967847820449,-0.0011685283508517292,-0.003416599687846474
445,1.042158541656201,0.010856821630290536,1,,0.2272999159357239,-0.30338091454342453,-0.9713750797745507,-0.009742414391720113,-0.0011121617219482258,-0.003729806113400324
446,1.0424005638936313,0.010308441933862824,1,,0.22835623163926458,-0.30406266922847397,-0.9718473115037511,-0.009863642175265423,-0.0010454864807221975,-0.004093489185969009
447,1.0425778280023315,0.00961457556920868,1,,0.2287089248340386,-0.30414274018818166,-0.9721080523729736,-0.00996945053748337,-0.000462262123973888,-0.004508570183664283
448,1.0426678661942044,0.008786478411586928,1,,0.2281056688509978,-0.3034053571077203,-0.9720814594642226,-0.010054309906517303,0.00082275146795688,-0.004993480960330495
449,1.0426613263604008,0.007850069224422544,1,,0.22750241286795705,-0.3026679740272591,-0.9720548665554715,-0.010139169275551236,0.002107765059887648,-0.005478391736996707
450,1.0425624280140582,0.006844875434908959,1,,0.22620766975256554,-0.30254363236853554,-0.972110645131625,-0.006860928516410926,0.0018321243741019995,-0.0029464039661906633
451,1.0423871814395143,0.005820242154453402,1,,0.2248416894485224,-0.3024824463994573,-0.9721749096400281,-0.003236220288179919,0.0013957046707891109,-0.00010361450547488737
452,1.0421597944231533,0.004829431213294374,1,,0.22382983762920414,-0.30251965205213177,-0.9717686188899769,-0.0010129019246736053,0.0008271674060167828,0.0016869529772037103
453,1.0419079766986632,0.003922954016146335,1,,0.22337368721725306,-0.3027112546685575,-0.9706239288543385,-0.0009886563679645435,5.1310147461287953e-05,0.0018263648488330325
454,1.041658023747351,0.003142720922474506,1,,0.222917536805302,-0.30290285728498323,-0.9694792388186998,-0.0009644108112554817,-0.0007245471110942069,0.0019657767204623545
455,1.0414305944797262,0.0025182500945753325,1,,0.22389103974368618,-0.3026542030801758,-0.9695518750225545,-0.0007974808656975473,-0.00023738314261225425,0.0019043734626080422
456,1.0412379451171316,0.0020654940013762413,1,,0.225074685477387,-0.3023408361259111,-0.9698034443494066,-0.0006095779365043008,0.0004354305927391841,0.00181345266286732
457,1.0410830284469759,0.0017881518609098761,1,,0.22601184694041102,-0.3024029957303484,-0.9701619279092195,-0.0001874788646585582,0.000869751,0.0018557443608025425
458,1.0409603888714511,0.0016808461687324277,1,,0.2265001356826029,-0.30314902707587954,-0.9707151130704672,0.0006611150044382847,0.000869751,0.0021406294535145603
459,1.0408583343340503,0.0017332883102485997,1,,0.2269884244247948,-0.3038950584214107,-0.9712682982317147,0.0015097088735351277,0.000869751,0.0024255145462265784
460,1.0407616059506517,0.0019345115673024859,1,,0.22668871523337455,-0.303039221881294,-0.9707722085907255,0.0018407594541738725,0.0012147798478878437,0.001558612104705514
461,1.0406537881148352,0.0022763801392095833,1,,0.22623565551287467,-0.30187164938692973,-0.9700719219090979,0.002071092084014393,0.0016269539941507613,0.00046756284727556555
462,1.0405189890719073,0.0027558519422996404,1,,0.22584978481473433,-0.300935484018707,-0.9695486992817685,0.0023653765481497346,0.0018395208938811422,-0.00013706485185026548
463,1.040342737795921,0.0033758067264380545,1,,0.22560687590988718,-0.300491696372214,-0.9694022256212673,0.0027957348622806226,0.001627372431406698,0.0002932934622806227
464,1.0401123926151472,0.004144555557607956,1,,0.2253639670052298,-0.3000479087260678,-0.9692557519608805,0.003226093176075337,0.0014152239690979737,0.0007236517760753367
465,1.0398175028185606,0.0050743533441537265,1,,0.22536554651377172,-0.30015508614848313,-0.9690720652048737,0.004342176798033725,0.0015726863139020489,0.0009594781112886742
466,1.0394504928947084,0.006179316861282762,1,,0.22542735629208593,-0.3003979950531405,-0.9688792109191707,0.005627190389964493,0.001821203111274366,0.0011473810566122282
467,1.0390078278879769,0.0074731178370848065,1,,0.22562249916700527,-0.3003525736902983,-0.9687134828986959,0.0070400227221241694,0.0020420833997973928,0.0010381917355642178
468,1.038491566397449,0.008966716215813967,1,,0.22615220236450123,-0.29958367203817027,-0.9686158202894061,0.008773578715933665,0.002193617970333462,0.00018353645742816375
469,1.0379109949554353,0.010666281577250983,1,,0.22668190556241088,-0.2988147703854416,-0.9685181576800398,0.010507134711097326,0.002345152540987903,-0.0006711188213755039
470,1.037283917482129,0.012571367100589596,1,,0.22579161487713525,-0.2979201420515739,-0.9681026337918339,0.012203469784614155,0.002966604420400542,-0.001004677739374001
471,1.0366371715984415,0.014673364865639542,1,,0.22447137518735294,-0.29698744590466164,-0.9675908671365999,0.01388853502252055,0.0037303389403253976,-0.0011804579063430243
472,1.036006048845252,0.016954269537458353,1,,0.22355617169334213,-0.2963475067594515,-0.9671731259447512,0.015884508639545287,0.004480423830881697,-0.0008542346643679046
473,1.0354324584912358,0.01938577875356848,1,,0.2238547089934113,-0.2965848499890709,-0.9670371436223182,0.01881215746707435,0.005189605927658946,0.0009763035562778379
474,1.034961833793889,0.02192873487217409,1,,0.22415324629348055,-0.2968221932186904,-0.966901161299885,0.021739806294603415,0.0058987880244361955,0.0028068417769235806
475,1.03463891582732,0.024532869820500045,1,,0.22621695453286467,-0.2979405426760475,-0.9656364069098027,0.023570283058212536,0.007905031824745456,0.003926661285417768
476,1.0345027051265112,0.027136803947496537,1,,0.22892418150790272,-0.299380075765693,-0.9639601422475077,0.02500076979289564,0.010384138331780129,0.004787377953403436
477,1.0345810979276744,0.02966832722609289,1,,0.23136839530655268,-0.30085543116493985,-0.9621357881801639,0.026252338282229414,0.01275746095935901,0.005539698881615331
478,1.0348860097541503,0.032045155457012114,1,,0.23285490447470597,-0.3024612256304125,-0.9597721991083813,0.026852415334091995,0.014745594861650847,0.005897320565006751
479,1.0354100293993918,0.034176531470122784,1,,0.23434141364285924,-0.3040670200958851,-0.9574086100365988,0.027452492385954572,0.016733728763942683,0.006254942248398171
480,1.036125670931383,0.035966126684499,1,,0.23401097173306892,-0.3063001846669168,-0.9587061173401583,0.028831135593274437,0.018074468140865267,0.006570250576080574
481,1.0369879380899214,0.037316607928289815,1,,0.2328947014762267,-0.3088046857747579,-0.9615870427929224,0.030546507379828246,0.019135210452408888,0.0068672584471471225
482,1.0379401546850482,0.03813594963627303,1,,0.23178814899323802,-0.3108831944919245,-0.9644153607893524,0.0316244036997972,0.020573837780056028,0.00694191660497923
483,1.0389220562123396,0.038345166057443085,1,,0.23072565593640415,-0.31103029601522597,-0.9670051617921105,0.029812049570967107,0.02372575822863471,0.006008463249000907
484,1.0398783741628193,0.0378867524302433,1,,0.22966316287957028,-0.3111773975385274,-0.9695949627948686,0.027999695442137013,0.026877678677213395,0.005075009893022585
485,1.04076592615976,0.03673288930169647,1,,0.22742151887918197,-0.3107718288103131,-0.9697186292558964,0.02675827851375759,0.025731487299906843,0.004414963181095462
486,1.0415576651508323,0.03489243704097521,1,,0.22458139622456702,-0.3100857520180835,-0.9685906078904042,0.025806641048509178,0.022403787104469393,0.0038936841488134404
487,1.0422430720117293,0.03241589296967795,1,,0.22227450975910515,-0.30991071816960414,-0.9676738595523546,0.024488752299174642,0.019636964523600697,0.003641343275960417
488,1.0428253222030637,0.029397688368371776,1,,0.22308791655862378,-0.31272611124409916,-0.9679933997821287,0.0210277017774771,0.020152182206831806,0.0049627251642630835
489,1.0433163981504134,0.025975335644172398,1,,0.22390132335750704,-0.31554150431639494,-0.9683129400116534,0.017566651258483158,0.020667399889660452,0.006284107051533552
490,1.043731523388141,0.022324961811176772,1,,0.22544164183629734,-0.31657633653247014,-0.9683807275043207,0.014600904556381177,0.01887754898334969,0.0066034509806888915
491,1.0440840500712576,0.018652809522609143,1,,0.22741149383017867,-0.3165590319009112,-0.9682997538187251,0.011927833835953913,0.015725628597366235,0.006330688745779188
492,1.0443815199282673,0.015182546533639136,1,,0.22932993521605138,-0.3167335523432008,-0.9681603640038059,0.009444160226022486,0.0123384783918915,0.005989177363007817
493,1.0446232678293734,0.012138784104851587,1,,0.23083745136436962,-0.3184413315251435,-0.9675540537857006,0.00847433863296617,0.00707113510567876,0.005098153710084279
494,1.0447997081826041,0.009727956815420939,1,,0.23234496751268788,-0.3201491107070861,-0.9669477435675954,0.007504517039909856,0.0018037918194660203,0.0042071300571607404
495,1.04489329885415,0.008118432444212753,1,,0.2323524187576169,-0.3197273593857781,-0.9668989319145509,0.006023583992280984,-0.0013867113098112588,0.0029381719289975176
496,1.0448810701116977,0.007422185304434829,1,,0.2313338111100646,-0.31784898861828437,-0.9672314546684543,0.004193045771635241,-0.003156635694297795,0.0014107029685955894
497,1.0447385059037524,0.007680465894155541,1,,0.230339631047465,-0.3161048056068421,-0.9675907685875701,0.002338412978889839,-0.004878370933370348,-1.4364070555583504e-05
498,1.0444444342803776,0.008855632491760081,1,,0.2296405717308565,-0.31598180580878776,-0.9682737587390581,0.0001926827196457515,-0.006017911224770636,-0.0002022669999895809
499,1.0439863865588646,0.01083073468392005,1,,0.22894151241424807,-0.3158588060107335,-0.9689567488905461,-0.0019530475395983361,-0.007157451516170925,-0.0003901699294235783
500,1.0433656325556997,0.01341761206953973,1,,0.229140891114715,-0.3169880910471408,-0.9687717103373675,-0.005213667517612878,-0.00933394098506212,-0.0003137524992238637
501,1.0426008845314445,0.016373237062319742,1,,0.230048861730727,-0.31910504456305594,-0.9679020634852382,-0.009353593389351102,-0.012328265175327903,-2.8867410261696977e-05
502,1.0417296263362121,0.01942286459655402,1,,0.2309348518517777,-0.3210327797583204,-0.9669831468350221,-0.013511461181662087,-0.015262193301713363,0.00017186752759889103
503,1.040806280141061,0.022287420864583823,1,,0.23131559425317125,-0.3186111075610874,-0.9649317054476807,-0.01808174536396112,-0.016807846350199305,-0.0015616885178516631
504,1.0398969940469704,0.024711722285806377,1,,0.23169633665456482,-0.3161894353638544,-0.9628802640603396,-0.02265202954626016,-0.018353499398685243,-0.003295244563302217
505,1.0390716135139157,0.02648981482377248,1,,0.23180713004565595,-0.31345697689258145,-0.9617796461909229,-0.02522330844227012,-0.01730902656212726,-0.0034651908796940467
506,1.0383941559401046,0.02748409890594912,1,,0.23167301104965468,-0.3104425562530998,-0.961541666999891,-0.02598098129495047,-0.013914651006292106,-0.0022165456228268716
507,1.0379135771421082,0.027635908413349602,1,,0.2315328246928452,-0.3074417665816081,-0.9613100725666293,-0.026727469066186196,-0.010539197587377829,-0.0009681526599209688
508,1.0376566478136529,0.026966591105055216,1,,0.23052409670605897,-0.30639224794799147,-0.9619924551252239,-0.02587281428748781,-0.009872445161876246,0.0002441243256815916
509,1.037624361621778,0.02556952201306311,1,,0.22951536871927272,-0.3053427293143749,-0.9626748376838186,-0.02501815950878942,-0.009205692736374664,0.001456401311284152
510,1.0377925969376178,0.023594582671599935,1,,0.22978267537856403,-0.3043322473779846,-0.963997790753535,-0.022676829527981095,-0.008455852834016403,0.0022858817560156997
511,1.0381169071076166,0.021227394439847055,1,,0.2313804372868313,-0.3033624669843677,-0.9659886335247427,-0.018785420297953527,-0.007619381922031604,0.002716240069810414
512,1.0385404837957652,0.018666094106857007,1,,0.23297819919509852,-0.3023926865907508,-0.9679794762959503,-0.014894011067925955,-0.006782911010046804,0.0031465983836051277
513,1.0390036982345674,0.016098735629801617,1,,0.23141824818566542,-0.30320035773286313,-0.9686628128726053,-0.00798549828168803,-0.00658875296242107,0.0026753613102693656
514,1.0394533385350775,0.013684393247945575,1,,0.22976794857343755,-0.3040588853863661,-0.9693087390309367,-0.0009906600174384786,-0.0064129727954520465,0.0021783277552486235
515,1.0398498122780775,0.011540519965321305,1,,0.2282534276932002,-0.3050545955980462,-0.9694230719528689,0.004912500802864188,-0.006085570774316357,0.0017998349350588194
516,1.0401711205983166,0.009737932516133523,1,,0.22690166943175116,-0.30621475124306946,-0.9689001658461399,0.009507030462424501,-0.005576414440941083,0.0015634409557649248
517,1.0404131674407926,0.008303095119973552,1,,0.22554991117030213,-0.3073749068880928,-0.9683772597394108,0.014101560121984815,-0.00506725810756581,0.0013270469764710302
518,1.0405867512000955,0.007225721376197927,1,,0.2273484305900773,-0.30755063089847184,-0.9666908736719684,0.010769523523350462,-0.0033421267249550296,0.0019088791543330405
519,1.0407122303102416,0.00646884447171719,1,,0.2293572180049663,-0.3076606481721473,-0.9649268301332012,0.006908421437828676,-0.0015358340411564034,0.0025453245412592135
520,1.0408132290741225,0.005978797266482432,1,,0.2303994016901324,-0.30822605905432393,-0.964630752075511,0.0031822629846831423,-0.000534111175870503,0.0030035424428941815
521,1.0409107631733103,0.005693668912744962,1,,0.23010704577296556,-0.30942020825460076,-0.9663614177668892,-0.00035758579223470834,-0.0006432161016134978,0.003215690905202906
522,1.0410188118686385,0.005549982571601169,1,,0.22981468985579878,-0.31061435745487764,-0.9680920834582674,-0.0038974345691525593,-0.0007523210273564926,0.0034278393675116303
523,1.041141795336439,0.005487950517491352,1,,0.22808509507713168,-0.31055259274962027,-0.9679754211751903,-0.004504574051026739,-0.0012389575184326548,0.0037439458451563046
524,1.041273902559374,0.005455635933457889,1,,0.22620054292673553,-0.31035542040744707,-0.9676595873449814,-0.0047955204931921305,-0.001766297959753887,0.004071260662109181
525,1.0413999738916027,0.005412036459929688,1,,0.22486230575763724,-0.30964312914337033,-0.9677809868577306,-0.004297083817166061,-0.0020017067966683674,0.004309828245119174
526,1.041497665473177,0.005328892943472204,1,,0.22439564780452953,-0.30810902818652197,-0.9685999390787434,-0.002539282225550506,-0.0017713742063718144,0.004406810392583395
527,1.0415407192257229,0.005191075199296952,1,,0.22392898985178633,-0.3065749272308719,-0.9694188912991163,-0.0007814806353080581,-0.0015410416162551855,0.004503792539971859
528,1.04150315728824,0.004995621225215827,1,,0.2241988828930757,-0.3071040325159533,-0.9692046477842193,0.00014511165691592006,-0.0008477569767021765,0.0045166016
529,1.04136408076642,0.004749732027868474,1,,0.2245808607609078,-0.3079471067122003,-0.9688331774571792,0.0009452144721804768,-8.402249650121247e-05,0.0045166016
530,1.0411125480002594,0.004468130879416755,1,,0.22513530879475516,-0.3079014045608013,-0.9688816115862462,0.0012566134811414153,0.0007137087797620864,0.004278624097189073
531,1.0407518132260334,0.0041701758411618215,1,,0.22600928990551408,-0.3062090788361146,-0.9697079968587987,0.0006625977477475735,0.001574425447075406,0.0035997489860220416
532,1.040302076501943,0.003877034542357235,1,,0.22688327101695566,-0.30451675311010584,-0.9705343821319967,6.858201388971662e-05,0.002435142115061074,0.002920873874324708
533,1.0398008882800787,0.003609153106970902,1,,0.22699148386135046,-0.3046726639844648,-0.9703550382326422,0.00040379657867194515,0.0018565618560842133,0.002666212557692661
534,1.0393005428211721,0.003384191708874545,1,,0.22694636300673077,-0.3051986567319354,-0.9699743120340872,0.0009250756816624931,0.0009897838075384067,0.0024964937401770115
535,1.0388622449143228,0.003215536506410028,1,,0.22682316695668936,-0.30623428792531715,-0.9683139188660448,0.0014425264975754448,0.0005422035551847619,0.002491391437368084
536,1.0385475353870424,0.0031114074208587125,1,,0.2265308110337165,-0.30837411583938074,-0.9638809639287521,0.0019516828410622545,0.0010028688160695577,0.0028429518180117983
537,1.0384082835504522,0.00307446558938117,1,,0.22623845511074367,-0.3105139437534444,-0.9594480089914595,0.002460839184549064,0.0014635340769543535,0.0031945121986555122
538,1.0384772235828204,0.003101732007172897,1,,0.22575363467459778,-0.31037185914094345,-0.961032230397826,0.002626390223118897,0.000544938730301577,0.002476540612795474
539,1.038761177837098,0.0031846370174351494,1,,0.2252202210266599,-0.30965363996720235,-0.9641356613332424,0.002705188203037118,-0.0007218906950869778,0.0014885348673251396
540,1.0392385802951742,0.0033091645878902997,1,,0.2250845990473612,-0.30916593088095995,-0.9664084219530924,0.0022576073264390195,-0.0011063115323812322,0.0009212915226453268
541,1.039861866432527,0.0034562706300555602,1,,0.2259666127153255,-0.30926791559743,-0.966556151333466,0.00046343744085686986,0.0007666563727814764,0.0014304478401310433
542,1.0405641885037147,0.00360290266595606,1,,0.2268486263832898,-0.30936990031390005,-0.9667038807138394,-0.0013307324447252799,0.002639624277944185,0.0019396041576167596
543,1.0412691236081648,0.003723913900837115,1,,0.22681493825439458,-0.3088714850805152,-0.9691092193279943,-0.002004719001344512,0.0008835683629019412,0.0004953828609063587
544,1.0419016404040393,0.0037949324304288232,1,,0.2264978608563279,-0.30818725946258857,-0.9722132376138835,-0.0023320338182973885,-0.001995589430656783,-0.001553365211225373
545,1.0423984860665212,0.0037958955142747284,1,,0.22601180997974665,-0.30759985035771215,-0.9739635147061807,-0.0022159758744653524,-0.004119371442520494,-0.0031885972861420394
546,1.0427163280527747,0.0037146131945553764,1,,0.22500864768803108,-0.3073087299069839,-0.9715709225534144,-0.0007430593372110303,-0.003931468536920832,-0.0035583417478879907
547,1.0428364970957433,0.0035495249305636904,1,,0.22400548539631548,-0.30701760945625556,-0.9691783304006482,0.0007298572000432917,-0.00374356563132117,-0.003928086209633941
548,1.0427659582905695,0.0033108867250065503,1,,0.22418767472602824,-0.30722883290893815,-0.9696267614722491,0.0004752563557125864,-0.0025218032001812327,-0.0029370241671286134
549,1.0425348813771342,0.0030200053168541164,1,,0.2248107103242147,-0.30762688399260035,-0.9711318026369808,-0.0004218286069404341,-0.0009155362003367999,-0.0014398621128891213
550,1.0421915734524139,0.0027066799795391755,1,,0.22550565611666218,-0.30791680715752756,-0.9718851812096748,-0.0012419825508054993,0.0002342734415327683,-0.0002170873430277918
551,1.0417955628088502,0.002405468698901928,1,,0.22646863942026452,-0.307803695141603,-0.9698368183600558,-0.0017753844015826093,-0.0003173125966522884,-1.7061647000181006e-05
552,1.0414095626344793,0.002151561212035163,1,,0.2274316227231146,-0.3076905831257667,-0.9677884555120368,-0.0023087862519430525,-0.0008688986344064739,0.00018296404887117979
553,1.0410911438802573,0.001976900975872621,1,,0.22773944495069318,-0.3077014670116709,-0.9665407038732009,-0.0022363010521433777,-0.0008356353352401775,0.00024414063
554,1.0408851671467745,0.001906920963931529,1,,0.2277586048072648,-0.30776698318930074,-0.9656456995794386,-0.0018968634965598624,-0.0005446888454061158,0.00024414063
555,1.0408181232363871,0.001958046818597051,1,,0.22774159817018097,-0.3077448694121809,-0.9652700417234961,-0.0014738466347077863,-9.301291406604944e-05,0.00010805636822343573
556,1.0408953196812798,0.0021360523499075242,1,,0.22755617288594798,-0.3073146840489875,-0.9673128550993155,-0.0006616210808125903,0.0011071413008860072,-0.0006617395130719612
557,1.0411013197711687,0.0024353596121372105,1,,0.2273707476015702,-0.3068844986854581,-0.9693556684767308,0.00015060447371707548,0.0023072955167755638,-0.001431535394968684
558,1.041403352758642,0.0028393560035160667,1,,0.22764831943407549,-0.3070619931983495,-0.9702446150109293,0.00021940755514043261,0.002792005481790516,-0.0012260888756376164
559,1.041756818630129,0.0033217234460399697,1,,0.22816504010719255,-0.30755336858128296,-0.9705375623317027,-9.578445962357764e-05,0.0029071717569868847,-0.0005169068448020268
560,1.0421117305588947,0.0038486859541526108,1,,0.22849960764423238,-0.3079429146201604,-0.9705470558795023,-0.0005401078199370602,0.002893206693403983,-0.00023730176567407786
561,1.0424190489332816,0.004382017497100751,1,,0.22773379668355553,-0.3077173143977716,-0.9688442185633137,-0.0017645075439295087,0.002099165307040583,-0.0025527507764921543
562,1.0426362521259211,0.00488257918178861,1,,0.22696798572287868,-0.3074917141753828,-0.9671413812471252,-0.002988907267921957,0.0013051239206771836,-0.004868199787310231
563,1.0427319158505413,0.0053140311988523516,1,,0.22721372510330123,-0.3078506502248482,-0.9681905962658132,-0.0040012775088609795,0.0007193257664232488,-0.00508985746868278
564,1.0426892644113503,0.005646236055136663,1,,0.22806730280724904,-0.3085608328047718,-0.9708935133394749,-0.00488623971142557,0.00025866050120621533,-0.004053360652730471
565,1.0425084897632744,0.005857854790899944,1,,0.22870651977562115,-0.30914006507597946,-0.9731561026121333,-0.0054636469080139236,-2.4494154707327166e-05,-0.003207378880824772
566,1.0422072853487918,0.005937804990284293,1,,0.22756182163856337,-0.30862952578576475,-0.9717542735288909,-0.0034815740771082203,0.001169598675039853,-0.003946867804316674
567,1.0418189097103916,0.005885532768794904,1,,0.22641712350150564,-0.3081189864955501,-0.9703524444456487,-0.0014995012462025166,0.002363691504787033,-0.0046863567278085765
568,1.0413874627032313,0.005710306887965043,1,,0.22657517007331915,-0.3066294722963488,-0.9689097788429262,-0.0008725760391302705,0.002646009520901104,-0.00477151319778273
569,1.0409608291119548,0.005429865011187418,1,,0.22763890262620076,-0.3044593613195527,-0.9674387231320288,-0.0011877680380047242,0.0022944491869630575,-0.004401768775760671
570,1.0405825402562083,0.005068719137344391,1,,0.22859407270835624,-0.3024891629999451,-0.9660982386084576,-0.0015113118329713343,0.0019675046632919267,-0.004057958860411174
571,1.0402842598743336,0.004656318569086131,1,,0.22816079260300212,-0.30307573005929145,-0.9664276828230388,-0.0019416701864899398,0.001955381884937396,-0.004045836042332751
572,1.0400805558895192,0.00422514276711871,1,,0.22772751249764794,-0.30366229711863774,-0.96675712703762,-0.0023720285400085452,0.0019432591065828648,-0.004033713224254328
573,1.0399671217805737,0.0038087044079431983,1,,0.22811121777203835,-0.3048846790341152,-0.9666435955373014,-0.0023346611141303484,0.0017023208644111102,-0.0033284141429525686
574,1.039922846493913,0.003439429174629967,1,,0.2291496050347363,-0.3066165639890933,-0.966175090460965,-0.001922486928143539,0.0012780239397936616,-0.0020676461077308627
575,1.0399153275538475,0.0031464633134683645,1,,0.23013829569976282,-0.3082692003264517,-0.9657859738250335,-0.0015098549147261498,0.0009015700569074209,-0.0008700583563430588
576,1.0399087432726366,0.002953591078152354,1,,0.22986077348106107,-0.30790267186487963,-0.967419584514843,-0.0010855579778600943,0.001744102557347088,-0.0012822325029279462
577,1.0398725205842745,0.002877508587787978,1,,0.22958325126257612,-0.30753614340359386,-0.9690531952033763,-0.0006612610413254784,0.002586635057128611,-0.0016944066491908637
578,1.039789000012548,0.0029266243840391643,1,,0.2295942477954302,-0.3075038065543144,-0.9694767607108745,-0.0006627918469965479,0.0025459692795360756,-0.0023242261140282304
579,1.039658380150266,0.003100390839768067,1,,0.22987115430605068,-0.30777947354778673,-0.9687851020407685,-0.0010567818773687281,0.0016913140014000213,-0.0031546358751791148
580,1.0394996835186436,0.0033890492376766864,1,,0.23014410775013835,-0.3080508374347087,-0.9680912220778474,-0.0014432487389425958,0.0008367682840525236,-0.00397878241555896
581,1.039347291304632,0.003773691796947424,1,,0.22910880712818196,-0.3068981026897359,-0.966662212732957,0.0006600517960606334,1.848134098006207e-05,-0.0027301371189678925
582,1.0392435849829038,0.004226692402189925,1,,0.22807350650622557,-0.3057453679447631,-0.9652332033880667,0.0027633523310638627,-0.0007998056020923994,-0.0014814918223768252
583,1.0392291652941776,0.0047127259089727825,1,,0.2277934239591246,-0.3049822488568105,-0.9645089719201836,0.004054212248676899,-0.0008174263988600204,-0.0010482308100942107
584,1.0393327448798908,0.005190652768688744,1,,0.22831323532369285,-0.3046317936113548,-0.9645312103160774,0.004484570641919396,1.2983322566971739e-05,-0.0014785891238889247
585,1.0395629556158412,0.005616431596238643,1,,0.2288330466882611,-0.30428133836589905,-0.9645534487119712,0.0049149290351618935,0.000843393043993964,-0.0019089474376836385
586,1.039903945106174,0.005946990401865383,1,,0.2276370449442622,-0.3050296735677166,-0.9652956736951197,0.005286597399480816,0.0009049649327355024,-0.0023569127370776134
587,1.0403158749688197,0.006144741439077609,1,,0.22638479641569648,-0.30581402867710056,-0.9660615008586351,0.005656341821502876,0.0009413332280752034,-0.002805455218404124
588,1.0407404582052442,0.006182235265012498,1,,0.22619043889460144,-0.30664241631731465,-0.9675273847039065,0.005484957902200165,0.0013165900183615229,-0.003396112223927284
589,1.041110654385234,0.006046341754844224,1,,0.22728445862600205,-0.30752443000348423,-0.9698458489182142,0.004654548203356957,0.0021045700715358853,-0.0041598467198921425
590,1.0413627386213504,0.005741329542740439,1,,0.22837847835654804,-0.30840644368896475,-0.9721643131307107,0.003824138505162423,0.0028925501240947174,-0.004923581215260411
591,1.041448363381915,0.005290298122825708,1,,0.22835313593120454,-0.3092792232755957,-0.971110257440129,0.003367179020614273,0.002571496027583504,-0.004170881315393505
592,1.0413441422300964,0.0047345988283529344,1,,0.2282480605232833,-0.31015134511063236,-0.9698159746976851,0.002936820667095667,0.0021714446199512256,-0.003310164687804077
593,1.0410567868717484,0.004131142662019616,1,,0.22859412046634717,-0.31039383142233196,-0.968818765219343,0.0025342078142789473,0.0018848975183446053,-0.0025301622260416666
594,1.0406227815032747,0.003547780259475818,1,,0.22957316888360804,-0.3097528754847221,-0.9682383795428989,0.00217052470198637,0.0017576084250698141,-0.0018634098932291665
595,1.0401026858899183,0.003057175087629014,1,,0.23055221730163372,-0.30911191954661144,-0.9676579938660016,0.001806841589409702,0.0016303193316955912,-0.001196657559895833
596,1.0395711749524672,0.0027297211052393832,1,,0.22954421650631873,-0.3079710021422451,-0.9644906088574586,0.0019879268128866457,0.0003372260162969168,-0.0022731638729842495
597,1.0391047364853698,0.002626085532681704,1,,0.2283123673514728,-0.30677376225051706,-0.9610317889146759,0.0022303821813578054,-0.0010871994075392817,-0.003546054646836595
598,1.0387694609800382,0.0027899537712180694,1,,0.22759911225949797,-0.30617172511760876,-0.9603332919789711,0.001837129983774241,-0.0014736877016035812,-0.0032655072472148328
599,1.0386113651217481,0.0032416188635534617,1,,0.22772706202472573,-0.3065351588367337,-0.9641122800112717,0.00041270459966193394,-0.0001765513313182824,-0.0004651474732366679
600,1.038651018048883,0.0039732410253252234,1,,0.22785501178995352,-0.30689859255585866,-0.9678912680435725,-0.001011720784450373,0.0011205850389670164,0.002335212300741497
601,1.0388830319333073,0.004946792179321936,1,,0.22759898707657614,-0.3057656831949548,-0.9679058971646547,0.0002347387937500001,-0.0006040446043428375,0.0004431937147344268
602,1.039279753869292,0.006095653886330378,1,,0.2272825213356642,-0.3043972360098112,-0.967327982421088,0.0019016196257812504,-0.0028043273264584225,-0.0021874473211758723
603,1.03979777160445,0.007330376138788371,1,,0.22737397735109588,-0.30380434829303815,-0.967515128947873,0.004411005461930484,-0.0038910747222514973,-0.0036667348507529946
604,1.040385720350836,0.008548274463687947,1,,0.22823436022961147,-0.30467337943662354,-0.9691444053770973,0.008508501566470057,-0.0028788234446782165,-0.0029757369612314327
605,1.0409920635220427,0.009645604245842782,1,,0.22909474310812705,-0.305542410580209,-0.9707736818063216,0.012605997671009629,-0.0018665721671049357,-0.002284739071709871
606,1.041571739736985,0.010530352742146202,1,,0.22876088922918525,-0.3058353408102344,-0.9708386568884081,0.012903554004424724,-0.00028634045078226145,-0.0004527539915089337
607,1.0420908088743455,0.01113349997999264,1,,0.22818112331131543,-0.3060096428458108,-0.9705815178408044,0.012418643267482404,0.0014108473271353158,0.0016141782084307028
608,1.0425286133624803,0.011416974523074087,1,,0.22793001604046806,-0.3064511141781458,-0.9699745234117866,0.011875131425315552,0.002234690589615013,0.0027302613207021904
609,1.0428775039689433,0.01137728910391534,1,,0.22840408679184254,-0.3074820886422125,-0.9685955808379799,0.011202317544430221,0.0011315185299961988,0.0017483169890152367
610,1.0431406943683483,0.011044684893889956,1,,0.22887815754321703,-0.3085130631062792,-0.967216638264173,0.01052950366354489,2.8346470377384388e-05,0.000766372657328283
611,1.0433290921229061,0.010478290974412354,1,,0.23067958520253565,-0.3106553207551859,-0.9680474791463114,0.010309367865154757,6.168470127558804e-05,0.001137646027605447
612,1.0434578886470753,0.009758211332159102,1,,0.2328243549398578,-0.31308502956033396,-0.9694499158359988,0.010206324487484595,0.0003889994824769617,0.0018589507835655528
613,1.0435433418036737,0.008975617224745453,1,,0.2340599595684586,-0.3144988637685778,-0.97002489179739,0.00920296073122216,0.0011412788967512522,0.002361894285629393
614,1.0435998058440754,0.008221963392027081,1,,0.23292390969558324,-0.31326268035345717,-0.9684413478787032,0.005851014897009493,0.003002124044874974,0.0022952190840751733
615,1.0436369525674642,0.007578472541206727,1,,0.23178785982359537,-0.31202649693930223,-0.9668578039612535,0.0024990690654151963,0.004862969191545098,0.0022285438825730367
616,1.0436573694887377,0.007107046925608288,1,,0.23067670059436496,-0.3109856688724299,-0.9672845624142321,-0.001304173406311659,0.005006124129490591,0.0018303037839402442
617,1.0436550807385219,0.006843660068414083,1,,0.22957341283999097,-0.3100066204357257,-0.9683470635724855,-0.005250134978955674,0.004606072713913534,0.0013272088297510757
618,1.0436156714333802,0.006794976582458781,1,,0.22878665492762548,-0.30876931221376813,-0.9692816345138496,-0.007552231333704688,0.003515568534962711,0.000834397219683489
619,1.0435184608783243,0.006938529120966521,1,,0.228989388894127,-0.30672466791719377,-0.969816287678519,-0.0047155032643868226,0.00026666627965803565,0.00037373197986439365
620,1.043340681136622,0.007226432172675222,1,,0.22919212286078694,-0.3046800236190222,-0.9703509408436061,-0.0018787751928530474,-0.0029822359781845184,-8.693326031455019e-05
621,1.0430630756533295,0.0075923764684557955,1,,0.2283830329937124,-0.3055261153535761,-0.9714129967268598,0.003396852489689634,-0.002759551278595761,0.00029173454943879083
622,1.0426758692819889,0.007961322540248818,1,,0.22719011925987417,-0.3074687749336804,-0.9726751168348049,0.009597649010060761,-0.0012199595398393022,0.0009887938082756723
623,1.0421837600165673,0.008260698613624095,1,,0.22636394627071865,-0.30961161360215567,-0.9729929297936599,0.014231744437166271,0.00031208183480589777,0.001276874857141774
624,1.0416085619270392,0.00843118041929295,1,,0.22693753485639573,-0.312518487900839,-0.9697065485600215,0.012886117072634522,0.0018153052782226558,3.984043565536817e-06
625,1.0409885128273462,0.0084348281334115,1,,0.22751112344207278,-0.31542536219952233,-0.9664201673263833,0.011540489708102775,0.0033185287216394134,-0.0012689067700107004
626,1.0403740386479445,0.008258914648666873,1,,0.22914785812659888,-0.31488809194404854,-0.9641777577131238,0.007073777445388187,0.0023993551573829237,-0.0012364644882724956
627,1.0398207118461158,0.007915087368600669,1,,0.2312617209494091,-0.31280512793433096,-0.9624038709499446,0.001206357011975527,0.00039303676976815816,-0.0006182032370990059
628,1.0393809142172794,0.007434922448752846,1,,0.2327497168232482,-0.31088007391884476,-0.9610959085035244,-0.004058612649995389,-0.0012842910880968843,4.720634027355257e-05
629,1.039096055516958,0.006863710642090184,1,,0.2312428163827944,-0.30971065025017747,-0.9620174854524898,-0.006440737007705046,-0.0013873346246626138,0.0009382299216940861
630,1.0389910254908927,0.006254107094222449,1,,0.2297359159423406,-0.3085412265815102,-0.962939062401455,-0.008822861365414703,-0.001490378161228343,0.0018292535031146197
631,1.0390719438353593,0.0056603882135336904,1,,0.22829991602822333,-0.3079106447888787,-0.9647681437842501,-0.008090070494507448,-0.0016689107132199527,0.0018541399563378508
632,1.0393274027780477,0.005133217450135,1,,0.22690118168714193,-0.30756328023487417,-0.9670742127792215,-0.005720068915152322,-0.0018871205647059425,0.001423781602819245
633,1.0397325057668978,0.0047145957914250655,1,,0.22569288311512933,-0.307522695705322,-0.969214260303096,-0.0035149734032216204,-0.0019270309769706094,0.0009791927834443721
634,1.0402543253979832,0.0044330729374537255,1,,0.22567310349998368,-0.309396740314926,-0.9703181596927141,-0.0023390647370338472,-0.0008541658672105115,0.00044579093308392886
635,1.0408571191312945,0.004299898606315349,1,,0.22565332388483797,-0.31127078492453,-0.9714220590823324,-0.0011631560708460738,0.00021869924254958636,-8.761091727651441e-05
636,1.0415058571655396,0.004307132721088896,1,,0.22667480772022675,-0.3119243991922947,-0.9698656480789197,-0.001194994502578212,0.0017204838930125488,-0.00047427715735330915
637,1.0421673204771529,0.004428571842914187,1,,0.2283325241817955,-0.3118323063087523,-0.9666837346467575,-0.0019647903719564415,0.0034843468922942083,-0.0007712850284198581
638,1.0428090400835037,0.004623739316675456,1,,0.22993223902059234,-0.3115843500243991,-0.964000136996987,-0.002807878864370538,0.004888637569221257,-0.0009411270742156889
639,1.0433973073447518,0.0048443951563541445,1,,0.23102872966314542,-0.30998411718200475,-0.9656399452725422,-0.0042868568316813205,0.0031732656462662564,-7.673775769908862e-06
640,1.0438959551395164,0.0050423784579815166,1,,0.23212522030484192,-0.3083838843408604,-0.9672797535468165,-0.0057658347978368,0.0014578937246512178,0.0009257795219467044
641,1.0442673441842139,0.005177306448590579,1,,0.23231806483951342,-0.3081052553233094,-0.9690111827782341,-0.0065237976383026456,3.021746060453831e-05,0.0011701839691871283
642,1.04447611058047,0.005222719781877988,1,,0.2318724219683545,-0.3087604292517367,-0.9708073484444034,-0.006772314276779395,-0.0011941822633879102,0.0009277285609920769
643,1.044495136199626,0.005169572760842282,1,,0.23140541077640725,-0.3093714247403531,-0.9725130799721506,-0.006915638931152992,-0.0023262791289582175,0.0006603264338916992
644,1.0443123035391109,0.0050264386752998,1,,0.23064825211647322,-0.30938254798923065,-0.9729908611830388,-0.0056306254328743095,-0.0022050514621770752,5.418794109041897e-05
645,1.0439361510010303,0.004816401913869181,1,,0.22989109345594766,-0.3093936712381168,-0.9734686423943003,-0.004345611933591839,-0.0020838237953012366,-0.000551950552184346
646,1.0433986433703093,0.004571278975998368,1,,0.2289887967757256,-0.30950496343918166,-0.9725086635408681,-0.0031307624006354073,-0.0015750233500487602,-0.0006769642484396524
647,1.0427538643858705,0.004324413613342777,1,,0.22796833390316068,-0.3096978096234652,-0.9703781117943634,-0.0019730378622555386,-0.000750674991184026,-0.0004102633192870416
648,1.0420723585372225,0.004103652726196665,1,,0.22697079580247748,-0.3098828956418969,-0.9682823649605907,-0.0008345950748900112,9.00833668570146e-05,-0.00011443463974335955
649,1.0414318544846335,0.003926092003677187,1,,0.22662775335565308,-0.30984643115376637,-0.9671802883903081,-0.00024664074179612454,0.0013993424888818372,0.0010129829487777924
650,1.0409059316964895,0.00379573957393825,1,,0.2262847109088286,-0.30980996666563576,-0.9660782118200255,0.00034131359129776215,0.0027086016109066596,0.0021404005372989443
651,1.0405526549514414,0.003704470575494726,1,,0.22627110534606745,-0.30894448214891884,-0.9655121179366949,0.0008447446836214975,0.0032696735299436413,0.0030612057547059982
652,1.040405244535469,0.003635769757997624,1,,0.22656593219634166,-0.3073028348511881,-0.9654478331747437,0.0012690416284323312,0.0031302616979293095,0.0037885719401354427
653,1.0404665310057568,0.0035700847308221192,1,,0.22686075904638558,-0.3056611875547397,-0.9653835484128429,0.0016933385729117256,0.0029908498660238788,0.004515938124996705
654,1.0407083489801159,0.003490351968307572,1,,0.22699256000183574,-0.30654028004455997,-0.9660084297902656,0.001645278757967823,0.0018461659210595935,0.00382017815152927
655,1.041076223897559,0.003386433736544058,1,,0.22712421211566952,-0.30742167395395015,-0.9666339403720389,0.001596787684273591,0.0007005641689790343,0.003123118872830443
656,1.041498770960713,0.0032576732115308636,1,,0.22710252938302292,-0.3085781796362669,-0.9682920250046185,0.00085045568998788,-0.000231889509129542,0.0028202375331193223
657,1.0419002723111948,0.003113317617262001,1,,0.22691586863235141,-0.3100306871477474,-0.9710610901108234,-0.0006467063642516123,-0.0009350101452265214,0.002941465237216848
658,1.0422141071602011,0.0029709845052688475,1,,0.2267292078815341,-0.31148319466036256,-0.9738301552191915,-0.002143868419660612,-0.0016381307818727432,0.003062692941409071
659,1.0423943144337673,0.002853587225365538,1,,0.22667307800166256,-0.3106111307998636,-0.9735301472099895,-0.0016302810290922559,-0.0016164463894587843,0.0021960815146058158
660,1.042422793633279,0.0027852634162796514,1,,0.22662177576414047,-0.3096530934134773,-0.9731166305169425,-0.001042326715860315,-0.0015679553157645523,0.0012929351746926972
661,1.0423105773138932,0.00278696917863415,1,,0.22665998262805628,-0.30871964255994017,-0.9712336973345247,-0.00033516835738278873,-0.0013027296379166666,0.0007501101088141713
662,1.0420930539195694,0.002872518138731351,1,,0.2268089434241587,-0.30781661381039166,-0.9675325841949489,0.0005194869207532653,-0.0007693277716666666,0.0006531279495085398
663,1.0418205653174124,0.0030458539114541524,1,,0.22695790422026105,-0.3069135850608431,-0.9638314710553731,0.0013741421988893194,-0.0002359259054166667,0.0005561457902029084
664,1.0415469560270398,0.003300139184470704,1,,0.22605368772879245,-0.3069511161437721,-0.9648877374587543,0.002234431992763517,-0.00019836426,0.0018621660921607718
665,1.0413190165185098,0.003618823625035715,1,,0.2250696893443581,-0.30705989795100896,-0.9663043921392591,0.0030951486203529455,-0.00019836426,0.003274468777366331
666,1.0411692159577681,0.003978343480836337,1,,0.22482786133353286,-0.3074038430819331,-0.9676509853808125,0.003531115399277308,-0.0001284054592773078,0.004139593692174167
667,1.0411129055452515,0.004351706202548719,1,,0.2256443547731577,-0.3080831268341055,-0.9688976722850499,0.00336139662148555,4.131331851444992e-05,0.004224453061208101
668,1.0411497887568755,0.004712086078693382,1,,0.22646084821278253,-0.3087624105862779,-0.9701443591892874,0.0031916778436937923,0.00021103209630620763,0.004309312430242033
669,1.041268365984962,0.00503573046693856,1,,0.22685368105310533,-0.31033713329215024,-0.9700918497141074,0.002268037793080208,0.0006139783343307303,0.004453834643140554
670,1.0414515190999205,0.005303834072168507,1,,0.22719671945630057,-0.3120171003364173,-0.9698866407597834,0.0012557865144754562,0.0010443366808426094,0.004605369256528272
671,1.04168144222884,0.005503404198996352,1,,0.2274895993254631,-0.31291201739823504,-0.9694031028728638,0.0006919587173477237,0.0014724071232565374,0.004718009997371999
672,1.0419426396003264,0.005627378350658609,1,,0.22769975014130558,-0.3125121110895603,-0.9684605027408949,0.000867738864454801,0.0018967040081500942,0.004766501071066231
673,1.0422225051479026,0.005674320806563203,1,,0.227909900957148,-0.31211220478088547,-0.9675179026089261,0.0010435190115618783,0.0023210008930436513,0.004814992144760463
674,1.0425098409015459,0.005647948518206513,1,,0.2288908774452237,-0.31072671061488105,-0.9668863111763207,0.0014382552903457152,0.0017912748736409027,0.005129358529746418
675,1.042792337350721,0.005556591077193956,1,,0.2299972599198479,-0.30918087070271,-0.9663053178934319,0.0018686136438643209,0.0011063384249376655,0.005486980292585622
676,1.0430543519971989,0.005412549720965656,1,,0.23041353978928455,-0.3082334143767738,-0.96655189469074,0.0021037132112893026,0.00037778032421987407,0.005557945536773914
677,1.043276194923435,0.005231241824286399,1,,0.22950618488113747,-0.30843367335984506,-0.9683857724650399,0.0019643013395510786,-0.0004344452422269591,0.005079096109187024
678,1.0434355948361382,0.0050300265801923845,1,,0.22859882997369918,-0.3086339323427598,-0.9702196502379075,0.0018248894679217566,-0.0012466708080393224,0.004600246681974186
679,1.0435112385716263,0.00482669473824324,1,,0.22814497126358507,-0.3090729312478517,-0.9714454452733527,0.0012502526001534951,-0.0011634334153384047,0.0045166016
680,1.0434875132949093,0.0046377267456303465,1,,0.2277870951180788,-0.30956245950719175,-0.9725425394707848,0.0005835002713133843,-0.0008906711009809174,0.0045166016
681,1.0433590995568673,0.004476528673902857,1,,0.22771377395738673,-0.3099343587332687,-0.9727532433936504,0.0003012607454685643,-0.0007093705671760988,0.00432994490224843
682,1.0431340248237861,0.004351916936805047,1,,0.22827994569372284,-0.31004190507406704,-0.9709719235782919,0.0008831537052747422,-0.0007336161040232147,0.003723806421484693
683,1.0428341914558332,0.004267138590834452,1,,0.22884611743050123,-0.31014945141494943,-0.969190603761542,0.0014650466655354655,-0.0007578616408892701,0.0031176679402474716
684,1.0424930892804287,0.004219680863429159,1,,0.22881810116644002,-0.31085314239714834,-0.9679330937152713,0.0019654767502724838,-0.0007485636581232614,0.00294759530866758
685,1.0421511415691815,0.004202025687532635,1,,0.2286326758822071,-0.3117147607421025,-0.9668143484748423,0.0024443261377614296,-0.0007303795104534108,0.0028930428457960827
686,1.0418496730148183,0.0042033346622454915,1,,0.22848152690875193,-0.31232714712756254,-0.9659797876468007,0.002615175709309202,-0.0006641738820437401,0.003091845051502252
687,1.041624704461013,0.004211833822778566,1,,0.22842156830474072,-0.3122764646486145,-0.9659012848940824,0.0019666075440284985,-0.0004702095634324773,0.003964684377998427
688,1.0415016848597591,0.0042174640126554684,1,,0.22836160970072958,-0.31222578216966657,-0.9658227821413641,0.0013180393787477946,-0.0002762452448212144,0.004837523704494603
689,1.04149195646956,0.004214233488549023,1,,0.22856840370531323,-0.3120681157570131,-0.9666851648766283,0.0008389784978255026,0.00010097021786971149,0.005055240341798443
690,1.0415913246484074,0.004201699999887323,1,,0.22886137938105416,-0.31187588528059407,-0.9678515262088118,0.00041468154699028566,0.0005373899367312476,0.005061301810423491
691,1.0417806844988073,0.004185140273273919,1,,0.2291892827102786,-0.31158977906908697,-0.9685613062388,-0.00011367405261812706,0.0009203350657968212,0.004911275272927405
692,1.042028361278562,0.00417422208083169,1,,0.22962874419853518,-0.31100383581902435,-0.9678127756054242,-0.000974390693713678,0.0011324835281055455,0.00426270706792281
693,1.042293731724042,0.004180328312288499,1,,0.23006820568679176,-0.3104178925689618,-0.9670642449720485,-0.0018351073348092288,0.00134463199041427,0.0036141388629182146
694,1.0425317862837915,0.0042130226343681,1,,0.22999736435021587,-0.3097641982967955,-0.967135350992525,-0.002368027151178202,0.0009186692760087964,0.002655256353473919
695,1.0426984218540587,0.004276420032537449,1,,0.2297291142060845,-0.30908429478604904,-0.9675235304968077,-0.0027741399479877457,0.000245855554019031,0.0015763298743985015
696,1.0427562427248227,0.004366370295347846,1,,0.22933887100797926,-0.30878937906626414,-0.9682133449398225,-0.0025049237307434398,-0.0004096736950174684,0.0006393829748986879
697,1.0426804139417523,0.0044693252813166225,1,,0.22847168697076548,-0.3099996015064053,-0.9700824234165334,0.00040454106648181914,-0.0009976280199258257,0.00025751571529738615
698,1.0424637319409347,0.004563493111309727,1,,0.22760450293355164,-0.31120982394654645,-0.9719515018932441,0.0033140058637070777,-0.0015855823448341828,-0.00012435154430391564
699,1.0421197551682067,0.004622360371205274,1,,0.22736725989284579,-0.3121642529946011,-0.9714395677221528,0.005387316535527172,-0.0010004249137595136,-0.00042717934498205483
700,1.041682822738924,0.0046199613648042455,1,,0.22741794642250343,-0.3130017655665198,-0.9698393348810085,0.007078443003715267,0.00012093124983287055,-0.0006938802741346657
