id,ASVM,GSVM,walking_nonwalking,normal_abnormal,ax,ay,az,gx,gy,gz
1,0.9781308021372835,1.1022735148820848,1,,-0.2172109435943977,-0.9114506992703931,-0.2851614261750955,-0.047805786,-1.0837555,-0.18283081
2,0.9858690790934417,1.1093554895666495,1,,-0.27296828029279735,-0.9151786202969167,-0.24208491914023408,-0.047805786,-1.0837555,-0.18283081
3,0.9940977915575849,1.1180261629776367,1,,-0.3287256169939191,-0.9189065413236222,-0.19900841210326978,-0.047805786,-1.0837555,-0.18283081
4,1.0029862270300438,1.128785517815481,1,,-0.35038261152714056,-0.9218645551325323,-0.17267307284879319,-0.09084748576570761,-1.0041921522774673,-0.15826941638811803
5,1.0125441205437367,1.1407951110970551,1,,-0.3355049634461532,-0.9239977008241268,-0.16427399296784975,-0.18000347701949265,-0.8393857163726383,-0.10739327985165195
6,1.022579521508939,1.1516289554549346,1,,-0.3206273153644395,-0.9261308465158254,-0.1558749130864963,-0.2691594682776302,-0.6745792804597636,-0.05651714331270214
7,1.0326888175786741,1.1574095841170335,1,,-0.33163982354732996,-0.9404242550676918,-0.15438703340157398,-0.4144909083106359,-0.8128206007017634,-0.10976867629129694
8,1.0422856213204545,1.153359279371372,1,,-0.34357643417401834,-0.9551517022759259,-0.15314583654544692,-0.5618274297005371,-0.9618786641569086,-0.16673685867503385
9,1.0506688326570517,1.1346976512163387,1,,-0.36767146532266826,-0.9718455061060324,-0.11298195459245702,-0.707155713603517,-1.0883053096961266,-0.17749653322926193
10,1.057121718004326,1.0977105372670475,1,,-0.40672892219313944,-0.9909591526166562,-0.024918941039543948,-0.8500126153013414,-1.1868812234063377,-0.13139097888376372
11,1.0610256469085262,1.0407414404566735,1,,-0.4457863790655173,-1.010072799128213,0.06314407251766828,-0.9928695170061398,-1.2854571371213612,-0.08528542453601469
12,1.0619670137181292,0.9648492213748915,1,,-0.4161681982260116,-1.003965472096813,0.08836434515689798,-0.7850920959482164,-1.0164500535356473,0.05664263811880356
13,1.059816075092102,0.8739459942216877,1,,-0.38146604816549673,-0.9959910687995465,0.10893245043048558,-0.5513576664931126,-0.7202312729532375,0.2056643179451402
14,1.0547624699256661,0.7743599727690973,1,,-0.33520069137925096,-0.9953147952539699,0.07753250454321858,-0.3559948153336659,-0.44163040531641756,0.3050131695374298
15,1.0473019318891053,0.6739158705354491,1,,-0.27255744388325653,-1.0049754441845364,-0.02747393154524327,-0.21498068690044178,-0.18798319111475076,0.3340064379628416
16,1.038178253320893,0.5807382934207611,1,,-0.209914196384204,-1.0146360931155747,-0.13248036763883145,-0.07396655846033351,0.06566402309929885,0.3629997063896687
17,1.0282909144884058,0.5020286393848657,1,,-0.22845326673239996,-1.0062802691764907,-0.10303920909248265,-0.187485095484458,0.08404026747867763,0.21355597838606413
18,1.0185817433870972,0.44304401851948777,1,,-0.2563535711694474,-0.9958469433322269,-0.058094731110551384,-0.3303541108871211,0.07528712357125524,0.043536458288305706
19,1.0099154051878527,0.4064416786361916,1,,-0.26534959344895864,-0.9726460602298449,-0.016703452946261382,-0.3172577675986451,0.063063738096789,-0.07083502865022129
20,1.0029702061856018,0.39207252893455485,1,,-0.24342037529749863,-0.9285589157734515,0.018875197272639473,-0.049019960803662416,0.04516343488028379,-0.09417270690812383
21,0.9981574042685255,0.397230987761949,1,,-0.22149115714603862,-0.884471771317058,0.05445384749154033,0.2192178459913203,0.027263131663778573,-0.1175103851660264
22,0.995586187838929,0.41729925705908816,1,,-0.27254836432070917,-0.9186218678702045,0.009713697434624947,0.46545895776482743,-0.04755995720217807,-0.1413236394831151
23,0.9950840717545132,0.4466586697129886,1,,-0.3352756769908309,-0.9652816448503568,-0.04786896228550274,0.7081829257491146,-0.13148466887691146,-0.16521293564853343
24,0.9962680789185007,0.47968503076311314,1,,-0.3672551124292048,-0.9836067740710629,-0.12575157287127856,0.848098592247428,-0.1410504514059633,-0.13107864023543164
25,0.9986461899054352,0.5116215106345728,1,,-0.34083645263520823,-0.948117149001193,-0.24218899016773343,0.7927549588679386,-0.009389579730476832,0.013257318882009707
26,1.0017198499070368,0.5391543579680308,1,,-0.31441779284121174,-0.9126275239313233,-0.35862640746418833,0.7374113254884491,0.12227129194500964,0.15759327799945105
27,1.0050615747331113,0.5606033463957972,1,,-0.2635389472928431,-0.9163949274597583,-0.34602085820850653,0.3845675768749683,0.02381309867566797,0.10957968081539503
28,1.0083540271301548,0.5757520336688573,1,,-0.20756773993450575,-0.9283352449360566,-0.30654987621722973,-0.030212668904803154,-0.12255354264827724,0.02152086300144007
29,1.0113912858183698,0.5854384176042742,1,,-0.18428187579389854,-0.9422747624887561,-0.2166504031414445,-0.3645988451832455,-0.12892309240309824,-0.009206368037102852
30,1.0140535390907022,0.5910646155126762,1,,-0.233593408323591,-0.9606547021605537,-0.014744238058165882,-0.5204218008093339,0.17565481590541918,0.08740555472068634
31,1.0162705533773813,0.5941526615676773,1,,-0.2829049408508761,-0.979034641831454,0.18716192701525586,-0.6762447564278152,0.4802327241990674,0.18401747747375902
32,1.0179874706382896,0.596001174575279,1,,-0.25812034645908616,-0.9781664939705363,0.11739422863554627,-0.4720079316879982,0.5510840716119403,0.23387832267902722
33,1.0191416558509985,0.5974366334429383,1,,-0.21402022683149327,-0.9722807164986511,-0.023193950972074887,-0.17391000971266768,0.5610071158412973,0.27155200431688603
34,1.0196548927643272,0.5986391582035637,1,,-0.20648723771797128,-0.9651591362221748,-0.13195467360616628,0.020244143126398464,0.43512287140892414,0.25003406669281486
35,1.0194422905592389,0.5990508628838552,1,,-0.29488156577001234,-0.9547956486388717,-0.15722176366452642,-0.058279564419924254,-0.0470274696511469,0.07323751806704953
36,1.0184360899613385,0.5974081999536495,1,,-0.3832758938177381,-0.9444321610560744,-0.18248885372165305,-0.13680327196241354,-0.5291778106876799,-0.10355903055008474
37,1.0166178677142605,0.5919396922694244,1,,-0.4034338653375406,-0.947245907949312,-0.16640918819149444,-0.19511265441317546,-0.6475116834145537,-0.07170417295419841
38,1.0140481616976862,0.5807260637097799,1,,-0.40189658909089254,-0.9542492596427347,-0.13718362577376964,-0.2469950408542253,-0.6501727854502346,0.02648986488600351
39,1.0108815598278007,0.5621570136291648,1,,-0.3784656856987571,-0.9569825109013002,-0.11371617294003943,-0.28852937094347303,-0.6305258318960691,0.11049997816428554
40,1.0073595142304974,0.535378004129283,1,,-0.2862816313789868,-0.9463062499903809,-0.10833106774676045,-0.29756741911458473,-0.5408242865348906,0.1499679285915881
41,1.00378121825397,0.5006214041108504,1,,-0.19409757706371686,-0.9356299890799828,-0.10294596255374437,-0.3066054672852552,-0.45112274117809104,0.1894358790169639
42,1.0004610231259852,0.4593497976780476,1,,-0.1676204876987649,-0.9591507708926927,-0.07759008509484826,-0.27000441365715167,-0.39511817312079384,0.10608878058106093
43,0.997684720267565,0.414184659613884,1,,-0.16615491314747755,-0.9956887395655611,-0.044632284965300584,-0.21603072576170834,-0.3519404408091956,-0.024008162664803313
44,0.9956746272698535,0.3686354609639818,1,,-0.17118310158951172,-1.0155015903134625,-0.023879856652811466,-0.1517182432184413,-0.29418396387773643,-0.14166516326636336
45,0.9945673753446898,0.3266749473238731,1,,-0.20107871027250848,-0.9712667484665197,-0.04986706304018394,-0.047814055276437645,-0.18059918377644898,-0.21168425628290682
46,0.9944038246836499,0.2922236345493728,1,,-0.23097431895696469,-0.9270319066174173,-0.07585426942882509,0.056090132670638504,-0.06701440366961643,-0.2817033493028685
47,0.9951303016877142,0.26861199525923996,1,,-0.27723781457281194,-0.9218388696903135,-0.11970986900714639,0.11275501878271398,-0.01827337499425022,-0.26357475070584435
48,0.9966117995287399,0.25808650198156485,1,,-0.33086077004454656,-0.9342001204422103,-0.17159959803126443,0.1481797932840609,0.0013120890504103653,-0.20581248404305397
49,0.9986566285401082,0.2614209912080357,1,,-0.3646709867004098,-0.9439671294463514,-0.21613730016401347,0.16383341060037393,0.012781721398191188,-0.14284926357252592
50,1.0010477843402295,0.2776911083277351,1,,-0.3035044376457697,-0.9412980642187518,-0.22543142785206394,0.08470959298840221,-0.014653688751937666,-0.05495411540676971
51,1.003572971383974,0.30426436380054095,1,,-0.24233788858814342,-0.938628998991022,-0.23472555554056815,0.005585775372567747,-0.04208909890340589,0.03294103276327744
52,1.0060462575219369,0.337042438963409,1,,-0.21600345099889778,-0.9499026632189419,-0.21700397073927413,-0.06353087920636633,-0.18770757026107734,0.016648853358846107
53,1.0083188264646425,0.3709560515592289,1,,-0.20798575106104997,-0.9685082205431181,-0.18507596268900375,-0.12738518900631612,-0.39547352668086716,-0.05443104534877266
54,1.010280520351869,0.400656547572549,1,,-0.20251457920515772,-0.9834051349129505,-0.1576322696190592,-0.1843639479743812,-0.5723947843421935,-0.11354437720819288
55,1.011855544427756,0.4212902803217903,1,,-0.212931604825107,-0.9751632305712329,-0.15816693754665173,-0.19844504161363233,-0.556871015172889,-0.09799637759857484
56,1.012995503318895,0.4292089018539847,1,,-0.2233486304455648,-0.9669213262291128,-0.1587016054742703,-0.2125261352535709,-0.5413472460028265,-0.08244837798819776
57,1.0136724355594207,0.4224780975650137,1,,-0.23074635707454827,-0.9689361353004948,-0.14521436576471897,-0.20846395731354248,-0.49375890049304494,-0.07135229296274541
58,1.0138741240203217,0.40109437150114496,1,,-0.23630020835919158,-0.9772146834162597,-0.12316399605376459,-0.19332174681271078,-0.42658883024589084,-0.06297497661883586
59,1.0136031076530352,0.36688445644686274,1,,-0.241738708109764,-0.9840839036673049,-0.10250643137245549,-0.1771425361560687,-0.35057002951817234,-0.05413411934008568
60,1.0128793126597049,0.3231250288855162,1,,-0.2461793196824792,-0.9787612478152847,-0.09389780632503793,-0.15199239849166882,-0.19800223809069614,-0.04128324155412785
61,1.011744734400691,0.27396948590475767,1,,-0.25061993125519444,-0.9734385919632647,-0.08528918127762036,-0.12684226082726893,-0.045434446663219934,-0.028432363768170026
62,1.0102678597153318,0.22379688327555264,1,,-0.258031625053997,-0.972735482225367,-0.09202094927000992,-0.09009728572930618,0.03142566290733508,-0.007633583911631942
63,1.0085455080716035,0.17660156815711225,1,,-0.26753900249611506,-0.9752908172214888,-0.1095732224981944,-0.04517377186821892,0.054884574350987085,0.01877133104998631
64,1.0067000543627782,0.13552058633845088,1,,-0.2741136428448559,-0.9768378088239283,-0.12756954431196027,-0.004662734991294,0.07616449525104654,0.042969588327018006
65,1.0048706015792817,0.10255664898175412,1,,-0.24121271228869362,-0.9648121787201124,-0.15154290083013405,-0.023545037023367795,0.06811451271963587,0.03746553368276826
66,1.0031981488966764,0.07850966850421617,1,,-0.20831178173253134,-0.9527865486162961,-0.17551625734830784,-0.04242733905544159,0.0600645301882252,0.03196147903851851
67,1.0018071885383875,0.06309133972137765,1,,-0.20540814608643276,-0.9515827739066026,-0.170156551179075,-0.06007845651955144,0.06543714268002762,0.020247968166995863
68,1.0007882496712783,0.05517139321588935,1,,-0.22685770015066897,-0.9591646813132948,-0.14098290970229074,-0.0767300414761977,0.08170683785770701,0.0034933338901294536
69,1.0001860956629889,0.05309220489384595,1,,-0.24770015890950983,-0.9663998435091847,-0.11275047908979181,-0.09079756151765501,0.09670342682049794,-0.0131544721387369
70,0.9999962650760955,0.05498926230792168,1,,-0.2516499744031691,-0.9639866966206875,-0.1107075762606667,-0.032962554228340143,0.07627538156767295,-0.026829744089861697
71,1.000169793075336,0.05906670210869986,1,,-0.25559978989663557,-0.9615735497323079,-0.10866467343164131,0.024872453058151275,0.05584733631584524,-0.04050501604031888
72,1.0006239354039312,0.06379626759402593,1,,-0.2600639315142506,-0.958854294522271,-0.11942204757487718,0.0522343634463291,0.04370646781010301,-0.041642875452826876
73,1.0012561205324433,0.06802894259762562,1,,-0.265007690492155,-0.955849588392478,-0.14211588531392916,0.051179622176835166,0.03929352454997677,-0.031089396569815214
74,1.0019586493026722,0.07102578236401468,1,,-0.26995015129044675,-0.9528458501082662,-0.16480402196443267,0.05011488802731451,0.03487957673689374,-0.020533923821599194
75,1.0026321503576272,0.07242575224619607,1,,-0.26921458506773993,-0.954075311381825,-0.16255652219599168,0.0053429177914422,0.02607187725983518,-0.0012576081348759656
76,1.0031962417641325,0.07217390813768773,1,,-0.26847901884506903,-0.9553047726553235,-0.16030902242766046,-0.039429052442244386,0.017264177783206606,0.01801870755090621
77,1.0035963451935614,0.07043331061051458,1,,-0.26566074682852625,-0.956947427356022,-0.15294552552801877,-0.06423928420090808,0.013512788274215596,0.028819042748764484
78,1.003806242320975,0.06749893476796025,1,,-0.2606131338185182,-0.9590323668231562,-0.14010583407373328,-0.06768234926282836,0.015173703815036224,0.030546636700655296
79,1.0038266896891825,0.06372369730186493,1,,-0.25556552080875655,-0.9611173062901883,-0.12726614262007463,-0.07112541432458055,0.01683461935577577,0.03227423065246177
80,1.0036810459014582,0.059459586480970245,1,,-0.25859603075130805,-0.9587070967711495,-0.13213358778899362,-0.02872998434987096,0.02408045436081666,0.02955262268174715
81,1.0034092306330153,0.05501362072344692,1,,-0.2619128945312002,-0.9561375429132237,-0.13762871670955223,0.015290331631006718,0.03152426396059675,0.026673299106713518
82,1.0030613132402593,0.05061845985039236,1,,-0.2649464066292368,-0.955684523043213,-0.14109520829947816,0.038595394835768244,0.030256737808873283,0.02089291552315986
83,1.0026916250743168,0.04641825669176185,1,,-0.2676315419488025,-0.9578337509795775,-0.1420675197470592,0.03643135553568307,0.018278750837855358,0.011545720781789025
84,1.0023536648327298,0.04246984973020027,1,,-0.2703166772682372,-0.9599829789158367,-0.14303983119459274,0.034267316235703546,0.006300763867422185,0.00219852604087451
85,1.002095540283526,0.03875777024926095,1,,-0.264132598960072,-0.9568050317680855,-0.14610352054104728,0.03390413103063463,0.015859627286235488,0.010391303358864883
86,1.001955615624062,0.03521970863013328,1,,-0.2572942826942764,-0.9532341253013904,-0.1493214804760082,0.033673785911937926,0.027007157479997664,0.01987791753509224
87,1.0019584943751783,0.031777635820457104,1,,-0.25701845989278294,-0.9523616665747053,-0.1474366127157044,0.028551474141894087,0.028629283767481726,0.02272310427633186
88,1.0021120716150351,0.028369225326476486,1,,-0.2660288635676503,-0.9553076340276544,-0.1383310118746801,0.01650680725021104,0.016772530657564275,0.016170369385936828
89,1.0024065513374578,0.0249752134022572,1,,-0.2750392672420778,-0.9582536014804598,-0.12922541103410035,0.004462140359116003,0.0049157775482256616,0.009617634495861692
90,1.0028158569497718,0.021640669078445866,1,,-0.2692943083640919,-0.9571533374607869,-0.13738254434798408,-0.00022707434819991594,0.009656359957211431,0.005891828709805282
91,1.0033011728160146,0.01849025552309281,1,,-0.2618520855818561,-0.9555876478982483,-0.14752535679824896,-0.004070214047790476,0.016306082746900968,0.002491195870709974
92,1.0038159645365339,0.015737783488747128,1,,-0.25885028474560234,-0.9555863159610509,-0.15203903449458359,-0.009445874066747685,0.015067697768457301,-0.0011671581162538247
93,1.0043118111437572,0.013688583602245123,1,,-0.2631054562895962,-0.9581416104477404,-0.1473530289331872,-0.017326128866871283,0.0009377946179886324,-0.005246705241166471
94,1.004744415117171,0.01273093475131737,1,,-0.2673606278337977,-0.9606969049345545,-0.14266702337156206,-0.025206383667379588,-0.013192108533169844,-0.009326252366278277
95,1.0050790125459452,0.01331165169096308,1,,-0.2656764845559756,-0.9615368518966015,-0.1403595175280138,-0.014900180682134386,-0.022282705381415416,-0.004414507066997526
96,1.0052942492518155,0.01589185144883124,1,,-0.2630445057136146,-0.9621030522333571,-0.13843158856994678,-0.0016916611838573186,-0.030569096041893763,0.0019321287856853243
97,1.0053837311828904,0.020882029606585594,1,,-0.2593590443143428,-0.9620068315992072,-0.1401908576496613,0.008878624980735892,-0.034290360049409704,0.006012938658532008
98,1.0053549864790505,0.028560494447810888,1,,-0.2536747729120709,-0.9606537760474402,-0.14894597898295753,0.014443297012384018,-0.029350046551798313,0.005794716143350213
99,1.0052262828313983,0.03898508564483904,1,,-0.24799050150952148,-0.9593007204956071,-0.1577011003166812,0.020007969044303808,-0.024409733053945743,0.005576493628157764
100,1.0050223179551556,0.051913732904209475,1,,-0.2457902448168835,-0.9605248478579856,-0.15208156916151305,0.013472821878601998,-0.003997107911154395,0.0013132880075112472
101,1.0047700227543777,0.06675314377565182,1,,-0.2443141621189018,-0.9622846586205337,-0.1434741776263122,0.0044226524948442645,0.019631532852831993,-0.003790692356623397
102,1.0044955221740626,0.08255466138133924,1,,-0.24566874993711685,-0.9632747632483323,-0.1368012066957764,0.003754914563246137,0.04613027590994748,-0.007985053631841122
103,1.0042227773275836,0.0980703995191347,1,,-0.2533038300247841,-0.9625570981438413,-0.13442019188918078,0.02168552484467706,0.0789969996805433,-0.010161216170943229
104,1.0039737786600569,0.11187141178534923,1,,-0.26093891011282416,-0.9618394330393153,-0.1320391770824689,0.03961613512698333,0.11186372345274363,-0.012337378710151574
105,1.003769593412774,0.1225158854766303,1,,-0.2658809197222701,-0.9600869494619948,-0.1369624507248209,0.04178060347420029,0.13066693338789978,-0.01388347315668304
106,1.0036312695265297,0.12874359101205168,1,,-0.2701218724554897,-0.9580650831812174,-0.1437871679738243,0.03984084866649949,0.14580914627230243,-0.015265549033199507
107,1.0035796582754641,0.12966646684347308,1,,-0.27316800519908274,-0.9562460481294573,-0.14766734564360065,0.03689480151229305,0.15502746239647502,-0.015204323684689545
108,1.0036336285379028,0.12492526803198657,1,,-0.2730833242799012,-0.9549584963043195,-0.14383188009975767,0.03131194391519615,0.14872325874898795,-0.011361183710333258
109,1.0038067843020322,0.11478768888589926,1,,-0.27299864336071955,-0.9536709444791818,-0.1399964145559147,0.025729086318099243,0.14241905510150085,-0.007518043735976972
110,1.0041034480768452,0.1001725952478576,1,,-0.27241572444610773,-0.9544734532439468,-0.13982875356020438,0.020265849166920365,0.11347442467319249,-0.009867550663726217
111,1.0045150857922842,0.08259623428314149,1,,-0.27167459222742435,-0.9559396516404217,-0.14082578791433484,0.01484059696738378,0.07734042539032375,-0.014183505627300867
112,1.0050183628801745,0.06404767410403492,1,,-0.27002459557452574,-0.957279417557277,-0.1422243545876717,0.010542281329016202,0.04454620331249336,-0.017017883270844754
113,1.00557568208052,0.04681012022306885,1,,-0.2655240259909076,-0.9582226391814003,-0.14488229187418947,0.0097785025656061,0.022226897123157372,-0.015205424658871088
114,1.0061385705498362,0.03325015147268821,1,,-0.26102345640728936,-0.9591658608055238,-0.14754022916070722,0.009014723802195996,-9.240906617861382e-05,-0.013392966046897423
115,1.0066538399556908,0.025597420940857457,1,,-0.2559774131799489,-0.9605865197186427,-0.1470959364361373,0.002352661969672554,-0.0150070200852227,-0.02219566053172261
116,1.0070720602452683,0.025733908812187768,1,,-0.25072397174413624,-0.9621887082797019,-0.14547212394006018,-0.006552025803507621,-0.027106242068809724,-0.03503441388677238
117,1.0073574678307347,0.03500692853251817,1,,-0.24578560857617754,-0.9645566209878024,-0.14355719317819912,-0.012643295631576266,-0.03445067459389046,-0.04604739851385198
118,1.0074978854698369,0.05407684991731784,1,,-0.24205213775723217,-0.9698527431618558,-0.14052899562840648,-0.007975760098946436,-0.023612293433410748,-0.05007845199520814
119,1.0075126019396388,0.08281089385999087,1,,-0.2383186669384691,-0.9751488653356506,-0.13750079807876167,-0.003308224566544471,-0.012773912273460156,-0.0541095054763675
120,1.0074556777003871,0.12023765077845293,1,,-0.23354954342462558,-0.9779206600657484,-0.13838912797723849,0.0100055000039492,0.02817763440701558,-0.05457248935549782
121,1.007412210099983,0.1645794955435542,1,,-0.2283152588993974,-0.9795586589650536,-0.14103655711699034,0.027202640374573938,0.08265443970287471,-0.053432883028574865
122,1.0074860859610597,0.21337708259429622,1,,-0.2248665319199896,-0.9790020571606418,-0.14403235898996558,0.040833597401248714,0.1436392161585779,-0.050058650066256836
123,1.007779758887323,0.2637088146838921,1,,-0.22996358669225067,-0.9679419693776642,-0.14869549292605364,0.03739659455478275,0.23577151923126435,-0.03598936469976153
124,1.008369252197406,0.31248969640386126,1,,-0.2350606414642629,-0.9568818815952268,-0.153358626861914,0.03395959170848459,0.32790382229945303,-0.02192007933395307
125,1.0092800791549557,0.35681311089821743,1,,-0.2439592643802694,-0.9531700168451712,-0.15082710876686609,0.039015152550076815,0.4023595089232511,0.02935434792781102
126,1.0104709767121682,0.39428236132169164,1,,-0.2548549486827655,-0.9533183623866464,-0.14451605517139615,0.048532075221373934,0.46752921492372407,0.10017359181216058
127,1.011831373664468,0.42327223053225194,1,,-0.26395626593569466,-0.9553892800850844,-0.13874818670015118,0.06397468757203817,0.5163711927991874,0.16389878241482148
128,1.0131952840633291,0.4430679343072743,1,,-0.2618836980492177,-0.969432441961096,-0.13636284143511496,0.11631776345595776,0.4635371179841738,0.18344787396127976
129,1.0143697330240782,0.45385006938253825,1,,-0.25981113016284196,-0.9834756038364223,-0.13397749617019522,0.16866083933732204,0.41070304317173945,0.2029969655067837
130,1.0151714025844927,0.45652583809241504,1,,-0.259467435265358,-0.9877498439985339,-0.1334769088548875,0.20231369774854926,0.3489041359511525,0.2009717335242902
131,1.0154625249824052,0.45244118593068067,1,,-0.2601782785814667,-0.9860654617990423,-0.13412594287902926,0.2245663268388687,0.2816370662808318,0.18578709148715725
132,1.0151772079473953,0.4430361833872502,1,,-0.26064924120706706,-0.9833614406012551,-0.134709595572348,0.24421648679621286,0.21583057878732417,0.17366973402529362
133,1.0143323269560756,0.4295201816425599,1,,-0.2590513871235428,-0.9718636886827731,-0.13472937632858428,0.24142202391041342,0.16262067336835134,0.1880057337173359
134,1.0130217278287974,0.4126416086056929,1,,-0.25745353303994056,-0.9603659367637298,-0.13474915708482157,0.2386275610244776,0.10941076794678087,0.20234173341007805
135,1.0113970500159437,0.3926111128538979,1,,-0.26736104263622873,-0.9545956786994501,-0.13475297915223605,0.24309140116464337,0.05048241848485364,0.12126006947807853
136,1.0096414181889344,0.3692094264013693,1,,-0.28537444081077623,-0.9528606192000172,-0.13474555782421904,0.2526689428123891,-0.012474753669994175,-0.027046322959531213
137,1.0079426896845443,0.3420762194275744,1,,-0.3017902599896124,-0.9514168319944369,-0.13429629184728406,0.26363175447831366,-0.0758440133264904,-0.16439514870756347
138,1.0064711811464997,0.31113653187697243,1,,-0.2967970470966277,-0.9538763621829206,-0.12792590003553503,0.2931584621101156,-0.14473562563880443,-0.15490247410402344
139,1.0053641003700013,0.2770825105665874,1,,-0.2918038342033992,-0.956335892371524,-0.121555508223475,0.322685169743359,-0.21362723795448169,-0.14540979950001998
140,1.004716645149939,0.24179989028511484,1,,-0.2832627969353545,-0.9587537702702748,-0.11199432508473584,0.3077324107843703,-0.24617676813396178,-0.0971582627606019
141,1.0045785548479829,0.20862188823330974,1,,-0.2718447921138438,-0.9611378718956197,-0.0998456961913077,0.256710791405815,-0.24925612728227642,-0.01747676303935124
142,1.0049546725504763,0.1823135965650321,1,,-0.2616333830090036,-0.9634367260764822,-0.08738266804803428,0.20279402990273024,-0.250564477882311,0.05519066902833668
143,1.005808277090392,0.16873434220042782,1,,-0.2847123115143861,-0.9633835777011667,-0.06624527035274332,0.06899942921001072,-0.20301017163280036,-0.06566212859185108
144,1.0070661029969261,0.17418369398852843,1,,-0.30779124002089536,-0.9633304293258483,-0.04510787265642044,-0.06479517148924052,-0.15545586538096814,-0.18651492621793875
145,1.0086239512351067,0.2044967662694375,1,,-0.31856240352794185,-0.9624736786081702,-0.03843268829636486,-0.12274008004244097,-0.11681157607996187,-0.20595862045955465
146,1.0103519021927572,0.2640069637193125,1,,-0.31786948158476397,-0.9608684113302483,-0.04522835339573019,-0.11003468350952507,-0.0864665349100673,-0.13094465917071732
147,1.0120988105067097,0.35453443373738885,1,,-0.31716104622385355,-0.9592654789768216,-0.05200002409143628,-0.09721219990558602,-0.05612944198034149,-0.055971635062257684
148,1.0136970455323193,0.47458169348803514,1,,-0.28627458897705466,-0.9622046408449829,-0.012095735765778392,0.14337802912992245,-0.04125394591830115,-0.06063310929290782
149,1.014969772937693,0.6189149722255852,1,,-0.25538813173025576,-0.9651438027131443,0.027808552559879497,0.38396825816543095,-0.026378449856260814,-0.06529458352355795
150,1.0157434900021585,0.7786702779438687,1,,-0.24029307144144094,-0.9742245405459573,0.0436807074638124,0.47427367655777297,0.1708631278419053,0.017751100929871717
151,1.0158672049915678,0.9420459594164449,1,,-0.24208192341608017,-0.9898717544162333,0.033858084808528185,0.4038969485830062,0.5630876402211455,0.19457189443620385
152,1.0152365769621798,1.0955409530297253,1,,-0.24387077539080676,-1.0055189682872732,0.02403546215276445,0.33352022060480363,0.9553121526195338,0.3713926879511682
153,1.013817778637639,1.2255891190437729,1,,-0.22857007773338367,-0.9996769074345153,-0.042449174825044136,0.3129717033773757,1.2753095005081834,0.4766128708239189
154,1.011663905428204,1.3203456438505845,1,,-0.21266881300872154,-0.993079662801297,-0.11092504858194789,0.2941742669588975,1.592768615541842,0.5793168394214813
155,1.0089178629228701,1.3713243539816249,1,,-0.21599180479967311,-0.9794790666627289,-0.15228916276096374,0.22713203045847016,1.7348781473762884,0.558496383444935
156,1.0057994385833666,1.3745871441985495,1,,-0.24292350845319538,-0.9572778722330435,-0.16035816773572614,0.10084185461879046,1.6616463066083504,0.38597942126579315
157,1.0025788871199057,1.331258135914666,1,,-0.2698552121067177,-0.9350766778033579,-0.16842717271048852,-0.025448321220889244,1.5884144658404125,0.2134624590866512
158,0.9995428801306084,1.2472626595213034,1,,-0.29310788646273445,-0.9379681776317438,-0.12039866152238445,-0.2002465385583431,1.2915374175722778,0.1547332847110606
159,0.9969598550082442,1.1323423001765158,1,,-0.3160903863152196,-0.9427023934686457,-0.068250553213561,-0.3786070096525234,0.9782366804210955,0.10436027074204902
160,0.9950504806249576,0.9985346044821113,1,,-0.32592835744844467,-0.945005993016617,-0.0375984032998427,-0.3914880723515612,0.7080495550344269,0.07249860638620477
161,0.9939661821246779,0.858400701122778,1,,-0.31718807049571845,-0.9438741999621707,-0.03732828315844562,-0.17048329383371422,0.4987984908679275,0.06680057543295422
162,0.9937761385677336,0.7233206986194406,1,,-0.30844778354299224,-0.9427424069077242,-0.03705816301704855,0.05052148468413277,0.2895474267014281,0.06110254447970366
163,0.9944620211058475,0.6021516301376801,1,,-0.3107344283195546,-0.9402531309063704,-0.07128455718111305,0.12767138520090493,0.047575124120299364,-0.019337154531801952
164,0.9959198329111629,0.5004601858120326,1,,-0.31428555808117525,-0.9376081890457684,-0.10946675024107526,0.18832509822058816,-0.1981494021566366,-0.10834766175171229
165,0.9979686495213382,0.42041450864934565,1,,-0.3186057255977503,-0.9364895837752015,-0.12428398662678172,0.19613852235042248,-0.4141768864498523,-0.16205147809607218
166,1.0003661686285972,0.3612707756529859,1,,-0.3241812089195702,-0.9378624484394817,-0.10096213399167323,0.11769967946427108,-0.5817292914421501,-0.15812347234589388
167,1.0028306635320043,0.3202601975065332,1,,-0.3297566922411179,-0.9392353131036949,-0.07764028135770328,0.039260836581949,-0.7492816964262683,-0.15419546659590738
168,1.0050683321171185,0.2936111121798466,1,,-0.3234464266583541,-0.9454568550929328,-0.08382378380997624,0.08699795389006244,-0.5969362793015603,-0.11182220499778835
169,1.0068041885488173,0.27745079699302294,1,,-0.31524391069627056,-0.9524503224845068,-0.09470463598835953,0.15482269970745083,-0.39366207509628687,-0.06332833202443564
170,1.00781359174108,0.2684133476725772,1,,-0.3100921505437599,-0.9575742184852802,-0.10337044375451886,0.17425312857745956,-0.229437093681851,-0.02953994845002256
171,1.0079505008923477,0.26389796768026014,1,,-0.310721399761114,-0.9591553826509983,-0.10783886788845869,0.10197906938178701,-0.13920817649411416,-0.02361763391188725
172,1.0071680646617696,0.26203220926169557,1,,-0.31135064897843734,-0.9607365468166391,-0.11230729202218036,0.029705010189642823,-0.04897925931078222,-0.01769531937404106
173,1.00552760659289,0.2614645579931018,1,,-0.3136892359749105,-0.9575081058068197,-0.0902254911479136,-0.005890601967916307,0.028322337125756266,0.018273599983190697
174,1.0031935968073948,0.2611283544239569,1,,-0.31638240836586584,-0.9532819592709378,-0.06263610592039881,-0.03387762923240359,0.10294228738645615,0.06047539346996049
175,1.000414565545057,0.2600897444427774,1,,-0.31427728411492206,-0.9491865327260939,-0.04356151894476719,-0.026667970508713657,0.1820032921340089,0.09152742345456256
176,0.9974925663593976,0.25753270098538966,1,,-0.30154020305292406,-0.9453807525703017,-0.043353828705192735,0.058529706305544944,0.2709046846444906,0.09787406049903088
177,0.9947460357001562,0.2528672124557653,1,,-0.2888031219915478,-0.9415749724146952,-0.043146138465628425,0.14372738311564426,0.3598060771506321,0.10422069754318938
178,0.9924721069025852,0.24589520505274448,1,,-0.28409810281173503,-0.9409052775506017,-0.059182144013051226,0.18391429829871903,0.3310925016229811,0.07121960388451262
179,0.9909142577609599,0.23694746223521443,1,,-0.28148034278014894,-0.941050544375214,-0.07943933250731412,0.21240445051425633,0.27181480424777554,0.027993375994493676
180,0.9902396038085481,0.22691670209478781,1,,-0.2840872482515481,-0.941537464354028,-0.09237628204684464,0.21987976046805002,0.19363916879348936,-0.01732796688166254
181,0.9905276449810694,0.21714870843972905,1,,-0.300364950927779,-0.9429183498858575,-0.08615918197826024,0.17236788575409934,0.06601541480092542,-0.06813136255325057
182,0.9917696341569148,0.2091995358743493,1,,-0.31664265360480465,-0.9442992354177544,-0.07994208190937233,0.12485601103782915,-0.061608339197869,-0.11893475822731876
183,0.9938758129364991,0.204506695511478,1,,-0.31290505165993293,-0.9467792775517431,-0.0814045481258926,0.07700355098592454,-0.07937947839862516,-0.11607753497521757
184,0.9966871453871837,0.2040460581179355,1,,-0.30282158147720134,-0.9496078081601439,-0.08530182693666297,0.029043108079598645,-0.06232175877298142,-0.09620716984538961
185,0.9999889935765368,0.20805169286068198,1,,-0.29171880865981586,-0.951650434593291,-0.08831430377665288,-0.01671362173549452,-0.05008374458636058,-0.08141033326426399
186,1.0035259562951768,0.21586541072931403,1,,-0.27742405080170734,-0.9512319721565451,-0.08855598953189166,-0.05556934004405076,-0.05293882162596743,-0.0825014446483875
187,1.0070188975452021,0.22595944386908795,1,,-0.26312929294290094,-0.9508135097197786,-0.08879767528714223,-0.09442505835450389,-0.05579389866571366,-0.08359255603256427
188,1.0101859446332788,0.23614211856136688,1,,-0.27196504292978724,-0.9605808226689355,-0.08584272150246484,-0.1125429831498566,-0.13061614392324358,-0.11435364814919512
189,1.012768173447838,0.24391700022853222,1,,-0.2895828384892943,-0.9742154066797971,-0.08167408774556584,-0.12278731308386852,-0.23276243045378123,-0.15637965172725085
190,1.0145579527573463,0.24692858091575914,1,,-0.3048169119158538,-0.9836732900294455,-0.07532484483698416,-0.12984316147950814,-0.3147737204199728,-0.18587696183180916
191,1.0154248768444512,0.24340230982012567,1,,-0.31095118234799923,-0.9771867171655583,-0.06065117795193007,-0.12472705684337017,-0.31992013613338094,-0.16754628024972681
192,1.0153328992661843,0.23248298597556513,1,,-0.3170854527804441,-0.9707001443013543,-0.04597751106615963,-0.11961095220698242,-0.32506655184704025,-0.1492155986667496
193,1.0143438342484683,0.214397141884719,1,,-0.31278343110706186,-0.9642873724581601,-0.044894877672221244,-0.0921653210176762,-0.25382555720012157,-0.10016925939577867
194,1.0126061227545669,0.19040731288569626,1,,-0.303800221414608,-0.9579077039863902,-0.04990848827970493,-0.05470380381106814,-0.14832106872120585,-0.037345443668876405
195,1.0103317606335778,0.16257669242564105,1,,-0.2954609767300782,-0.9534429140563957,-0.05585455236524165,-0.018577089935349896,-0.05599461773342148,0.01525642096108113
196,1.007766825198865,0.1334060480531564,1,,-0.29019764694181555,-0.9581245891594681,-0.06625450370342979,0.011173902585992603,-0.02661339095739963,0.019032881653524403
197,1.0051613945218576,0.10542768480095052,1,,-0.2849343171535528,-0.9628062642625403,-0.07665445504161791,0.0409248951073351,0.002767835818622222,0.022809342345967678
198,1.002743207971205,0.08083861849747148,1,,-0.2816846908788735,-0.9614747692521743,-0.08177424765240146,0.040762058612685954,0.013757067050635112,0.014348327472241547
199,1.0006973064576026,0.0612326558242239,1,,-0.2794915790744895,-0.9569883901227276,-0.08412373963907664,0.024904561510410813,0.015096710199806155,-0.0005332304079909935
200,0.9991522984412344,0.04746090068565735,1,,-0.277678822081814,-0.9531519965988479,-0.0846387407713913,0.009954769554221712,0.013884693383844127,-0.015850150591935813
201,0.9981732663538184,0.039622658645662154,1,,-0.27822895637764994,-0.9533535310250638,-0.07375727122925815,0.0006439455238295,-0.0031790884564208972,-0.033871686994190485
202,0.9977612425957021,0.03716790080168835,1,,-0.2787790906734859,-0.9535550654512799,-0.062875801687125,-0.008666878506562711,-0.020242870296685922,-0.05189322339644516
203,0.9978589942593544,0.03907826724149635,1,,-0.28133276797158524,-0.9549292758638278,-0.059703520541922704,-0.004134411899484362,-0.04485171786364379,-0.05645569099182846
204,0.9983622917878254,0.04408567769549791,1,,-0.2851070398906668,-0.957017901689209,-0.06122781635107015,0.008831637651292542,-0.07405715588471001,-0.05281865052875856
205,0.9991350917163908,0.050886662466646394,1,,-0.2876364976619339,-0.9588940705760531,-0.06367440403039298,0.019411647569625014,-0.09797452835481484,-0.04711577207299513
206,1.0000265257861845,0.05831708724531347,1,,-0.2794630310134291,-0.9589435325930223,-0.07405086637980184,0.009476465004711039,-0.07642506064054144,-0.023650798015481724
207,1.0008875633266843,0.06546509167876248,1,,-0.27128956436532337,-0.9589929946099891,-0.0844273287287041,-0.00045871755971791067,-0.05487559292732009,-0.0001858239591138578
208,1.0015857216466706,0.07171669640531164,1,,-0.26497587598051825,-0.9605013118491144,-0.08636585973579246,-0.016833835878862217,-0.0462807161770101,0.004784792136523005
209,1.0020169270644217,0.07674369778088164,1,,-0.2599709194030793,-0.9630362300913041,-0.08236659194762301,-0.03774075721989928,-0.04680202578808852,-0.0032591295698500325
210,1.0021141465764372,0.08045249590423653,1,,-0.25621151987294394,-0.9653361759407829,-0.07826987758601138,-0.05707286448747761,-0.04784742807339467,-0.011436610384758933
211,1.0018525028133147,0.08291396222792086,1,,-0.2690703722887581,-0.9645011145011407,-0.07287302870827754,-0.055393764683864956,-0.05588528736607517,-0.021396040023811992
212,1.0012503875997272,0.08429080966321012,1,,-0.2819292247039443,-0.9636660530615394,-0.06747617983080717,-0.05371466488033428,-0.06392314665836327,-0.031355469662378836
213,1.000365957669075,0.08477409568589886,1,,-0.2820917577979181,-0.9621981407093069,-0.0631813842523551,-0.03335780344971408,-0.0626673384092153,-0.025329790020565325
214,0.9992886909382235,0.08453695890618464,1,,-0.27197058123450146,-0.960217634519587,-0.0597792250250135,0.0021275903355380587,-0.05388388563323087,-0.006356560894051955
215,0.9981265492252871,0.08371143060011393,1,,-0.2624454268988823,-0.958165747338433,-0.056797191232237795,0.035808937566114564,-0.046015922333643926,0.010777566737961939
216,0.9969904917627143,0.08239133619689752,1,,-0.2692268719725215,-0.9541609443412241,-0.06530938843736216,0.020133292545816917,-0.063194877528614,-0.022404367607630087
217,0.995979054561036,0.08065914962623398,1,,-0.27600831704582957,-0.9501561413442108,-0.07382158564207097,0.004457647526284542,-0.0803738327227454,-0.055586301951602204
218,0.9951659466334615,0.07862753274088212,1,,-0.27796391591597247,-0.9486338785493171,-0.07729851916335065,-0.002400417850236517,-0.09349883670507471,-0.05918475371294211
219,0.994592996311172,0.07648006360473106,1,,-0.2754296053151452,-0.9494213414058807,-0.07609070369990441,-0.0010547128033552074,-0.10285209306600714,-0.035259087828988005
220,0.9942695555044929,0.07449391074922283,1,,-0.2728952922447791,-0.9502122072179461,-0.07488809238917121,0.0002850880912495755,-0.11217302431485748,-0.01134489120984307
221,0.994177987373925,0.07303174415489841,1,,-0.2703578907743831,-0.9552585887409627,-0.08019345719506356,-0.005758461221393373,-0.08107026540522136,-0.0017734125725425624
222,0.9942834285603959,0.07249991522897709,1,,-0.2678204893038632,-0.9603049702642256,-0.0854988220012149,-0.011802010534331362,-0.049967506494066824,0.007798066065225214
223,0.9945449547786037,0.07328146764839054,1,,-0.2652481155137268,-0.9620852117618786,-0.08354826671724334,-0.01939912631535037,-0.014957381605136589,0.016821399453049276
224,0.9949249851452235,0.0756613330257032,1,,-0.2626383925535303,-0.9603773340915908,-0.07384865176317273,-0.028655394776988287,0.024225668531522287,0.025259333582030967
225,0.9953945095164365,0.07976331586411162,1,,-0.2600286695934612,-0.9586694564213862,-0.06414903680957565,-0.03791166323817432,0.06340871866626828,0.03369726771060072
226,0.9959333369026171,0.08551338975350525,1,,-0.2594761011749517,-0.9567728180911131,-0.06320727292753367,-0.012203489388859371,0.07427578631332242,0.035410595070668495
227,0.9965263726127018,0.09263450907700677,1,,-0.2589951974990728,-0.9548696039377578,-0.06257060481272851,0.014722734787889984,0.08415641489807485,0.03688965844928511
228,0.9971581573639966,0.10066935113477792,1,,-0.2612534008845259,-0.954949586504219,-0.06688414572955877,0.0392696239447109,0.09736920199925826,0.03521351645786033
229,0.9978080926464917,0.10902215481349332,1,,-0.2668715406383963,-0.957462265068018,-0.07726987987734996,0.06089789251359812,0.11466939435175738,0.029667029483526987
230,0.9984479819111465,0.11700948198348717,1,,-0.272489680392541,-0.95997494363194,-0.08765561402564817,0.0825261610835412,0.13196958670510106,0.02412054250892287
231,0.999042219122088,0.12391184801292442,1,,-0.27276010812709495,-0.9606386448742292,-0.07888601107194779,0.04650877679145535,0.10646907807192653,0.0018593582622784173
232,0.9995498490692328,0.12902346620894628,1,,-0.27263957636191055,-0.961167171438846,-0.06871600342442497,0.006277045217134423,0.07783950403796176,-0.021623800852550657
233,0.9999273345482304,0.1317041263630607,1,,-0.2739953293256002,-0.9604362173568053,-0.061708481419731176,-0.004906799186098101,0.07196163739103159,-0.029485897653391893
234,1.0001312351863625,0.13144114810584676,1,,-0.27743518777829024,-0.9579272251513549,-0.059165513953322674,0.02491693435902718,0.09820288524776948,-0.015295377453197395
235,1.0001207384481026,0.12792596230337513,1,,-0.2808750462311481,-0.9554182329457823,-0.05662254648679003,0.054740667905608435,0.12444413310578845,-0.0011048572523101317
236,0.9998605974855352,0.1211390394063468,1,,-0.2793679960561142,-0.9556861436600412,-0.056814308176872996,0.05831164007717123,0.14287374078388076,0.018737677154171028
237,0.9993252063191829,0.11142394350540716,1,,-0.2772954241187952,-0.9562715049582967,-0.05731869922163698,0.058881443439263624,0.16041033570337745,0.03922633973380784
238,0.9985042011124774,0.0995235488265221,1,,-0.27431834613807426,-0.9571858735900556,-0.06051710174049396,0.05361384903946428,0.15293116089467906,0.0443529443585632
239,0.9974092482320133,0.08655378385387211,1,,-0.2698666106752206,-0.958636637892784,-0.06810767411477764,0.03882927866125968,0.10466763502632093,0.02443408480334622
240,0.9960808368575045,0.07390301105220723,1,,-0.2654148752121495,-0.9600874021955834,-0.07569824648943187,0.024044708282333318,0.05640410915560659,0.004515225247156825
241,0.9945932427943829,0.06306412929868749,1,,-0.2740423229939237,-0.9564067232775356,-0.06662619697469276,0.013962764745117293,0.03789947256703031,-0.005940839727072747
242,0.9930556122006152,0.05542466787368098,1,,-0.28474700958562904,-0.9519110673987872,-0.0549077861225741,0.004627693455198326,0.02412114943367653,-0.014894021548250206
243,0.9916074229591364,0.05205116855745825,1,,-0.28855639627595436,-0.9501706028142748,-0.05174572781416586,0.0016654430427406929,0.016698882184893692,-0.01840693940163862
244,0.9904073339306305,0.0535057468763855,1,,-0.2793160489103651,-0.953644489190185,-0.06477703698498771,0.010764106415869494,0.021305800051814,-0.011623858677806744
245,0.9896154760043739,0.05972682868741724,1,,-0.2700757015447758,-0.9571183755660955,-0.07780834615580957,0.019862769788998293,0.02591271791873431,-0.004840777953974868
246,0.9893705396353446,0.06999605434785897,1,,-0.26241366624496126,-0.9515888795718622,-0.08065232411432888,0.014563223226610432,0.008327209008702124,-0.018914259893337535
247,0.9897646391880123,0.08300151078174457,1,,-0.2550783802627521,-0.9441954625541515,-0.08138727459362723,0.006282893987466997,-0.013852676673177218,-0.03730556196146049
248,0.9908206958099487,0.09699437195886904,1,,-0.24894189126563793,-0.9406870458069306,-0.07911435891568279,-0.0067236868400063895,-0.04190971805992194,-0.058828831080087234
249,0.992478217006149,0.11002154938072678,1,,-0.24545813679199363,-0.9457754761207837,-0.07018554528906266,-0.030188661293636083,-0.08297190879306494,-0.08728261238508046
250,0.994592829085522,0.1202019955858044,1,,-0.24197438231834936,-0.9508639064346368,-0.06125673166244255,-0.053653635747265775,-0.12403409952620796,-0.11573639369007369
251,0.9969522416410221,0.12600215761051534,1,,-0.26012918991512224,-0.9587248585706359,-0.05835351475903815,-0.057625387164651494,-0.13079302879098686,-0.13400075514467907
252,0.9993070554678737,0.1264616050504263,1,,-0.28389732969967435,-0.9673050399200901,-0.05701341817469754,-0.05654033600967289,-0.12865323358568156,-0.14962184491281472
253,1.0014103949284447,0.12132674213386664,1,,-0.29938487782580375,-0.9727804515442123,-0.056750334735533384,-0.044182006225716,-0.11387776986983618,-0.1422249088232221
254,1.003057444321815,0.1110687508840888,1,,-0.29323638858258394,-0.9701435305510977,-0.059301337247984,-0.002368163144338746,-0.0660870570783766,-0.07468506408768998
255,1.0041158482265335,0.09678717357756997,1,,-0.2870878993396643,-0.9675066095581116,-0.06185233976031007,0.039445679934997195,-0.018296344289250126,-0.007145219355455056
256,1.0045407235334065,0.08002519934199301,1,,-0.27538239335810266,-0.9650617193810077,-0.06640670276079268,0.036612256479937405,-0.0008245186242263136,0.013279487914816378
257,1.0043725324820603,0.06253850907297918,1,,-0.26191777909450153,-0.962677617755663,-0.07159524200947727,0.01964546253896215,0.007049674357705083,0.018789604774520154
258,1.0037204650131217,0.04606187846561927,1,,-0.25247975607846607,-0.9609795409593377,-0.07360169359390384,0.006854793278738559,0.011154631939113967,0.02203906158362561
259,1.0027368603131637,0.03210860009144465,1,,-0.25563157626313576,-0.9614264410176541,-0.06565879043088793,0.007121509703852078,0.003474414477303893,0.018220168560912305
260,1.001589045666084,0.02182351108286575,1,,-0.2587833964476516,-0.9618733410759486,-0.05771588726825979,0.007388226128952576,-0.004205802984131241,0.014401275538385435
261,1.000434062905171,0.015896847720509713,1,,-0.257684944211886,-0.9625201401589524,-0.061121824661823226,0.011470087806580858,-0.0009196748480703905,0.01576447581583903
262,0.9993998342621315,0.014536100977488304,1,,-0.2549750819347789,-0.9632427271595158,-0.0688304593466623,0.01699838932660748,0.006524134882326832,0.01909236831841096
263,0.9985742239910348,0.017487045956487254,1,,-0.25284507374646603,-0.9636194293394588,-0.07531386014405775,0.020562337440164908,0.01194059072799967,0.020356366535261773
264,0.9980017647591046,0.02409286209368842,1,,-0.25292481251321636,-0.9626780103850314,-0.07712805725026423,0.01664039549448825,0.009631070055686931,0.013755137615767122
265,0.9976867541317685,0.033381061905608925,1,,-0.2530045512799628,-0.9617365914306503,-0.07894225435638214,0.012718453549003061,0.007321549383486939,0.007153908696594738
266,0.9976009252184022,0.04417036453128119,1,,-0.25373957474270736,-0.9625326608744665,-0.0758945289726217,0.016110192069010418,0.021401873744615232,0.008452459687924073
267,0.9976937700568962,0.05519147796566108,1,,-0.25476813353718575,-0.9641070397102564,-0.07066890131284338,0.022778099916015624,0.04282404299876286,0.013289723746372916
268,0.9979036758416141,0.0652151564325966,1,,-0.25555113753398273,-0.9651298548346319,-0.06590608807941097,0.02774637498798581,0.06344316989205016,0.018007162150207527
269,0.9981682731072546,0.0731779054358118,1,,-0.25516357568457865,-0.9635233519871174,-0.06334952276105515,0.024612458221918196,0.08023417382248164,0.022153388670312996
270,0.998432827191546,0.07829231477413237,1,,-0.2547760138351557,-0.9619168491395245,-0.060792957442574555,0.021478541455697584,0.09702517775373284,0.026299615190620875
271,0.9986560873645953,0.08012767299247131,1,,-0.2571643349128084,-0.9620032901132356,-0.06032682395780192,0.01781959253580846,0.0972140261828528,0.025891584629939766
272,0.9988135356823389,0.07864865789843224,1,,-0.2610072176577423,-0.9629768330475617,-0.06095607601081628,0.013885526953746806,0.08870335103008477,0.023097124977594873
273,0.9988982349677679,0.07420539568113897,1,,-0.2643787041707697,-0.9635909676974279,-0.0619233520111775,0.009778811042771294,0.07925952210199358,0.02096800072383529
274,0.9989194768314137,0.06747571342084153,1,,-0.2648286991496999,-0.9619776592971733,-0.06498554102555354,0.004602089813758597,0.06403244614647102,0.022962311498004092
275,0.9988994223967685,0.05936806320819884,1,,-0.2652786941286521,-0.9603643508968401,-0.06804773004007907,-0.0005746314155068227,0.04880537019020511,0.02495662227227025
276,0.9988681194596958,0.05089964815392682,1,,-0.2619568673409284,-0.9604054271692539,-0.06981947029896736,-0.0067424971515107025,0.023930650132927788,0.018456484127933392
277,0.9988576231307416,0.04306765696016992,1,,-0.2563399631247463,-0.9614531631289828,-0.07080599853180351,-0.013513454318410539,-0.006814466667772096,0.006787645237339209
278,0.99889621197644,0.03673166961145242,1,,-0.2513933109868574,-0.9625062570052733,-0.07088030254289951,-0.018748682025840055,-0.033225976513375485,-0.0038470302374472173
279,0.9990036939497767,0.03252220674035901,1,,-0.25219193014106706,-0.963605277906427,-0.063135196811348,-0.010819933581963178,-0.022490644991454502,-0.0056170567576943825
280,0.9991885177886113,0.030785030544281854,1,,-0.2529905492953157,-0.9647042988076346,-0.05539009107941838,-0.0028911851376992254,-0.01175531346900943,-0.007387083278027958
281,0.9994469537399256,0.03156494870248464,1,,-0.2553870456306772,-0.9649909546983497,-0.05586595796518801,0.009476515119639891,0.005964158418344483,-0.0041735232146956035
282,0.9997641357121205,0.03462766318220323,1,,-0.2589066509520001,-0.9647066189922976,-0.06212014644461101,0.024964246583855078,0.028592612608067097,0.002542878581628969
283,1.0001164095162411,0.03951342162059752,1,,-0.2621149345599077,-0.964376670595908,-0.06819006921302641,0.039142327931803785,0.04965042032041739,0.008685937101404402
284,1.0004743061409367,0.045611793220474935,1,,-0.26118774656913035,-0.9634408216884824,-0.07181228087568851,0.035923547362330326,0.04984439611899693,0.007212935660230742
285,1.0008055758531589,0.0522442587566243,1,,-0.260260558578353,-0.9625049727810567,-0.07543449253835063,0.03270476679285686,0.05003837191757647,0.005739934219057082
286,1.001077998890687,0.05874218098187191,1,,-0.2606126441569099,-0.9625613917171173,-0.07393550869024618,0.0272912127414118,0.05148889716972268,0.0038380305499835904
287,1.0012619619969878,0.06451179436539309,1,,-0.2619997154790676,-0.9634205967784322,-0.06829326379862302,0.020101995283653692,0.053956023406694094,0.0015891270665510644
288,1.0013328886069255,0.06908273203801064,1,,-0.26329166728623316,-0.9642810100001328,-0.0628859726567647,0.01379257537765167,0.05669874628643182,-0.0003953846578071138
289,1.001273494331299,0.0721398488959973,1,,-0.26200287994897703,-0.9651742024752357,-0.06385333911788453,0.03135341995348813,0.0669188311277997,0.004793459810328163
290,1.0010756293790946,0.07353882315985238,1,,-0.26071409261172085,-0.9660673949503387,-0.06482070557900436,0.04891426452932459,0.07713891596916758,0.00998230427846344
291,1.0007413490056662,0.07330512148666447,1,,-0.25918950000121543,-0.9653906974313411,-0.06735827278512524,0.0504388907162671,0.07623670118695919,0.01043317529548796
292,1.0002829429985958,0.07161539565543917,1,,-0.2574457674323891,-0.9632550604096535,-0.07135506828263499,0.03706064309008595,0.0649982447934651,0.006480924656303579
293,0.999721943582727,0.06876198095242252,1,,-0.2557137419524285,-0.9611199655783828,-0.07534158347047086,0.02368431450472476,0.05376863439341547,0.0025271953033190807
294,0.9990874614200027,0.06510482702246535,1,,-0.26476803372617863,-0.9594844174671768,-0.06985634330738527,0.012076092690977638,0.05068927319748714,-0.002788945863640026
295,0.9984143441257693,0.06101887014053658,1,,-0.27382232549948665,-0.9578488693560511,-0.06437110314456747,0.0004678708777972181,0.04760991200170914,-0.008105087030339604
296,0.9977414808023187,0.056846223037371434,1,,-0.27745696369484874,-0.9575176136395425,-0.059507354084744016,-0.002256334735126711,0.04753099596941435,-0.006648962340858275
297,0.9971101885170801,0.05286083740800892,1,,-0.2753102149358525,-0.9585777049761549,-0.05530657739130097,0.004496437215553611,0.050652789036859866,0.002031441337304994
298,0.9965622795394158,0.04924949927319336,1,,-0.27316346617685633,-0.9596377963127675,-0.05110580069785793,0.011249209166233934,0.053774582104305385,0.010711845015468263
299,0.9961373597320077,0.04610891932220313,1,,-0.2685747680203503,-0.9582086989170241,-0.05389329694820692,0.016472677691266,0.04522444947360443,0.011142212638582037
300,0.9958692133309945,0.043455766627847496,1,,-0.2639017457320398,-0.9566936461450685,-0.05692210862084699,0.021643337102086498,0.03627126794941029,0.011287694288885777
301,0.9957816474711075,0.041245389234317614,1,,-0.26177623263605004,-0.9564094553960215,-0.06016036581275476,0.022907665405065798,0.03159489240278106,0.010150134038804846
302,0.9958846126730354,0.03939528563416455,1,,-0.26277203145254074,-0.9576333668773404,-0.06365524417670813,0.01938579789842851,0.032158633549446945,0.007440538649369462
303,0.9961715116659684,0.03781017651918485,1,,-0.2637678302689828,-0.9588572783585996,-0.0671501225404909,0.01586393039196315,0.0327223746960853,0.004730943260066357
304,0.996618316177498,0.036406008972169966,1,,-0.2670729979267901,-0.9584689756986562,-0.0628410820353801,0.009844544170358153,0.03521293479689741,0.005185624923992022
305,0.9971846554949614,0.03513023853301496,1,,-0.2705462402027253,-0.9579633369633741,-0.057964076525664675,0.0036433898844666374,0.03784372774148736,0.005870600964605686
306,0.9978167006062335,0.03397555038647843,1,,-0.27224466788622875,-0.9577983043884928,-0.05681444269507696,0.003073710549323864,0.03957911849622208,0.008187925099943962
307,0.9984515394846827,0.03298422131214424,1,,-0.2714404908378539,-0.9581135487914857,-0.06092064687801586,0.010444779458935545,0.040051933561785956,0.012806966881557452
308,0.999022719619902,0.03224103106099383,1,,-0.27063631378951825,-0.9584287931944631,-0.0650268510607543,0.01781584836818738,0.040524748627326745,0.017426008662945445
309,0.9994665755777838,0.031854385287630384,1,,-0.2685225963087178,-0.9602960642370738,-0.06774195113637993,0.007937082388128947,0.026697069857853126,0.013610588336598051
310,0.9997287976987661,0.031928179295700056,1,,-0.26625963814087017,-0.9623402107057739,-0.07029851518880573,-0.00390754668814168,0.0112396471938432,0.008833941546371998
311,0.9997704826245238,0.03253020937280167,1,,-0.26524921749285385,-0.9632865658747463,-0.07113972130611448,-0.014926531729834873,-0.0033852125356662534,0.004553142391418687
312,0.9995727723165527,0.03366504286262069,1,,-0.2662783960816481,-0.9624453064919458,-0.06918768356444467,-0.02460105968782783,-0.01665434862682101,0.0010797685166191897
313,0.9991392786216305,0.03525873432845234,1,,-0.26730757467039207,-0.9616040471091865,-0.06723564582287016,-0.034275587645348486,-0.02992348471732798,-0.002393605358010741
314,0.9984958513859912,0.03715981075528776,1,,-0.26766923989779606,-0.9599293008484554,-0.06298812332417479,-0.02458395905387936,-0.014559384994029279,0.001882623039650714
315,0.9976877822976467,0.0391573844273781,1,,-0.2679251460841989,-0.9581224991442292,-0.05837691032760307,-0.011824008142919822,0.005341288432237519,0.0073866778033477125
316,0.9967750566243286,0.04101454840911117,1,,-0.2669493650506741,-0.9570054383586865,-0.055693320663548915,0.0032325538888773485,0.0251748469988962,0.012349613239132183
317,0.9958265854403189,0.04251284504614935,1,,-0.2636454846097388,-0.9571921058232098,-0.05665326863231238,0.02263010355493263,0.04488154700918288,0.016289740639193983
318,0.9949143601977363,0.04350030891511605,1,,-0.26034160416864216,-0.9573787732877421,-0.0576132166011227,0.04202765322193488,0.06458824702043162,0.020229868039448134
319,0.994108176248199,0.04393200244131354,1,,-0.2586790784654953,-0.9584916513367321,-0.06278822612993776,0.04576609357563813,0.05235880068297537,0.01467003498606402
320,0.9934711046361846,0.043890927149411785,1,,-0.25735567176724106,-0.9597958930225146,-0.0688341061961531,0.0462692177321645,0.033531052391784194,0.007147422612318877
321,0.9930554735762279,0.043580994159643754,1,,-0.2566471386397849,-0.9595800006527284,-0.07461693700820805,0.042427005118974945,0.017184735222571686,-0.00011458297202621918
322,0.9928989900701163,0.043291553930917444,1,,-0.2572974082144973,-0.9560047798606547,-0.07981845801290027,0.028982078020195118,0.006322106852210342,-0.006800676326611912
323,0.9930209186765425,0.04334138636754954,1,,-0.2579476777892415,-0.9524295590684064,-0.08501997901784641,0.015537150920758918,-0.004540521518681304,-0.013486769681524013
324,0.9934188179707384,0.04401552802866037,1,,-0.2632976080972225,-0.9515144647695053,-0.0810411533354569,-0.008307895388752835,-0.013429052926311587,-0.013783530005734831
325,0.9940668411112,0.045509101328769154,1,,-0.26986456787877466,-0.9512882398442385,-0.07468497466316158,-0.03484616836429042,-0.021806369945566242,-0.012425701401987177
326,0.9949166502260752,0.047888730937103004,1,,-0.27611691118776727,-0.9517828669598166,-0.06707683873966444,-0.05210828754384889,-0.02845710962328203,-0.009655371344801097
327,0.9959014745690696,0.0510762721012154,1,,-0.28154837537522787,-0.954158299566627,-0.05620216830066619,-0.04516760224840015,-0.030602963468684952,-0.003199624115658637
328,0.9969429960053293,0.05485437487436389,1,,-0.2869798395629537,-0.9565337321735532,-0.045327497861137045,-0.03822691695261258,-0.03274881731419263,0.0032561231137989855
329,0.9979599589852758,0.05889085633509341,1,,-0.2809150040881244,-0.9580609538762683,-0.052653773723694126,-0.02107020262548825,-0.04102981581181727,0.008546561277843886
330,0.9988770008873961,0.06277858863987451,1,,-0.27121662467221574,-0.9593200883090038,-0.0657326778317432,-0.0006845893064823156,-0.05124990065318515,0.013468689479783396
331,0.9996322998812998,0.06608760141233214,1,,-0.2627882889139027,-0.9610208651889646,-0.07529252829722763,0.007579978201937668,-0.060822901980656416,0.014873037929685097
332,1.0001830894614063,0.06842473929631586,1,,-0.25832480571565153,-0.9641003719856938,-0.07386651323222716,-0.0219952239754019,-0.06837582257101932,0.005295497712549482
333,1.0005085894333021,0.0694936355391407,1,,-0.2538613225174003,-0.9671798787824232,-0.0724404981672267,-0.05157042615274147,-0.0759287431613822,-0.004282042504586134
334,1.0006102615339407,0.06914546949009262,1,,-0.2511447104798679,-0.9671202902822972,-0.0688013044808473,-0.06207119191073144,-0.06299137443571741,-0.010407892481404888
335,1.0005095641732542,0.06741075372658578,1,,-0.24908944417207243,-0.965872275688757,-0.06432422631708089,-0.06535059105938876,-0.04229661315605102,-0.015226971442576615
336,1.000243685108291,0.06450523812346712,1,,-0.24916301047973627,-0.9646566903951947,-0.06039087140672534,-0.06415460664958192,-0.02086878221030655,-0.01844616709998843
337,0.9998600447707708,0.06080840717688033,1,,-0.25733524159015364,-0.9635644750786849,-0.05852598930387634,-0.04593303223329369,0.0033478473703488407,-0.01557896662262809
338,0.9994104992893471,0.05681904306153851,1,,-0.265507472700571,-0.9624722597621752,-0.05666110720102734,-0.027711457817005455,0.02756447695100423,-0.012711766145267749
339,0.9989460204474876,0.05309658646589327,1,,-0.26850059233127266,-0.9611250680153053,-0.05578404353295242,-0.010231186893036311,0.04277239146375886,-0.005166400316664203
340,0.9985123122199226,0.05019807646147732,1,,-0.2691768203373564,-0.9596638117695838,-0.05534888351326329,0.006917459607395906,0.05395022927806908,0.004471757327595971
341,0.9981465692146263,0.04861850503690957,1,,-0.26910518622249585,-0.958482871808617,-0.05688966468951347,0.021549839040851386,0.05986812126096117,0.013126570446307257
342,0.9978754877822599,0.048739346023147015,1,,-0.26547555728258315,-0.9586355518593598,-0.06783109386346103,0.024210940679270432,0.040761534100056965,0.017103068358454578
343,0.9977146079204285,0.050788129069825015,1,,-0.2618459283428476,-0.9587882319100952,-0.07877252303687446,0.026872042317559564,0.021654946940085514,0.021079566270407767
344,0.9976689508495081,0.054812150735852376,1,,-0.26190596793802257,-0.9594639608394298,-0.08074521455459967,0.012685017982405214,-0.008557713974845945,0.014642378399820334
345,0.9977346904791503,0.060670334002257374,1,,-0.26389694982753414,-0.9604134209161436,-0.07802422838748638,-0.01031926424754444,-0.04458260092751685,0.0027553171529490837
346,0.9979013537638565,0.068046271147564,1,,-0.2653668598554406,-0.9611928299194837,-0.07495385302459052,-0.030206930352087814,-0.07683936155547615,-0.007278484160110732
347,0.99815393706269,0.07648143019783975,1,,-0.2636150942660828,-0.9609208495903018,-0.06972327916311531,-0.03082522706796253,-0.08579860489829988,-0.0058539765890600485
348,0.998474462527685,0.08542218604921704,1,,-0.26186332867681056,-0.9606488692611331,-0.06449270530189545,-0.03144352378380707,-0.09475784824068623,-0.004429469018078909
349,0.998842855749476,0.09427116544575566,1,,-0.26142259590148037,-0.9604795393497301,-0.06527097736411173,-0.02827639972327613,-0.09921530737756777,-0.004449001447694291
350,0.999237421747887,0.10243426820317483,1,,-0.261778633309978,-0.960372594446051,-0.0697010796629735,-0.02280871508480412,-0.10093684153176384,-0.0053461381634317545
351,0.9996353997325127,0.1093586656499502,1,,-0.26235457581717125,-0.9603937970230262,-0.0741675088370613,-0.020010017128199106,-0.1017509326411447,-0.006536653842101209
352,1.0000139705360334,0.11456162597496329,1,,-0.2648097714965072,-0.9615101154518715,-0.07894437827085879,-0.040019802090145405,-0.09481024575630981,-0.010234311692750013
353,1.0003517411969884,0.11765313168530052,1,,-0.2672649671757233,-0.9626264338806624,-0.08372124770442306,-0.060029587051114844,-0.08786955887181377,-0.0139319695432183
354,1.0006303420090976,0.11835599181296531,1,,-0.26728913136258875,-0.9629688587783054,-0.08113566998603029,-0.06748175687510195,-0.08832596998107085,-0.01535031015008237
355,1.0008355825968007,0.11652558107853915,1,,-0.2656065923422717,-0.9627679725029982,-0.07338129367049427,-0.06611786565857186,-0.09397550627590015,-0.015168458385140183
356,1.0009577720614062,0.11216833233146864,1,,-0.26385961504279176,-0.9625766884530875,-0.06600920324830184,-0.06383399601537146,-0.09957902242553901,-0.01459671293611272
357,1.000991248703357,0.10545499390010062,1,,-0.2612604002294886,-0.9625123999838604,-0.06369308860336262,-0.04938282245964341,-0.10457389268414204,-0.008868373799584241
358,1.0009336263119724,0.09672273610619288,1,,-0.2586611854160586,-0.9624481115146303,-0.06137697395831033,-0.034931648903209885,-0.10956876294298892,-0.003140034662776113
359,1.00078546249935,0.08646032894045087,1,,-0.25826322552153275,-0.9629923465356425,-0.06349003252141039,-0.024054268873683376,-0.09973540338548852,0.001994907048842664
360,1.000550855829747,0.07527311437169011,1,,-0.25964411915531604,-0.9640283347600244,-0.06918234504629267,-0.016064902934757392,-0.0779192204378871,0.006650319064266043
361,1.0002389545326495,0.06382898863699954,1,,-0.26092097900822914,-0.965018053233623,-0.07476546315101491,-0.008132662479435655,-0.05602136763271875,0.011365028621345577
362,0.999865753141097,0.05279191405766227,1,,-0.2593985373158029,-0.9647627627906052,-0.07741041918991845,-0.0017375328760486691,-0.03192597322412194,0.0176752939618272
363,0.9994551763179418,0.042753767209400884,1,,-0.2578760956233023,-0.9645074723475751,-0.08005537522895109,0.004657596727650521,-0.007830578814348815,0.023985559302616883
364,0.999038517793675,0.03417687712828772,1,,-0.2583571542430966,-0.9628045467638856,-0.0825999959594456,0.0029610453285162245,0.0017884396307040833,0.02083666846433547
365,0.9986518076226901,0.027357728691833217,1,,-0.2606979917946327,-0.9597578323526884,-0.08505147894918175,-0.006246729183024927,-0.00203045299456096,0.008907175364094817
366,0.9983314060507036,0.022417637255339035,1,,-0.26304114612018514,-0.956714595989613,-0.08749374478382446,-0.01545516777477491,-0.0058456184782454046,-0.003010007377305118
367,0.9981087684997832,0.019320151390452678,1,,-0.2670737912500906,-0.9562077014619264,-0.08321446607660629,-0.025147881782764912,-0.006942792475084763,-0.0059499485209125996
368,0.9980056387015314,0.01790904557918719,1,,-0.2711064363801929,-0.955700806934215,-0.07893518736917922,-0.034840595791228106,-0.008039966471977683,-0.008889889664663607
369,0.9980307945013849,0.017956516012206904,1,,-0.2722036643624743,-0.9564595040477506,-0.07511616659436882,-0.035438627069941324,-0.004438661639070865,-0.006427020309715521
370,0.9981789788174912,0.01920992409563446,1,,-0.27017312501221896,-0.9585667237026059,-0.07178756324683656,-0.026346024919111987,0.00416900101530962,0.0017926915420295357
371,0.998432025071431,0.021427649298408895,1,,-0.2681425856618645,-0.9606739433575638,-0.06845895989914179,-0.017253422767838762,0.012776663670110324,0.01001240339417587
372,0.9987616728465998,0.024399335426281574,1,,-0.2669242745838283,-0.9606940521318891,-0.0714734188650264,-0.007639180586809255,0.01723464708275101,0.009088753625371676
373,0.9991333190631235,0.027950974336822327,1,,-0.2657337631295873,-0.9606427266810318,-0.0747049778162887,0.0019929154378896304,0.02155060204632566,0.00785215979642078
374,0.9995099902502068,0.03193899103649692,1,,-0.26514975205992924,-0.960518026901225,-0.07762578157824157,0.0017684862133780263,0.024893443177635186,0.007138921268433026
375,0.9998560565859373,0.03623901139265352,1,,-0.2653079940588764,-0.9603035294523795,-0.08016627396878274,-0.01051864947817103,0.027045358883966048,0.007066180402110382
376,1.0001404767832565,0.04073457719162284,1,,-0.2654662360578312,-0.9600890320035236,-0.08270676635944796,-0.022805785170319934,0.029197274590401966,0.006993439535784188
377,1.0003395323999946,0.04530943094382521,1,,-0.26911149565419024,-0.959595582820446,-0.08055217799198144,-0.01981496114485596,0.03768533283784832,0.010492904037510993
378,1.0004390325703636,0.0498448565906129,1,,-0.27300939425908616,-0.9590819232175478,-0.07805742485202166,-0.01571722885536784,0.04663245294111208,0.014251179513734754
379,1.0004358707805234,0.054221562334909816,1,,-0.27462847174175636,-0.9592691862684303,-0.0774123686157947,-0.01052464362148231,0.05423554618437305,0.016733385024196145
380,1.0003386622065342,0.05832420649099445,1,,-0.273038034967038,-0.9604436357327225,-0.07937244383385277,-0.003790056648664408,0.059945698674539444,0.01741836094563126
381,1.0001670760937256,0.062046163246760565,1,,-0.2714475981923195,-0.961618085197015,-0.08133251905191081,0.0029445303241534943,0.06565585116470583,0.018103336867066378
382,0.9999495070945886,0.06529254358680009,1,,-0.2681397935211971,-0.9611389969020132,-0.08302616246933572,0.000828283414518913,0.06426247706876391,0.019055035452676002
383,0.9997189846290083,0.06798066190621707,1,,-0.2646368780860251,-0.9604720496068936,-0.08468953647709976,-0.002293509811831337,0.06206206884594029,0.020037036492910807
384,0.999507693826515,0.07003868109339544,1,,-0.26307160370454463,-0.9594970251300649,-0.08495893126241123,-0.0043328524756664445,0.06096488268916611,0.019751947081536093
385,0.9993410322789473,0.07140446654147647,1,,-0.26465771812282546,-0.9580209424320832,-0.08296115148504771,-0.004611692298794254,0.06166198224698564,0.01740605561936143
386,0.9992325219235418,0.0720270864278115,1,,-0.2662438325411063,-0.9565448597341014,-0.08096337170768417,-0.004890532121922063,0.06235908180480516,0.01506016415718677
387,0.9991809375682702,0.07187256707044366,1,,-0.2676431226452915,-0.9568493938096296,-0.0816584173861275,-0.004269053142795745,0.06963583511220985,0.014698114818559479
388,0.9991706307287416,0.07093363608416231,1,,-0.2690128842869825,-0.9574353627493712,-0.08277907680569493,-0.003505274538290371,0.07795253367145918,0.014649621067545507
389,0.9991752924986977,0.06924099397649867,1,,-0.2700684253512089,-0.9582831190451001,-0.08393184368276306,-0.0033061513942467995,0.08000974385409544,0.013719509095814859
390,0.9991645098608558,0.06687222201855215,1,,-0.2705307838089318,-0.9596250750124536,-0.0851452227116561,-0.004172979438193186,0.07025035163319299,0.01112508666298965
391,0.9991116896864234,0.06395464744603026,1,,-0.2709931422666321,-0.9609670309797417,-0.08635860174048991,-0.005039807482097255,0.06049095941276697,0.0085306642302911
392,0.9990014926398896,0.06066033116746367,1,,-0.27232616559619566,-0.9597887048992512,-0.08733778828794582,-0.010072779003137933,0.05565153701462372,0.00870026967861299
393,0.9988349733267339,0.05719374593040513,1,,-0.27383871488522854,-0.9580907115305535,-0.0882686857274485,-0.01596478472810639,0.051826583365690126,0.009439801367885196
394,0.9986311520093029,0.0537743617643329,1,,-0.27427324039549483,-0.9570241540325718,-0.08774454917489347,-0.018335376477605324,0.04867264500763781,0.011557277643866656
395,0.9984245740683793,0.05061671751327381,1,,-0.27232861750033277,-0.9573511461709628,-0.0840092201882836,-0.012934371153312052,0.04699960622769401,0.016715813617185493
396,0.9982592846190738,0.04791005507534204,1,,-0.27038399460526574,-0.9576781383093378,-0.0802738912018561,-0.007533365829282451,0.04532656744783189,0.021874349590252494
397,0.9981803466989772,0.045798986260732165,1,,-0.26721050133536145,-0.9573877564570958,-0.08332732539154004,0.0012874245537911149,0.04246382873751942,0.023121807423894393
398,0.998224479499606,0.0443664690522923,1,,-0.26371933363541655,-0.9569377776819166,-0.08813571805035383,0.01099226120548474,0.039293541521643334,0.023358215155307244
399,0.9984115846661414,0.0436207325627743,1,,-0.2608254720485024,-0.9566299188772186,-0.09345072475304832,0.015767589323807778,0.03509263076836898,0.021830961703492035
400,0.9987388543148298,0.0434885581073636,1,,-0.25948785059041646,-0.9566923439125583,-0.10008567961721655,0.007699420900438604,0.02820650104179024,0.015708609945837036
401,0.9991787833570366,0.043818075922150646,1,,-0.25815022913239577,-0.9567547689478948,-0.10672063448106088,-0.00036874752253668796,0.021320371315547676,0.009586258188480927
402,0.9996817417583158,0.044394216353411925,1,,-0.263291889779797,-0.9578405159855582,-0.10061455771508844,-0.011243001012546343,0.02817898833341676,0.003367144752423289
403,1.0001828810717885,0.044968251363798034,1,,-0.2704782065183459,-0.9592491910160617,-0.09048781515554852,-0.023002766019723085,0.03937501182519641,-0.0028825036031625627
404,1.000612222114934,0.045299172384014534,1,,-0.2766668419369444,-0.9604437762420435,-0.08212507103348511,-0.02763330253049024,0.049447614929007976,-0.005184720837346462
405,1.000906024551406,0.045200059525949035,1,,-0.2797457208374714,-0.96097104701423,-0.07926068147565732,-0.010042149260954595,0.056018534876397894,0.004817140813494522
406,1.001017204402644,0.04457923789417352,1,,-0.2828245997381487,-0.9614983177864421,-0.07639629191768971,0.007549004009439834,0.0625894548241086,0.014819002464823787
407,1.0009227884488001,0.04346562821879447,1,,-0.2806635060624586,-0.9592921179862135,-0.08132637927823501,0.019822024054000666,0.052079885968919236,0.016740293031859355
408,1.0006271573295649,0.04201058545536782,1,,-0.27652145710825415,-0.956052538167177,-0.08920314431133698,0.0300845404314295,0.035113091629853856,0.015606748920335093
409,1.000160907812373,0.040463729056368095,1,,-0.27370798084286063,-0.9535778643049763,-0.09638714912199636,0.034848450539132755,0.02203651054471349,0.01382630987378318
410,0.9995761569315667,0.039126278561342674,1,,-0.2759400262627293,-0.9540080744771199,-0.10094025781906686,0.01873029871077077,0.023733795802820774,0.009589157354921692
411,0.9989396092259654,0.03829063541400325,1,,-0.27817207168270686,-0.9544382846492845,-0.10549336651635961,0.0026121468816219127,0.02543108106101092,0.005352004835853351
412,0.99832458504946,0.03817815042649809,1,,-0.2809407462535534,-0.9547373419535644,-0.09840650530952011,-0.010405493638838855,0.02286306818477841,0.006993255101177248
413,0.9978027432002236,0.038887572104401205,1,,-0.28394916304735474,-0.9549778059443218,-0.08611941922707414,-0.02203796253398202,0.01838950833177744,0.011260716313737923
414,0.9974358938681682,0.040364720909658224,1,,-0.28485300688432896,-0.9547603773438486,-0.07710903868701488,-0.028577959232209633,0.011545296781073964,0.014969260481754478
415,0.9972683814203652,0.04240027473159231,1,,-0.27576409592990014,-0.952368821982941,-0.08365683345609613,-0.010938311417136365,-0.006555042065893868,0.01602400214851024
416,0.997320958633194,0.04465813829309919,1,,-0.2666751849750276,-0.9499772666219168,-0.09020462822549703,0.006701336398798052,-0.02465538091374534,0.017078743815317498
417,0.9975875049659504,0.046732116713648617,1,,-0.2630190583387208,-0.951820978315553,-0.09855929397464959,0.002461548129139579,-0.040076524206734146,0.01193510826108378
418,0.998035869388392,0.04822340482536992,1,,-0.26220251781161513,-0.9558783625558281,-0.10785836786439675,-0.01321409681094043,-0.054097316218790464,0.0035517295428154675
419,0.9986132584981392,0.04882606746267325,1,,-0.26284805284414386,-0.9595704662519946,-0.11347064684272386,-0.03006350994580976,-0.06422556180701264,-0.0037339900037330685
420,0.9992551849782952,0.048403642969382245,1,,-0.2725118169500623,-0.9610094828193255,-0.09634240407276948,-0.05415284333073802,-0.05034418962706786,-0.004249237399357457
421,0.9998957435017481,0.04703912658407919,1,,-0.28217558105598073,-0.9624484993866563,-0.0792141613028151,-0.07824217671566627,-0.03646281744712308,-0.004764484794981845
422,1.0004765757325838,0.04504408385361334,1,,-0.28392375585290613,-0.9603726098984533,-0.07500303191341087,-0.06874124078687349,-0.025448217521428743,-0.004446105110269152
423,1.0009525515418494,0.04292049154385537,1,,-0.2808671247326561,-0.9561631532489289,-0.07863266085314638,-0.03885082803615763,-0.016173764002927922,-0.0036217092375439475
424,1.0012936223548894,0.04127971882187857,1,,-0.2781283927448533,-0.952485026341078,-0.08321838758733889,-0.01155006966837589,-0.008312891182106031,-0.0030456451097215778
425,1.0014838189344903,0.04073393970665902,1,,-0.2780981078931871,-0.9533337394593999,-0.09594990670364585,-0.006312731051964816,-0.012495488131761344,-0.004585325677033453
426,1.0015192303044318,0.04178242110453132,1,,-0.278067823041521,-0.9541824525777219,-0.10868142581995281,-0.0010753924355537412,-0.016678085081416657,-0.006125006244345329
427,1.0014066273720275,0.044715891327121275,1,,-0.276660834003061,-0.9557113062407357,-0.11255504241330996,-0.01402799670483272,-0.015490996421236507,-0.006581485456747903
428,1.001163410837131,0.049556773569231403,1,,-0.2742884679602839,-0.9577170902768484,-0.1102172916805231,-0.039735812108631446,-0.010538559287240715,-0.006278398678660742
429,1.0008183991326123,0.0560441146509309,1,,-0.2718710348343979,-0.9596933846594498,-0.10777021020232988,-0.06377675539812712,-0.006062310204987022,-0.0058212888182312735
430,1.0004121895079028,0.06366276058954899,1,,-0.2688601509562218,-0.9612813544413482,-0.10388344351208037,-0.06586805292143422,-0.007856583596735767,-0.0033359777128240654
431,0.9999956592854946,0.07170918092972588,1,,-0.2658492670781926,-0.9628693242231693,-0.09999667682202058,-0.06795935044463922,-0.009650856988396916,-0.0008506666075381875
432,0.9996256093082189,0.07938243650580044,1,,-0.26743504552539005,-0.9609886854463059,-0.09541830564467473,-0.07443801608544673,-0.013947405662835135,-0.0038428561763802598
433,0.9993574604491952,0.08588759115452137,1,,-0.2727311433935254,-0.9563082661356382,-0.09028168733550392,-0.0844580637073047,-0.02026373302013987,-0.011256357490798173
434,0.9992360752416692,0.09053883036017447,1,,-0.27748321887358307,-0.951814350736018,-0.08566281427732365,-0.09359010665258015,-0.027757498485765177,-0.01825497495777982
435,0.999286830895523,0.09284957710005011,1,,-0.26771684032396215,-0.9522977092835008,-0.09486113108176995,-0.07902375894775097,-0.06667383299183419,-0.014181489146337996
436,0.9995095693100164,0.09259720983167657,1,,-0.257950461774818,-0.95278106783096,-0.10405944788576718,-0.0644574112436329,-0.10559016749600333,-0.010108003335095034
437,0.9998776468322312,0.08985167199769854,1,,-0.2600109217157886,-0.9546121729195967,-0.11194819743412404,-0.04161879261212743,-0.11225408207968236,-0.012916544035247697
438,1.0003429616137065,0.084961413003655,1,,-0.2730372846855497,-0.9576929152541644,-0.11862270975903791,-0.011110083541339445,-0.08901339370624411,-0.022106133688553607
439,1.0008459181422535,0.0784970978614633,1,,-0.28603547454923767,-0.9607664777510658,-0.12527696006429648,0.019315327140103575,-0.06577565412303044,-0.0312518625517217
440,1.0013275393563565,0.07116224905384919,1,,-0.28203497365375046,-0.9595079712144712,-0.11970579909891443,-0.0005186678750930361,-0.04431711328438271,-0.013933487127371464
441,1.0017402091954974,0.06368769255115332,1,,-0.27803447275845866,-0.9582494646779379,-0.11413463813380438,-0.02035266288932137,-0.022858572446782573,0.0033848882961333053
442,1.0020542526101903,0.05673029273535439,1,,-0.27417380449013806,-0.957320930722698,-0.10861797533425271,-0.030889876136381462,-0.002433660340879304,0.013341598377563667
443,1.002259346643558,0.05079438168446614,1,,-0.2704619616571549,-0.9567435902920306,-0.10315931554417467,-0.031532420125026175,0.01689114909686026,0.015463205347563175
444,1.002361644709144,0.04618727918662804,1,,-0.266750118824353,-0.9561662498613913,-0.09770065575436311,-0.03217496411363952,0.0362159585336564,0.01758481231745911
445,1.002378639487792,0.04301108555220014,1,,-0.2658666841034421,-0.9585476549941944,-0.10121863943066808,-0.014630921986952152,0.042267256896939484,0.01890320775947818
446,1.0023338851674095,0.041184831142247524,1,,-0.26507919289027576,-0.9610294248611893,-0.10504112324581909,0.0035300342483006565,0.04786829944075244,0.020194357157698285
447,1.002252961799466,0.04048636607856599,1,,-0.26419713858998445,-0.9620279218781774,-0.10999560189270234,0.014051156910325706,0.04883525505787229,0.021114561460045644
448,1.002161011488393,0.04060253778796959,1,,-0.26319948849243274,-0.961213236683036,-0.11633385352109048,0.015233195170128134,0.04413741071236325,0.021581315104678846
449,1.002081355704044,0.04117839677100652,1,,-0.2622018383949298,-0.9603985514879346,-0.12267210514916918,0.016415233429872854,0.039439566367083546,0.022048068749289263
450,1.00203440741885,0.04186012344616573,1,,-0.2611742026775283,-0.9604809789103332,-0.12471973044652598,0.0018057836928067617,0.014902004750461925,0.009810392068641908
451,1.0020362666405132,0.04233057421371465,1,,-0.2601444042944182,-0.9606281091688362,-0.12645790107036792,-0.013942602271824853,-0.011066465261512854,-0.003343571661795412
452,1.002096807479539,0.042338891352946884,1,,-0.26105392280544354,-0.9600388930937136,-0.122561498987323,-0.029350972873550117,-0.03128489910481243,-0.012510541378057695
453,1.0022175415592842,0.04172494160658045,1,,-0.2646915888165683,-0.9584138167033455,-0.11073862264363826,-0.04428102450479663,-0.04341442966292009,-0.016068779595045355
454,1.002389957162616,0.04043596941388004,1,,-0.26832925482787057,-0.956788740312898,-0.09891574629937636,-0.05921107613677202,-0.05554396022161991,-0.019627017812206722
455,1.0025952448260629,0.03852999076288268,1,,-0.27173704560531836,-0.957400775235528,-0.10227147315796278,-0.03376066744225557,-0.029857646819651,-0.013204486617073628
456,1.0028061574834224,0.036161679990723845,1,,-0.27511880144643425,-0.9582661782572297,-0.1073462802507284,-0.0037368964771625594,0.00011156857514972476,-0.005651565280452827
457,1.0029911684926631,0.03355216560452322,1,,-0.2771653618210773,-0.9586600432752294,-0.11316935384842197,0.010333597600547115,0.013166661153911434,-0.004254063499364572
458,1.0031202958642107,0.030950492369158363,1,,-0.2770429787748379,-0.958287923629155,-0.12020794064580875,-0.001511031475145268,-0.0012542048999028932,-0.012855664534183766
459,1.0031713324472495,0.028596925615783936,1,,-0.2769205957285925,-0.9579158039830622,-0.12724652744353915,-0.013355660551415896,-0.015675070954421232,-0.021457265569422884
460,1.003135035174714,0.02669547307556772,1,,-0.2794881844682553,-0.9568922706557456,-0.12129120639693038,-0.023896490586451925,-0.01540856440648416,-0.014298085321476589
461,1.0030180980423915,0.025397559165090778,1,,-0.2824799073249624,-0.9557660274160154,-0.11328710563476765,-0.034231747589900705,-0.012826265610170013,-0.004653865978202759
462,1.0028432793511983,0.024794283340687222,1,,-0.2817490609253158,-0.956093085016827,-0.10897537120261198,-0.03616162494976016,-0.008949861867712898,0.004467249262932246
463,1.002646634797125,0.02491312148434031,1,,-0.273999630811855,-0.9591602161819565,-0.11162527546868378,-0.022243882933269093,-0.0026335347090390734,0.012602096772319573
464,1.0024722574344926,0.025716265411371973,1,,-0.2662502006980159,-0.9622273473472356,-0.11427517973488498,-0.008326140916098575,0.0036827924499431086,0.020736944282104035
465,1.002365235925832,0.027100703590746816,1,,-0.26456780571602234,-0.9595765635533995,-0.11888642196015918,-0.0028089065625533935,-0.00409221663873666,0.01327228522947742
466,1.0023638355366298,0.028902790223523597,1,,-0.2641338808289272,-0.9557491513608888,-0.12390126689004825,0.0009796774087386432,-0.014766930693806902,0.0025975710155024478
467,1.0024922392111455,0.030910889891373586,1,,-0.2637246508414462,-0.9540438670220652,-0.1269863189505453,0.0001444245842454306,-0.023614056383148514,-0.005634682750935797
468,1.0027553777645382,0.03288813374673912,1,,-0.2633698489777251,-0.9570158010210424,-0.12581806337846768,-0.010881870317735406,-0.02843313550322497,-0.00848369781344571
469,1.0031371232584678,0.03460397753953945,1,,-0.26301504711400386,-0.9599877350200194,-0.12464980780639004,-0.021908165219716242,-0.033252214623301427,-0.011332712875955624
470,1.0036023306683781,0.03586956141117767,1,,-0.2679695838726478,-0.9603797100992967,-0.12182281217448197,-0.027340381564570304,-0.03524775351710762,-0.013945629901376625
471,1.004102189113765,0.03656940317191655,1,,-0.2742942364842681,-0.9601059068456698,-0.11856776585431111,-0.03132900271564608,-0.036514656039757704,-0.016497620003991582
472,1.004581545246297,0.03668170681399414,1,,-0.27857387860307375,-0.9600411219758047,-0.11640558965422876,-0.03280825984221086,-0.035704727250093396,-0.016516683994197274
473,1.0049865619387455,0.03628171575401414,1,,-0.2775329603808187,-0.9605201460139965,-0.11708676386200914,-0.027758835206187125,-0.029491449014377894,-0.009945764086533538
474,1.005271260872708,0.03552655000764484,1,,-0.2764920421585637,-0.9609991700521884,-0.11776793806978955,-0.022709410570163388,-0.023278170778662392,-0.003374844178869803
475,1.0054020033489028,0.03462472717497539,1,,-0.27510517459376904,-0.9603731658407753,-0.11588979809716247,-0.013082830192786492,-0.019023897200520706,0.00410874118617202
476,1.0053596104995313,0.03379759412305361,1,,-0.27360930708900055,-0.9593989950102944,-0.11320528257204363,-0.0020141031196267926,-0.015386856737450796,0.011879884490347624
477,1.005139440205401,0.03324181103942647,1,,-0.2734538135448858,-0.9583982260964743,-0.112634516729891,0.00870378782931547,-0.010219699150469063,0.018365611571514975
478,1.0047501438819315,0.033101194436288416,1,,-0.2774697728397796,-0.9573146797984462,-0.11864206960682293,0.018329822036292086,-0.000290578403747585,0.020850922865922508
479,1.0042118843555794,0.03345308908385615,1,,-0.28148573213447725,-0.9562311335004711,-0.12464962248346158,0.02795585624279877,0.009638542342489162,0.023336234160208708
480,1.0035545170659967,0.034310322425267784,1,,-0.27839788012197314,-0.9559655950651309,-0.13041486670403016,0.02443315034671454,0.005094367996518923,0.024479388160045433
481,1.0028158141868102,0.035636210942080505,1,,-0.27262829990599907,-0.9560088591389397,-0.13608863806142266,0.015946722069868986,-0.00491355559169281,0.025115870330466576
482,1.0020394952035634,0.037367899020989956,1,,-0.26768750678533243,-0.9561171426364772,-0.1394658303968881,0.006751784460985823,-0.017612549535813597,0.02481990363647108
483,1.0012727486459336,0.03944228862966296,1,,-0.26588876642243336,-0.9564719242525455,-0.13413635670129384,-0.005129215363127428,-0.040513783695989396,0.020988887298552944
484,1.0005630532434704,0.04181817162005554,1,,-0.2640900260596221,-0.9568267058685961,-0.12880688300595972,-0.01701021518666066,-0.06341501785504718,0.017157870960821834
485,0.9999543267642218,0.044487795919311394,1,,-0.2643138593559116,-0.956665623287777,-0.12483448571691742,-0.026321757831718768,-0.06057557567624105,0.012760987529629177
486,0.999482665853321,0.04747213268758626,1,,-0.26544008234098054,-0.9562743831895882,-0.12146756044616545,-0.03448691371739444,-0.04625169593196991,0.008111637332398296
487,0.9991721549017313,0.050797872687554105,1,,-0.26703420435845227,-0.9555589240081259,-0.11765664774169936,-0.03838149209925013,-0.033484786861391995,0.0026267623236969255
488,0.9990314030529045,0.054460370341660895,1,,-0.2708455626630869,-0.9533070856794741,-0.11174180880271782,-0.022039056188580326,-0.02809590517348372,-0.006817419721075677
489,0.9990515852458648,0.05838309191583489,1,,-0.2746569209675355,-0.9510552473509323,-0.10582696986402504,-0.005696620278708337,-0.02270702348583853,-0.016261601765387223
490,0.9992067269353243,0.062387707149750365,1,,-0.27610139398227856,-0.9517847620419172,-0.10925092415788255,0.01134278856558308,-0.027920098133329564,-0.01671682246535299
491,0.9994566557519383,0.06618787789308175,1,,-0.27631031732897554,-0.9540705877843585,-0.11754986877326863,0.02874602774990935,-0.03866755321270727,-0.012479670343546478
492,0.9997524171429606,0.06941394812924012,1,,-0.2762335733036695,-0.9559915074278872,-0.12434417288374239,0.04038367216541425,-0.050941145305593814,-0.00985000397494535
493,1.0000432262613397,0.07166690444111706,1,,-0.27439898212890146,-0.9556669863648888,-0.12187970864639198,0.01654287094279536,-0.0726057839891106,-0.017111961661962587
494,1.0002835831426073,0.07259106563297228,1,,-0.27256439095404394,-0.9553424653018746,-0.11941524440892125,-0.0072979302809874115,-0.09427042267368503,-0.024373919349334347
495,1.0004392508363338,0.07194875847888302,1,,-0.2708617889638794,-0.956207425645905,-0.11383758540146119,-0.019164472742679545,-0.09711513421986341,-0.022186288815436387
496,1.0004912696274686,0.06967850252259672,1,,-0.2692392079544682,-0.9577935319623767,-0.10637249220897127,-0.02377139060982476,-0.08854990310062473,-0.01426966374139201
497,1.0004377190818587,0.06592146233403728,1,,-0.2673773610758911,-0.9592003336287648,-0.10045361389002594,-0.026132146496382156,-0.07933342553839667,-0.006342823032900878
498,1.00029330302115,0.06100829573315566,1,,-0.2634831771859468,-0.959084112067194,-0.1076683668917736,-0.009413883128668966,-0.06458522606934529,0.0016707898208682406
499,1.0000870088175942,0.05540795775362358,1,,-0.25958899329581236,-0.9589678905056177,-0.11488311989387351,0.007304380239860396,-0.04983702659957392,0.009684402675028576
500,0.9998581835533095,0.04964892617010706,1,,-0.26104687727278664,-0.9581322946086909,-0.11809554267981122,0.010796897629554575,-0.034015794723413824,0.010621706686602905
501,0.9996514461827766,0.044229582513205676,1,,-0.2662533399198389,-0.956792850226212,-0.11850474060936615,0.00502612641719007,-0.01744301288682583,0.006602776762375579
502,0.9995109330446997,0.03953692544700271,1,,-0.2707781244057725,-0.9555046973762438,-0.11903304185833398,-0.00023603292740318428,-0.0008990122875477683,0.002855765177109589
503,0.9994744640961473,0.03579097047710101,1,,-0.26636533066028995,-0.9548890350225492,-0.12112292347611972,0.0011702894511941514,0.015267633450732917,0.0026739131738191847
504,0.9995683292968929,0.033026236587717424,1,,-0.26195253691459197,-0.9542733726688245,-0.12321280509400748,0.0025766118298601428,0.03143427918980284,0.0024920611705199027
505,0.999803481093563,0.031112745188905333,1,,-0.2608961922849392,-0.9547637408165871,-0.12452346180401914,-0.002262553857575877,0.03859010509558992,-0.002935195268693551
506,1.0001738490435492,0.029809439309698666,1,,-0.26254597132718804,-0.9561458416313887,-0.1252058715494879,-0.012137119312689727,0.038480993559915744,-0.012591538049720874
507,1.0006571500937327,0.028835903369887714,1,,-0.26428271862643754,-0.9575250417888387,-0.12559103602042776,-0.021797419356493885,0.037947985192623185,-0.021906512585447624
508,1.0012180023380142,0.027945612043662,1,,-0.26832154549572806,-0.9588274605500993,-0.11810801618917995,-0.025786040507569656,0.026194282396659278,-0.022185352646932527
509,1.0018125963931752,0.026985633290736968,1,,-0.27236037236501853,-0.9601298793113597,-0.11062499635793216,-0.02977466165864543,0.01444057960069537,-0.022464192708417433
510,1.0023939027061441,0.025932475217131976,1,,-0.27470798955314424,-0.9598671880531763,-0.10540665815237735,-0.022213503388801858,0.009673391614236486,-0.017965766828748654
511,1.0029165194267886,0.024899930898445288,1,,-0.2754892990424035,-0.958154975839701,-0.10228574660280727,-0.003955558892554165,0.011376738922994333,-0.0090428934635152
512,1.0033407130703276,0.02412064458425263,1,,-0.27626632785988825,-0.9564471162084421,-0.09919073729844803,0.014285135396199166,0.013074571339747001,-0.0001341189387268634
513,1.003635716416228,0.02390723685687679,1,,-0.27484093056373193,-0.9569786809804636,-0.10942255707309853,0.023650514995797556,0.011934965410085874,0.0015207345454633827
514,1.0037826036963782,0.024600518175840802,1,,-0.27341553326757567,-0.957510245752485,-0.11965437684774902,0.033015894595395945,0.010795359480424746,0.003175588029653629
515,1.0037768750425637,0.02651222729102004,1,,-0.2734774026971588,-0.9585799344049823,-0.12542140599568022,0.029800017558305462,0.00924440923475487,0.004066516556534531
516,1.003630355378317,0.029869405032270074,1,,-0.27512038020570684,-0.9602217006815014,-0.12644193176966245,0.013209050386319407,0.007256160278778275,0.00414531912042624
517,1.0033714971368835,0.034767973888031524,1,,-0.27676335771425487,-0.9618634669580206,-0.12746245754364469,-0.003381916785666651,0.00526791132280168,0.0042241216843179495
518,1.0030430604579392,0.04114363172410533,1,,-0.2739092136553679,-0.959885387834917,-0.1200466922305484,-0.019409883118657757,0.01835165119627877,0.007839270369057013
519,1.0026966557677068,0.04876690991183142,1,,-0.2709038917822023,-0.9577856219156243,-0.11234732772459724,-0.03541892329216702,0.031942059678354236,0.011573298890321423
520,1.0023846869394415,0.057265195853802256,1,,-0.26859183374709156,-0.955959151830745,-0.10922306571579167,-0.03284438610532829,0.045000260573918545,0.011186134411359117
521,1.002151388996154,0.06616886171611386,1,,-0.2671262591958758,-0.9544663792466123,-0.11168505887776536,-0.007579077470632988,0.057408629604463815,0.0057669437165751535
522,1.0020253163108241,0.07497361586235923,1,,-0.26566068464466,-0.9529736066624798,-0.11414705203973907,0.017686231164062313,0.06981699863500909,0.0003477530217911899
523,1.002015407067653,0.08320794712328315,1,,-0.26842880126688984,-0.955977501240185,-0.12074354115825012,0.037278892360748286,0.0903129927402813,0.0029313508577915805
524,1.002111643262194,0.09049278495413045,1,,-0.27150087863371597,-0.9593042371028833,-0.12763686923291823,0.05646428196543289,0.11138964340165274,0.006089514353306248
525,1.0022897622282936,0.09658023482663737,1,,-0.2718101525056496,-0.9613097162326991,-0.12998711552980935,0.05847341346263197,0.12205720437070583,0.012597237247597988
526,1.002518131273656,0.10136078068041253,1,,-0.2682373947578933,-0.9614586896703767,-0.12595385060539124,0.03634808255435501,0.11809889151587419,0.023811445971608898
527,1.0027643965258957,0.10483513777635955,1,,-0.2646646370103115,-0.9616076631080469,-0.12192058568117002,0.014222751647158187,0.11414057866123578,0.035025654695072336
528,1.003000047189565,0.10705756478140037,1,,-0.26134403140852047,-0.9607041189159614,-0.12033448476057287,0.009685056889063499,0.06385200126370881,0.025934286920656444
529,1.0032022251256234,0.10806880026299812,1,,-0.2580518946520394,-0.9596817418609184,-0.11902467707884166,0.007133066786448543,0.0083325775402165,0.014550349671382273
530,1.0033533181750318,0.10784385426517398,1,,-0.25829506708355554,-0.9589412574061639,-0.1189702221511268,0.004678157775893584,-0.04485690146443332,-0.0011190242382446438
531,1.0034395911962801,0.106277635934212,1,,-0.2642741944917673,-0.9586581369830698,-0.1209525471750302,0.0023807605254444557,-0.09426610064472246,-0.02374141708759365
532,1.003450136792289,0.1032181811596669,1,,-0.2702533218996872,-0.9583750165599898,-0.12293487219883681,8.33632751074836e-05,-0.1436752998225995,-0.046363809935838246
533,1.003376895121254,0.09853785769398103,1,,-0.2715803045965784,-0.9593385526349886,-0.11819163680647621,-0.002208796144042126,-0.1406900963944473,-0.04338873852074761
534,1.003215745077917,0.09221703710362356,1,,-0.2721755501963699,-0.9604981756470773,-0.11239053620086438,-0.00450013170342254,-0.12946376323952774,-0.036387435043035044
535,1.0029680812492308,0.08441026898991164,1,,-0.2709370362441911,-0.9612015507241035,-0.10887172628055748,-0.002104886998663069,-0.1096085714408569,-0.028627111664449287
536,1.0026420767114541,0.07547282959075291,1,,-0.26624547674621135,-0.9610457919534046,-0.10965056469442894,0.009115383369106283,-0.07350487973566554,-0.019437522225905533
537,1.002252990880997,0.06594025592030286,1,,-0.26155391724846067,-0.9608900331827132,-0.11042940310826235,0.020335653736327872,-0.037401188032236736,-0.010247932787810402
538,1.0018222641862637,0.056468106254712026,1,,-0.25941717501159955,-0.9602896456857318,-0.11531329725318773,0.0181135067975778,-0.026200921443297286,-0.013379302239509479
539,1.0013755417619155,0.04774862051007134,1,,-0.2578051021489548,-0.9595979471273788,-0.12104022508806198,0.01313076136690139,-0.020114940197535458,-0.019040962170723773
540,1.0009400217342816,0.040423261645101585,1,,-0.2586683509888795,-0.958757756474853,-0.12358181147552649,0.004569031518530969,-0.016308904524280337,-0.023856163866028342
541,1.0005415799790702,0.03500645658039624,1,,-0.26498002437835716,-0.9575907202366906,-0.11911215058883347,-0.011870392184959142,-0.01752125147772425,-0.026808228407663136
542,1.0002020455386302,0.03182930755334067,1,,-0.27129169776814294,-0.9564236839984716,-0.11464248970192226,-0.02830981588925181,-0.018733598431227346,-0.029760292949442043
543,0.9999368955310345,0.031005837655135687,1,,-0.272107316975475,-0.9561512264576922,-0.10915786112344411,-0.030279429523815397,-0.013091824673415164,-0.023453028959457334
544,0.9997535865334563,0.03242060331496512,1,,-0.2715071170721002,-0.9561092181762859,-0.10341177030156966,-0.028521526480962088,-0.005684385081484992,-0.014760502041747123
545,0.999650759641759,0.03573587810228636,1,,-0.26894209401878977,-0.9564479029087106,-0.10033486407989933,-0.024492598882594203,-0.002751605306201694,-0.008519266400477498
546,0.9996185937887461,0.04041810542855848,1,,-0.2612723986211322,-0.9577756400652244,-0.1041925834042641,-0.014563478056905091,-0.011444132477735111,-0.008646562596204633
547,0.9996405361059298,0.045784782840177625,1,,-0.2536027032231002,-0.959103377221803,-0.1080503027288172,-0.004634357230731249,-0.02013665964969289,-0.00877385879193798
548,0.9996964262375064,0.051072243289859154,1,,-0.25384705699891885,-0.95990870001142,-0.11288604750818862,-0.006620449074499603,-0.03811143181741465,-0.015370599392196904
549,0.9997666467568527,0.05552105895376545,1,,-0.256581026439118,-0.9605496807603681,-0.11802946127464539,-0.012354849711410824,-0.05900622912480548,-0.0240025093193462
550,0.9998364748011505,0.05846997735706337,1,,-0.2596603756600205,-0.9608020910102185,-0.12125288920651019,-0.017819173440443477,-0.07564916041690528,-0.029090950882276596
551,0.9998994811003196,0.05944394021741516,1,,-0.26381293681173185,-0.9598470811412653,-0.11851027100249249,-0.022444276761940395,-0.07908010422584401,-0.023168636344430404
552,0.9999588415112124,0.05821970906334746,1,,-0.26796549796364594,-0.9588920712722652,-0.11576765279834093,-0.0270693800836631,-0.08251104803495024,-0.01724632180629509
553,1.0000258942160816,0.05485553173065261,1,,-0.2667702704005965,-0.9576991469421607,-0.11302009508176888,-0.01793746997800418,-0.0654099220522554,-0.00870467203632199
554,1.0001160880357265,0.049678598306093,1,,-0.2635591160504367,-0.9564165372933463,-0.11027067534405038,-0.0036196534430409113,-0.04056893354030146,0.0008243742708949223
555,1.0002433458936533,0.04323339616072718,1,,-0.261111216079794,-0.9555801521471671,-0.10849987189740232,0.008540591410476795,-0.020561260518120423,0.00722791898951439
556,1.0004144694871686,0.036202249892933996,1,,-0.26155193439870345,-0.9564325516238379,-0.11043274705707186,0.012535274181113857,-0.018845789805436528,0.0018026667899778035
557,1.0006252648465583,0.029313554155451314,1,,-0.2619926527176129,-0.9572849511005087,-0.1123656222167414,0.01652995695175092,-0.017130319092752633,-0.0036225854095587834
558,1.0008595174287573,0.023252646405614585,1,,-0.26519397069412914,-0.9584139965100029,-0.11267019281991458,0.014658159889042875,-0.014182006677195167,-0.003558757932532299
559,1.001091010216989,0.018586465470863504,1,,-0.26962530965776677,-0.959666305103378,-0.11224925120590537,0.010172476638014592,-0.010684385648974972,-0.001049199802465294
560,1.001287849970903,0.015708639331491345,1,,-0.2729326517901733,-0.960466551817048,-0.111231109519492,0.00627609746453235,-0.006944426337170087,0.0021290933934122666
561,1.0014178118530783,0.014808072111213998,1,,-0.2709242412632823,-0.9591288484295497,-0.10738861122998641,0.005166732125064753,-0.002058369155495,0.00847005582825574
562,1.0014534157477133,0.015861578232426107,1,,-0.26891583073639136,-0.9577911450420514,-0.10354611294048084,0.0040573667855971565,0.0028276880261800873,0.014811018263099216
563,1.0013759187245246,0.01864908325569244,1,,-0.26691684673628263,-0.9580794946714906,-0.10345072382558577,0.006407344431504109,0.0028035767393930046,0.01841776397764394
564,1.0011780058355533,0.022788110188101944,1,,-0.26492277393747743,-0.9592150145937922,-0.10530757091939305,0.010559632690469795,0.00022127773289123544,0.020599988378275907
565,1.0008653129663558,0.02778289301731979,1,,-0.262844447815891,-0.9601305322946972,-0.10808843357338487,0.012699010570304517,-0.004496338331976743,0.021371985481750292
566,1.000456896587101,0.033082685800871064,1,,-0.260249559409842,-0.9596972028962376,-0.11653449224350097,0.002497111580277022,-0.02230571411756362,0.013497792618613034
567,0.9999845506101692,0.03814343919059565,1,,-0.2576546710039197,-0.9592638734977988,-0.12498055091320473,-0.0077047874092524265,-0.04011508990228106,0.005623599755860186
568,0.9994907226461035,0.04248655100230345,1,,-0.25984685887363546,-0.9582098055575758,-0.12538627632731233,-0.019398388464266506,-0.0489138301800568,-0.0023336753027433732
569,0.9990248441124774,0.04574781032020484,1,,-0.2649358806252017,-0.9567801061596981,-0.12092650379306943,-0.03199467266698459,-0.05225990734251923,-0.010341226417772654
570,0.9986381577347082,0.04770966667297834,1,,-0.26887784329656134,-0.9554618069131952,-0.11671765281594228,-0.04227387526819714,-0.053783863366631615,-0.016604234373127073
571,0.9983775260391665,0.04831167206634234,1,,-0.2631218661477079,-0.955085352757835,-0.11463024632437459,-0.03296305123735038,-0.03990249158327099,-0.00811780625477195
572,0.998279127347954,0.04763788321528244,1,,-0.25736588899913543,-0.9547088986024931,-0.11254283983290884,-0.02365222720695817,-0.02602111980058804,0.00036862186316887456
573,0.9983632380860659,0.0458852978026741,1,,-0.25383957618326897,-0.9557752482253615,-0.11390342610339341,-0.018861494880261936,-0.022043279642813232,0.0016378870980146107
574,0.9986312757075104,0.04332185376006737,1,,-0.2518720857135131,-0.9578503033909883,-0.11767460310202338,-0.017230888430403803,-0.024989282763661465,-0.0021385734357082966
575,0.9990658251189815,0.04024395689896207,1,,-0.250518612616815,-0.9597959952638959,-0.12109559942999149,-0.016354530808088436,-0.027662978250189315,-0.005679034039455985
576,0.9996335960995892,0.036941342064264394,1,,-0.2571622162448022,-0.9600568354991659,-0.11995577742846343,-0.02530165051452717,-0.026790088348324245,-0.00614578756491064
577,1.000290469874361,0.03367271339559082,1,,-0.263805819872465,-0.9603176757344233,-0.11881595542699104,-0.034248770220529114,-0.025917198446501793,-0.006612541090342508
578,1.0009873247880154,0.030651288818021982,1,,-0.2669790069620559,-0.9597517688628685,-0.11774120659737261,-0.03484293160864882,-0.02236410725175306,-0.004781979099203526
579,1.0016753568317722,0.028036864829233617,1,,-0.2673591555776516,-0.9585204846648515,-0.11671882954227955,-0.02871451843006315,-0.01665395356952243,-0.0011025063058703937
580,1.0023100770499604,0.02593100390958226,1,,-0.2676730798592716,-0.957371409645247,-0.11583361494105399,-0.02242262903019389,-0.011087846537443144,0.002591259491774615
581,1.0028538297387346,0.024373916693944633,1,,-0.2662557196345045,-0.9583715065124674,-0.11853420055800798,-0.011857025835452718,-0.009287511363222973,0.006658683365646825
582,1.003277208137678,0.02334415729361023,1,,-0.26483835940966816,-0.9593716033797366,-0.12123478617509381,-0.0012914226401957456,-0.0074871761889149105,0.010726107239717604
583,1.00355992478247,0.022763817148889007,1,,-0.2631948851562089,-0.9601337187153904,-0.12419521074643215,-0.001926303065177235,-0.006899491832801957,0.011744580411483983
584,1.0036915308461545,0.022511582761817285,1,,-0.261342364506568,-0.9606758159398636,-0.1273958610009255,-0.012916227574981745,-0.007432924484398084,0.009944245038545008
585,1.0036720599153994,0.022443900105034793,1,,-0.25950431343818625,-0.9612172072807773,-0.13056381464133787,-0.0238965181902571,-0.007970236653919195,0.00813589103523116
586,1.0035123916332276,0.02242147793481993,1,,-0.26373352653789484,-0.9614626134222881,-0.12002169666540659,-0.030837204677491313,-0.010134275953898722,0.0029652317435892115
587,1.0032339895208284,0.022335784795626753,1,,-0.2679627396378098,-0.961708019563811,-0.1094795786889606,-0.037777891165064366,-0.012298315253983895,-0.0022054275483051624
588,1.0028676863064847,0.022129286862997272,1,,-0.26728828153634093,-0.9616112561837555,-0.1061346238298476,-0.028870411267064758,-0.008715960547433435,-0.001467947231915501
589,1.00245135539052,0.02180455984944314,1,,-0.26140990918869933,-0.9611513728523751,-0.11042750155352421,-0.0031444100114276,0.0009646296255412475,0.005539417547207096
590,1.0020265732229898,0.021420588378156327,1,,-0.2555315368407708,-0.9606914895209722,-0.11472037927741038,0.022581591245465476,0.010645219798988527,0.012546782326671786
591,1.0016346480131169,0.02107795167288696,1,,-0.2545454136304814,-0.9604595715633482,-0.12286985183729189,0.01919429645194696,-0.0012480696522517687,0.003935527084312869
592,1.0013125397489784,0.020896637552969645,1,,-0.2537214558098987,-0.9602352100675051,-0.13114716052921163,0.014841971287095726,-0.013856477345103296,-0.005193444965625729
593,1.0010891620013398,0.02099070700188909,1,,-0.2564268180987054,-0.959506882983617,-0.1310478687352098,0.005670520962819202,-0.01596607705591105,-0.009388550867541706
594,1.0009824118533803,0.021443805876985758,1,,-0.26343388045579447,-0.9581642991201267,-0.12073878532013281,-0.00937470402229369,-0.005279239602813498,-0.00757003043737584
595,1.0009971707704794,0.02228918887446301,1,,-0.27044094281322556,-0.9568217152565708,-0.11042970190455254,-0.024419929008141078,0.005407597850805777,-0.005751510007121195
596,1.001124529028572,0.02349737036812646,1,,-0.2616413499979325,-0.9585747082666863,-0.1117989038331589,-0.007987783583273473,0.01168658534575933,0.0012783453421796559
597,1.0013425357277501,0.024973534573169948,1,,-0.2517148822228661,-0.9605483885776177,-0.1140006644013614,0.010688420443978951,0.017651332054784388,0.008679722861308432
598,1.0016187216999723,0.02656550023393686,1,,-0.24997342022773789,-0.961509934573645,-0.11481493000852139,0.01945418545784532,0.020326055197900685,0.009899691395212918
599,1.0019143858989108,0.028081553104555606,1,,-0.25971197689870607,-0.961051894421439,-0.11368314102749494,0.014319896161654392,0.018386299992938063,0.002449819926439256
600,1.0021901915970675,0.02931604538725636,1,,-0.26945053357014975,-0.9605938542692108,-0.11255135204641326,0.009185606865212814,0.016446544787880744,-0.005000051542698102
601,1.0024121300312445,0.030079436410034487,1,,-0.2675918815841627,-0.9614739049739706,-0.11481759932931236,0.018497778784354192,0.026130441692290955,0.00265591970421767
602,1.002556604611712,0.030228294539032207,1,,-0.26443017304719674,-0.96250430289663,-0.11746564826338002,0.029433147843594555,0.037120366320737494,0.012009175866062562
603,1.0026134632295496,0.02968971500222064,1,,-0.26110399000855566,-0.9625625051766651,-0.11985577654683388,0.03250282976596439,0.03762039410659825,0.015505399457163152
604,1.002586296770769,0.02847449072880937,1,,-0.25751144745418714,-0.9610462776311698,-0.12182821321819037,0.02283436322937411,0.02113247653291562,0.009516405912357292
605,1.0024900795155265,0.026675437895926832,1,,-0.2539189048998186,-0.9595300500856745,-0.1238006498895469,0.013165896692783832,0.0046445589592329865,0.003527412367551432
606,1.002346978139153,0.024451429671272142,1,,-0.2573551372015355,-0.9591498847086684,-0.11983552885320756,0.007585045372184842,0.009359834258888429,0.002857558864951956
607,1.0021816067896852,0.02200184432471011,1,,-0.2618927931705207,-0.9589477426409663,-0.11493998015080864,0.0026447318745734544,0.017397694067616896,0.003021225691749029
608,1.0020169806023904,0.01953790542039573,1,,-0.2636869430752719,-0.9591459686393846,-0.11385077699528447,0.0001822526878471521,0.02151775469557449,0.0035933035874956484
609,1.0018719702250973,0.0172562945090812,1,,-0.260324964006381,-0.9600966439990706,-0.11991519701313355,0.0023766005623473206,0.018274726853332215,0.004932946816119058
610,1.0017604249851613,0.015318009003355315,1,,-0.25696298493749004,-0.9610473193587565,-0.12597961703098265,0.004570948436847489,0.015031699011089937,0.006272590044742468
611,1.001691579292654,0.013833562424085085,1,,-0.2636317753572685,-0.9592278661001655,-0.12552634627462125,0.0036456881991293794,0.006993531635939872,-0.0003327038521726838
612,1.0016710533226794,0.012854906348313109,1,,-0.2723541326616354,-0.9568412933994438,-0.12373872983767037,0.0020817607165843355,-0.002026329093844855,-0.00856453894304032
613,1.0017017459441873,0.012374318777629602,1,,-0.27738758538746244,-0.9554687485039156,-0.12257917650030192,0.0023913832258118744,-0.004896470522277676,-0.011496199797655945
614,1.0017841358419262,0.012330140555802279,1,,-0.2743179831468064,-0.9563236190560048,-0.12279922778808113,0.006816449288288718,0.005741873418682354,-0.0027854876239991506
615,1.0019158461729547,0.012618398627766888,1,,-0.2712483809063002,-0.9571784896080523,-0.12301927907584956,0.011241515350549534,0.01638021735912303,0.005925224549232395
616,1.0020906882960157,0.013108420945154424,1,,-0.2679618945558494,-0.9568043913167988,-0.12239691366265491,0.008143138530061394,0.014469844043531539,0.005959863881159102
617,1.0022977085407119,0.013660112891581592,1,,-0.2646196880745413,-0.9561145561786706,-0.1215581212876711,0.0031118989308874354,0.009335554645376736,0.0037655159630805147
618,1.0025209318683572,0.014140927354031265,1,,-0.2627680983747126,-0.9565531341834952,-0.12060559111561162,0.0007906234620699274,0.0064809425458722935,0.0027742841646736065
619,1.002740397815508,0.014441404417846691,1,,-0.2647807123012269,-0.9599169564317248,-0.11935821252009919,0.005494529347688193,0.009536056805138205,0.004901953032317978
620,1.0029346352408897,0.014488680220087079,1,,-0.2667933262276429,-0.9632807786797901,-0.11811083392464769,0.010198435233076819,0.01259117106425497,0.007029621899858478
621,1.0030840634375866,0.014257027425776602,1,,-0.26460174916000806,-0.9630769778380799,-0.1176124597702338,0.008521436422850023,0.015351001079629984,0.008580563852623962
622,1.0031743221304463,0.01377365705918098,1,,-0.2610908007042187,-0.9617535751907688,-0.11734914035770048,0.00484196362951689,0.018018164138979702,0.009950515695561078
623,1.0031985619654467,0.013117637257990243,1,,-0.2581403944965365,-0.9609593521225788,-0.11712501884700667,0.0027060382043097198,0.017574576527194106,0.009806490065151888
624,1.0031582272184212,0.012410535512780586,1,,-0.2569276352619593,-0.961805553656133,-0.11702240845471922,0.005355016007712854,0.007487850493776788,0.00496922608615541
625,1.0030624384543816,0.011799172986923335,1,,-0.25571487602744125,-0.9626517551896457,-0.11691979806243677,0.008003993810986668,-0.0025988755391481073,0.00013196210739508348
626,1.002926374033964,0.011432970395825392,1,,-0.2587095452133594,-0.9622245635610158,-0.11866958938849799,0.004891352388866484,-0.006549565060000861,-0.0013311425638969443
627,1.0027690178993554,0.011439863829549127,1,,-0.26328676269425505,-0.9613184080674989,-0.12111612820212853,-0.00038841816062411315,-0.008192295146243993,-0.0015251180844026763
628,1.0026105016081948,0.011905140149769098,1,,-0.2659880760285002,-0.9604174280671485,-0.12230235553532266,-0.003532742512926938,-0.007208248611390267,-0.0009738457354777098
629,1.0024692461610814,0.012856871071767128,1,,-0.2616086580043763,-0.959535983327443,-0.11873144906880176,0.0013833241091774624,0.0036907499359587047,0.002390416802108958
630,1.00235927710958,0.014260321445642517,1,,-0.25722923998003866,-0.9586545385876948,-0.11516054260210652,0.006299390731521861,0.014589748483839754,0.005754679339859866
631,1.0022883230066582,0.016022096879983773,1,,-0.2593860123634079,-0.9588453571219322,-0.11364813261666883,0.01050633317225628,0.013622454287354799,0.00417185602149223
632,1.002257357497805,0.018003157565393033,1,,-0.26444907161999287,-0.959512952568003,-0.11305102358298662,0.014397966821494091,0.00737886783434949,0.0003893338284815547
633,1.0022619156275219,0.020038550369450042,1,,-0.2684455718834949,-0.9601300294548509,-0.11355692459293106,0.01874463274409252,0.002970260192542855,-0.002505398072521497
634,1.002294882160387,0.02196105975699266,1,,-0.2674133064760016,-0.9605089141761372,-0.11926345592830968,0.025236750246769277,0.00721347445014418,-0.0012142486743644243
635,1.0023498463713174,0.023625835297454767,1,,-0.26638104106845795,-0.9608877988974419,-0.1249699872639669,0.031728867749762975,0.011456688707952654,7.69007238556809e-05
636,1.002423880594389,0.024933270986026736,1,,-0.26329884445735635,-0.9607674360605714,-0.12434417735839376,0.022826809434869196,0.013562819554989294,0.0012962824300533412
637,1.0025188438790973,0.025848153734635768,1,,-0.2591499899187101,-0.9603872955468807,-0.12042340712796186,0.005914570268576466,0.014556943834346681,0.002478320650071881
638,1.0026408984600421,0.02641439849501845,1,,-0.2566422093110394,-0.9600643052615592,-0.11644044845509181,-0.007488354924031841,0.0161933066338596,0.003176550543277252
639,1.0027985600289475,0.026765834213118123,1,,-0.2641722038801043,-0.960090879449217,-0.11207710862468957,0.0005737520382868912,0.021757978665507726,0.0009155236220912326
640,1.0029999842037636,0.027133445549654342,1,,-0.2717021984495368,-0.9601174536368762,-0.10771376879407432,0.008635859000999207,0.027322650697427515,-0.0013455032992051679
641,1.0032502000534964,0.02784794555031708,1,,-0.2705074127213271,-0.9605859345929019,-0.10821944267494886,0.02088042144557931,0.02643795350096023,0.0010104170755392415
642,1.003548774631529,0.029334482544484605,1,,-0.2640393526680491,-0.961321504866516,-0.11166795799334384,0.0356528681873995,0.021655244892775167,0.006156829451948019
643,1.0038881788918375,0.03209506644358935,1,,-0.2578838563962507,-0.962173368257945,-0.11474399380145443,0.04741283041233581,0.0184385653994971,0.010449511719552771
644,1.0042530395613043,0.03667495499303447,1,,-0.25436301951826107,-0.964005488393721,-0.11468032917622203,0.03377998932943678,0.028422242310471618,0.007545940990447345
645,1.004620417739733,0.04361208139899168,1,,-0.2508421826402713,-0.965837608529497,-0.11461666455098962,0.02014714824653776,0.038405919221446136,0.0046423702613419176
646,1.0049611274084804,0.05337308672043386,1,,-0.24515283778000435,-0.96875617831053,-0.11085474343729328,0.009094899409396723,0.048825048540643616,0.0026346896693271193
647,1.0052418927697795,0.06628425009971768,1,,-0.2379492115040554,-0.9724334220371146,-0.10451030885454655,-0.0001553072335971092,0.059548256743989655,0.0012526142385384219
648,1.0054279620163848,0.08246897513624488,1,,-0.23111176945739378,-0.9757111139144476,-0.09829362970800429,-0.007328565898833097,0.07011220054655685,-0.00012381967045449027
649,1.0054857827254338,0.10180455796588857,1,,-0.22902311932635316,-0.9738072921196992,-0.09373372312308188,0.012432688091612453,0.07861075365157229,-0.0014270925548309989
650,1.0053855488441834,0.12390960171847848,1,,-0.22693446919531254,-0.9719034703249507,-0.08917381653815946,0.032193942082058,0.08710930675658773,-0.0027303654392075074
651,1.0051037338448645,0.1481696679494663,1,,-0.22652007461633714,-0.9725188939737601,-0.08879885424551662,0.05822566055622309,0.1112504144084202,0.0027072786249425123
652,1.0046258578355047,0.17380244148958826,1,,-0.2274515890144954,-0.975159501325095,-0.09178810602684705,0.08929811156668367,0.14796633751167113,0.013563844921660257
653,1.003949484848693,0.19995528106168334,1,,-0.22825605542695623,-0.977544430782952,-0.09489120987452453,0.11971114532176147,0.18429471240474024,0.024158219728667708
654,1.0030869352186098,0.22581945515436463,1,,-0.22576563274519898,-0.9732985561534878,-0.1009469770779075,0.1330227137430019,0.21057233077465237,0.027952865478611016
655,1.002066858893601,0.2507396710240444,1,,-0.2232752100635633,-0.969052681524231,-0.10700274428099482,0.14633428216359246,0.23684994914328167,0.03174751122836907
656,1.0009339540783937,0.2742971287687861,1,,-0.22517071610460437,-0.9672282386751013,-0.11226796689149139,0.14434545811431512,0.25977125076217417,0.033830908007605534
657,0.9997465651899418,0.2963495547317185,1,,-0.2311164596892791,-0.9676398955272032,-0.11680315178509985,0.1282273064051317,0.2795931221400181,0.03433403176684552
658,0.9985722418548152,0.31702070075226824,1,,-0.23705039639754427,-0.9680362671488505,-0.12131168924741935,0.11212015347411834,0.2994052868260988,0.03484482721576119
659,0.997481468257985,0.3366419816164556,1,,-0.23856480506959854,-0.9627110997117613,-0.11584560974970161,0.10013004274753687,0.31558406069061234,0.03822727528754196
660,0.9965399863112347,0.35565782809170493,1,,-0.24007921374157878,-0.9573859322749317,-0.11037953025225071,0.08813993202154075,0.3317628345543361,0.0416097233591576
661,0.995800687577011,0.37451233489400715,1,,-0.24566991111651298,-0.9542857170804894,-0.10609418017918412,0.08521292157426641,0.345793531309877,0.04433892183105657
662,0.995296677819661,0.39353724099145815,1,,-0.25558154433791647,-0.9535439893731134,-0.10306042351998225,0.09189295266039478,0.3575472295379037,0.046375664538146566
663,0.9950372545420063,0.41286027722056085,1,,-0.26549317755883606,-0.9528022616657736,-0.10002666686092845,0.09857298374619705,0.3693009277653566,0.04841240724513713
664,0.9950079151033022,0.4323488219202965,1,,-0.26959726013736024,-0.9525560556784743,-0.10059868770036971,0.11565871566269305,0.393978124460763,0.05873614847674725
665,0.9951744292065385,0.4515971207675995,1,,-0.2735106049888323,-0.9523261241401423,-0.1012891333019447,0.133086202621872,0.41907976837414895,0.06933206008710434
666,0.9954900015549704,0.46995698248071655,1,,-0.2778883595950216,-0.9517268212151924,-0.10273918780782439,0.14115364040606262,0.44695607411311605,0.07964367118361489
667,0.9959039635257926,0.48660352585108413,1,,-0.282831506880738,-0.9506778294630076,-0.10511402330571686,0.1378257463144434,0.478210374109203,0.08960916244222952
668,0.9963703140739295,0.5006213636983634,1,,-0.28777465416621306,-0.9496288377108743,-0.1074888588034934,0.13449785222298663,0.5094646741037641,0.09957465370035766
669,0.9968546711476282,0.5110944126093452,1,,-0.2862304421740662,-0.9496060815917673,-0.10631527173874085,0.13825637180897737,0.4984325734438483,0.10551017438472333
670,0.9973386583498688,0.5171851259401017,1,,-0.28422586126799826,-0.9496561512502225,-0.10488987444251496,0.14251777160081572,0.4843996609728171,0.11115971226859993
671,0.997821292244801,0.5181955131746508,1,,-0.28437127236907933,-0.9496768797207852,-0.10575838608395036,0.14706194467138262,0.47048288630396484,0.1109417231795888
672,0.9983173925015332,0.5136101253843277,1,,-0.28752865456152227,-0.9496565034758797,-0.10984048521020337,0.15200226104817965,0.4567288116349755,0.10250378649946383
673,0.9988532833477423,0.50312675594026,1,,-0.2906860367538111,-0.9496361272309751,-0.1139225843362571,0.15694257742473552,0.44297473696665757,0.09406584981975082
674,0.9994600888913766,0.4866815947704046,1,,-0.2899473639019883,-0.9521960624326997,-0.11094020149722127,0.1429237301394385,0.4487521905067129,0.09939211311459024
675,1.000164896626436,0.4644720134622674,1,,-0.28877230679615246,-0.9550450097950338,-0.10716654937227121,0.1267813295676509,0.4567173059947743,0.10626005897563878
676,1.0009801923591415,0.4369742974512826,1,,-0.29009100359069623,-0.9552684219677774,-0.10341533101939701,0.10686873094597453,0.4456739502489442,0.1059650901677806
677,1.001892418173483,0.40494901864735927,1,,-0.29544335285666945,-0.9512450251412901,-0.09970039934237418,0.0808578286051839,0.403884350072497,0.09408409097745866
678,1.0028512613611003,0.3694264958101828,1,,-0.30079570212290396,-0.9472216283146064,-0.09598546766516998,0.05484692626312345,0.3620947498940097,0.0822030917865567
679,1.0037620849156017,0.3316695851410396,1,,-0.306308411652507,-0.946635498772175,-0.09608623934101895,0.039750411422701686,0.30687972570330674,0.07224075985537508
680,1.0044843180935126,0.2931183599928952,1,,-0.31184618879464227,-0.9465866849061242,-0.09678348404576287,0.026360040159482432,0.24956603120319035,0.0625783551365053
681,1.0048382946957577,0.25532695092744734,1,,-0.3136185389469914,-0.9462014084477363,-0.09874768908950236,0.01481745597172774,0.20934594619814084,0.05569921923344638
682,1.0046219693946437,0.2199035830584103,1,,-0.3083230649241151,-0.9451845811849326,-0.10309001829769332,0.006743225889464975,0.2012111005956103,0.05404436590816086
683,1.003637453923202,0.18845968833605523,1,,-0.3030275909009803,-0.9441677539220795,-0.10743234750609629,-0.0013310041931919672,0.19307625499268258,0.05238951258279456
684,1.0017256417562488,0.1625648725853646,1,,-0.2946992634578473,-0.9466421409130533,-0.11308348632055835,-0.006138587197277876,0.1894613579128896,0.03921330968797002
685,0.9988053667463108,0.1436958333514956,1,,-0.2857512848187562,-0.9498298281490206,-0.11900203187231621,-0.010278751936028141,0.18676994480006848,0.02368314600093193
686,0.9949115976095433,0.13316366268693353,1,,-0.27875715124560785,-0.9520379646839109,-0.12553701981992094,-0.015145863861608823,0.17843187969273452,0.0038482399237637433
687,0.9902254195004299,0.1320078282453685,1,,-0.27604914835158045,-0.9520972704929522,-0.13342429137902698,-0.02160767267058639,0.15770680971936896,-0.025429937134776138
688,0.9850876032105808,0.14085599903976811,1,,-0.2733411454574209,-0.9521565763019965,-0.14131156293851804,-0.028069481479879418,0.1369817397449916,-0.054708114194745354
689,0.9799880621090393,0.15976380457152048,1,,-0.28056230654275865,-0.9496154290800787,-0.13703618646015633,-0.06668141739489877,0.09710843432432273,-0.06349203339590992
690,0.9755259088384668,0.18806320320322623,1,,-0.29032991657864793,-0.9464073655996114,-0.12964155821041676,-0.11353862527837538,0.052324342440560875,-0.0670199631178293
691,0.972339336158266,0.22425778042659517,1,,-0.29404386830198875,-0.9391290288754669,-0.1193456665547574,-0.14972729787246233,0.03589902674201093,-0.06778110027873442
692,0.9710109953276822,0.2660045146779341,1,,-0.28208686117666704,-0.9213140742583225,-0.10153934449765838,-0.15829859120673692,0.09288538901587777,-0.061379908459893405
693,0.9719621483700761,0.31021298813397113,1,,-0.2701298540513454,-0.9034991196411779,-0.08373302244055936,-0.16686988454101148,0.14987175128974461,-0.054978716641052396
694,0.975355845657444,0.35327547789058106,1,,-0.24982626145462256,-0.8940650684229742,-0.08466391947528792,-0.14264313090254288,0.2490764867078833,-0.08237714355621518
695,0.9810329908619917,0.391417087592503,1,,-0.2269074262261055,-0.8872570127035192,-0.09146576509875531,-0.10813973767219086,0.3615095404212198,-0.12036603338387936
696,0.988502623907738,0.4211277734622106,1,,-0.2160559959099229,-0.8972156119110856,-0.09956645542232113,-0.05893921648591906,0.4527132454064213,-0.1628636802592044
697,0.9969976627705727,0.43961373311426827,1,,-0.2425550107402928,-0.9590695464978753,-0.11168726672922857,0.035751140780831664,0.47820890204970135,-0.21931661279030037
698,1.005590930078262,0.4451917672699836,1,,-0.2690540255706627,-1.0209234810846652,-0.12380807803613599,0.13044149804758237,0.5037045586929814,-0.27576954532139636
699,1.0133482866632526,0.4375531469753984,1,,-0.27640705419597666,-1.0276055220142442,-0.13666178254544015,0.1625796430377007,0.4450466720043591,-0.23544392295203823
700,1.0194834450175283,0.4178448206518672,1,,-0.2765690028048463,-1.0135654388557809,-0.1497907559068478,0.1712236750121871,0.35478138430913575,-0.15876904572519948
701,1.0234785012495002,0.3885507531547513,1,,-0.27143458216268984,-0.9997548105808631,-0.16354795520212184,0.1770924228930225,0.2845367880096443,-0.08758371256930096
702,1.0251455077047833,0.35319423978443104,1,,-0.24634303567872312,-0.986808785917452,-0.17967235803408887,0.17250368730236018,0.2897316935017018,-0.03708340279935871
703,1.0246217689414596,0.3159110414589899,1,,-0.2212514891959813,-0.9738627612546729,-0.19579676086526873,0.1679149517119219,0.29492659899350565,0.013416906968118168
704,1.0223079433406097,0.2809568773978959,1,,-0.22364885012553912,-0.9608208526508204,-0.1944203668552196,0.09986073089647729,0.23292843030252255,-0.007536552625491114
705,1.0187691011882185,0.2522142138550994,1,,-0.23825267064724007,-0.94773636674808,-0.18527273747851938,0.003624637693226582,0.1410931519558718,-0.060219085161215005
706,1.0146234105321252,0.23275876367434198,1,,-0.2531704475268004,-0.9373588730694724,-0.17486278059252716,-0.08331005393704564,0.0652004033089346,-0.10735689885445589
707,1.010441693481969,0.22453709092045424,1,,-0.26956559109931777,-0.9397195197335702,-0.1585127604767682,-0.12647566579035346,0.06432751579064049,-0.1284032424122029
