id,ASVM,GSVM,walking_nonwalking,normal_abnormal,ax,ay,az,gx,gy,gz
1,0.7518798956431118,0.012604352072821923,1,0,0.7406310556060134,0.06708004048953418,0.11168052445483057,-0.008012657702070256,-0.009546786503609106,0.0018534258912952777
2,0.8128282177386873,0.012041764107307982,1,0,1.0506076023752307,0.09480619293953484,0.1589841569883544,-0.009453777071732053,-0.00984406574493618,0.008914633944222787
3,0.8703148781006832,0.01149134931300374,1,0,0.9597772203691957,0.08667550939541031,0.14283985294147206,-0.0030167138706032547,-0.016309495086605508,0.004758737231882341
4,0.9213007714407505,0.010949843709923,1,0,1.0137365181810358,0.0934812247763201,0.1505236035798885,-0.009578029630140697,0.003867891685182605,0.0025068753155300435
5,0.9635509765806827,0.010422016700957019,1,0,0.9717512290617937,0.09011657504439595,0.15030802450441694,-0.003951117511352266,0.010843635832861272,0.0022151389501612185
6,0.9958358595694381,0.00992289342491518,1,0,0.993928212475642,0.08895122550994763,0.15454802761336,-0.0037204805582129507,0.007080485433559264,-0.00011574909909760594
7,1.0179615492641354,0.0094768693145956,1,0,0.9784279054305361,0.08990349459162916,0.15496661878816922,-0.0015067883367902003,0.011879492218188972,0.003343749082583451
8,1.0306525725565154,0.009114330269876854,1,0,0.986249147903693,0.09225108739074202,0.15590390094483828,-0.0007866981826817646,0.005297033993999983,0.002272277895056736
9,1.0353313929321182,0.00886677444626733,1,0,0.9848306140103502,0.09194405449841594,0.1501901940170025,-0.0032646794072937243,0.007071174762343719,3.639315839002455e-05
10,1.0338466441810878,0.008761517699482078,1,0,0.9828587085255159,0.08918691407816043,0.15213127158566622,-0.0038300425202100695,0.010926182779343863,0.003282642814153657
11,1.028198224994473,0.008816968248699545,1,0,0.9788714074516995,0.0882564211861954,0.14738665291078618,-0.0028151586050457968,4.4663310603551304e-05,0.00011410357971223136
12,1.0202972447018601,0.009039238459553546,1,0,0.9857344224751354,0.08800487298597916,0.14504380456769542,0.0005178007232336677,-0.01043494515316107,0.0002876419536280594
13,1.0117854345279955,0.0094205707180599,1,0,0.9876007317128744,0.0910614594346343,0.1496830447455837,0.004371816709097266,-0.006983984127801348,-0.0010669193777009087
14,1.0039247200037984,0.009939687024213193,1,0,0.9852643264101839,0.0893671708209003,0.1463157845744146,0.0044289528234367865,-0.004269372006533787,0.004502198934403541
15,0.9975553732849576,0.01056372393613567,1,0,0.9862258791307533,0.09023780424818753,0.14901511232505038,0.007057513419598808,-0.013132505335604498,0.005588156133444655
16,0.9931120805630487,0.011251001703699198,1,0,0.9899143873123961,0.08888506435418742,0.1460948460250726,0.006145956077047582,-0.015354903626223965,0.00567763220640521
17,0.9906819716272427,0.011953745661870097,1,0,0.990650805330898,0.09254317273771437,0.14600568600365188,0.007148670934476963,-0.0019201296339326048,0.004810637099204035
18,0.9900869746314013,0.012620259362203557,1,0,0.9854331558279091,0.09133022279126668,0.15295370120406868,0.00378109890018824,0.008230535550085568,0.004503883609705971
19,0.9909742158833598,0.013196842927529808,1,0,0.9790163793234045,0.08931157972268772,0.14930190908225308,0.0019520178609195183,-0.002877915879092129,0.003442788384403856
20,0.9929017078078433,0.013630376856799667,1,0,0.9817143854422893,0.09100093882537424,0.14654504023704135,0.0029115080117072135,-0.017651686259445413,0.004609644518091977
21,0.9954109918191423,0.013872366815634913,1,0,0.9854142424294776,0.09187848588174713,0.14636839944999128,0.005324526952596062,-0.014542812138298727,0.004042119549169636
22,0.9980824679801301,0.013884452655547757,1,0,0.9862018108866301,0.09093142637349107,0.14786131741138644,0.0016482756360211227,-0.008465862794095353,0.004144333442616567
23,1.0005722415897276,0.01364458058186362,1,0,0.9846949597985349,0.09211878735964073,0.14730186473021467,-0.0027737138758173723,-0.011472883902126479,0.0032777467085112815
24,1.0026315468113265,0.013152643523863071,1,0,0.9840037784936579,0.0923188696605515,0.14307516767377915,-0.0031969133425072756,-0.015518269702464262,0.0008099456802365434
25,1.0041113853972763,0.012434249147506531,1,0,0.9871393319281406,0.09152887639991784,0.14723883554306147,-0.0031965695342418892,-0.02324334784401777,-0.0005225320821754256
26,1.004955889695547,0.01154122407358058,1,0,0.9930765241662509,0.09181735542290502,0.14670054213949094,-0.0005276467200801196,-0.012313500502030348,0.0002942454805024119
27,1.005188021371254,0.010547837976259836,1,0,0.987215716339429,0.09228629873410826,0.151026035598808,-0.003222777697067387,0.0026703325102305107,0.00491344232985184
28,1.004890828434761,0.009542816894835316,1,0,0.9849610556926737,0.09133950192463546,0.150615108849096,-0.0033204218454694775,-0.00681494831575361,0.004213188391347846
29,1.0041870141735625,0.008618570850216637,1,0,0.9877845079956942,0.09080674987702919,0.1473192648378453,-0.005185491187630597,-0.0010039089245090242,0.0037777640728904006
30,1.0032191179247798,0.007859865195101857,1,0,0.987899840180907,0.08986919046886421,0.1497647405509668,-0.0017701930586161289,0.0008675914756638597,0.0031365966521498534
31,1.0021320017840951,0.007334066919762652,1,0,0.9885852953263976,0.09066291363763086,0.14855779831865387,-0.0006400657606266404,0.0015536728380326865,0.005757240890044704
32,1.0010585970610746,0.00708435783775342,1,0,0.9852965523516078,0.09206020064907863,0.14571187342828143,-0.0059812981204716955,0.004271748185449568,0.004472088471395674
33,1.0001092731547863,0.007126344632749278,1,0,0.9839631044036196,0.0893958384121844,0.1448763519690976,-0.00313005509121812,0.010734387541602044,0.0011247112325411758
34,0.9993649210956933,0.007447678249603476,1,0,0.9832345158071959,0.0909487588067116,0.14624574354338363,0.0043331518908416465,0.005197161963662954,0.0008839871678678906
35,0.9988737447325625,0.008009940543294698,1,0,0.9832256140721598,0.09041860484669735,0.14407813482542964,0.0039281198759012845,-0.00036947842139225455,0.006246666564948427
36,0.9986515686622248,0.008752242287923238,1,0,0.9835873969332423,0.09331219056082764,0.1454647110856585,0.0047293930441870595,-0.007268788356271142,0.004640222263631568
37,0.998685130957539,0.00959641600436915,1,0,0.9902617216474578,0.09358833037713647,0.1450863986725956,-0.002384423471788542,-0.0009447288570178908,0.0026996074273315136
38,0.9989375030279712,0.01045396384555353,1,0,0.9807533589117025,0.08975233136694821,0.14475640992154956,-0.004543409249462241,-0.0006458128809085125,-0.002992888622219062
39,0.9993547215688839,0.011234764181470625,1,0,0.9833693408345173,0.09140914404135142,0.1412649328301243,0.0009483190274822404,-0.017629984481881265,-0.00353598686688312
40,0.9998729806004673,0.011856915153490535,1,0,0.9868565823680567,0.09042086078099296,0.1372838491042744,0.004892470312144677,-0.009802590407477727,-0.002601937044329618
41,1.0004260391448432,0.012256290816687306,1,0,0.9836203258375518,0.09337198251511214,0.14515850704523106,0.013951249294866725,-0.009373884768692225,0.0026457631409480637
42,1.0009525302562683,0.012393954661206873,1,0,0.9864476027293224,0.09107627735488326,0.1426606547828639,0.0033918355505504604,-0.018127488041545913,0.0019055676567278832
43,1.001402595503646,0.012259894961913277,1,0,0.9887896764238713,0.09163232441283284,0.14521600526354472,-0.0020828969200892625,-0.005777282878582104,0.002311177126932233
44,1.0017429555888597,0.011872504022504463,1,0,0.9938780564567986,0.09167731901481715,0.1393670310629176,0.0046103633735072504,-0.011329101701187219,0.003651360935317151
45,1.0019594287526523,0.011274333646934878,1,0,0.9870634855388853,0.09648472676015217,0.14197159890441333,5.061948104897379e-05,0.0063005185284102025,0.006489887227784094
46,1.0020562302755747,0.010525389414153997,1,0,0.9858443991802974,0.09344269169703372,0.14854596923724206,-0.0037677703862590236,-0.007872688985036515,0.004245744964276328
47,1.0020521419819142,0.009695340426738917,1,0,0.9868709227201419,0.09372157670690902,0.14408173392132365,-0.00955780168030933,0.004674187188708144,0.007821788763502327
48,1.0019745125751711,0.008855726424064916,1,0,0.9827352418277238,0.08821496413265062,0.14656273411186133,-0.005410224848807669,0.00420704713647581,0.003081621508688786
49,1.0018525871740955,0.008072937783873663,1,0,0.9875814985887253,0.08724639821291795,0.1456869344887262,-0.001788013507459956,0.0022394812628372413,0.001818986986080521
50,1.0017116475359986,0.007402612486008808,1,0,0.9863203285303341,0.09136160973503861,0.14787185758579413,0.006975265601364808,0.0019471791374368011,-0.0020415789580031374
51,1.0015689891802062,0.006885979016735628,1,0,0.9867454203294557,0.09220200013356321,0.14526486283920229,0.007076380438567061,0.0026795570759450583,0.00015264205668135902
52,1.0014321685734897,0.00654834428180424,1,0,0.9856012471220453,0.09298591129425308,0.14669808327993714,0.00750729791433581,0.0037825847892042686,0.002501976641771684
53,1.0012994894520593,0.006399453322455675,1,0,0.9848971619000123,0.09257121224817245,0.1460989189647945,0.0036741852548884137,0.0028954082507626714,0.004514051992545241
54,1.0011624260383127,0.006435160949703113,1,0,0.9855214866776292,0.09155155168542223,0.1481089142772162,0.004018752341334683,-0.0015645597839700884,0.003393823361174601
55,1.001009485470635,0.006639914573642798,1,0,0.986209802161398,0.09498813644634149,0.14943191843779624,-0.0009318655266337854,0.002178809986038785,0.003608744708023385
56,1.000830793046677,0.006989754720980886,1,0,0.9873820667644049,0.09492499380520503,0.14862209809780766,-0.0033489300768804473,0.003946323152070506,0.003382029374405519
57,1.000622498008423,0.007455589938971745,1,0,0.9848092240768259,0.09215484270930491,0.14691881520823305,-0.0029150385510726385,0.012434292268030799,0.004905004379363591
58,1.0003900808677462,0.008006333589540848,1,0,0.9848797301331889,0.09081453534260203,0.14456266665204248,0.0001687745959583952,0.002375712710644344,0.006804411010649312
59,1.000149825722928,0.008611361234932124,1,0,0.9886740254148791,0.0934659862323662,0.14070227882021918,0.002320174438244348,0.0035301608061124503,0.005267929341897559
60,0.9999279864315426,0.009241925356458739,1,0,0.9883549594767962,0.09447329364389596,0.14701455463171614,0.002760077650917347,0.007860163721226405,0.004348378999413275
61,0.9997574629531639,0.009871559378414616,1,0,0.9861128941315774,0.09306602213790059,0.14739061320386407,-0.0018170825345380766,0.011249306317017257,0.005472219299085371
62,0.9996722376499458,0.010475805743064757,1,0,0.9797824786923951,0.0900682819205445,0.14905926397243874,0.000912014832916807,0.009132444450214215,0.00407127351568942
63,0.9997004716193377,0.011031728110008899,1,0,0.9823563231366603,0.09157969212927367,0.14380976963968353,0.0016982625106846875,-0.00804804865687892,0.003590013830577401
64,0.9998577627246586,0.011517765890862876,1,0,0.9876722983481792,0.09299324636156564,0.1450361714550957,0.0034234072958787953,-0.002043011472939013,0.006464010614657662
65,1.000142220075298,0.011914545806919372,1,0,0.9810842425895429,0.09175901158641694,0.14394174108523294,0.004100440934499712,5.417470678295076e-05,0.005840739391923022
66,1.000532638777644,0.012207005465410899,1,0,0.9794849940742373,0.0895049888702936,0.14385032136127035,0.0036378306170932353,-0.012990729265664094,0.004080303408750262
67,1.000990393655849,0.012387447113528747,1,0,0.9881726884461421,0.09271584704450025,0.1430477132013174,0.004242086714445138,-0.020535631679729334,0.006721750137342838
68,1.0014648414641267,0.012458237908519913,1,0,0.9915230711040517,0.0929879050395448,0.14336341756469892,0.002424307252167346,-0.014254063675369468,0.005670850352613616
69,1.001901087662757,0.01243250210992174,1,0,0.9900123922923423,0.09498317628017122,0.14502355175954362,-0.0023998480880506688,-0.011835330394458285,0.00578731792213446
70,1.0022482901780598,0.012331798736235952,1,0,0.9873515936949565,0.09446549590674298,0.14861900605855716,-0.0041802034408188445,-0.009629093171226379,0.0033926900220679432
71,1.0024666989469349,0.012181173276438015,1,0,0.9879105774872998,0.0888446831387192,0.14732789334908944,-0.0011419341849289392,-0.005438878389036666,0.003370696376694093
72,1.002532349806476,0.012003256537084629,1,0,0.9854594681673752,0.08741029498888295,0.14980678197959504,0.0052553157325586335,0.002320083245894202,0.004774437527398702
73,1.0024392209240962,0.011813523460391278,1,0,0.9852082296411715,0.09148362452770263,0.1489838414220476,0.009608539966103793,-0.0029458585820836074,0.005611929420386618
74,1.0021992084408127,0.011618266095703596,1,0,0.9860278145814758,0.09371993520754489,0.1500461502468213,0.007842840586736238,-0.004926311638082608,0.00890903559314399
75,1.0018403330314058,0.01141567098411224,1,0,0.9924065242070372,0.09450944653288619,0.14707912061428008,0.002396385773859681,-1.997320692193812e-05,0.009258048223822007
76,1.0014033530188395,0.011199246830703289,1,0,0.9872318013772216,0.09360378415541944,0.15043092179385575,-0.005802364706273594,0.014691934954010182,0.00624427144200206
77,1.000936836923254,0.010962185739848829,1,0,0.9817446018694949,0.09238875936612154,0.1503097002606042,-0.0034856567681286594,0.010624594914264075,0.007064512356765078
78,1.0004910302720254,0.010701189007549728,1,0,0.9851706048927611,0.09195694983579722,0.14694265469103926,-0.0009427391869086039,0.00463259010715241,0.007477344141869089
79,1.0001113920122544,0.010418751582188314,1,0,0.9829584523404402,0.09460213189954901,0.14681367167426726,0.004100723100301547,0.009783331356732069,0.007513694477776757
80,0.9998330168346591,0.010123639606518813,1,0,0.9813450624655373,0.09342902943848166,0.1465710646239489,-0.0017000375114818288,0.0002485917561890011,0.007742079867775925
81,0.9996770191451951,0.009829974771385658,1,0,0.9839048723320092,0.09308251496535597,0.14742025669858785,-0.004175131226988115,-0.0014664197390852408,0.004291271869853076
82,0.999649418969218,0.009555690604909182,1,0,0.9869750984796248,0.09458689709976949,0.1453832157482866,-0.0008183888642180856,-0.008970502203067547,0.005903110582837195
83,0.9997423955092855,0.009321069024851147,1,0,0.9842618326231534,0.09364040483720636,0.1474556199042874,-0.006750893590392613,0.0034766699468543843,0.0026979011010754604
84,0.9999372284859328,0.009147684080139303,1,0,0.9851509475468957,0.09207687455599371,0.14885533117667027,-0.004812373763933337,-0.008257338524725884,0.003163593684265675
85,1.0002080285229131,0.009057594453342376,1,0,0.9864215311288889,0.09136805372242443,0.14444614427452654,-0.010185414144825095,-0.001345300142653226,0.006223879443908975
86,1.000525464570854,0.00907231217541478,1,0,0.9851826318842174,0.08678365839324825,0.14388678102101038,-0.004620552595048101,-0.012747528274747066,0.004114867803970349
87,1.0008599546655312,0.00921113009174007,1,0,0.9911895619103265,0.09232642105631035,0.1410095822277403,-0.0018256234849264765,-0.002156638994108729,0.002266013530619418
88,1.0011840579104578,0.009488840645751952,1,0,0.9834038405695675,0.09402033986110568,0.14662883824303252,0.00020965739675083314,0.005612949397240649,0.0033220235697071277
89,1.0014740812157201,0.00991346440704087,1,0,0.9822704363816631,0.09287534712653531,0.14505045662764005,0.00236517437711415,-0.007979097999475536,0.005106818268475871
90,1.001711164156299,0.010484853434192198,1,0,0.9845956194993752,0.0905692826802667,0.14553542375755693,0.000856832131502239,-0.007256503829061979,0.005551746359675807
91,1.0018821386487928,0.011194687272972839,1,0,0.9946186693249666,0.0906939536783405,0.1423004370172074,0.0026856914439637226,-0.007023489719541366,0.0075876554846631755
92,1.0019801405302018,0.012027683806628438,1,0,0.9907231496218,0.09451780462996559,0.147280555027741,-0.0001392006458256546,0.014780628068744722,0.009465219453226613
93,1.0020045643944173,0.012963262948742555,1,0,0.9819960328501086,0.09448570757405933,0.15112818091135188,-0.00625799137217103,0.009634000177286765,0.004475228271472789
94,1.001960019057119,0.013976729540878674,1,0,0.9838519017986399,0.09613389788737699,0.1468082606203767,-0.012686470832268216,-0.011744602294963569,0.0037105342221673103
95,1.001854503692791,0.015039357719727529,1,0,0.9869553360972572,0.09103713018900514,0.1461991477986451,-0.011013994847956454,0.00980590115166017,0.007466468409729159
96,1.0016975137129969,0.016117446913289302,1,0,0.9849368898050815,0.08849213977753517,0.1533852729261267,0.00020017312104567318,0.009389251953460093,0.0057907016304597
97,1.0014987368017256,0.017171198135463746,1,0,0.9869934221950808,0.09127738536398354,0.15146850458044991,0.007021119494417599,0.0072461311592540295,0.007559033941102942
98,1.0012675559524546,0.018154740020539777,1,0,0.9843670592395289,0.0922830825370703,0.15008315366072045,0.006905077994348391,0.008363683997226506,0.009861307453679287
99,1.001013151696944,0.019018452354022705,1,0,0.9883993884086991,0.0931538717412877,0.15007957803413002,0.008968315224433547,0.010657719239369683,0.011695612527763945
100,1.0007448051401133,0.019713819408893787,1,0,0.9862803853753029,0.09097950777044234,0.1505301647200185,0.005304270749370513,0.022852460140063202,0.01129236206106427
101,1.0004720523423452,0.02019981930956842,1,0,0.9827070586559277,0.08878569954692586,0.15154626290084985,0.011747383675128318,0.01722573482820982,0.009476791406153014
102,1.000204570853149,0.020449023290431318,1,0,0.9821273718301159,0.09050844800711466,0.1490781340205521,0.012900269934208397,0.012800326883813955,0.009824543774747922
103,0.9999519394202809,0.020451595623674743,1,0,0.9858658830998048,0.0913323936266852,0.14763722062910545,0.015105077795731519,0.007368588375766067,0.010007441251463653
104,0.9997234711878719,0.020216109198769195,1,0,0.9869717806262825,0.09230382618417725,0.15134142139099194,0.014483697817307604,0.020763446689468053,0.007946613034844953
105,0.9995281229320823,0.01976701287581498,1,0,0.983616120927636,0.09263401192600003,0.15231767313156142,0.008740299157778648,0.016561722686449974,0.007757697610649737
106,0.99937428164498,0.019139394068929467,1,0,0.9812056837088752,0.0919765056719817,0.14944080840012192,0.007463350005322422,0.010162254540235017,0.00919287222139017
107,0.9992692777320723,0.018372395854177482,1,0,0.9836291716720654,0.0911436187283946,0.15313300019380652,0.0045356726562945215,0.008758858567443758,0.007221903542951911
108,0.9992186837026681,0.0175031796949478,1,0,0.9853617037328491,0.09036627118180564,0.1523541816026071,0.008578063074948938,0.010893893683733022,0.004713954753614233
109,0.999225568177458,0.01656327985722877,1,0,0.9814535483206974,0.08877484691211317,0.15500761583558012,0.00966347216473749,0.010363293166694808,0.006167362102995
110,0.9992898359385451,0.015578345699911554,1,0,0.9839015787633534,0.08790635167206133,0.15364030367571502,0.010445158871284384,-0.003263254038875644,0.007749281018849811
111,0.9994077427902566,0.01457092148783472,1,0,0.9852534560572105,0.09107645845778106,0.15064320270841733,0.012532135686501671,0.013766687592118845,0.006474824035671159
112,0.9995717001280404,0.013564674039312984,1,0,0.979343890589929,0.0904196762798793,0.15820516871600723,0.012935210762600471,0.016003267037885627,0.006302139763706494
113,0.9997705164063909,0.012587864676468666,1,0,0.9826673976619726,0.09282309781665897,0.15603291892599164,0.009835080763753083,-0.0009863189302084308,0.010025359326866426
114,0.9999901813454083,0.011674167996685,1,0,0.9875970788879533,0.09389588650664962,0.1542534404682872,0.002713760522969692,0.00290024423829282,0.009650909903337088
115,1.0002151548687856,0.010860086936647664,1,0,0.9804552619339987,0.09064696791700898,0.15729310394991786,-0.000130398550862012,0.005678510673422942,0.007465462912323192
116,1.0004299520262152,0.010179630828757875,1,0,0.9853679132151371,0.08894259593191789,0.15127660597070297,0.004790528049261407,-0.005670574790853274,0.005380472248281713
117,1.0006207435924785,0.009657897399215078,1,0,0.9860087824218217,0.09152091559062672,0.15514612581708487,0.005461952667866071,0.004994792142464297,0.00470076486392288
118,1.0007767296845136,0.009305441008764029,1,0,0.9849565336582246,0.08865054090870551,0.15478066545490052,-0.0029792823281336867,0.005298752390437338,0.002793868996244725
119,1.0008911116259294,0.009115013002137866,1,0,0.9818235598564955,0.09082525460959767,0.1555659717121848,0.0012498754335154435,0.0024395499841779254,0.004061323705785133
120,1.000961563110872,0.009061684871405051,1,0,0.9858878230822942,0.09355487897539082,0.15573408443561734,0.002184968080276396,-0.004366333685421431,0.003934885320945441
121,1.0009901723136803,0.009106571142190692,1,0,0.9873421561498722,0.09132098721974678,0.15672960570569758,-0.004373822147736547,0.009922608044252185,0.0051248533731003
122,1.0009828535702714,0.009203388022307387,1,0,0.9823972339365866,0.0904965095343617,0.16007023662371433,-0.0058118160078699625,0.013778952613657337,0.002825452643507532
123,1.0009482699582761,0.009306206784232647,1,0,0.9828752028496236,0.08897256029058456,0.15889564114783725,-0.011253345407292089,0.0029282128203785692,0.004454365286971061
124,1.0008964538297231,0.009376482625970576,1,0,0.98408837837548,0.08710525121344913,0.15420406980448437,-0.005346665583376197,0.005529865984943627,0.0028061105002899498
125,1.000837458407944,0.009387994493052066,1,0,0.9840999707187066,0.08863797505569064,0.15438980948273665,-0.0024116150507722677,0.001149373183330185,0.003394310706033714
126,1.0007803198750649,0.009329333818472018,1,0,0.9872334080318714,0.09099472106937054,0.156531327196141,0.0023789716074337167,0.009155790332866447,0.004306001987303381
127,1.0007323601701044,0.009204304258886827,1,0,0.9855314512798584,0.09258774918754571,0.15556400864335038,0.0010312247429962143,0.010110685190159828,0.003484716477666666
128,1.0006986549814625,0.009030665916078944,1,0,0.9810399206845791,0.09160664752089288,0.15545688645381908,-0.008567297706043189,0.004063728515463833,0.002320155958934679
129,1.0006815246963279,0.008837356150342526,1,0,0.985953360564584,0.08960537648712821,0.1555881863064092,-0.00934209868592742,0.0028677901760418437,0.004247869935176164
130,1.0006801096728155,0.00866016345783136,1,0,0.9845966786902448,0.08846371842154015,0.15850671436410976,-0.005689894294640706,0.007601564472153177,0.0034021148058795128
131,1.0006902456066011,0.008536045492951548,1,0,0.9823054371709353,0.08931025592022585,0.1617441146684649,-0.004115704661160743,0.007327633137921743,0.001576527065716878
132,1.0007048683515374,0.00849674332781504,1,0,0.9814163848818772,0.09085980458578946,0.1546459430964498,-0.0025790600693550367,-0.0006962469292158529,0.003050087186168191
133,1.000715099615922,0.008562794641997737,1,0,0.9844081367904643,0.09213310686272663,0.15709903196637082,-0.0058405881038128705,-0.0001886692469911697,0.0013786757346916064
134,1.0007119882145707,0.008739211391723165,1,0,0.9874238328524675,0.09018590667372453,0.15857722347943592,-0.006308003580862018,0.007686074952515511,0.0018838744103896095
135,1.0006885897247657,0.009013792453783871,1,0,0.9846494957290167,0.08864642716106,0.15640797084805227,-0.006286219794527098,0.008664163903089647,0.002050202157392169
136,1.0006418314307204,0.009358430654802269,1,0,0.9837162358846764,0.09103014824304477,0.15704817454142492,-0.00027387147267456276,0.003009603851825441,0.004372380577105166
137,1.000573652484305,0.00973321906343019,1,0,0.9820447168541381,0.08747821817769029,0.15592903889778179,-0.0043992576983376604,0.006920601030121687,0.005636066873355519
138,1.0004911778960985,0.010092843644495357,1,0,0.9832415554741546,0.08763658201933275,0.16069317528423605,0.0010071734203197635,0.000631600144267973,0.004065373292235026
139,1.00040588646678,0.010394467120265401,1,0,0.9921835515686146,0.09172053240411572,0.1567298423494953,0.00801564772336879,0.011018298814339631,0.004965804706707743
140,1.000331749131025,0.01060582962474765,1,0,0.9829481389441075,0.09367422865042921,0.15893964859351736,-0.0005688822230031384,0.019716600314682937,0.003106382148504212
141,1.000282405034497,0.010711783456137741,1,0,0.9747357738889927,0.09648641644447652,0.16318621997284788,-0.008326997436222195,-0.0029044695835398573,-0.0009876561709007087
142,1.0002678584124398,0.010717456034878274,1,0,0.9847053204749006,0.09393478183681855,0.15675813675017097,-0.012430951919653304,-0.0076006712610577985,0.0010001307703157028
143,1.0002916734791258,0.0106470089855913,1,0,0.9814347812485301,0.09253630851923733,0.16394370922908488,-0.008346760998062325,0.009404662244825552,0.0027230828971319576
144,1.0003497041079108,0.010538250910599732,1,0,0.9798216934775155,0.08908051107654755,0.16201299803115632,-0.0032478104893375105,-0.00025814503708304734,3.99853902408575e-05
145,1.0004309059347303,0.010434562017606577,1,0,0.9829999150926981,0.08942673675675389,0.16252683360386086,0.0039054528927396186,0.007887125639256089,0.003656030154054859
146,1.0005200697233954,0.010376237612325246,1,0,0.9842853576759114,0.09168574969588267,0.1649917487335821,0.007546663818502984,-0.004517029518753587,0.001218984169579498
147,1.0006016816347025,0.01039327351319885,1,0,0.9866121326948328,0.09310484177425625,0.16251290062327492,0.006453249685140369,-0.002377854871410351,0.0008288887771364299
148,1.0006637144766612,0.010500912105597662,1,0,0.9861509373852985,0.09347390010637,0.16071010133192326,0.008526063938165148,0.005482641810478875,0.0041124850784227335
149,1.000700166308957,0.010698299954939315,1,0,0.9813806893933164,0.09289711069235956,0.1627979392132564,0.010363268444158897,0.011670084479357419,0.001987773331341896
150,1.0007116655909285,0.010969768650812867,1,0,0.9808971944553861,0.0951046441521899,0.1654517831127005,0.01138172081976401,0.00016952372957890934,0.001841083148143268
151,1.0007042095121748,0.011287833102045215,1,0,0.9842240247620688,0.0948808717694332,0.16341924276274433,0.009743141299401901,-0.0008862352195585174,0.005031597103882915
152,1.0006866804954275,0.011617128014810263,1,0,0.9816053246620756,0.09154291884174351,0.1654544836270854,0.004762871812013227,0.005960653891497943,0.0030927562552221107
153,1.000667989659543,0.0119189623698473,1,0,0.981068029487746,0.09088330894629558,0.16041331752773663,0.008729107792337652,-0.0003154449795380464,0.005520501764351945
154,1.000654619888421,0.01215648757195043,1,0,0.982062315055205,0.09178831345618672,0.15910823397630744,0.010258845515857767,0.0005365033060553257,0.0051323981802527145
155,1.0006491183188062,0.012300329819959505,1,0,0.9863652301760437,0.09322463166711714,0.1662892448178387,0.014412261338964238,-0.007694404205699381,0.0018980837762877037
156,1.000649761108021,0.012334061458381538,1,0,0.982561926696527,0.09483167375528122,0.16171728529426932,0.008353980004249528,0.00580712038926608,0.006320607161235085
157,1.0006512940975674,0.012258494859163395,1,0,0.9785708560363195,0.09086491571303208,0.1655693277307825,0.006570287307516314,-0.007720191958209862,0.0074705862916755895
158,1.0006465078866957,0.012093770768095062,1,0,0.9846338295138952,0.09040623764229909,0.15928479636196646,0.01033601724209369,-0.004675118365622646,0.00622097280756131
159,1.000628389396222,0.011878528119692748,1,0,0.9839461009689661,0.09023996949373939,0.16314378670049862,0.011575721955381512,-0.0027792144556759856,0.008374425680966626
160,1.000592487331868,0.011665861999344539,1,0,0.9838634822856511,0.09395222848731824,0.16632461807903268,0.008265411659506821,-0.006975615054463731,0.010185733994546347
161,1.000538919773564,0.011516232732769648,1,0,0.9836907888306249,0.09584078635703962,0.16180772129578744,0.003838805158573304,-0.00022448189536680883,0.010735285194344869
162,1.000473379130576,0.011488077848814995,1,0,0.9848906619091342,0.09341523676504732,0.16322354161118388,0.0015250207693135488,-0.004408976945101234,0.007207175078766101
163,1.0004067193586885,0.01162757140239226,1,0,0.9814633648967163,0.09233586137528146,0.16320923989710823,-0.002790436688767836,-0.0017481381861421807,0.00847335444582514
164,1.000353162334722,0.011959482191235972,1,0,0.981159848093094,0.0896018796207273,0.16053447395745885,-0.0024726941340778496,-0.0069255850261241625,0.006495808694254321
165,1.000327615951139,0.012481079389956563,1,0,0.9829491135722762,0.0909993037344177,0.1641583536972051,-0.003538191805190524,-0.00328144471071552,0.007257802846595653
166,1.0003428383366,0.013160453579990026,1,0,0.9810268265376342,0.0944683036300575,0.16105986702854472,-0.004685324082733336,-0.00826191812633514,0.007844528285525522
167,1.0004071133706132,0.013939662893659843,1,0,0.9835633731446944,0.09192717632795591,0.16081220430192444,-0.009070233572178083,-0.010776482938406856,0.005095083353565957
168,1.0005228120251008,0.014742071907056715,1,0,0.9835668072856735,0.09262660856781377,0.16227365982717684,-0.012600275495902724,-0.00953577815108996,0.008536109657286364
169,1.0006858919529553,0.015482425040607902,1,0,0.9841168266030191,0.09322990813125707,0.16032926158865973,-0.010191615002992933,-0.007101297295944894,0.00842801444101711
170,1.0008861822006938,0.01607783281319829,1,0,0.9824752698453673,0.09144656824090124,0.15895541869836463,-0.014396988671545763,-0.007817997243327499,0.005956316577246686
171,1.0011082565938043,0.01645798810401196,1,0,0.9856411301716185,0.08998405177924604,0.16217258521785174,-0.012653720825424887,-0.009971708415882363,0.006416357597542536
172,1.001332767551331,0.01657336214838091,1,0,0.9836292730366563,0.0889530168339108,0.1635973783505949,-0.012949465211964615,-0.00824449482699411,0.007499728748149906
173,1.0015382053927302,0.016400602209445753,1,0,0.981393289053767,0.09189233389468686,0.15975664142483378,-0.012109263421447287,-0.007693722704447607,0.005162410662370525
174,1.0017031020827976,0.015944747452783688,1,0,0.9821614978269687,0.09061774286619267,0.16139300992510133,-0.012939017713557337,-0.01456296748115124,0.006198309191122072
175,1.0018086341774326,0.015238202481891635,1,0,0.9887639783285463,0.09167460422383773,0.16086611068778195,-0.011481248752586028,-0.009468252810572703,0.005310224926571552
176,1.001841329024925,0.01433673389687574,1,0,0.9870003634807087,0.08772471175925255,0.1598037144119137,-0.008592428871381638,-0.006477978919060634,0.004524674154549219
177,1.0017952675331467,0.01331315470096832,1,0,0.9849107858428506,0.08830872318715159,0.16016786055279733,-0.00863915173685052,-0.005471436276233826,0.005785650772521351
178,1.0016731171828486,0.0122497418343082,1,0,0.9858082802603098,0.09233216773119911,0.157852938865145,-0.005790194889645967,-0.00786319073656305,0.006546363265452554
179,1.0014856628944402,0.01123054841169093,1,0,0.9842653999968373,0.08984357246946298,0.16344748485743713,-0.008509204020415826,0.0031597696549767827,0.005220075791102665
180,1.0012500253737422,0.010334512473698935,1,0,0.9808376324521297,0.0868668209379424,0.16274639007278505,-0.003607246486928738,-0.002356203711232523,0.005963903723941694
181,1.0009871579355483,0.009629780442014745,1,0,0.9815554120546784,0.08890567355564594,0.1596001636977238,-0.004393119137827453,-0.013219195374377884,0.004306784725585127
182,1.000719309051897,0.009169191635613373,1,0,0.9859792011514433,0.08860424065065982,0.15948685678596147,-0.0018902578410506404,-0.013418214013032753,0.003786984569672469
183,1.0004678908449285,0.008986626572021466,1,0,0.9867837136545028,0.09171395232993297,0.16049264196780869,-0.0008658650134626798,0.001808421571164753,0.003770541765975694
184,1.000251773340733,0.009094089488466385,1,0,0.9840362312211821,0.09018405356656244,0.16099331395924174,-0.002741961888442711,0.005357965025113253,0.00515309147267918
185,1.0000857961020617,0.009479891704614007,1,0,0.9808194847060113,0.08883332918539102,0.15856065110621956,-0.0024537503605262818,-0.0025382538554771404,0.005295512519921672
186,0.9999794744184614,0.010108668422669675,1,0,0.9796437384827508,0.09045558206896007,0.15697712740847913,0.001529984152470474,-0.00905129965031644,0.0045737486415221885
187,0.9999362403718959,0.010923801753862178,1,0,0.9817121996017584,0.08765541302610405,0.15862435705410033,-0.0021524664936068087,-0.011971278135606155,0.004698879283089994
188,0.9999536226657255,0.01185225348935798,1,0,0.9882542367749483,0.08810181243043187,0.15881984222224713,0.007090022376937228,-0.008194924634467096,0.006844446065183134
189,1.0000243662855128,0.012811283929089222,1,0,0.986293194498238,0.08944616506200781,0.1544392576659639,0.004384763786201492,-0.003355826886926472,0.006437988844085968
190,1.0001379860899733,0.01371632111316893,1,0,0.979801231847822,0.09128325562490464,0.159801802026328,0.00044123719924095856,-0.009508769620819512,0.006888471124854804
191,1.0002821252231853,0.014489210063278664,1,0,0.9868303518971567,0.093598120541859,0.15912625378911896,-0.00647645718676735,-0.021066817818943536,0.005009501040119312
192,1.0004434236900712,0.015065948596885112,1,0,0.9818471707292427,0.08977502376521419,0.16344891420310778,-0.012289291061200686,0.0030824499999615165,0.004648035628893653
193,1.0006080613710684,0.015402862918728132,1,0,0.9767858008245272,0.08760298998382854,0.1609001291581739,-0.003019030301525176,-0.013440725187352048,0.006502483239255791
194,1.0007623984741074,0.015480310763300354,1,0,0.9872307680278941,0.08577479771290386,0.15894553186516536,0.003846370874765858,-0.017199350983819656,0.007781425946008144
195,1.000894057122076,0.01530349699606742,1,0,0.9864217190749517,0.08999936649315685,0.15679707306504945,0.007498680241823218,-0.010723608328636312,0.007005099556171607
196,1.00099340686468,0.01490058630814086,1,0,0.9860414742410727,0.09269589130661901,0.15642660122162147,0.003194489983999746,-0.004404888734012181,0.0064771297451635314
197,1.0010550166561625,0.01431874415315206,1,0,0.9824540484903805,0.08897909453198426,0.1588976144043299,-0.0005822201026901873,-0.01259886030649905,0.0064009754282321725
198,1.0010785614626205,0.013618862507419621,1,0,0.9847144885935765,0.08716477944722953,0.15506403152684695,2.9274717285458722e-05,-0.017732797116699645,0.0044892932761532766
199,1.0010689196433114,0.012869458643217913,1,0,0.9857067634438015,0.08810388149885463,0.15907095221411283,0.0013927592394767146,-0.01618744576341085,0.006587469533169295
200,1.0010354530959649,0.012139854063360161,1,0,0.9849383779647216,0.0929367874913377,0.15778556953583253,-0.0009849042458023169,-0.00876382292051224,0.004985305089690821
201,1.0009905548543065,0.011492771842662642,1,0,0.9844450365757409,0.09137638074357679,0.16202993208967043,-0.007867408262637234,-0.001681847076301718,0.003578973289714765
202,1.0009476016387155,0.010977050806675003,1,0,0.9836860600371234,0.08797052460221469,0.15651025344865152,-0.007727376905739011,-0.005637283119888215,0.003032439939356239
203,1.0009186010518203,0.010621757180098305,1,0,0.9832525362069636,0.09013078529626804,0.15422990998766828,-0.0037648508238611986,-0.005084787163896723,0.0024116968136271852
204,1.0009120133184275,0.010433033570993594,1,0,0.9842403686550828,0.09029667961226165,0.1558861773749742,-0.0032408545527661706,-0.007031378592702465,0.0033994587686739363
205,1.00093128400466,0.010394485541417638,1,0,0.9844181731876366,0.08951215957500963,0.15798818554783473,-0.00356773031636761,-0.011035908616090601,0.002974513222909974
206,1.0009744697002254,0.01047104900776372,1,0,0.9838283211483789,0.0891282680400684,0.1503870352847367,-0.003815955211592236,-0.009986238616009915,0.0020277506845730914
207,1.0010350536369856,0.010615456298411688,1,0,0.9859162058238333,0.09031169807773062,0.1560145448822454,-0.0022447091006881016,-0.011911281194330063,-0.0005079948503390506
208,1.0011037567889445,0.010775910591299813,1,0,0.9833699435362113,0.08799498783062124,0.15483654227769475,-0.0006677477320149718,-0.012774450595198196,0.0018676807679248763
209,1.001170909088347,0.010903518671366378,1,0,0.9872718531667417,0.09047249044777839,0.15275139835969392,-0.0008686406348890319,-0.011708456680430648,0.0040621747899584676
210,1.0012287712362258,0.01095836084892098,1,0,0.9889322587886034,0.09210564106658081,0.15458484109624013,0.0004569326010117738,-0.009633027986020311,0.005691618434283279
211,1.0012731541206676,0.010913625620881889,1,0,0.9846928495031467,0.09094304922250032,0.15448271555491325,-0.0009723252139460843,-0.0002568840113520452,0.005152491050283034
212,1.0013038779877317,0.010757774337675573,1,0,0.981914604104599,0.0911659761412142,0.1537793558663086,0.0003079643851131227,-0.013098950244055985,0.0017400770515123057
213,1.0013240403591057,0.010494965066212501,1,0,0.9862899117695247,0.09055422429101781,0.15372303654466912,0.0040905479576504285,-0.010919970049479524,0.0038893537596413536
214,1.0013384802188345,0.010143865266470037,1,0,0.9852690907646077,0.08904342074138663,0.15649303381409624,0.0048874568514887945,-0.010996498672060484,0.0037082489457603406
215,1.0013519708320044,0.009734787024941073,1,0,0.9853868980648376,0.09014247164983467,0.15821881721749573,0.005418834094829982,-0.009711003714511704,0.004813993605486512
216,1.001367570212097,0.009305183180326197,1,0,0.9840067069803878,0.09016517202291317,0.15809929417599186,0.0032981077284119946,-0.0018903292421900385,0.0026621704877029862
217,1.0013854437399359,0.008894022021143944,1,0,0.9825908001651698,0.09072874011583364,0.1550772609125465,0.004572158980902196,-0.0048586533093870074,0.0030138293510978717
218,1.0014024428045367,0.008536058250565878,1,0,0.9848736953821208,0.0906372685995012,0.15343974235519192,0.003002893078577579,-0.006269372025462518,0.003030255345202431
219,1.0014126396124505,0.008257118414223396,1,0,0.9843248111936956,0.09079121684659464,0.15492221278418414,0.004414206070894137,-0.008314771866646002,0.003883099581272624
220,1.001408748912325,0.008071156432125165,1,0,0.9884498423137172,0.09119534016503555,0.15657848910916053,0.004621571187224394,-0.005484608991517258,0.0042508555483367705
221,1.0013839945007201,0.007979340045984166,1,0,0.9872780709460308,0.09263120087145085,0.15676970180822586,0.0019145777632523936,0.004072446527663054,0.0044033286152342175
222,1.0013337677411034,0.007971141431409154,1,0,0.9836818210935163,0.09046212617252684,0.15649986583217104,-0.0009176599461765554,0.003354064635795062,0.0049084235464776655
223,1.0012565870111292,0.008027322089073608,1,0,0.9821779231899919,0.08806427545598108,0.15784239097472613,0.0014704867997593978,0.00398029324575516,0.0042489365366193185
224,1.001154308449276,0.008124555932945308,1,0,0.985241862000561,0.08736484432465987,0.15470813767376804,0.004437641523088699,-0.0058931775242429,0.0005473488520777494
225,1.0010318992877174,0.008241038533834875,1,0,0.9855233507881432,0.08773741510455361,0.1521679594691197,0.011260912512146917,-0.003277214719677456,0.0045886397765945814
226,1.0008970949099434,0.008361899036517422,1,0,0.9842897926647672,0.09458353885954109,0.15411480587725773,0.011697891325669695,-0.0009324621129000995,0.006354839392896892
227,1.0007600011201927,0.008482929416260294,1,0,0.9862090296965286,0.09348466840377333,0.15647112683506145,0.006332990771534706,0.0029135674311353793,0.006437056231463817
228,1.000632453804839,0.008611421012843245,1,0,0.9831991442896293,0.08969040268287018,0.1541344602639841,0.002744189596319413,-0.0036590772025701206,0.004455177885076918
229,1.0005268847310234,0.008763744337329215,1,0,0.9852718196054064,0.09232247535289559,0.15560707417252503,0.006733699514078251,-0.008285430383671138,0.005117646089679941
230,1.0004545549294082,0.008960308638277448,1,0,0.9878687508807206,0.09228796272684814,0.15464361831313092,0.004397566942538403,-0.004357192426487397,0.0029641332690757815
231,1.0004232389702596,0.009219247437900565,1,0,0.9833400434948472,0.0932748448341335,0.15780927361701724,-0.0019157768655733002,0.0032968641043354878,0.004372934346716729
232,1.0004347664241704,0.009550449777159901,1,0,0.9775808022168362,0.08982206593127454,0.1593486827587709,-0.004872023556081736,0.0008763942638820393,0.0017143663988236737
233,1.000483211314305,0.009951412887832321,1,0,0.9813683479495595,0.08769502579034247,0.1541709911313515,0.002692483444821611,-0.011837085542010664,0.0024789416813554457
234,1.0005547077896373,0.010405838936796726,1,0,0.9856477267935577,0.0874544337950982,0.15043944783791494,0.009695048425953739,-0.005815850346244981,0.0014846412049984892
235,1.0006295283239446,0.01088510449163187,1,0,0.9841180915082434,0.0931710701320434,0.15465189865522874,0.008175113692912874,-0.0035006405985748396,0.005735126477352864
236,1.0006862228720192,0.011352085193183597,1,0,0.9853582178904112,0.09569531639179056,0.15774078573411293,0.003454775935725771,-0.008008551267280284,0.005520724164947779
237,1.0007067470922393,0.011766568501304807,1,0,0.9853894482331054,0.0928001757269374,0.15368448355221856,-0.0023325322480447766,-0.008346278347871348,0.005845037486044156
238,1.0006810531306718,0.012091490516245959,1,0,0.9916626392008923,0.0916379013829806,0.15318838895710835,0.00022646677958399283,-0.012041924655174991,0.007174877090061688
239,1.000609718735381,0.012299203524336126,1,0,0.9861594816603437,0.09371474113130525,0.15221463446853806,-0.0022260800038199856,0.008730305031159439,0.003332081827620821
240,1.0005038033307723,0.012376832841605238,1,0,0.9765040176429712,0.09233750747953227,0.16139020192545814,-0.012130065736506893,-0.008750550952580309,0.0012034848085181477
241,1.0003820735151372,0.012329631285002295,1,0,0.9860797953136263,0.09214876131910546,0.15406750479361153,-0.014721348074460574,-0.014540931724933365,0.0017095319182645866
242,1.0002666319791513,0.012181275409986304,1,0,0.9818177547254601,0.09017944227694905,0.15865439638129802,-0.00975399238631565,0.004317213752390363,0.0035407256569686034
243,1.0001783605209484,0.011970485942343631,1,0,0.9795507674051851,0.08918198144802088,0.1551511614854132,-0.00436271699194214,-0.011195496762325613,0.0007199135308944782
244,1.0001333566366741,0.011744265888849961,1,0,0.9849194282910299,0.08934340595466035,0.15472140671061618,-0.0030633034765413757,-0.008666688957094496,0.0014872911044380662
245,1.000140961604973,0.011549110828175316,1,0,0.9868423299088432,0.09083832543590709,0.15532776055596478,-0.003374490983951267,-0.010226357440485069,-0.0009553208319733383
246,1.0002033328605509,0.011422218991897085,1,0,0.984588654600746,0.09027107411974175,0.15039910607960763,-0.0017033228606568084,-0.005036093493673713,-0.00022528585566006112
247,1.000316047814964,0.011384732616256193,1,0,0.9854050628332962,0.09016721727248271,0.15385173440871486,0.0007408314002165109,-0.01257402343055592,0.00298883408340037
248,1.000469136374496,0.011438476707375562,1,0,0.9851230621300394,0.09172946085745005,0.15260355726531086,0.004321528388577966,-0.009803941859694042,0.004321487748715646
249,1.0006482026081989,0.011566807402249177,1,0,0.9832376754065291,0.09223793465063551,0.15721739910650004,0.0016111684534742309,-0.005460680014139816,0.003597561443913061
250,1.0008356758070018,0.011739325672396625,1,0,0.9821641126124636,0.08829333009683164,0.1560618172209808,0.0008695132453150933,-0.005221343857801523,0.0063919580859873575
251,1.0010124929937179,0.01191946868110673,1,0,0.9812726880071656,0.09015043454041732,0.15630265411457553,0.005287976913525999,-0.01541400385267696,0.004166549636014215
252,1.0011605066061895,0.012073285307321716,1,0,0.986011587855035,0.0912951063524967,0.15264611733633773,0.0093120678104657,-0.018555820671618376,0.003356944020403511
253,1.0012655630968503,0.012177139344701562,1,0,0.9884930103307743,0.0945533042315487,0.14923614794288256,0.004847141898675426,-0.011495960721048354,0.0013857837586515633
254,1.0013206380653878,0.012222133899571459,1,0,0.9866421488238482,0.09411014332773682,0.15463627170724945,0.003429844935449765,-0.013706711339663658,0.00227065122917582
255,1.0013279966783997,0.012214013806091759,1,0,0.9887193228748167,0.09178350613460741,0.15245718996233792,0.004865094448506486,-0.012978418302414625,0.006110605151914518
256,1.00129940990975,0.012168817425200833,1,0,0.9853550844225855,0.0911183363521913,0.15613563827170962,0.0009962367076874104,-0.0044480006167131585,0.004375765439587406
257,1.0012540296593115,0.01210592162992885,1,0,0.9823204901237924,0.09196745420984503,0.1551126649363853,0.003619586077224737,-0.0040354657757425095,0.008062801052508613
258,1.001214326949473,0.012040876092043679,1,0,0.9838675705833876,0.09192068917172881,0.1582265008325388,0.0028357345596588006,-0.0028948999865108923,0.0043161304207063635
259,1.0012011390567839,0.011980362152301008,1,0,0.9833599822359369,0.0930242561116365,0.15516126295629326,0.00555590246706719,-0.00843724689745378,0.005301730119103424
260,1.0012290941688844,0.011920765156780411,1,0,0.9838603960472978,0.09278141745978509,0.1568436548405563,0.00621074416362181,-0.00987411331350883,0.007412287086247707
261,1.0013034893069541,0.011850548168934558,1,0,0.9827729355056621,0.09388230504269915,0.15717032272739898,0.002039554337914087,-0.005969676231822389,0.006653653366743038
262,1.001419275484206,0.011755389899579837,1,0,0.9823018269593008,0.09443332528546505,0.15422983575832885,-0.0029776751975985403,-0.013115034406423113,0.003509224541893148
263,1.0015623039786632,0.0116242847880874,1,0,0.9856493553905664,0.0941749806653169,0.15202014255480098,-0.005223333865412264,-0.01967967646596132,0.0022320267963784686
264,1.0017124440121241,0.011454603802876722,1,0,0.9906927742220059,0.09431896410475947,0.1511819675814344,-0.004005473759680863,-0.010637035400796396,0.0049201029758928275
265,1.0018476698766596,0.011254506532607123,1,0,0.98853053894967,0.09413332039685175,0.15371690365561502,-0.005746080276962222,0.002534815174680298,0.00486539299559011
266,1.0019479791002013,0.011042037097318498,1,0,0.9823969657310548,0.09222282155079742,0.1576901905746575,-0.008801026060422348,0.0015875535344415422,0.0048387532067285
267,1.0019982637229017,0.01084135077190535,1,0,0.9848521385253501,0.09168489955263195,0.15459341817399622,-0.010741838348155782,-0.009249192190060339,0.0008400590274702164
268,1.0019898688747557,0.0106772511565825,1,0,0.9862306462952448,0.08936681769230624,0.15470746772403388,-0.007996122561868067,-0.004962055702366768,0.003117157926124354
269,1.0019210810511259,0.010569421128349235,1,0,0.9852768374919953,0.0897601731483759,0.1550696296011569,-0.0036222814890383686,-0.0011479157792781787,0.0026545375104627014
270,1.0017969078270832,0.010527680088106131,1,0,0.9859698528845435,0.09006387755434433,0.1550088630692871,-0.005916913256688791,0.005630268700321868,0.005475849464785354
271,1.0016283599641624,0.0105494132116973,1,0,0.9850610377862846,0.08827742704753774,0.15280646838971274,-0.005327064070279851,-0.0015787130576238272,0.006701701033131547
272,1.0014312745924554,0.010619829790091082,1,0,0.9882832379204434,0.09363850362721313,0.1489726478511471,-0.0066104992234304475,-0.011228371325981567,0.004751728959078268
273,1.0012246354488934,0.01071493475949699,1,0,0.986768843131811,0.09311326757624004,0.14408536272048386,0.0020254807146252263,0.0021234102902479564,0.008333587929805415
274,1.0010283722337372,0.01080639331697185,1,0,0.985411510934827,0.08990778407387975,0.14886245034039886,0.009553739279687508,0.005499738419737156,0.006580369952049451
275,1.0008607705515427,0.010867135973353476,1,0,0.9842409071869453,0.08914573445638527,0.15605095038619485,0.0069713551194771975,0.004967654215166133,0.009126711147853583
276,1.0007358485506515,0.010876591095633693,1,0,0.983830177094594,0.09019694522617767,0.14963344053132596,0.004022567999521793,-0.009223171084114128,0.00692979913917959
277,1.0006612159928283,0.010824703208052308,1,0,0.9838057122130858,0.08958952138772881,0.1523329318224955,0.0019615103689016164,-0.001727623267809051,0.007182058230414763
278,1.000636899870672,0.010714275738267312,1,0,0.9850164346379437,0.09031009605776426,0.152227209899691,0.004493219898231942,-0.009010410355498587,0.004177426319853296
279,1.0006553934276574,0.010561510054437468,1,0,0.9878024823501532,0.09187518085187873,0.15183340612180798,0.006266108498772143,-0.009150632900018996,0.005869812179666186
280,1.0007028940319471,0.010394743362294888,1,0,0.9835894564781495,0.09259336714997735,0.15181513863229013,0.00753819000075648,0.001802782736029574,0.007618068374475034
281,1.000761524387223,0.01025135814322826,1,0,0.979641624513785,0.09086870286320477,0.15315625177761874,0.006697634672966376,-0.0035025512126475194,0.007322250271246842
282,1.0008123252405217,0.010172867972886192,1,0,0.985416690883411,0.09064657689458645,0.1523050632360702,0.009566687710487801,-0.006815552964097199,0.00801852529499348
283,1.000838760351247,0.010198427853118041,1,0,0.98997140440633,0.09335246259627229,0.14662796703045627,0.0060254438411484,-0.0073795431737854545,0.0015908314807929935
284,1.000830196260659,0.01035745049576565,1,0,0.9855745491275104,0.09515476828470427,0.15241912489292386,0.0026987622290042153,0.00022349995262195397,0.007210617467416451
285,1.0007844945401128,0.01066251582582025,1,0,0.9850434071784594,0.09237235873761138,0.15472521756809804,-0.005605188923272929,-0.0007385742921155857,0.007325973284032544
286,1.0007088711459187,0.011104127165330971,1,0,0.985279192131752,0.09006583179522365,0.15605059261798757,-0.003701316442328922,0.003388690592542684,0.005917386716103998
287,1.000618626977816,0.011648839967975607,1,0,0.9873429747324313,0.09076189453631898,0.14972324450515673,-0.004860765303167907,0.0026112152374453018,0.006364485857393242
288,1.0005339717935116,0.012241759439125671,1,0,0.9819205388663823,0.09137825522750553,0.1519765079729318,-0.007704705630758397,0.0018154670920095327,0.003494299386829839
289,1.0004756928572183,0.012813474222872085,1,0,0.9814960719873875,0.09269575225779961,0.15350588649227018,-0.008195369105489566,-0.017155491728990883,-0.0006926139703295601
290,1.0004607396683494,0.013290406269083966,1,0,0.9858667603896429,0.09409626931973952,0.15308449413006053,-0.01093466494756347,-0.0059318184502104914,-0.00036954799461294703
291,1.0004988112506195,0.01360666618163556,1,0,0.9797744326473986,0.09229017795391588,0.1549757081819677,-0.012726761256902022,-0.0033324093090681853,0.004022268559712058
292,1.000590715572569,0.01371513815236886,1,0,0.9855668868225262,0.08737119143558562,0.15422514351610037,-0.010390474671929125,-0.016332662508546092,0.0024462770816071873
293,1.0007287521786572,0.013595724812193864,1,0,0.9864637692377577,0.08871849484395446,0.15395346498884324,-0.007852664180778242,-0.009560795886266299,0.0024007867945413665
294,1.0008988394047378,0.013259254580964538,1,0,0.9830766695390881,0.0894986553817123,0.150215209901254,-0.0071088202176802185,-0.016286520165862545,-0.00018882952476844298
295,1.0010837069920955,0.012746329341132553,1,0,0.9889588215560565,0.09052665754222644,0.15165493520127046,-0.0030039706671010527,-0.016488213272459116,0.0004743754053915907
296,1.001266286738859,0.012121327808069671,1,0,0.988631502713379,0.0916542867177715,0.1513553073392573,-0.0023387923417643054,-0.006316076908718481,0.002747710952792426
297,1.0014324958764342,0.01146279696601005,1,0,0.9832305612277492,0.09081423206439357,0.15494117837298166,-0.0004697758779510679,-0.002089952614104581,0.005831373875622601
298,1.0015729181763398,0.010852291668097824,1,0,0.98218647113166,0.08974710223773519,0.15457159166437787,0.0009684908154828081,-0.011133393698812931,0.005795319652179604
299,1.0016833311202613,0.010363978933061669,1,0,0.9867506289088485,0.09210213646497341,0.15314059079942538,0.00285413760788397,-0.005762415517413299,0.005349625483791203
300,1.0017643263287386,0.010056872185925811,1,0,0.9873871089687786,0.09123620917813453,0.1545462936428223,-0.0034606647413350845,0.00012219933121199975,0.0021570443609395576
301,1.001820242845886,0.009970691192566447,1,0,0.9890010334117859,0.08765690423101676,0.15431428162389316,-0.00020618461626914728,0.011549538368583497,0.003121665770152193
302,1.001857477394606,0.010125411438120136,1,0,0.9849313733410514,0.09037513319317475,0.15187383776865845,0.0023199257742080254,0.013047813430127394,0.002518769632321736
303,1.0018823113099686,0.0105237360336463,1,0,0.9847726077811599,0.08943278161624213,0.15190384706622842,0.0022853804211500433,0.012620100097320163,0.003197346423501572
304,1.0018987505164938,0.011155193168573942,1,0,0.9835470518793786,0.08721482396312073,0.14895688425335343,0.007798664830165121,0.0049672927518515705,0.003732931336670545
305,1.001907184170034,0.012000580198968824,1,0,0.9846091722505825,0.08902777333541481,0.15040979840627167,0.005027507171817228,0.008663079443929479,0.0025868946222911376
306,1.0019045767958548,0.013035947571712949,1,0,0.9856327664624489,0.08691850182226708,0.15023498318717673,0.006308372703616836,0.00986669561201791,0.0033893740152929493
307,1.0018863584158961,0.014235786972762232,1,0,0.9901248449338957,0.0920719779625486,0.1539194772704988,0.0178027342787267,0.006449338009820031,0.0038564263173129776
308,1.0018494357429188,0.015575259486624724,1,0,0.9883633415686635,0.0932901511499769,0.14815304054344233,0.010928868497284137,0.010514611758607873,0.0072104731733395894
309,1.0017952313377947,0.017031337682433735,1,0,0.9840818187701729,0.0875707864460744,0.14791205827491608,0.007299618846724488,0.0010701734387423445,0.009091269154928111
310,1.0017316361134514,0.01858293125499456,1,0,0.9899776815769928,0.09042042530110174,0.14746226418699027,0.011499912496925464,0.002265621366470042,0.007344263616803721
311,1.001673144681935,0.020210314025553587,1,0,0.9895752044306511,0.09313370986431736,0.1538793623073139,0.011892842377122362,0.02085983614625366,0.0066093833872809616
312,1.0016389516229813,0.021894078297246697,1,0,0.9815363922662114,0.09030614391198762,0.15795138259933827,0.00309160576792533,0.030164025366669248,0.006692491294237198
313,1.0016492904276841,0.023613425930341162,1,0,0.9824275027796855,0.08881095026130063,0.1543884038865064,-0.001682173501942279,0.015873668823673148,0.007809656433479531
314,1.0017207615658241,0.025343458378463045,1,0,0.9848329910622019,0.08990762253104301,0.14921608029845615,-0.002522170733003287,0.025388597813842832,0.002111283157665303
315,1.001861612574838,0.027051610461660033,1,0,0.9909802225046822,0.08785970518646542,0.15380331952444318,0.004138415497536895,0.0220258842655222,0.002959612795105844
316,1.002067725556971,0.02869404742270597,1,0,0.9894471388116614,0.09000390127825628,0.15446978263330707,0.005997919790546668,0.037921842372225574,0.009404240692463352
317,1.0023197073060193,0.030213131798397862,1,0,0.984449673643343,0.08633379699574643,0.15046080900088468,0.0027538174433542778,0.023327165555973636,0.009462116194235452
318,1.0025814625200753,0.03153704980544872,1,0,0.9854629298891254,0.08361955085952559,0.15050578019094904,0.007883190744416122,0.02367309646392918,0.009289141353587842
319,1.0028010289411693,0.03258276753868109,1,0,0.9818036177433348,0.0851726223810939,0.15301055871947555,0.012682950573778535,0.026001088357533734,0.009612686232570847
320,1.002914765073871,0.033263563412562785,1,0,0.9874883868231084,0.08665479304556763,0.1531360071638984,0.01494207448311335,0.02035475597320866,0.005310423614193273
321,1.002855699498913,0.03350193812375514,1,0,0.9825913702494755,0.08515344483214819,0.15027153339106453,0.017306677013944838,0.03254375198884846,0.0034597334791967712
322,1.0025659453025517,0.033247573563255084,1,0,0.9888683273884483,0.08696215723004012,0.15583492485300598,0.02196577168892445,0.029390978854709007,0.0030559426631645375
323,1.0020119078296927,0.032498668705176134,1,0,0.9875467813917246,0.08722763793609159,0.1553539599707399,0.01579746111167273,0.029362409059832575,0.005041377028060386
324,1.001199967706375,0.03132408897486942,1,0,0.9832107392669341,0.08508529328932642,0.1545863333938307,0.01320963474902138,0.016029122433726874,0.005939664143679339
325,1.0001896588197465,0.02988354213555769,1,0,0.9877564861515704,0.08414121911968206,0.1527051446053042,0.016298685918663167,0.011253451543734586,0.004609121524672559
326,0.9991011432754274,0.02844290490067925,1,0,0.9915271883384873,0.08462801586789942,0.15954115850608833,0.015828795635588512,0.037539458206919514,0.007154920830837514
327,0.998113970438578,0.027381165626652482,1,0,0.9845809764741863,0.08232091918806458,0.16186742982761407,0.016386606703579346,0.0331134279595215,0.007068475375322288
328,0.9974547686827061,0.02718444005560611,1,0,0.9852603295849994,0.08393218576665286,0.1568932206368382,0.019904933462222517,0.027966186836470532,0.002470341366775176
329,0.9973728089494991,0.028422394441005135,1,0,0.9860763572046716,0.082626282028482,0.16191560286557,0.02364832300443437,0.028263631895761712,0.0015841145922258994
330,0.998104214988678,0.031704110836222155,1,0,0.9884201539837991,0.08729957212227053,0.15759876490110472,0.03479443120547812,0.03181448079943098,0.0017612963067585802
331,0.9998276719311783,0.03761371977218462,1,0,0.9876587761216132,0.08863065463264595,0.16714473325302906,0.026989732795140352,0.0444868833170144,-0.0050660003470848316
332,1.002616638915024,0.04663029272360366,1,0,0.9861629307108942,0.08249423926965455,0.16203379848462357,0.026380386342084717,0.0342067655787563,-0.005292182611157295
333,1.0063952842652606,0.05904107649197828,1,0,0.9795639879865621,0.07723938335508344,0.15325581275222902,0.025762937030405966,0.03847410676397559,-0.0016642665028908303
334,1.010907299978391,0.07486148525019479,1,0,0.9699901103559174,0.07446705992129803,0.15201010271210216,0.04058882799537118,0.043036077940572806,0.0022506975924649533
335,1.0157074497876963,0.09377791942823392,1,0,0.9754492509888031,0.06746181086707505,0.1606606099760998,0.05706496021215,0.028445886963233455,0.004851580343959315
336,1.0201838989169638,0.11512895302514664,1,0,1.0095553903692864,0.06843791300775263,0.1565090738920988,0.08724120456759042,0.0258489706076521,0.006089384587713525
337,1.023614563037183,0.13793619407657118,1,0,1.009006821996057,0.06777847941753914,0.13241455888003864,0.09642228894109696,0.10970681314997378,0.008330172143537175
338,1.025254084300393,0.16098898086229516,1,0,0.9953955659728229,0.04846429968071658,0.1451657297805639,0.10126650136219117,0.07154038937858667,0.0018113291811945418
339,1.024441804206077,0.1829786913780506,1,0,1.0291361029704542,0.05317553843451148,0.1508895887348381,0.12430342151119772,0.05132554284787425,-0.005205169410813715
340,1.0207166849449738,0.2026699358163701,1,0,1.0267919315051468,0.04861955230229992,0.15878662912052263,0.09960728678753614,0.16743151234311987,0.0017203269922046352
341,1.013922763655281,0.21908684464299022,1,0,1.0005066795749396,0.034056891803361584,0.1717399823482458,0.11662156188346638,0.24446053967807252,0.019288535223102386
342,1.004288573980427,0.23168308434320728,1,0,0.9904714410646169,0.043763457735975154,0.16381845904670594,0.1445356745194595,0.28895121376481214,0.019132443774682113
343,0.9924661214076629,0.24045791483664408,1,0,0.9842576339506399,0.045048723140844696,0.16805781143951032,0.14257439128475935,0.2840494050455346,0.01771620506527147
344,0.9795184904598561,0.24598394359694886,1,0,1.0018260615431163,0.04639305947983558,0.17322418842635348,0.11569634636064997,0.23805038637885081,0.041269043304523315
345,0.9668488974903787,0.24932823301971815,1,0,1.0077887110998476,0.06511551990777922,0.14141732434350296,0.0807886686750582,0.25769739651292634,0.07257268214836657
346,0.9560687445627389,0.25187292418483354,1,0,0.9560271195400845,0.06938599314638078,0.13623739390595968,0.02971523472331611,0.26898041673338186,0.07550142777824648
347,0.948810061396046,0.25506644384942284,1,0,0.9354299792244771,0.050863281854917855,0.13833688034004454,-0.013222609769609931,0.18525370949617057,0.04978492281968172
348,0.9464989511254503,0.2601553231854614,1,0,0.9326098342118719,0.05447946210232972,0.12434670063967386,-0.061993783358835944,0.16919859645093457,0.04139320601802361
349,0.95011827131307,0.2679562408942119,1,0,0.919308833160749,0.06512817036133602,0.14495380610534422,-0.06416249884516259,0.12569106808191524,0.04802121108529514
350,0.9599958104328551,0.27872498208725555,1,0,0.9400436757420544,0.06160060847619364,0.1616283449579865,0.004065139044667732,0.11593869378882929,0.049540971990174786
351,0.9756569785646234,0.2921606442172927,1,0,0.9255596358261865,0.0656785083375206,0.19087807234890092,0.09281917439133866,0.22371552131222494,0.0638229079534564
352,0.9957792316587929,0.3075502555600157,1,0,0.8295882777523993,0.08052051406607628,0.21910279694155002,0.16917688414746998,0.2812261525468288,0.15423235408962718
