id,ASVM,GSVM,walking_nonwalking,normal_abnormal,ax,ay,az,gx,gy,gz
1,0.7504934925821574,0.053092501561107806,1,0,0.7479112791894121,0.050852177046595934,0.03245730650380971,0.048553828282124956,-0.018645351888325494,-0.015791645093497494
2,0.8131630130839618,0.09203791378725186,1,0,1.0675296589094725,0.07795141425040095,0.03398297206686815,0.0912932436166585,-0.023755836214835686,-0.023521424119798226
3,0.8721825180294372,0.12920311985990585,1,0,0.9746011460643993,0.07462460997302513,0.0028545597948242203,0.20432646861581982,0.07267207136946431,-0.026443970851694868
4,0.9243659814010035,0.1628206394175656,1,0,1.0229041328446098,0.10276735227328374,0.05232046815479745,0.019858421869452175,0.19232333417399278,-0.031123191444977077
5,0.9673535013548923,0.1915099007778165,1,0,0.9721961608723786,0.08112955435798534,0.09462611596135183,-0.3556844306869584,0.21631360895864596,-0.02412010053155239
6,0.9998243163059053,0.21436931894015288,1,0,0.9966050805352924,0.05652761102407904,0.10061018610427816,-0.11242840800716819,0.1388286522996261,-0.014680484317011659
7,1.021539853551294,0.230973982794021,1,0,1.0085857655046913,0.06167114645699307,0.08832715724398767,0.10420464032579789,-0.02494268935267908,-0.033121217368063297
8,1.0332379419585436,0.24130040820554377,1,0,1.0077364931923618,0.058984370129440016,0.025150349377373978,0.10162002653957969,-0.00860928016219258,-0.06260143934300355
9,1.036419584853642,0.24562392153075732,1,0,0.9998979087248827,0.08742628577327315,0.008233325687178994,0.026331227088435882,0.023194732348075255,-0.07876609760063966
10,1.0330761101862602,0.2444351911181097,1,0,1.0137532889272054,0.09927187476663485,0.03877230854060909,-0.26382650733950097,0.1471092875239228,-0.07294572589432256
11,1.025402099320571,0.23839761148853528,1,0,0.98935039801261,0.07959692560793308,0.0720214036637916,-0.35197735132658575,0.271750698587496,-0.06569563125712898
12,1.015532070101415,0.2283328334557341,1,0,0.9733512773905378,0.06612828549789035,0.09117834607178249,-0.2619974769144138,0.13366745986666334,-0.05554522686042409
13,1.0053289249388375,0.2152020281349772,1,0,0.9815926911358662,0.057532796547617164,0.0836507235462605,-0.12100466117865002,0.03480587246319786,-0.05299461230305869
14,0.9962410349701848,0.20005822993741615,1,0,0.9820577377145806,0.062384814639628416,0.07373036911085651,-0.09375789271321866,-0.02964579539546652,-0.0661068957105691
15,0.989233282988528,0.18396976419115507,1,0,0.9870052719817339,0.06893701216546758,0.06286351900400224,-0.15788689944514314,-0.07421509417026645,-0.07335222518501605
16,0.9847866317523049,0.16793338132487187,1,0,0.989493916451947,0.0752264042484301,0.07201004979853326,-0.16133990607967452,-0.010738186423328463,-0.07010315845535012
17,0.9829526112828423,0.1527965137116406,1,0,0.985618946238454,0.07715395169238212,0.0756762900575028,-0.19422483387046208,-0.01094530397815511,-0.0585550503747339
18,0.9834447872418219,0.13919852336495542,1,0,0.9855491492416668,0.06607388528618537,0.0704649293129959,-0.11212780027386299,-0.036597563242449595,-0.05695612958594838
19,0.9857486831232057,0.12753402220426174,1,0,0.9910105217808904,0.07572474361094722,0.06460246127554191,-0.007694475469140855,-0.036860377523862516,-0.05599686419605397
20,0.9892336483870465,0.11794150570708664,1,0,0.9980218426614564,0.07492257672173352,0.05092991150373824,-0.039862654134940514,0.011814794587509048,-0.04808571843241286
21,0.9932535291442979,0.1103220158971389,1,0,0.998902974362723,0.07296093301091941,0.05504708760690743,-0.07233342072808287,0.0791474926204207,-0.05668403206573983
22,0.9972269733411546,0.10438853546410531,1,0,0.9948451117969251,0.07477621061508215,0.07058648652503033,-0.12424760813379176,0.11026896867637198,-0.05459475842739136
23,1.0006924882725883,0.09973746767185958,1,0,0.9949456107069763,0.07207256532731114,0.08680307379979185,-0.08807323569948483,0.07308222509808149,-0.051669196469236435
24,1.0033375457767169,0.09592612709746903,1,0,0.9966583293770145,0.07158091024722982,0.08393700975654296,-0.0019876654031062194,-0.0036202548269169575,-0.053060099218491384
25,1.005004417138193,0.09254081127230022,1,0,0.9948349380604165,0.07733401562983787,0.0726764087711374,0.07743773137598733,-0.04267944403652571,-0.059750063972200645
26,1.0056774998095122,0.08924690414125452,1,0,0.9996986459202043,0.08503698451004683,0.06441882052940247,0.07837663201161495,-0.054701055547195246,-0.06060999759428212
27,1.005457659271439,0.08581905099662517,1,0,1.000692131891423,0.08444928288005651,0.059128046685108474,0.04922712414057795,-0.011855309123936108,-0.06172313691068459
28,1.0045289450168153,0.08215272039420878,1,0,0.9956640142770485,0.08788230573894872,0.06261366209169619,0.03424488288318865,0.022129442044840297,-0.05767756270517813
29,1.0031224649033779,0.07826016602647629,1,0,0.9947176810019466,0.08778180582352227,0.06767811281276413,0.019129355864540967,0.03246098512919907,-0.05571104122916393
30,1.0014815714461967,0.07425520871990937,1,0,0.9913891287726774,0.09121376943195542,0.07353117293341571,0.029607666975950468,0.02639051492358347,-0.06044115929077754
31,0.999831857747893,0.0703313219079363,1,0,0.9880257034620405,0.09325147052755396,0.06961546905225278,0.04067658817014592,0.005673662322280289,-0.060428042862095396
32,0.998358608140866,0.0667356755097448,1,0,0.9880915325027421,0.09816995172779147,0.06720054861054692,0.04956354629701881,0.015170386598866836,-0.05293017908701696
33,0.9971931875071149,0.06373944254893366,1,0,0.9903232381778247,0.10056160180202156,0.06683682061268272,0.054364182698738224,0.025702773078494688,-0.04506115070033696
34,0.996408465731696,0.06160356851630666,1,0,0.990017445338387,0.10680104198586375,0.07028377154423941,0.05130679965174779,0.053210678130779995,-0.03533965744279495
35,0.9960220394201709,0.06054018152181759,1,0,0.9879155235128901,0.10546350585934339,0.07889233708577664,0.021870204570567944,0.03185818531643485,-0.03142276132221364
36,0.9960050965523382,0.06067266817836867,1,0,0.9908270341583669,0.10568548438865513,0.07596444024658013,0.03938597180390803,-0.006992535244132852,-0.029113562514176922
37,0.9962944869889755,0.06200092661991791,1,0,0.9899362829375917,0.1047012586582998,0.07262050067825851,0.03167980016865068,0.0018275489004930306,-0.028351633610731966
38,0.9968058498810112,0.0643804199346073,1,0,0.9860229328187491,0.10648980195545683,0.07184143611541942,0.04274401145191878,-0.00020456579954184162,-0.029312506109680208
39,0.9974462559036703,0.06752273271684575,1,0,0.9862665034532119,0.11299854672070739,0.0801187524834227,0.02238351811435203,-0.03145137101547942,-0.026431585354083194
40,0.998125425119606,0.07102124876133313,1,0,0.9913623788067524,0.11399888110273391,0.07296094439744218,0.05106264659862028,-0.03758993783619055,-0.015109338037893997
41,0.9987649046179132,0.07439956759424862,1,0,0.9866409991617224,0.11940878300380803,0.07618177868188608,0.08199179405184366,-0.052754405645901135,-0.005192596038019728
42,0.9993046041997397,0.07717422119799683,1,0,1.0006908945047996,0.11442485077609163,0.06457792864219355,0.1005490954280919,-0.040720753008268794,-0.009906635803574291
43,0.9997060814439734,0.07891935149403476,1,0,0.9911654537211664,0.11903450837072868,0.06156022492163073,0.06737119642082981,0.03396930807501589,-0.009057565697186108
44,0.999952315654061,0.0793211413258172,1,0,0.9844167441977244,0.10905803147962989,0.06119552754158536,0.028467466512898276,0.0703202471020746,-0.0031451071748983817
45,1.0000444928997443,0.07821380235386251,1,0,0.9895544142002258,0.11291977453125798,0.08451788087230327,0.03207282420395296,0.09160667770357347,-0.0015021652888853366
46,0.9999971105227952,0.0755942693517202,1,0,0.9882303957219677,0.11244381384085392,0.09889174595156212,0.02597692367724102,0.04256435432197734,0.004686536064075368
47,0.9998329042971602,0.07161680192947555,1,0,0.9908072997021995,0.11410391819203157,0.09308383991225419,0.09045017788395157,-0.013023139175016164,0.0037949333420835094
48,0.9995786278125512,0.06657075703679458,1,0,0.9862116575716933,0.12196972329089598,0.07899178513968638,0.0682562976149826,-0.029103939405724814,0.0034933369140818346
49,0.9992620693770057,0.060845675494377284,1,0,0.9892299809060573,0.12096153713949369,0.0660421862554712,0.041727104343701873,-0.021847308684534876,0.011296351759477505
50,0.9989102768085287,0.054888518075422596,1,0,0.9900321760227081,0.11687107299015473,0.06879432459580699,0.03268790555175487,0.010319953333453697,0.01636386440899325
51,0.9985487265166969,0.049158601489559195,1,0,0.9902544980704386,0.11223202859411359,0.07227851614092984,0.04077445798743144,0.01912506491822394,0.019365016296302415
52,0.9982009638395469,0.04408564595462248,1,0,0.9920114401035702,0.11177246083876324,0.07879455685385525,0.0426244517522378,0.01827758232940548,0.0183664020694118
53,0.9978881163665213,0.04003465524950927,1,0,0.9905102702159889,0.1112072412274087,0.07949446222409993,0.03898203032006794,0.013353338544548943,0.020705570594995164
54,0.9976278201264202,0.037279027003190586,1,0,0.9864740134308261,0.11470893401528763,0.08379850512111361,0.0229731797705892,0.021496305101244218,0.021374130833265843
55,0.997432550480494,0.035982008743906606,1,0,0.9838311802495859,0.11408171201151907,0.08726380241109229,-0.007306775546130555,0.003685175816170204,0.02449019487797692
56,0.9973079120819609,0.03618680393940387,1,0,0.9846282597383299,0.11083336311743094,0.07863992221324383,0.012351125307764362,-0.00362984900450316,0.027167981098876755
57,0.997251739715064,0.03781617763232395,1,0,0.9873744675047813,0.11102701854475357,0.07877415425395068,0.024566428862791256,-0.007324460204245152,0.03214052392225601
58,0.9972546291423566,0.040682100702984836,1,0,0.9927930834421237,0.10584592470537141,0.07163269195008694,0.015200599779124973,-0.011378122635852932,0.035024866653641344
59,0.9973018774214006,0.04450474370371911,1,0,0.9910158648660076,0.10514810006827338,0.07456395370578671,0.03706877667579649,-0.00643483897369557,0.038552353084388626
60,0.9973762329607082,0.048938913425689685,1,0,0.9874127567773965,0.1051244004955038,0.07861885025770872,0.010571853513518768,-0.0106101329188484,0.037678229950377055
61,0.9974607424177793,0.0536055868422238,1,0,0.9872264545193131,0.10217107269765188,0.08350613094697089,0.0012048990491320428,-0.014898104140708654,0.03731330257522632
62,0.9975412922292206,0.058126291411962,1,0,0.9857303244416422,0.10803896527081047,0.08779871427958583,-0.014802651204256043,-0.03644693359954532,0.040128565132112166
63,0.9976087576444441,0.06215770894198857,1,0,0.9897974465324909,0.10242875776520773,0.06754015261929061,0.011457846144345913,-0.04007034770646213,0.05577330834826296
64,0.997660644501826,0.06542251418143484,1,0,0.9910647312296955,0.1036419234997198,0.07171525771831415,0.030105455073677585,-0.07363820359053214,0.057520781194069746
65,0.9977017841225232,0.06773110543162333,1,0,1.0012464079591312,0.10029992010997983,0.05536353760588965,0.04415399749343294,-0.04627032464560226,0.052439292441193136
66,0.9977434103461635,0.06898957524721508,1,0,0.9916799729123367,0.0974860087364512,0.06470213490171911,-0.0047771667731507615,0.013657330005757905,0.05323183394259277
67,0.9978002597624456,0.0691929748447419,1,0,0.9820811614686807,0.0872649804408578,0.0701689676054538,-0.03017300679045953,0.021887606264343256,0.04519268608418887
68,0.9978862527732157,0.06840799089985534,1,0,0.9858572740430133,0.09177828111734145,0.08995888637092177,-0.022960351795645973,0.01726216738624401,0.0404314113614474
69,0.9980102157536781,0.06675234744756194,1,0,0.9917231372790489,0.09046759647618166,0.08933868160672734,0.010004585739303108,-0.022135705090974685,0.04110130045573163
70,0.9981731819826337,0.06437755226831986,1,0,0.991497906304262,0.09347121660735559,0.07301653778992456,0.07612154936847243,-0.042479444933504536,0.04121623855855054
71,0.9983679871687292,0.06145781815344177,1,0,0.9908418662237168,0.09763245990264804,0.0692327011830763,0.011799712623949443,-0.040303289154538936,0.040289507287023456
72,0.9985808847573501,0.05818388591666439,1,0,0.9933829860735137,0.08921773236110621,0.07161224583842644,-0.022960069767267718,-0.03243599754042865,0.04062124367709483
73,0.9987943802543917,0.054758568342189534,1,0,0.9921477052887334,0.08576638152261166,0.07519945948465885,-0.010565904054628908,-0.027065278101699404,0.042096877580325674
74,0.998990435949604,0.051391376530849714,1,0,0.9936497062819996,0.08399821272549379,0.06974110753386854,0.008935860860770186,-0.039639168322064794,0.039626279907686586
75,0.9991533586944185,0.04829089786783846,1,0,0.9949264462264737,0.08455091700017137,0.06635627842702925,0.02561805857131637,-0.03246966950406829,0.03652786642187815
76,0.9992719015958565,0.04565438278169507,1,0,0.9943618417356835,0.08381241721870725,0.0637721079865237,0.0022972475476951072,-0.02712472613030018,0.033155675816372195
77,0.9993403681523692,0.04365449965108717,1,0,0.990745600493016,0.08421032092725142,0.070417220949846,-0.020034069198560933,-0.01301977270953577,0.03361017965730654
78,0.9993587878725537,0.04242398626995751,1,0,0.9925422200419941,0.08770148481705174,0.07561668892673806,-0.02135994114275229,-0.029005804369780418,0.0349876516624743
79,0.9993324386837613,0.04203981242464877,1,0,0.9930056389665823,0.08543825273886489,0.07423729471384971,0.007414078630296424,-0.016813285241299658,0.03493323488452557
80,0.9992710055575499,0.04250912088457595,1,0,0.9928073270169011,0.08686453395459576,0.07230404450043416,0.00013201558324243094,-0.019915309323983353,0.03415868463064671
81,0.9991875056247881,0.04375964245107902,1,0,0.9974674361336832,0.07921164349051381,0.0647751038037166,-0.009686423956650128,-0.02016598415248172,0.03144980780636463
82,0.9990969607473332,0.04563748755374862,1,0,0.9924977518608062,0.08000789767162342,0.06488060587534066,0.01889595054123109,-0.011914507618668758,0.031243223933659504
83,0.9990148349267474,0.04791486604964412,1,0,0.9906970383653048,0.07628775109320385,0.06919522908618977,-0.01610990773953534,-0.029320026873312192,0.026624724642078417
84,0.9989554586906967,0.05030905997842588,1,0,0.9924832776813466,0.07849409323217042,0.07006759899168914,0.0014090194552737367,-0.031619846414805995,0.02289923158285222
85,0.9989308038159597,0.05251191629067698,1,0,0.9921321178760875,0.08319180391123347,0.07371790610777834,-0.03252084693352777,-0.043376359036124044,0.020643623612024986
86,0.998949818389209,0.05422658128646563,1,0,0.995883234739661,0.08019181394554613,0.06401718995189437,-0.005774424218011065,-0.04181417993310845,0.03295427260710976
87,0.9990181285468437,0.055205764584568634,1,0,0.9939317458850229,0.08442732542110713,0.07217252901324904,0.006716056871170248,-0.07851641053705813,0.03212981253246198
88,0.9991375729800128,0.05528444300488771,1,0,1.0016993846228521,0.07470932685664547,0.047837868981412575,0.025782980099019234,-0.050983936314268966,0.02916738487294024
89,0.9993050786254442,0.05440062344739225,1,0,0.9957719108418888,0.07474662654059591,0.046929732906605404,0.01605033584534499,0.02241105173185309,0.029685201443649518
90,0.9995109238861819,0.05260079011320102,1,0,0.9852782069683459,0.06928099773562504,0.05952290988694836,-0.040764328830252446,0.037995998274059015,0.01770668762372026
91,0.9997372482114015,0.05003064664356519,1,0,0.9905865385813883,0.07053600289146071,0.07656187506799642,-0.04589168539192137,0.026471675882953898,0.013477548749696503
92,0.999958165044009,0.04691475469527929,1,0,0.9960986595267404,0.07117107713295845,0.07696733928744376,-0.0049223771955185834,-0.015345179518446854,0.012860107414739398
93,1.0001424623112452,0.04352977415471043,1,0,0.9967534071766742,0.07420459149246796,0.06310648164279861,0.049791791481119396,-0.035925888604598305,0.016512995967894014
94,1.000258758467039,0.040175673698179155,1,0,0.9967226503781561,0.07622387744169586,0.05490653156098262,0.03150902694093685,-0.027889209113105162,0.015407246657144788
95,1.0002819001236285,0.03714835643904797,1,0,0.9977087787463744,0.07177483102901436,0.0589589675132446,0.0018963294368844134,-0.011221279006612165,0.015427187276697835
96,1.0001989530236925,0.03471639897133262,1,0,0.995495180591479,0.07225062392969012,0.07099390820463038,0.013852980856542314,0.004540988730597461,0.012563326285783086
97,1.0000133219500906,0.03310412370792834,1,0,0.9943110032831178,0.06852173920507498,0.07332710184139266,0.024710757340873062,-0.02077387488204262,0.01068122900862361
98,0.9997459792285585,0.03248206729505119,1,0,0.9997171003121169,0.06838948469492613,0.06669319644937086,0.04592572931139328,-0.022755909030950382,-0.003413566200214358
99,0.9994332476218025,0.03296360149019941,1,0,0.9996330156000829,0.07472396298434092,0.05831201288787566,0.04499983975685172,-0.019320878757864805,-0.014055339216448968
100,0.9991211003840287,0.03460452613917372,1,0,0.9968557535958054,0.07267168912080789,0.05408322274235882,0.028144226174341883,-0.010254688265989659,-0.013564537992394465
101,0.9988566934452486,0.037402934221076274,1,0,0.9880462722331147,0.06949966640421981,0.06323129457655773,0.0035970819942478353,0.006977039435395613,-0.011077289732573829
102,0.998678828042528,0.04129936501946645,1,0,0.9840995980371986,0.06682445793595818,0.07369138784961121,0.015319132687755704,-0.012489953726559283,-0.009416556554872448
103,0.9986097724038863,0.04617953790676436,1,0,0.9930906378093541,0.06644275030024663,0.07432479657225288,0.04145466280781401,-0.04713964485355056,-0.007155087366728826
104,0.9986506778963352,0.051881391053895144,1,0,0.9990757178807355,0.06465423021574684,0.06235640185272025,0.046166273286149605,-0.040571434765223194,-0.010118708370211497
105,0.9987816205648563,0.05820531349755508,1,0,0.9982265285239444,0.06290835589883165,0.049995066211917454,0.06022843332554753,-0.047532980150166555,-0.006846805466127775
106,0.9989658635433037,0.06492437135606526,1,0,0.9918903981115198,0.06805658059357142,0.04919462158918811,0.05595265364910242,-0.016230245950291388,-0.004043915549815182
107,0.9991571629723239,0.07179217570571834,1,0,0.9896702091215152,0.06622541395011315,0.052460972492945006,0.030670478017791245,-0.047485942156145045,0.001162095642474161
108,0.9993088898023401,0.07854899808496726,1,0,0.9972339348703644,0.07039779145705316,0.05540261987176452,0.052023501886025156,-0.047479419576037664,0.01163644923100788
109,0.9993837308186856,0.08492908297910438,1,0,0.997743506288946,0.0763765433561266,0.05282430159919843,0.049397680261834206,-0.043487466224052446,0.032871016306809664
110,0.9993623224004544,0.09067187158808127,1,0,1.0018675982205856,0.07623993804890518,0.04600881584930624,0.060993775947764825,-0.06351370795913763,0.039854763678206916
111,0.9992487177566548,0.09553728592858131,1,0,1.002043749740998,0.07476732541884587,0.037923982439032604,0.10229803271865842,-0.01304483480781034,0.03696661055332757
112,0.9990707919017672,0.09932215939804107,1,0,0.9978212702158816,0.07032956621539888,0.04119633483177873,0.07073017381432166,0.006991736146005737,0.048940961039393945
113,0.9988748404277625,0.10187315984733178,1,0,0.9933009055432805,0.06422533382154831,0.03661777739534954,0.13428460097967865,0.011372425412500197,0.048082998188494236
114,0.9987153608735753,0.10309192610974886,1,0,0.9896017940108526,0.0748424485640713,0.04965833621984773,0.10201679869094712,0.02474420058585528,0.04344110487678008
115,0.9986425470177561,0.10293060277610216,1,0,0.9901990913241333,0.07285153603271372,0.05667388986026155,0.05698974502387353,0.010137651571023074,0.04610434972280141
116,0.9986906690769125,0.10138000948096544,1,0,0.9918312322689198,0.07500628786415398,0.05475263451719123,0.088337615155883,0.010655588253756502,0.04228425890580063
117,0.9988700406311661,0.09845674396535944,1,0,0.9955565080523413,0.07341093989502206,0.05333276617062732,0.05754090010624913,0.019685157977777624,0.04433379545725288
118,0.9991640540007174,0.09419708249553502,1,0,0.9923915145445478,0.07130492913798109,0.06503531684358083,0.051430384122016656,0.030865163637543592,0.04461349362564132
119,0.9995314300479273,0.0886631818104744,1,0,0.996520688362387,0.07588983165911073,0.07634616933916372,0.06698383847483715,-0.01493793842630479,0.04310286842416703
120,0.9999128439148759,0.08196168815840375,1,0,0.9947371277214898,0.07906638615649637,0.06488465610061327,0.09966376230651179,-0.04701141188111808,0.039704736281325564
121,1.0002405854253513,0.07426877678854493,1,0,0.9909795083465973,0.0823298750204003,0.0516041062775465,0.06725551940901459,-0.05948679708199454,0.032543172097058586
122,1.0004497649565647,0.0658517313748909,1,0,1.0002350802342441,0.0749240918856631,0.04081929269193277,0.04194718289402588,-0.04453142197544898,0.027901657672820636
123,1.0004895436830097,0.05707760724995223,1,0,0.9974573822409653,0.06936502640342412,0.04608618631695054,0.04761710357265624,-0.010324317598973173,0.02184449323136978
124,1.000332788349366,0.04840390182226146,1,0,0.9981259505667637,0.07109117996698752,0.059253013398444423,0.039742129768748656,-0.014113774598900475,0.016495283654812176
125,0.99998250598869,0.040351457472306916,1,0,0.9988731579548088,0.07586288705578446,0.06499013606846912,0.043583223650140265,-0.021595168765768856,0.013822234001618326
126,0.9994736359225772,0.03346328182356723,1,0,0.9985209677609951,0.08294967170801468,0.05622470669912863,0.01382545474135044,-0.02180396920782484,0.009797863927650016
127,0.9988694060662815,0.028254281005254164,1,0,0.9976928476956842,0.0790871290059095,0.04140071877813151,-0.02141796690185087,-0.007211486560377034,0.0035351678653397943
128,0.9982524745935192,0.025157229422770117,1,0,0.9910203939863508,0.06965133863887549,0.03094906114705744,-0.013883716076809459,0.023579188693418934,0.0030959810077403845
129,0.9977122866345487,0.024470336443241876,1,0,0.9899067505262203,0.0636352921675059,0.041702527351042504,-0.025193054236200385,0.02435268330706193,-0.0001998577006526451
130,0.9973310602549849,0.026311597282466574,1,0,0.9914495956943356,0.059880464907011995,0.055903395410140486,-0.019353524749756882,0.022831169025682947,-0.005693366700509942
131,0.9971710808441002,0.03058512515578416,1,0,0.9921308297229567,0.06696288429875515,0.06507375102432851,-0.01475841239457879,0.010500466516164422,-0.009474955444896817
132,0.9972653782130527,0.03696532754928401,1,0,0.9947656886198674,0.06881541899229149,0.0526519980570235,-0.0027899995660740752,0.00845588564361951,0.0030214436360931803
133,0.9976127807528666,0.0449054650863546,1,0,0.9945683585239573,0.06640268610032958,0.05353163775176568,-0.01403569515463631,-0.005630134300988362,0.0054934615055474935
134,0.9981773961124717,0.053675947637172414,1,0,0.9962286682531041,0.056340652855682904,0.038652499759341444,0.04013804697123865,0.02694941856259776,-0.0008524669294387606
135,0.9988921083287374,0.062433224576121514,1,0,0.9976515091901075,0.056220308696822846,0.04628468750983798,0.037578392787935296,0.04367421181592226,0.007352647654000094
136,0.9996656587047429,0.07031298044486309,1,0,0.9900136437620358,0.05076759047965916,0.03876455675382511,0.0673243666001425,0.0546139280032255,0.0053539142602928086
137,1.0003929914381913,0.07653424018845148,1,0,0.990495367972275,0.06784717020849602,0.055783423830715814,0.09918688211759659,0.05110750417690087,0.006172291192994093
138,1.000968387381576,0.080496877959929,1,0,0.9993231933051715,0.06738619361751533,0.06262471745433756,0.058038009283506865,0.037271832892268306,0.012965266529246263
139,1.0013001810283562,0.08185543106893468,1,0,1.007829092948497,0.06716042642804311,0.05447276795537334,0.121006397786327,0.024057451041924825,0.01611064125695234
140,1.0013247803129275,0.08055660676714314,1,0,1.0022306722436252,0.07276501480907835,0.04282581594396618,0.09979646145275378,0.034929654615212906,0.02124833858050996
141,1.0010171160780073,0.07683490793296513,1,0,0.9952306801985341,0.07120224538281189,0.04997678375931774,0.03082714175778744,0.042916613546464685,0.028056423472827052
142,1.0003952229452908,0.07116899357742044,1,0,0.9992468499201214,0.06543014261768632,0.06245124706840675,0.013614145835220927,0.04799014596180674,0.027105132638464032
143,0.9995181431683403,0.06420916984031216,1,0,0.9934305645083605,0.0708894578443583,0.075453247642134,0.031170135313024833,0.024084309183728718,0.027317825757074254
144,0.9984778665236488,0.05669131665803296,1,0,0.9938131108440187,0.07259450382309143,0.07980832291467178,0.014613747283596474,-0.028062862319549676,0.022345511403926037
145,0.9973870074631545,0.04935268111893691,1,0,0.9910968508873486,0.07378889066458232,0.05982839769985078,0.02548386517917744,-0.032437917110191276,0.01623945045279469
146,0.9963644049915292,0.04286089345088147,1,0,0.9857224945971537,0.07432384411869664,0.05407990146051634,-0.021509906810653928,-0.029055939349498777,0.014484092474354117
147,0.9955209502515365,0.03776174249429003,1,0,0.9888548365073642,0.06822234706279781,0.05529592966226973,-0.051490186342581325,-0.021146002209734036,0.013418702788973308
148,0.9949476283567951,0.0344461295855726,1,0,0.9940892702088878,0.06996503053331284,0.05976633193913208,-0.02098914317666043,-0.018384906273903087,0.01263772087373681
149,0.9947069562399903,0.03313371260330374,1,0,0.9933902636881512,0.0660068104071075,0.06492666355196429,-0.02023884892360761,-0.009759656106419174,0.008149278751633144
150,0.9948280361883789,0.03387025209236734,1,0,0.9917801374855489,0.06377477210235455,0.06543259101824371,-0.033371317745195986,-0.022221395356162212,0.004267655569508679
151,0.9953048978222403,0.0365364268405805,1,0,0.9872149438394222,0.062481950838899236,0.06806063710849358,-0.03698797375730033,-0.02166709781531588,0.0031850962078629514
152,0.9960979002664534,0.04086654840175198,1,0,0.988498676659734,0.05466855409891979,0.06524631545297231,-0.028047024289098714,-0.03687048298477077,-0.001788727216679839
153,0.997138306317102,0.04647597213368092,1,0,0.9918112140230406,0.0488076482664294,0.06348094698128609,-0.006788436541757573,-0.01634837821555621,-0.011477877968125922
154,0.9983360965865149,0.05289649633115707,1,0,0.9936392594957322,0.050108592582108015,0.0724600345010354,-0.013193413831033557,-0.033872982266392966,-0.023079316869402344
155,0.9995904355900448,0.05961915055173414,1,0,0.9996152336331886,0.0470387977559827,0.06918506844470936,0.006375783688600787,-0.05465659828832561,-0.02564888511263203
156,1.0008012622634272,0.06614234605320292,1,0,1.001044680760223,0.05369856186107454,0.06509767168938724,0.046544079912811696,-0.07400635044733646,-0.025238425007290788
157,1.001879829455937,0.07202061625000106,1,0,1.006635645967628,0.059111625720642526,0.04580478096738576,0.05235358328257641,-0.042760708519229355,-0.03006183998375062
158,1.002756114679448,0.07690720091312503,1,0,1.0054583230247829,0.055919763385216946,0.04100960096309776,0.0677737516175765,-0.027155733245760375,-0.02202190797055695
159,1.003382015853994,0.08058427435250631,1,0,0.9941150622050212,0.05846988787625184,0.05312988217525972,0.07954743276800523,-0.024485854272923182,-0.019111088256290012
160,1.0037308659257687,0.08297717873086932,1,0,0.9890566057430662,0.06157452815568975,0.06296148694068843,0.07743268214047747,-0.029881478899807294,-0.01998991006100833
161,1.0037952920043849,0.08415180136490058,1,0,0.9930423520886714,0.06743762200806484,0.06820092579049666,0.07800086297919087,-0.052497795455063195,-0.014130988993557915
162,1.0035858273517904,0.08429630035438304,1,0,0.9986698760338489,0.07782486387691245,0.06832306073333806,0.05199139391490977,-0.058228596726282125,-0.012108471366346683
163,1.0031315160118444,0.08369003328109421,1,0,1.0011690429356452,0.08339747294410282,0.06945286522406971,0.008790222434441027,-0.07025754168241738,-0.012107978443340182
164,1.0024816742668923,0.08266399127574128,1,0,1.0036234865392546,0.08468130087596354,0.05685747351847311,-0.03498293904188001,-0.07011816547090108,-0.01645713378793959
165,1.001706294147981,0.08155773006184044,1,0,1.0114922229534253,0.07791109293488048,0.036972275495543654,-0.07667617881679993,-0.04425739745699919,-0.030978638523208524
166,1.0008923032174404,0.08067728008058211,1,0,0.9993223236265325,0.06271565228232229,0.009724262524578238,-0.06921337112493757,0.026727672077354225,-0.037460938635514536
167,1.0001342290910886,0.08025748081558877,1,0,0.9917020038970514,0.05431479181107614,0.021193510589568955,-0.04292612414500119,0.038318187144963836,-0.03789151068708293
168,0.9995201385723221,0.08043175348345949,1,0,0.9967179785773065,0.04049222402359711,0.04102153717935382,-0.011787450453744878,0.06974414158562046,-0.028193340813003235
169,0.9991158675628075,0.0812125823187826,1,0,0.9911301439005069,0.04385274992701273,0.05382607177898072,0.0515088144112918,0.07844361388462233,-0.015984133213864955
170,0.9989514978174899,0.08248602936001825,1,0,0.9897050283441768,0.062047280028996794,0.07715674161489039,0.06148053091084713,0.042680844428500474,-0.0014208567892274938
171,0.9990135598607846,0.08402305204385878,1,0,0.9880076702183687,0.0787460114067315,0.09037847595678519,-0.007240647978053891,-0.02341824031031108,0.006852019915689038
172,0.9992450558548679,0.08550922564959411,1,0,0.9945066518132756,0.08032679289920551,0.07376150809886718,-0.02891069172048059,-0.08674106837315494,0.0074476457733518514
173,0.9995537015789244,0.08659178137352598,1,0,0.988374046561097,0.0843901171170148,0.05673289319729841,-0.03365052416260116,-0.11193973063526157,0.0008289653097453962
174,0.9998271818973495,0.08693800299060205,1,0,1.0036218667187669,0.06939386363158699,0.02982278310519384,-0.07331047737192684,-0.11169747270205664,-0.0037556008703979807
175,0.9999529492991863,0.08629433726753483,1,0,0.9986177730512174,0.049307832667724864,0.005048308086482251,-0.010396783479454835,0.020463371482487346,-0.004892532373065319
176,0.9998393188226851,0.0845348109373547,1,0,0.9962891812055122,0.04258027498398429,0.014821066691671785,0.08240372166921704,0.05231419904415723,-0.0027777154665162384
177,0.9994343721805932,0.08169047475709375,1,0,1.0051934830919123,0.05961228946096727,0.0506020499182312,0.08020515408229535,0.09012638000548785,-0.0024016174130187156
178,0.9987394057645428,0.07795485695914203,1,0,0.9965773919336756,0.07009201322908964,0.0690709658656462,0.06819372628723015,0.08874883499227966,0.0042052383507661
179,0.9978142421273579,0.07366244379481482,1,0,0.9948635836147478,0.08795495740857895,0.08355931638378467,0.07664649324959029,0.0035161507636928785,0.014694470418541382
180,0.9967727156933723,0.06924090784607428,1,0,0.9964108546331623,0.0869418090362349,0.07150085052407537,0.037344088525205266,-0.035919456286094435,0.009782290033118072
181,0.9957681181747103,0.06514477758494994,1,0,0.9927111593396266,0.07692059946783991,0.04644224871284336,8.440589568896952e-05,-0.034402107176400104,0.0019000911743258268
182,0.9949702057275954,0.06178521411528796,1,0,0.990419115515067,0.060772128851819984,0.028505976609800546,-0.007496534757349388,-0.014142064663285926,-0.009873916286161672
183,0.9945371637622522,0.05947270207913652,1,0,0.9852724536737151,0.05680885567356268,0.0334517701507351,0.04740610721660321,0.01680757202115662,-0.02453014590027013
184,0.9945872310716789,0.05838494156496199,1,0,0.9909524435223225,0.06250798576819973,0.0586767227023395,0.04631335457576302,0.014336931720317754,-0.03272029199747587
185,0.9951750877903167,0.058563258531895104,1,0,0.9861504332299293,0.06617222102628689,0.07150656915340203,0.05631062936562443,0.04389664005863098,-0.045046381975329224
186,0.9962775263368403,0.05993189948693698,1,0,0.9815347723065815,0.06996929724286802,0.08738150571919334,0.012900862691673504,0.006562230306200619,-0.05967465820280799
187,0.9977916370114257,0.062329509510655634,1,0,0.9809219981511627,0.07034048579151732,0.0809871720756609,-0.005613036101440829,-0.02385500297429904,-0.06639409072445732
188,0.9995469724534511,0.0655419745543978,1,0,0.9861353727159317,0.0793548806178282,0.06566452345796177,0.014366480439953892,-0.06902879303030122,-0.06524727386715776
189,1.0013308007687574,0.06932916167867043,1,0,1.0030264502412085,0.08246498148803023,0.05216272591178321,0.009926041332928372,-0.048977521918623076,-0.05619481454152887
190,1.0029226458928273,0.07344304578319509,1,0,1.0095221218828931,0.07941363237512203,0.04790125086598682,0.017104215930751163,-0.0014945547902427267,-0.03800480134481493
191,1.004131611584008,0.07763992254130282,1,0,1.0084230398620209,0.07877417208065725,0.044288757147649176,0.02946847228664776,0.007147591912649571,-0.01721390146372978
192,1.004828735785995,0.08169284271505234,1,0,1.0073989785225677,0.07237079322011183,0.029888808306917307,0.08423540818357084,0.01299798342289032,-0.0038187177180664567
193,1.0049675249866372,0.08540947552197721,1,0,1.0113335015331024,0.07476268376507303,0.025804479398953608,0.10756871253784298,0.005649465854101024,0.009257846815870692
194,1.0045884595047612,0.08865521803979838,1,0,1.0103581025907509,0.07722649119873301,0.032249346043904246,0.09332141004153174,0.005121612282378235,0.02085510247799808
195,1.0038066731536586,0.09137532226077066,1,0,0.9974871536526384,0.08247206631151739,0.04111934320539767,0.08929500518388478,0.03493679568705631,0.03644911812542087
196,1.0027854716375135,0.09360740153018586,1,0,0.9933134293962598,0.09365588811257239,0.0463525068773555,0.09522281429877293,0.017388373008119632,0.05616415540264208
197,1.0017013710782825,0.09547779131720037,1,0,0.9862755258022671,0.10427380202154296,0.048508565523163495,0.06024728008281585,0.02060622225789622,0.0717102844981539
198,1.0007082730995938,0.09717986850376986,1,0,0.9860369335639435,0.09658784403576635,0.047156255762565505,0.0438567503986018,0.03862191439135204,0.07796030295136587
199,0.999908639415218,0.09893742185447206,1,0,0.9836052933427203,0.08957250447536172,0.06259488500829744,0.03466462958284584,0.06678667056598901,0.06706109927010824
200,0.9993379714738834,0.10096023224978673,1,0,0.9798406332748091,0.08098126426325286,0.07083861505667986,0.006524226443371286,0.0619111503656343,0.05222224040332099
201,0.998965908523274,0.10340134477359085,1,0,0.9869547030897982,0.08348547300337614,0.07308928519829955,0.054687601171006454,0.018017607576761237,0.04360908354525458
202,0.9987133656738847,0.10632539329613964,1,0,1.0015551564876988,0.08974648086111915,0.06331475287352857,0.072786664374478,-0.013814326507516553,0.03898613150473984
203,0.9984810371281693,0.10969414540455599,1,0,1.0018400553476263,0.09146819584187715,0.038763425625102835,0.1214861195454879,-0.037828727718856085,0.03686858664333057
204,0.9981813691247022,0.11336945585467362,1,0,1.016144657695001,0.08447760484970562,0.022415302919739744,0.14027677392525037,-0.02904117471955764,0.029064127082648793
205,0.9977650293756183,0.11712752962898046,1,0,1.013020040729359,0.08232433746033523,0.010813963322083545,0.08704924093468361,0.0906141391869966,0.026672181906558668
206,0.9972347172336279,0.12067567369011924,1,0,0.9869826540798395,0.07368589685869228,0.03364884642742689,-0.004945061614072432,0.14677226657301237,0.02162242688353509
207,0.9966434864903236,0.12366561295571617,1,0,0.9845036003852474,0.06166986335815496,0.06729147764369833,0.0004919534600695827,0.09824842196960046,0.015883140274307025
208,0.9960799203865061,0.12570418442212652,1,0,0.9788876454033638,0.07046769576298303,0.08483365402535133,0.07773717075672527,0.017924782474909542,0.011278275383713536
209,0.9956462030678406,0.12636850151189188,1,0,0.981979441763689,0.08197095144669343,0.07235981060782848,0.10971041413150703,-0.07424802934812634,0.018005310981411903
210,0.9954358915366252,0.12523461025210833,1,0,0.9941774633071326,0.0767214193926371,0.055739007447878665,0.0988825959043143,-0.07566133684260157,0.025208545478861557
211,0.9955163650238243,0.12192533490006754,1,0,0.9903728649584587,0.06825839948636818,0.058881699203155655,0.058881525721736605,-0.024790951031202362,0.0207237936282367
212,0.9959181543020363,0.1161766734933344,1,0,0.9890129670368943,0.06165567859165305,0.06457433650441635,0.07811053692746919,-0.042962006967326286,0.013952403074822416
213,0.9966311213086159,0.10791500704489503,1,0,0.9958590189475154,0.06622526832931225,0.06579875363555782,0.1437826479651595,-0.06564691499382415,0.00510851357658313
214,0.9976062639483556,0.09732998834355992,1,0,0.9988326135326988,0.06863482062941857,0.052004152793461295,0.1516890227502163,-0.058850564310838176,0.0004539103064686214
215,0.998761531007738,0.08492205101027675,1,0,0.9938442574747249,0.07556011670597079,0.043353852069041104,0.13908713524068697,-0.028102727693556755,0.0032101467359515463
216,0.9999901819047063,0.07150396600136513,1,0,0.9913211313784186,0.0852566057921419,0.049155971856116046,0.0674851124431796,-0.007854373382989542,0.009035186437900798
217,1.0011707413796698,0.05814596258770108,1,0,0.996053873144976,0.08360729770686054,0.055926275437068976,0.01595129104536182,-0.014681431368276826,0.016496377439223813
218,1.0021781100729261,0.04606982362954281,1,0,0.996516444436537,0.07724249360239785,0.06452785735490207,0.008437720008426693,-0.0026852356910157206,0.018940797582499114
219,1.002895490772699,0.03651062755830799,1,0,0.998107168066083,0.07309928508915929,0.06344900978070755,0.021952278707569377,-0.02227371052868929,0.019381841856190987
220,1.0032264700812488,0.03056964207077961,1,0,0.9999773900766638,0.07349219872981369,0.06409401730626313,0.021277544427413135,-0.012605171519657735,0.01302200784366341
221,1.0031061944261148,0.02907908510855329,1,0,0.9986263956811575,0.07358291765148889,0.05311512581111565,0.01556516686916961,-0.0035919322323117297,0.012303934672040948
222,1.0025103718436912,0.03249389920317291,1,0,1.0011682577498586,0.07859494143890144,0.053099459471736984,0.031290130657973786,0.01051565813209439,0.020085348399111243
223,1.0014608777386698,0.04082117242419449,1,0,0.9989158597079559,0.0744789396321338,0.050841015385703514,-0.003393119581596073,0.03366230524673346,0.011391603593529595
224,1.0000270210574205,0.05359517467259564,1,0,0.9972962498099202,0.07391208284337719,0.047019432245286014,-0.002028133482535863,0.024189212532300226,0.0035513886838331003
225,0.9983220117890943,0.0699041031154773,1,0,0.9924530382532347,0.07844657620923552,0.05316324354499282,-0.025317833933307506,-0.003128107973653535,-0.01017489838900709
226,0.9964947715198885,0.08847178983485117,1,0,0.9906743633449746,0.06912510156174954,0.04531790643106712,-0.06311154028208588,-0.0351187015365867,-0.015262458433605464
227,0.9947177397330756,0.10779195872454718,1,0,0.9929066144449678,0.07125846071661239,0.059659001391677784,-0.02654899945175026,-0.0885376851991377,-0.018051554710206204
228,0.9931715682248262,0.12630365222747597,1,0,0.9976006421784058,0.0799143869660724,0.06611252819571117,-0.08318750337699017,-0.09945585812372476,-0.02279734635323225
229,0.9920276765639606,0.14258621213944975,1,0,0.9830295024329423,0.076081423254726,0.05301003809618388,-0.14664904601251486,-0.07052690449022102,-0.028640962902617147
230,0.9914299514435255,0.15554407653437044,1,0,0.9812289787848808,0.06911528230719842,0.05311518986342476,-0.18974478681639528,-0.06214226015437332,-0.05040938959750317
231,0.991477544147533,0.16454853272541808,1,0,0.9863834092310331,0.05977826326045734,0.04874256479892699,-0.23452714629253982,-0.044303273255179576,-0.06376446778073419
232,0.9922112389065748,0.16950743627991446,1,0,0.9871012432596176,0.0598235618694098,0.042957333852815915,-0.19036238025704272,-0.034420432081541455,-0.06784276002066984
233,0.993605591547227,0.1708457597910867,1,0,0.9920319562908263,0.06052749561768356,0.03963411731149325,-0.148096295099103,-0.056204949174962625,-0.06753498895987078
234,0.9955680191292662,0.16939815621377127,1,0,0.9975994102142716,0.052419952562397676,0.03815328741140923,-0.16098378484014214,-0.005327842923910227,-0.06166643547277402
235,0.9979449271926362,0.16623452835988128,1,0,0.9919519865668815,0.038111525699122385,0.03128171997768013,-0.1362395170737303,0.048246648640507345,-0.04844397623949628
236,1.000534338993307,0.16245477946785808,1,0,0.9938259471883419,0.03715720117089007,0.04591780628993517,-0.0521874569924895,0.03120459892111357,-0.031243309328522522
237,1.003104293181873,0.158995481956493,1,0,1.000369188365817,0.043463959959195254,0.06845720037095931,-0.016048916234676906,-0.045925420593516904,-0.01316054772444987
238,1.0054160222799977,0.1564872277236506,1,0,0.9981732104822681,0.06298424947244348,0.0640228991840862,0.08873019965203258,-0.14661000059181498,0.0008718527500917974
239,1.0072502508172951,0.1551864729560807,1,0,0.9987879695099251,0.09111959755729102,0.05570266502989946,0.07930906341160206,-0.19347151214202946,0.01349085676252524
240,1.0084339527736417,0.15498393461831275,1,0,1.0070033610585023,0.09235018753813191,0.038709274807457686,-0.013599851622386326,-0.20305492231079023,0.02232290448078111
241,1.0088639264924497,0.15547318971089608,1,0,1.0137386800267956,0.07614169994113971,0.01849176802379825,-0.04320266051201062,-0.12727952608723692,0.02651887943136948
242,1.0085229312152268,0.156056798315639,1,0,1.0167760915152781,0.051718669129627776,-0.007710977062455667,0.029995125315086694,-0.005477983435835243,0.024526252772689938
243,1.0074843089969125,0.156071121421432,1,0,1.0150868230668233,0.05697269292448367,-0.006623165240345494,0.14700335239526838,0.11655912400190378,0.013538443765158241
244,1.0059024205582587,0.15491450803824083,1,0,1.01808164618835,0.06585572246870909,0.012351909529845032,0.10138314927388159,0.20148587677753604,0.0032982885679660465
245,1.003988941996787,0.15216012943128468,1,0,0.9918064890084101,0.07522075062683886,0.037001267826323736,0.044778387108006176,0.272268463383137,0.0016362542934803014
246,1.0019786158172304,0.14763018215601667,1,0,0.9789084571359511,0.08510659109303562,0.0918086018166875,-0.032930690621087305,0.16047116229708225,0.0013638160200770506
247,1.000091311613458,0.14141357560644202,1,0,0.9806422621444667,0.0792227363470653,0.09271435275816772,0.007664408466865003,0.03552305940967542,-0.0007712609011089544
248,0.9984987333284961,0.13382661365714063,1,0,0.9807313295519114,0.08610737899931145,0.06949881663038954,0.11248341963230905,-0.0858443444232235,-0.0042935333456314475
249,0.9973028440257357,0.12533476114735553,1,0,0.9985510971632402,0.08751238364638539,0.04027242903170875,0.04080823058919457,-0.1248328888174203,-0.001082759433586344
250,0.9965295682672001,0.11646152475005091,1,0,0.9883084299471935,0.07846004655569175,0.019112130195415685,0.06105218005015094,-0.04982139205401466,0.016401803684911558
251,0.9961372743477322,0.10770679918400872,1,0,0.9956259193438378,0.07584286115215597,0.03405792773936378,0.07174058031756804,-0.029719613144773793,0.023715635012767765
252,0.9960365030632845,0.09948875451554573,1,0,0.9990387930423686,0.06105028737705308,0.033598148074751456,0.055649351729058105,0.06633418277515754,0.028673295765737655
253,0.9961159199876435,0.09211520615155155,1,0,0.9896782766645117,0.06712198219185428,0.05410565747173499,0.09647246927457973,0.05387434292739026,0.013537049470241863
254,0.9962692054055149,0.08578273815055391,1,0,0.9943217003981457,0.08078133190841218,0.0592516892727972,0.06234249124370308,-0.010856250306618619,0.005515747611717991
255,0.9964180421857782,0.08059518428830266,1,0,1.0012909071736222,0.08785874325642277,0.04299863000465773,0.11244505670509601,-0.06136316562499247,0.00659248676385497
256,0.9965271767607937,0.07658931105344262,1,0,1.0008846410542789,0.09115636085388694,0.022177843706186282,0.10331780924620336,-0.048159528255403046,0.007216210080600532
257,0.9966087319771936,0.07375595851126389,1,0,1.0017231150437849,0.08452851522887553,0.010804129517057524,0.0609140438980643,0.008192133665417552,0.012112738168668922
258,0.996714859244425,0.07204957926148783,1,0,0.990726296251728,0.07944326666043433,0.03483678610688058,-0.006563674747175936,0.06976119418222526,0.015046941488978133
259,0.9969204881179528,0.0713866495328922,1,0,0.9800055229624471,0.07270188745913532,0.06267152451094712,-0.022811162156703188,0.027044396880363426,0.01707446690884013
260,0.9973006408533195,0.0716402726988599,1,0,0.9856023956443494,0.07018103621878839,0.06919634328256956,0.03407824353268601,-0.013743044942928282,0.01568727436372764
261,0.997908296630158,0.0726406399321117,1,0,0.9860241392024333,0.06713356977731097,0.05668361442218708,0.06782296171652033,-0.03425730015484532,0.017675669173078678
262,0.9987582985419441,0.07418772884242118,1,0,0.9915064199730912,0.08189575322493939,0.05794515287181284,0.05964633318236511,-0.04879231434264031,0.02018698836464629
263,0.9998205653507947,0.0760759462037853,1,0,0.9971129436051127,0.08896309674709056,0.06110666361607175,0.04215760527694011,-0.061273549091382655,0.031481345130883874
264,1.001023021669992,0.07812416260082308,1,0,0.9959611131965587,0.09191773267603764,0.061859344671815315,0.050045166876980955,-0.07310165678342363,0.03500353992800713
265,1.0022623500149799,0.0802015750088384,1,0,0.9960652658336555,0.08588321892704544,0.046937657740358706,0.008870610250683551,-0.0953551404111631,0.025959168985471112
266,1.0034194517642248,0.08224063400203095,1,0,1.0029241034387162,0.07159436105772847,0.032774942075066676,-0.005588282197066292,-0.1031716912548546,0.018486798668248237
267,1.004376253001884,0.0842320908074223,1,0,1.011009363877853,0.06737684728126699,0.017206342748703904,0.02042833688345382,-0.08586624593333601,0.008783173908422384
268,1.0050308250022928,0.08620305314713088,1,0,1.0083725446344463,0.06908511712073322,0.002379164632019595,0.04838363716532684,-0.008345408288328084,0.007750852552315504
269,1.0053086017813562,0.08818514733273487,1,0,0.9980736345338331,0.07574823012700993,0.015708652769046302,0.00535214865882615,0.050682518691862986,0.010379331048270157
270,1.0051688453275642,0.09018365426535237,1,0,0.9950573386968797,0.06985779023033747,0.040620728000623614,-0.08568298375934608,0.08778324519376403,0.009158498420040509
271,1.0046070634225306,0.09215752384274004,1,0,0.9918555958268349,0.06176759479749505,0.06040152669936822,-0.04086386998937301,0.0654961739237341,0.006754456389865411
272,1.0036549117192644,0.09401532662263877,1,0,1.0043490790999172,0.06718660339487519,0.06678366506748194,0.025969600234030204,-0.04691998900043253,0.0013767165673250396
273,1.00237860278127,0.095626708888434,1,0,1.0084813825221242,0.061355586732410296,0.03302790338478712,0.06999152019115261,-0.08291812173902653,-0.005803614930956883
274,1.0008754881436954,0.09684457616701594,1,0,0.9974545456462734,0.07150751671089796,0.011362001183686916,0.1363358568631282,-0.08280115141291591,-0.010097238589203961
275,0.999267520338663,0.0975299409774565,1,0,1.0048055287235391,0.0864163861170571,0.008300917617461693,0.0861508533759521,-0.0544816408144833,-0.006203474896520383
276,0.997690594504279,0.09757040631276195,1,0,0.9955815982539112,0.0811771691860839,0.016571208376562285,-0.029009662936232746,0.06493152830135933,-0.0004669904532433284
277,0.9962801500296642,0.0968866460266802,1,0,0.981640471014343,0.0707795419426411,0.02964365476207528,-0.08711412262512612,0.07977835253612145,-0.0032494174101201706
278,0.9951550723910225,0.09542757983296506,1,0,0.9880021093759268,0.06820707394515407,0.05109137305476349,-0.09361003665917626,0.028560452007217223,-0.008069459854165744
279,0.994402978732252,0.09316015258336022,1,0,0.9892417217369771,0.06852333793798854,0.05701822845720797,-0.04853596996887069,-0.013219734158462145,-0.015798282095920248
280,0.9940698056290443,0.09006163604650516,1,0,0.9903547464310107,0.08243115860827868,0.04665142011634444,-0.024422203748991362,-0.04744791254020294,-0.018498376606333432
281,0.9941553928309065,0.08612135201760557,1,0,0.9905991434808022,0.0860299721058212,0.042624069274527415,-0.08676559274307406,-0.040498609559412445,-0.00950889261924007
282,0.9946153187006079,0.08135459244644494,1,0,0.9897785275582575,0.07372042312325597,0.03454544580045009,-0.10793628596547868,-0.011656032358909293,-0.0029974896086859388
283,0.9953683249602348,0.07582511173650633,1,0,0.9877984342847578,0.0632294772432753,0.029516063806802547,-0.09079119247245866,0.011043240065962193,0.0020205204622434003
284,0.9963082782312906,0.06966741362043527,1,0,0.991344447338217,0.05613157888165768,0.03085161045795622,-0.06801441339703086,0.018686111584468756,0.004327972600695142
285,0.9973192728346386,0.06309955887197523,1,0,0.9999882321769228,0.05563470880113486,0.04080422437137385,-0.06818968399556344,0.01495691541123882,0.002796989560151683
286,0.9982918536813851,0.056421003658212024,1,0,0.9992524720788497,0.0657189351777912,0.04213529611910551,-0.04277889310570421,-0.0035812269462789288,-0.0017075567312971295
287,0.9991376578105253,0.04999479164138531,1,0,1.0020968906401333,0.07623713889398856,0.03613185261984,-0.05690892082389846,-0.02295568259580832,-0.000850792241580376
288,0.9997996480074094,0.04421666599172356,1,0,1.0005623992381905,0.06495609427421782,0.01927955644458778,-0.04341671940361955,-0.0020957592675608723,0.00209955456980872
289,1.0002559334356935,0.03947499877578155,1,0,0.9983280835292232,0.06577845742687467,0.023644133384256274,-0.0426660675194829,0.0053053286451988976,0.004660446186695306
290,1.0005167372928052,0.036105911397213995,1,0,0.9971863187547845,0.061568830714511365,0.03434034949550935,-0.04112955405318888,0.010505116808470013,0.004393072401119789
291,1.0006157715266482,0.0343485830530601,1,0,0.9956695428187249,0.06523540945673759,0.04335467514027276,-0.014344280114900916,0.00196058742249533,0.003994457154232486
292,1.0005985286101533,0.03430662636144353,1,0,0.9919642886718925,0.06734834469597283,0.047599395281463015,-0.02979892256808234,0.005586787635421247,0.002867596571445745
293,1.000510493130106,0.03592183286200746,1,0,0.992745023280211,0.06657832355046767,0.051788939821823456,-0.03552069948105698,-0.01626726956211727,0.0009847003046093456
294,1.0003879707544452,0.03896578486842673,1,0,0.9957901840246512,0.0611978939236553,0.050339824606172034,-0.012279777382895225,-0.008614962013322503,-0.0020747198169384137
295,1.000253255334051,0.04305273227366982,1,0,0.9929740741205137,0.07078704926826825,0.04609725164189176,0.009139467664907358,-0.03712017203060195,-0.0024283378672363943
296,1.0001144823968495,0.04767421611476536,1,0,1.0045883442947667,0.07389695023175143,0.037768471552587876,0.01609859951900167,-0.04807094421085233,0.0064323307706651
297,0.9999691716758957,0.05225255768089529,1,0,0.9936587398099824,0.08114150591747919,0.0362680862089804,0.025571744779954317,-0.04541747689198936,0.011883073867275967
298,0.9998095946736714,0.056206962532454496,1,0,1.004616959660223,0.07787397584225685,0.018252035661087428,0.010006268907953053,-0.036341739781014265,0.017375642969773553
299,0.999627999550107,0.0590233572575748,1,0,0.998264906376975,0.06486046031360061,0.018890045095160436,-0.02332963737938723,0.07090318026537652,0.023425205172358562
300,0.999420353063371,0.06031761447470075,1,0,0.9887614462465966,0.05672396254180021,0.031405274931616024,-0.03544883042473351,0.07943922999313154,0.01513479262096279
301,0.9991882520361883,0.05988169763306319,1,0,0.9984611494460752,0.06294730473538382,0.04967536600547206,-0.0034131854143275137,0.09452099919804013,0.005037636871019487
302,0.9989394455110545,0.05770435735695358,1,0,0.9936460348024845,0.07108880510497641,0.06613479502156733,-0.02413270318466183,0.037935999368720524,0.0012052687060837882
303,0.9986875743347756,0.05396326882622037,1,0,0.995996654872351,0.0726321368811489,0.05967946044767072,0.022563027139371788,-0.025709395609586013,0.0005896177041854858
304,0.9984513925207319,0.04899263274221874,1,0,0.9959062758481241,0.06848256616235707,0.035167721559213036,0.035835565379930906,-0.026786382647212555,0.0032569732843222713
305,0.9982533941577909,0.04323571282539179,1,0,0.9972548660261243,0.06854872614701693,0.026449112750226735,-0.007144425691982944,0.020814219850732743,0.008725856499209058
306,0.9981177622675311,0.037192858403487614,1,0,0.9916787339590989,0.06753040574427557,0.03934517500798791,-0.02070102024338718,0.040352223619482694,0.011174694290176994
307,0.9980677920027342,0.031372777671413,1,0,0.9917923754135924,0.06810587452940854,0.05432625625196315,0.005912230928634785,0.020275789063506328,0.012033124805083548
308,0.9981231289059772,0.026250757010683794,1,0,0.9975768030737399,0.06967613965662099,0.04980634503665511,0.02848459438169998,-0.019983805667574097,0.0084626085822048
309,0.998297093444195,0.02223436541933377,1,0,0.9976623258790223,0.0704637267781082,0.043027506177438814,0.02058542795955764,-0.023297700081158522,0.005540634193426507
310,0.998594111574702,0.019635827608358074,1,0,0.9948992656057667,0.06755703863004378,0.036654885414660214,-0.006875772613810527,-0.0136715985773033,0.0036552898387988723
311,0.9990071660756936,0.018650593185180173,1,0,0.9968481665465427,0.06734495446357885,0.0365153308865239,0.005332996385324027,0.008930229070451243,0.004319610832666281
312,0.9995154294677747,0.0193429155268986,1,0,0.9943005415645738,0.06905994489315746,0.04421956589096939,0.009544774424700874,0.015198612577884482,0.004915001611796171
313,1.0000826623117665,0.021640324718346465,1,0,0.9960784621098768,0.07078961413807099,0.04979685466846541,0.010265846821223855,-0.010612884077307557,0.004282595697181758
314,1.0006572373265976,0.025338851803579063,1,0,0.9955834598382162,0.07236714182148962,0.050429670747406966,0.00038956230284043977,-0.023345367932558033,0.0025844784476605777
315,1.00117463556421,0.030119753728554275,1,0,0.9955019114593252,0.06811107320074115,0.0368488140123431,-0.004742530113943071,-0.03362383147026481,0.0049078184385483205
316,1.0015629943823101,0.035576965947273415,1,0,0.994898596142968,0.06922780074446129,0.03711539191069086,-0.018144854264270347,-0.019342543798157513,0.001964621458428145
317,1.0017518122577171,0.04125319438930681,1,0,0.9991153209646998,0.05961808389952543,0.04111714686169796,-0.056802520154779955,0.010171917621966753,0.0005593573091875024
318,1.001683222855096,0.04668172807383541,1,0,0.9942839195530258,0.07063164275052729,0.05301430558047157,-0.012012021892229536,0.0181673685800162,-0.004252987773235868
319,1.001324378272706,0.051430674020313656,1,0,1.0006464648705389,0.07643026336054473,0.05663179657871863,-0.058575064583215465,-0.04183395885124341,0.0035070214538451346
320,1.0006786089310746,0.05514612821080812,1,0,1.0034835760954388,0.06876319313987386,0.04030139124406463,0.0002787777202973553,-0.043256732524002764,0.007728171185672123
321,0.9997924705905737,0.05759056143537263,1,0,1.0042804658998967,0.07340835226324573,0.03009126757174879,0.0009907983601307793,-0.061793048779305706,-0.0028449919837377487
322,0.9987559373368073,0.05867241355469855,1,0,1.0055729584119804,0.06797181278701221,0.011453146495085451,-0.03123083318688632,0.009436530790584444,-0.000650840414850104
323,0.9976941493065361,0.058462540207234924,1,0,0.9887956703475753,0.061716640377826655,0.031134743076331933,-0.08969507170774295,0.06166327230360176,-0.0078017834656683195
324,0.9967511515700612,0.05719272046729534,1,0,0.9875847487430541,0.05965181128181034,0.04743786081625802,-0.05211191047068574,0.06479734718958922,-0.017590514689700566
325,0.99606821829161,0.05523187094040188,1,0,0.9922516048902683,0.06975357431909994,0.07394776313736269,-0.04207451904766714,0.02568065385564312,-0.01501760311631806
326,0.9957606533590153,0.05303878302138512,1,0,0.994873679416917,0.0643753719763366,0.06290165239343536,-0.022612268140242454,-0.0167946095625257,-0.015509939556233296
327,0.9958970238325034,0.051096183629195706,1,0,0.9903763100155054,0.063204650293773,0.040177339091214494,-0.029555262523597588,-0.02075902031239807,-0.01345876125579233
328,0.9964841903940072,0.04983654846501649,1,0,0.9873572062461713,0.05792868409737525,0.0354677039446792,-0.07323038242749211,0.002393764339996072,-0.01760931720147391
329,0.997460947360312,0.04957216910451516,1,0,0.9852166179468811,0.05304649925062193,0.047919888031241975,-0.02743313593204463,0.01921768665258669,-0.013297103661043431
330,0.9987024766025481,0.050440836264717466,1,0,0.9855628140563479,0.04841545547161866,0.045510403715366576,0.0006735821227151054,0.0030081526841267935,-0.008597102052772634
331,1.0000364707587408,0.052376458270573176,1,0,0.9954189490298837,0.051569172392618226,0.027067118221988686,0.040079895000970873,-0.022151593336320424,-0.006413138323176103
332,1.001269345390064,0.05511134672591704,1,0,1.0120000188193985,0.05976742483040457,0.023556590010401092,0.043097261112636794,-0.016514829164837964,-0.006195696493968293
333,1.0022180092755897,0.058212331610718045,1,0,1.0124494877759438,0.060333535745970404,0.020280020892842848,0.04351773687328087,0.01414402946699808,-0.005385528711516583
334,1.0027405390885553,0.06114632557697353,1,0,1.0103413703907662,0.05974165933390829,0.02110157756594619,0.05578286918646451,0.03522750358258497,-0.005609427299546861
335,1.0027590939680442,0.06336449060419001,1,0,1.0021959254128932,0.06025193860601578,0.03034471066143789,0.05659811145217565,0.06099584503560775,-0.005588769278873751
336,1.0022706944165434,0.06438972767970447,1,0,0.9966112152011025,0.06506781894810203,0.039017303385395885,0.08158484159458856,0.048915341585029415,-0.004339122478036918
337,1.00134491613716,0.06389094690704901,1,0,0.9963139497677161,0.07623244041968062,0.04719578099177458,0.08671034451071909,0.041314991723957195,0.0012860538121777893
338,1.0001105098124852,0.061730353128340736,1,0,0.9952835267414991,0.0770214069225171,0.05046557401695972,0.04371132965225831,0.03764171009864601,0.005788471414426238
339,0.9987345494542039,0.05797678684397921,1,0,0.9927119052803696,0.07270030021519257,0.05367556221223748,0.04890767690792403,0.04929714278412248,0.0047153788149076285
340,0.997398043553799,0.05288707609392201,1,0,0.9894605674526289,0.072655386052859,0.062499941526296746,-0.006831795410516306,0.031118478453561638,-7.025067304878276e-05
341,0.9962715898817839,0.046865226271022235,1,0,0.9920334605240614,0.07070509286408824,0.05917978474670797,0.01916342943243748,0.007211362076788816,-0.004965779034784544
342,0.9954940372826836,0.040413494839507555,1,0,0.9887577491501798,0.08105117097203954,0.06426574712530787,-0.004917373927742624,-0.022901711936615308,-0.0051950453592937654
343,0.9951563964242104,0.0340889020021795,1,0,0.9900907413309024,0.07428351125342396,0.04255501765523243,0.003939406837473756,-0.0068430733418547865,0.008520804155805278
344,0.9952925072995912,0.02847394156120824,1,0,0.9835296891312819,0.08161087258304386,0.06193338309124224,0.016236223839545375,0.0067508727430783825,0.010814255102988375
345,0.9958772538976366,0.024162790682128354,1,0,0.9891052247004557,0.0750613380245855,0.05780821465751941,-0.028394676402290542,-0.005528381023832718,0.01728009716534146
346,0.9968322895518131,0.021756468635079917,1,0,0.9971592862661857,0.06853102106755146,0.04697577053367792,0.012728031065372297,0.02977639146414324,0.0247061865837767
347,0.9980381948132862,0.021854529309552923,1,0,0.9928378914514543,0.062109840920092925,0.042405173161250406,-0.012674943518070055,0.0658215235698479,0.012679737257999276
348,0.9993509344693156,0.025029093269973057,1,0,1.0018620950153319,0.05595703731036746,0.045411992641239254,-0.04500056722624342,0.05116314672824424,-0.00169703293250618
349,1.0006198313905612,0.031770806282006396,1,0,1.0082536914965547,0.05047730491535002,0.05160454979269064,-0.009066145196614937,0.03573831160761218,-0.015194437692121213
350,1.0017043459637773,0.04240563103594588,1,0,1.00022860668334,0.05945427900802499,0.0507826402548644,0.027233540041090822,0.01781688330854095,-0.026322936031871965
351,1.0024878393286683,0.056993830667263094,1,0,0.9916697887195607,0.06100906234407433,0.04140629951053376,0.005983852650108963,0.021226599406086056,-0.020894539329836294
352,1.0028879895251799,0.07523372412833562,1,0,0.9923837238682935,0.05848078056235814,0.044085278933713834,0.006738792150681796,0.032539105135993646,-0.005930857209069649
353,1.0028648491941248,0.09639855630005906,1,0,0.9903537596804693,0.05155714082701289,0.054477125325101974,0.006035425830718877,0.047821468424815244,-0.0030838633609931864
354,1.002427639302985,0.11933291693562541,1,0,0.998306025741321,0.04416078424898618,0.06198092439498212,0.049689230261572695,0.01971566029119797,-0.008855787377903487
355,1.0016398615690743,0.14252549457927485,1,0,1.0079231544031109,0.04457741913629639,0.05170794089795195,0.1013304396199963,0.003371779579429594,-0.03230971936657511
356,1.0006199433204808,0.1642590007954714,1,0,1.0224622337197211,0.05693475190687831,0.04314941104159353,0.14777670880696314,-0.0022679642210994147,-0.09460404947370978
357,0.9995330067964412,0.1828188654824712,1,0,1.019903580649756,0.0710002445337023,0.08353786098776492,0.12866665221530932,0.08857915670002202,-0.14684758513484078
358,0.9985701596967675,0.19672467965372054,1,0,0.9846696582172808,0.08450848787787853,0.1079753988291497,0.1588252484340185,0.09601631457745752,-0.13588220864383854
359,0.9979156168924321,0.20493795229350095,1,0,0.9606614473533674,0.12159413394193572,0.11896599207985573,0.35259230903752764,0.06423148009225646,-0.09576327785665815
360,0.9977076114436991,0.2070008339329257,1,0,0.9683075335910107,0.1499321936984193,0.1063402859119634,0.2762587721121734,-0.022223783968969783,-0.06632475603003891
361,0.9980033292082777,0.20307513585140421,1,0,0.971217817449869,0.1464567448747112,0.049437305033253845,0.17233345290642613,0.004328722903942649,-0.04220895534535716
362,0.9987584404444648,0.193877631345172,1,0,0.9721626816308175,0.16039095873001563,0.04355648948748663,0.05798655107167551,0.013704545861221296,-0.014006197264245188
363,0.9998281812081722,0.180537374126692,1,0,0.9792639263612718,0.1406220218313198,0.04957965493202564,-0.13154130005073889,0.01390818584696072,0.013103618397715039
364,1.0009912843753639,0.16441902594735225,1,0,0.9943833289976806,0.11092545315026409,0.05906711044333586,-0.14932225149514694,0.004609412693651794,0.033811335195154286
365,1.0019923248713491,0.14695388287159483,1,0,1.003558318767672,0.09957982160759062,0.07170334256179345,-0.15804659826208617,-0.020064061762417977,0.0417166110063313
366,1.0025934746094731,0.12950276367079627,1,0,1.0131553879031134,0.08995893100747913,0.06750802090633991,-0.09678610749232773,-0.10931422964631286,0.03182633163189318
367,1.0026242153298606,0.11325624153219688,1,0,1.0170392030994075,0.08827852743240971,0.05719419403027143,-0.060862422618490994,-0.09918535923375829,0.037267858770543276
368,1.002017962720745,0.09916774116609081,1,0,1.000642224628042,0.07959044043971186,0.046880354434959415,-0.04749119027571684,-0.06657897833889688,0.04285649900152582
369,1.0008278156644572,0.08791406789619693,1,0,1.0075533779956636,0.06384596980788633,0.036756145250300465,-0.01474324331513911,0.0008750806873261988,0.03738859835840554
370,0.9992187220062605,0.07988056465912594,1,0,0.9952911793265189,0.045510653271291446,0.035404023033370494,0.028916845275933863,0.08657194555486565,0.015406184286651673
371,0.9974385800394191,0.07516900139908438,1,0,0.9845551235603331,0.06347409252472698,0.06872694047435185,0.04145019603567998,0.10197884518074944,-0.006410280270721137
372,0.9957747333314113,0.07362396429379817,1,0,0.9813712497185915,0.08227948404380668,0.09350250021345904,0.016778904959229155,0.06335337423692718,-0.0110233339014051
373,0.9945042512490897,0.0748706221673863,1,0,0.986833960598735,0.0884295613031565,0.08046695829204716,0.08638119836047639,-0.002954712361032042,-0.00221822547958019
374,0.9938463210233057,0.0783567336655741,1,0,0.9855950829766377,0.07984627831869505,0.053971104066243544,0.09205366968173673,0.02934911662760246,0.009104761193842329
375,0.993923634133548,0.08339497745955544,1,0,0.9855608884282041,0.06823612680648539,0.05090933322955362,0.051694243189790816,0.029380868590030366,0.012693324487573295
376,0.9947377553963344,0.08920587216141852,1,0,0.987339881087754,0.06788441657007623,0.06970644941748211,0.04588008682070095,0.022135946552874493,0.016172043902969446
377,0.9961616997444027,0.09496430961962908,1,0,0.9785487286662261,0.07698077027499468,0.07458832748145117,0.0801530944921738,-0.037950433822554884,0.027407409862507653
378,0.9979512510356953,0.09985240565753634,1,0,0.9844592161913334,0.08877032342492196,0.06442830643981212,0.11028791457362826,-0.09539784079094561,0.0396928112191013
379,0.9997745738319311,0.10311809009773674,1,0,0.9990158995958413,0.08987871467818427,0.04991650306682237,0.05039036562310726,-0.09606137678414527,0.04194389427808658
380,1.0012572475518025,0.10413575508602664,1,0,1.0015738727116301,0.07803152904499425,0.0374531533477966,-0.011968877392816228,-0.06049088684915788,0.03904750568400243
381,1.002037420728127,0.10246588544108692,1,0,0.9973634878567914,0.07263928135826911,0.0368321186611269,-0.0571664389291377,-0.04909297320427333,0.026738205471904343
382,1.0018241477617993,0.09791406812628958,1,0,1.0004131670157763,0.07610354311476443,0.050093759539126405,-0.07232821198842238,-0.043683353386029064,0.01930072472770581
383,1.000451546918082,0.09059144784832998,1,0,0.9968364289558127,0.07574722801556966,0.05519503928482513,-0.07140544336773887,-0.03685861072181829,0.01508253937294522
384,0.9979218467963726,0.08097572787335028,1,0,0.9988317871991523,0.07337109980192565,0.052454945712499056,-0.05598422713655994,-0.07359553166087673,0.01445585572571033
385,0.9944311117596689,0.06996602560868484,1,0,1.001323832204838,0.0708593202105897,0.04591648025579784,-0.06376252193753408,-0.05669680751047159,0.01619848082175402
386,0.9903723689485391,0.05892003511297378,1,0,0.9951142327898517,0.06567625349403829,0.03872959477352605,-0.04596671412967143,-0.03129485418559876,0.0159394548424382
387,0.9863123498605106,0.04966030645901063,1,0,0.9940028315228496,0.06929198469817165,0.044900007387104916,-0.048997725831842254,-0.02360448198301808,0.01501395120854712
388,0.9829404535126878,0.0444379305703956,1,0,0.9946052966941318,0.06861987071804738,0.05232169526093657,-0.053926873095297354,-0.00015984679793268233,0.013675657668228272
389,0.9809919192114708,0.04584502424677214,1,0,0.988824162262975,0.07441632551670929,0.06492879167583014,-0.060427881853508406,-0.03378679571143115,0.009167069995117244
390,0.9811514585062475,0.056671031847858946,1,0,0.9827426380061607,0.06848754645510798,0.052415446802786085,-0.05624641854334965,-0.07817926982268783,0.0036314570054408273
391,0.9839484416069496,0.07970236006844189,1,0,0.9419315471581429,0.06757046794687839,0.035970717944706,0.02440302618821175,-0.04452231118030822,-0.009021458285592287
392,0.9896591543265191,0.11747111876572484,1,0,0.9506646022215987,0.0782238034410492,0.026165580621059583,0.08792029891020652,-0.1499596862620738,-0.022474324928314474
393,0.998233524957417,0.17196648562538042,1,0,1.0044934544467643,0.06269333142840634,0.016482340754392276,0.15860873955216004,-0.09298395831409724,-0.03125624718356531
394,1.00926109176902,0.24433026233444383,1,0,0.9935025362296608,0.0654867589405612,0.04175273182054904,0.16939628825541678,-0.054057629059880895,-0.05559868379526347
