id,ASVM,GSVM,walking_nonwalking,normal_abnormal,ax,ay,az,gx,gy,gz
1,0.7529430995744091,0.008427594820053442,1,0,0.7455418100946531,0.0020193768417773937,0.10499236642092623,0.006075111608824788,-0.0007502373460394655,-0.005735832926824404
2,0.813534521582417,0.00950834982630876,1,0,1.0567143167038717,9.294659127536686e-05,0.14822261842033702,0.0050120542388606285,0.0018526088101633656,-0.010441124074023924
3,0.8706840416234407,0.010532706860588749,1,0,0.9558903898007571,-0.0013459353960614962,0.13186081162815494,0.005403655195132946,-0.002662655173619063,-0.007711877765612412
4,0.9213976823916985,0.01145955440158064,1,0,1.0103694133302,0.0008607845104389265,0.1425829399010322,0.008315165804581671,0.001144176303683151,-0.009290524808855772
5,0.9634666248323609,0.012255548905141628,1,0,0.9769410340956363,-0.00043181350066648637,0.1376007285822977,0.008135368349876219,-0.0005094319346528029,-0.008861633117506922
6,0.9956646940265973,0.012897435929733622,1,0,1.0025993216742137,0.0011582268954249712,0.14060409967136184,0.008169490605223872,-0.0012485707062546802,-0.009178966530618456
7,1.0177815319431698,0.013373666588819194,1,0,0.987980723339697,-0.0002593151896963667,0.14001148233043095,0.004094125259538766,0.0026370882892838643,-0.009819700270911873
8,1.0305126074920419,0.013685336820765445,1,0,0.9933655268098309,-0.005183672934808347,0.13899626848113453,0.009505309563817453,0.00017207150628325164,-0.00912478326246692
9,1.035248170868126,0.013846374613215131,1,0,0.9878107665116868,-0.0020382064481048266,0.1408566887863327,0.015105693359709097,-0.0008968253798469994,-0.006598431045543739
10,1.03381033019767,0.013882642660206416,1,0,0.9949071150088129,-0.00038363414706575166,0.14048976717569175,0.01753907161752245,-0.0066789518724351925,-0.004533413673275247
11,1.0281843293138895,0.013829436088391859,1,0,0.9935541911457293,0.002270402110595093,0.13587455098357404,0.012765175223602621,0.003034592950797134,-0.007221930202127084
12,1.0202806017385055,0.013727066734522942,1,0,0.9885721741998162,0.0034912847382172953,0.13895050479091964,0.00698325975870527,-0.00025628765823773456,-0.008519093811637344
13,1.0117517538788956,0.01361492303491342,1,0,0.9899077040373354,0.0011370463877871126,0.13738952760950052,0.005970017692873261,-0.0005482800155854909,-0.009732529280436695
14,1.0038760377605958,0.013525205990786287,1,0,0.9887963626102283,0.0009478500401318603,0.1397365721012206,0.00672886565459415,0.0005197749432782122,-0.008130478948389721
15,0.9975078149892757,0.013477917885599081,1,0,0.9908804322113395,0.00013981168492712608,0.1375890036051373,0.006313576214205671,-0.0024539950777108287,-0.010320604745520915
16,0.9930869028933003,0.013478386176984382,1,0,0.9889627499448606,-0.0021124027364252864,0.1378130012343591,0.008684769969103131,0.003003958831230094,-0.008517008749590688
17,0.9906930159027751,0.013517848401743842,1,0,0.9892731107879946,-0.0018103521904335635,0.1397232003685721,0.011026732331098016,-0.002264753606627526,-0.007291924278500001
18,0.9901288606980851,0.013576781793085206,1,0,0.9933634384691489,-0.002650923654585414,0.138497335714768,0.012259951279526253,-0.00529433974448443,-0.006419453846129751
19,0.9910154665227114,0.013630010554596611,1,0,0.9922814313776928,-0.001980367775885695,0.13653000946766458,0.013456004597595057,-0.005027083959723625,-0.00539805292125586
20,0.9928854307466112,0.013652292845459513,1,0,0.991507925696158,-0.0006678893283727469,0.1376320053169538,0.013462760957155198,-0.0021310849948299815,-0.006947063942045953
21,0.995263274808186,0.013623116261511753,1,0,0.9903762178545945,0.0003895812141202835,0.13552950021244872,0.014272075154811594,-0.0004116808362417125,-0.007895247011537734
22,0.997726312527188,0.013529787031608202,1,0,0.9906776238595983,-0.00020690151977473164,0.1389208018838317,0.00827331140769754,0.000783740437744915,-0.006889687936257171
23,0.9999435424742341,0.013368465008270948,1,0,0.991830280291385,-0.001703583405022354,0.13903674163445404,0.010798790079612012,0.0027856749117629344,-0.006871805177965214
24,1.0016934505225132,0.01314335617088846,1,0,0.9905349700959432,-0.0013987594681763842,0.13887208797387887,0.014930968229708361,0.004052044582286383,-0.0041758782015145265
25,1.002863967876537,0.012864622196353984,1,0,0.9904018552675927,-0.0005265417260624123,0.13698099892024032,0.00913990385489241,0.0001601178971086535,-0.004878456436546773
26,1.0034391869768053,0.012545680979357226,1,0,0.9913809968981026,-0.0005738408025506022,0.1330684079289799,0.007566514371460126,0.006110152573844518,-0.006619553364579553
27,1.0034778953137014,0.012200576085036613,1,0,0.9908612375050696,0.0012845070220652637,0.14005965840613693,0.008058439702667963,0.00428598087705612,-0.006541027710235801
28,1.0030886720294085,0.011842026386951829,1,0,0.9919517638001175,-0.0020691800192114674,0.13609651024789773,0.006825403015999844,0.0033238277398180867,-0.007051766140738947
29,1.0024054215427611,0.011480552821007314,1,0,0.9906222238981282,-0.0014469872184886669,0.13832547521335808,0.007836536137836799,0.00820202706437358,-0.005524989711633061
30,1.0015660901084658,0.011124717560773972,1,0,0.9899171013330508,-0.001070739670435003,0.13718750006915895,0.008282278636067735,0.00303643038728456,-0.00606910220930047
31,1.0006961782180603,0.010782140731893706,1,0,0.9927219552527793,0.00020206423240934793,0.13689146696903737,0.010538457246999245,0.005168601375537674,-0.005853635387827454
32,0.9998976601616032,0.010460736614648771,1,0,0.9891861193624704,6.953210476203653e-05,0.13567044758845062,0.006599510855424122,-0.0010287927402161561,-0.0068405498816865775
33,0.9992431257000199,0.01016960614342319,1,0,0.9907498806220542,-0.002476485383963514,0.1386024139568996,0.008192717737941124,0.003739299002681492,-0.007464109858784639
34,0.9987744265290608,0.009919202177068659,1,0,0.9888388005868051,-0.000629030859457007,0.139859823479358,0.00878497339057038,0.0018991167663341458,-0.004772593712445559
35,0.998504847340395,0.009720652681108702,1,0,0.9900781799767123,-0.0003498639130045596,0.1376408044594746,0.006769079378994103,0.0010385890202020138,-0.006539265855483825
36,0.9984237639594191,0.009584395722327565,1,0,0.9873876767458922,0.00041412718776228795,0.14017514346830104,0.005959135912271843,-1.8270061424956074e-05,-0.006062498420793388
37,0.9985028156402442,0.009518486628464318,1,0,0.9894824974717784,-0.0006654732029575852,0.13859287566283218,0.0050533604356220235,-0.004832469704774198,-0.005524128484021636
38,0.9987027270510147,0.009527021454380207,1,0,0.9896786161707908,-0.0014546949905957136,0.13681220641103764,0.004988029659119068,-0.0025224112050011576,-0.008315482083802086
39,0.9989800061359536,0.009609051645779014,1,0,0.9901420587067884,-0.0009490843152090932,0.13744735977367883,0.0044932403403040565,0.00010081101344540783,-0.008004388793270674
40,0.9992928147299227,0.009758198915514658,1,0,0.9908194373326907,-0.001815589700501728,0.1400965155569322,0.007108409033743337,0.003593185260118332,-0.006442907431144706
41,0.9996054214760852,0.009963023966578388,1,0,0.9904371467198384,-0.0025660320605728187,0.14112782819694802,0.0057386770280785405,-0.0023950569040597763,-0.005886765732514364
42,0.9998908609597663,0.010208109065397646,1,0,0.9901445593619093,0.0007472286262498363,0.14040568332124115,0.008233295777042694,0.0019272028673493905,-0.005471200146252531
43,1.0001317368221376,0.010475742226839436,1,0,0.9893777888752296,-0.0005465368887889086,0.13987309364854886,0.0075003572192032,0.00044035370012358995,-0.007663604747500088
44,1.0003194447142696,0.010747980717746358,1,0,0.990723617321902,-0.0006037273725436165,0.13950757111415754,0.008439057804596684,0.0019760213322543066,-0.0055821836881329075
45,1.0004523404617232,0.01100872825048649,1,0,0.9899753918526033,-0.0002768658934281659,0.13876040279169455,0.011254180266782014,0.0005674528557959397,-0.005861910348496019
46,1.000533465662685,0.01124535726399359,1,0,0.9907406582697321,0.0020423906489979433,0.13713970870129505,0.010692512036504898,0.0023848836518199595,-0.009013150919042085
47,1.000568379742793,0.011449444062924969,1,0,0.9896194821716789,0.0003899096487956797,0.1409282966614713,0.0063579008394749285,0.005752885009973854,-0.007291068546366415
48,1.0005634919813213,0.011616435006347325,1,0,0.9901434899966992,-0.0022283734600143956,0.14159455453761688,0.008218755182980602,1.2226227227982948e-05,-0.005137502393665027
49,1.0005250800524184,0.011744485101103317,1,0,0.9911373783964741,-7.322630399626199e-06,0.1403364110335772,0.006515590461455935,0.004830494145435146,-0.006748541792508564
50,1.0004589530130263,0.011833088591339526,1,0,0.9907523014495363,0.0002960621157204013,0.14143778315929142,0.010196071215762516,0.0027459503630606476,-0.004575585221036975
51,1.0003705262391114,0.011882209472627924,1,0,0.9932650975168288,0.0011556927032120524,0.13996592662914775,0.006625967405720738,0.0053648756633678804,-0.0065653374859568955
52,1.0002650122390078,0.011892378978139108,1,0,0.9885989142708005,-0.0022150069023051046,0.143500894107909,0.004772443908241815,0.0031179716883854413,-0.007626002207064654
53,1.0001475466997853,0.011865807308396687,1,0,0.9869932930107052,-0.002237029995496986,0.13805689008664296,0.010947820319171556,0.003054309015791023,-0.0052930987370268115
54,1.000023282899843,0.011808098254959258,1,0,0.9916485143509899,-0.002027354781320795,0.1381734487722768,0.015133501729694313,-0.0013170298034748643,-0.005470515192899987
55,0.9998975907153507,0.011729766195305835,1,0,0.9930992042921933,0.0007043296133197382,0.1365894390248976,0.011023886450888233,0.004721551428791961,-0.008612310675402158
56,0.9997763708108309,0.011646636478876583,1,0,0.9888373447723494,0.0012353296001597796,0.14035775154151142,0.004907556256595143,0.003958872030938932,-0.00786903090749046
57,0.999666299776926,0.011578549180444566,1,0,0.9901138968016283,0.000431688866955613,0.13790222327984017,0.003014762870385366,0.0037841514646214094,-0.009253038521757807
58,0.999574796206485,0.011546459710842465,1,0,0.9891362692367456,-1.0161740350237398e-05,0.14074485959480937,0.005325858025413016,0.007899842323039268,-0.008813246486807678
59,0.9995096352924169,0.01156863181173145,1,0,0.9902425784326697,9.287677692026981e-05,0.13840258883035259,0.0007670005847780254,0.0011766221218415752,-0.008631956892033173
60,0.9994782550897648,0.011656863811755546,1,0,0.9902576007373755,-0.000921825140435118,0.14202604058834953,0.000663816553657752,0.009242347713604533,-0.00874283157281674
61,0.9994868169242141,0.011813620765039253,1,0,0.9891328745659611,-0.001992531679841363,0.14286363851447012,0.0036597030411611555,0.003961079856922254,-0.008231990104608056
62,0.9995390905987004,0.012030728640232368,1,0,0.9894441304862992,-0.0022576421562094215,0.1407580366192177,0.005500699612923218,-0.0003744937651741362,-0.00918378749871776
63,0.9996353055619539,0.01228999616415006,1,0,0.9894967214327612,-0.0038002135748306013,0.13963147190910222,0.008827594294097749,-0.0020239091043548914,-0.005211156724397832
64,0.9997712116438174,0.012565755912712787,1,0,0.9899705030935855,-0.001975825247930471,0.13941425486225423,0.009593613016529503,-0.003681160422089128,-0.009867509051134257
65,0.9999376517679417,0.012828866425868984,1,0,0.9893133286209549,0.00039127045626857645,0.1389292523510186,0.010229883664039268,0.0013217505137590347,-0.010101968348054718
66,1.0001209225299468,0.013051303275442861,1,0,0.9876375225869113,-0.0009981592626004483,0.14106518747346936,0.00963010812070401,-0.0036167315332341784,-0.00925850659675116
67,1.0003040746015772,0.013210282010227893,1,0,0.9916994156985689,-0.0014293405815376673,0.14152050500735955,0.010747855965762792,-0.004655654950945495,-0.00833294418809178
68,1.000469073041693,0.013291006801164457,1,0,0.9907592912939717,-0.0009653101290310478,0.1416430119457796,0.014268590406169838,-0.0019200675579957895,-0.004057660596381447
69,1.0005994401878242,0.013287547511127125,1,0,0.9922683208412867,4.2532917663387294e-05,0.13637500927921084,0.010350120033762084,-0.005062833000702431,-0.007481150223232825
70,1.0006827811106709,0.013201859430895534,1,0,0.9921067263881155,-0.0003876758563129156,0.13903697751594155,0.008171682159149362,-0.0022097665147372335,-0.010049479920253644
71,1.000712582091271,0.013041460599941374,1,0,0.9909879636614998,9.083440930778034e-05,0.14097318386781793,0.007001281532495016,-0.001640113001209136,-0.008061046787919256
72,1.0006888828311546,0.012816668988602089,1,0,0.9912141984166122,-0.0007395800293634766,0.1419641616437555,0.005971508356985112,-0.0019256957352197944,-0.007322800830135954
73,1.0006177465904218,0.012538427017736626,1,0,0.9905185527292172,-0.003423581232352682,0.13916961422154273,0.006778981078429948,0.001946201903074998,-0.007258764425944198
74,1.0005097693080278,0.01221747025100527,1,0,0.9886738595979757,-0.0009562551955745066,0.14068542905038783,0.010389835048806417,0.0037264750495763486,-0.00833121431810349
75,1.000378084244989,0.011864960769605741,1,0,0.9903862795896868,-0.0014044931405337606,0.13855061577216005,0.01287525426537059,-0.0014492561325215492,-0.006749660202226556
76,1.0002363601835824,0.011493985800965301,1,0,0.9913293579048704,7.957126895289148e-06,0.13871615724690547,0.011752476059970814,0.003961032550291065,-0.0046218641720980405
77,1.0000971484229775,0.011120920860967507,1,0,0.990276388551954,0.0010256250059939391,0.13948283312659024,0.008531610905590917,-0.001198822484157597,-0.006715978712677138
78,0.9999707086092755,0.01076578262759156,1,0,0.9912197725290406,-0.00027242787313359055,0.1391048670089442,0.008488095644437834,0.0010333058506218158,-0.007142821096007413
79,0.9998642901577002,0.010451192818305834,1,0,0.9883237901846789,-0.0012310524387219568,0.1392795078444139,0.008979697080551985,0.0008972423412428801,-0.006824333645051974
80,0.9997818276381221,0.01020010586582942,1,0,0.9908388719321249,-0.001431252292693151,0.14013095204295925,0.005276295052861884,-0.0026688404593122822,-0.006452068093019466
81,0.9997240510579735,0.01003281141847859,1,0,0.9887127762290129,-0.0003679295382989413,0.1402434883718601,0.008605474895424417,-0.0014536312898540313,-0.004178505810528134
82,0.9996890101710214,0.009963886274391823,1,0,0.9904538942327865,0.0023568130326796213,0.13780917376906673,0.005848130642278991,-0.004670038583717183,-0.007707934693239826
83,0.9996729367020875,0.00999977786230891,1,0,0.9904344878013972,0.0012344526065509226,0.13780454675440293,0.002249689584227803,0.0003395681378435914,-0.006121147037259579
84,0.9996712655469407,0.01013758153608887,1,0,0.9903362659316812,-9.401044625572758e-05,0.13939896049845177,0.005803909315561317,-0.0019331135172346368,-0.00799752075886675
85,0.9996795699833938,0.010365339869802797,1,0,0.9916712260995595,-0.0019215737311194785,0.13943614219647657,0.005038632610538205,-0.001461062486353524,-0.00853453519641377
86,0.9996941896484576,0.010663848056161279,1,0,0.9893348331464813,-0.0009836154103697841,0.13560574913829934,0.007563702937154704,-0.0018823081543217174,-0.009266793678038438
87,0.9997124624952863,0.011009560080006158,1,0,0.9885655404553728,-0.0007284324578562358,0.13927003753964282,0.008369815353632837,-0.0015085779716698408,-0.006736512400432005
88,0.9997326531586277,0.011377909078061542,1,0,0.9898931096405967,0.0005086586830620704,0.13980332702438075,0.010293527214203693,-0.002770959345397633,-0.0071179298858983515
89,0.9997537689037154,0.011746301359326871,1,0,0.991308897519504,0.0017702343100248457,0.13791916422325964,0.009437398434844367,-0.0031632840173204794,-0.007477316785979594
90,0.9997753942712959,0.012096202321033273,1,0,0.9898731982546727,-0.00010367599684118177,0.13942452466713923,0.009914426268332605,-0.003717567552987111,-0.007285610630060076
91,0.9997975402949617,0.012414017020406332,1,0,0.9906193317303077,-0.0001463970609715225,0.1366289278136164,0.010413346130640553,-0.002086936902090563,-0.0062632562968841
92,0.9998204418002334,0.012690797587602358,1,0,0.9899592412626446,0.000300961942893928,0.13945714861671207,0.007816129543086624,-0.00223417510136509,-0.007758723507748521
93,0.999844284439857,0.01292109866259654,1,0,0.9898598202827982,-0.002466311038208683,0.13626152388406074,0.010846958540115153,-0.0006877143166334063,-0.006717831298506146
94,0.9998689202455804,0.013101452694579761,1,0,0.9905225187174423,-0.0003960660749102058,0.13900878132591624,0.010840427995887367,0.0018579850819385316,-0.00649546398460375
95,0.9998936589227244,0.01322890479735026,1,0,0.9902330821780221,0.0012519449860598454,0.1405399377610603,0.01132057424569806,-0.007379405383230503,-0.007433952193338598
96,0.9999171967713008,0.013299908644656199,1,0,0.9900868824910735,0.0032785669119390543,0.134825771303265,0.008272315053668905,-0.005174860401785305,-0.007604923817878702
97,0.9999377080241791,0.013309788608102623,1,0,0.9912904989665433,-0.0002508315350824135,0.1405511566173338,0.0033829291845966594,-4.387547974384153e-05,-0.009222864220748299
98,0.9999531083134422,0.01325296739268537,1,0,0.9881949397873766,-0.0033906168327959073,0.13697482560125274,0.007688842932996209,-0.005838000844092457,-0.007952248355344823
99,0.9999614948837725,0.013124096809158865,1,0,0.9887599859269465,-0.0014309690083307513,0.13881499682582032,0.012343479644094492,-0.004619482156902659,-0.004952056898020465
100,0.9999617166641228,0.01291995088256901,1,0,0.9954299441695487,-4.330769868402944e-05,0.1360012790207674,0.013173937001071927,-0.006613419415758462,-0.0074089099883566925
101,0.9999539000831996,0.0126415471375483,1,0,0.9916118503646385,0.0019009098728915517,0.13654834667889915,0.006260012313683832,-0.003004785805853252,-0.00984343923295761
102,0.9999396623718693,0.01229577323623255,1,0,0.987832201284658,0.002894964669433232,0.13768792600644364,0.0025692502003421642,-0.003402169982256068,-0.011183074129508213
103,0.9999218618007905,0.011895978241940008,1,0,0.9898208650128462,0.0012483926478413072,0.13482702426546567,0.002837331635069601,0.0019870905763799164,-0.011904732216523647
104,0.9999040289919483,0.01146136698692518,1,0,0.9897272472609698,-0.0007826843323479146,0.13834283251377702,0.0016423937715796492,-0.0031087849557161575,-0.01142940762624835
105,0.999889803372937,0.011015343043964723,1,0,0.9916049198225064,0.0006773921688101036,0.1353279742905623,0.004393420987528974,-0.0007604511523314963,-0.009426847404891373
106,0.99988258405225,0.010583102477959233,1,0,0.9910010745048659,-0.001170294266416065,0.1376832524219261,0.0036199406358450007,0.00028706341434897993,-0.011210690466395635
107,0.9998853486428458,0.01018886765089566,1,0,0.9905774343326118,-0.0004418182257856182,0.13747565804214248,0.0025775910968148337,0.002661090391829622,-0.008364110014375896
108,0.9999004512823823,0.009853224263826444,1,0,0.9903641654729733,-0.0022866052967052937,0.13721704232983664,0.000931983404853497,-0.0019210889087593473,-0.006711603159659477
109,0.9999292593761259,0.009591047758257249,1,0,0.9916866070348439,0.0004973703691322541,0.135872480839714,-0.0005935950067617008,-0.002077662655032467,-0.009235661680312559
110,0.9999716396484617,0.009410388853216947,1,0,0.9900936839402055,-0.00018281713531242275,0.13941943645617028,-0.0006108092790403275,-0.000739145872142116,-0.012062431364889686
111,1.0000254609459032,0.009312413853960531,1,0,0.987925761518969,-0.00048305891899278646,0.13463288410884697,0.0021582728706208898,-0.001181536030437502,-0.009036311678027346
112,1.0000863864754752,0.009292216781688657,1,0,0.9904725444393415,-0.0020470398200660845,0.13619783952585618,0.0019509529701924925,-0.000522482390808113,-0.005844685903296837
113,1.0001482084038833,0.009340222982212156,1,0,0.9929078338423133,-0.0019163861027433691,0.13300999912315523,0.009740623469210969,-0.003182802364260133,-0.005115790079328555
114,1.0002037816640104,0.009443954161260622,1,0,0.9907055056648422,0.0010527062383332995,0.1365582982534006,0.007726343820988432,0.00031546291422268835,-0.004053229616119574
115,1.0002463379951692,0.009589937987838582,1,0,0.9911294135492966,-0.0005950543798734514,0.1354666936635237,0.003999828454380183,-0.005318005914732376,-0.007279319808669199
116,1.0002707991972886,0.009765476714278831,1,0,0.9918407701993569,-0.0002191404136438997,0.13496695967650565,0.0056537920343245505,0.004734154057031663,-0.010710164545679163
117,1.0002747370339402,0.009959969803396343,1,0,0.9908821482252614,-0.0013790918255580755,0.13835655457764018,0.0067396560524517115,-0.0030918873684948056,-0.0042025823624442515
118,1.0002587640481213,0.01016562140223808,1,0,0.991896450579815,-0.0014002910706954442,0.13424646875651797,0.0061347878279146275,-0.00271699266477027,-0.005578072295834325
119,1.0002262984880803,0.010377613090409356,1,0,0.9899557994230558,-0.0009446401378229141,0.13765461537392448,0.007420065484879823,0.001040452308303565,-0.006101132376722058
120,1.0001828039416623,0.010594013970091578,1,0,0.990192327305223,-0.0012288471093143227,0.14022594697295526,0.00812840978426528,-0.00515009607812288,-0.004585473263880401
121,1.0001347334016786,0.01081567321631639,1,0,0.9895260546348865,-0.0006383915118673213,0.1351019585251208,0.007490253754863266,-0.0035712464107682668,-0.006946765519878263
122,1.0000884517786361,0.011046118788837638,1,0,0.9917129391012652,-0.0011226080899718984,0.1353444954196765,0.009617598907551237,-0.005084669489703197,-0.0052796027861130804
123,1.0000493390081087,0.01129125785020824,1,0,0.9915483643819005,-0.0001348582861159928,0.1347800849771277,0.00901326805076344,-0.00891520123795761,-0.005291871442925375
124,1.0000211371685575,0.011558612237391018,1,0,0.9919066265349653,-0.0003768770596568242,0.13383561007207248,0.009264170951855109,-0.0041219254618677014,-0.004068875424658215
125,1.0000055137593702,0.011855981687320698,1,0,0.9901054023715831,-0.001017430262369424,0.13442118118309446,0.007985316917851646,-0.004400884995807374,-0.0029686349085515443
126,1.0000018479536141,0.012189725264653532,1,0,0.9891061342779619,-3.7271479760468016e-05,0.1354083386270865,0.009381011746186448,-0.007551030542152068,-0.0036787388999717434
127,1.0000073503150069,0.01256308608030675,1,0,0.9898288260120159,-0.0009439313998338481,0.1350517705675309,0.0074883306278105384,-0.008726323219476046,-0.0042460043552832545
128,1.0000176416104307,0.012974989127281594,1,0,0.9926951194704403,-0.0014708715120511807,0.13679826385923707,0.007777357597815925,-0.0073850794071507915,-0.004708355640129161
129,1.0000277586484876,0.013419545663585159,1,0,0.9917673557850789,0.0015616058317502565,0.13674779403938658,0.010606797004840315,-0.009903000806859248,-0.002955603744998057
130,1.0000333383594577,0.01388625568770612,1,0,0.9892558601237661,-0.0007081715402902928,0.13615668801723887,0.009323039765750447,-0.008051368819124886,-0.004670307161673601
131,1.0000316548793557,0.014360724150361853,1,0,0.9915624391798187,-0.0011375546735352304,0.13343226822522894,0.01082197831104606,-0.011780369798098616,-0.0038640922254224016
132,1.0000222927929974,0.01482563765220689,1,0,0.9911058073483522,-9.977150236399106e-06,0.13610763925563388,0.00915639636060964,-0.008656794857796128,-0.00572784047394791
133,1.0000073890316228,0.01526180178680033,1,0,0.9892846061975848,0.0006295557288122144,0.1358508683869481,0.00878114961726506,-0.011633662907031229,-0.006074087910388148
134,0.9999914410904246,0.01564918377293505,1,0,0.9935452234405647,0.0018409970298859902,0.13211567298313484,0.008959079053164263,-0.008357070906645142,-0.0054567816053114684
135,0.9999806753529203,0.01596804109204153,1,0,0.9902626394736449,-0.0006864594488064832,0.13583551450382908,0.008046901112133676,-0.01256128895373408,-0.006875942435271281
136,0.9999819773592066,0.016200234753671376,1,0,0.9912808278009887,-0.0018210593378486658,0.13610890051558527,0.010904321904807966,-0.012895726756207712,-0.004071771814801747
137,1.0000014637245465,0.016330708987729665,1,0,0.9906191864323249,0.000501957027972346,0.1340978826726091,0.010868950592654587,-0.011719064194428525,-0.004089915736531166
138,1.0000429182621442,0.016348981362282782,1,0,0.9896812633308056,1.688090921618128e-05,0.13430561227520263,0.010492463330927881,-0.01189970109916077,-0.0043351312843535736
139,1.0001064456622455,0.016250464590109072,1,0,0.9913707929164168,-0.0010682935968430328,0.13172234561528343,0.009293749085742249,-0.011683671360851326,-0.006737603121966713
140,1.0001877205219858,0.016037544196282474,1,0,0.9908403809082048,-0.0012475523557943838,0.13047532039466597,0.009859086029777144,-0.00745476428377817,-0.004904028332287481
141,1.0002780957455568,0.015720441241518775,1,0,0.9918160176218553,-0.0006309406738915832,0.1333010409278682,0.011217004351687815,-0.00963119568633534,-0.005152388060069125
142,1.0003656327229418,0.015317855024713575,1,0,0.9907458879499186,0.0002924906303300129,0.1310512296395514,0.0103642688552749,-0.009151459602059339,-0.006650391000312345
143,1.000436906429221,0.014857167136824898,1,0,0.991057380821453,0.0022188865652151514,0.1321107421218213,0.010969188664512856,-0.014265062015826646,-0.006408757843463403
144,1.0004792660340966,0.014373728037511873,1,0,0.9955006961028027,-0.00020051575125014866,0.13192128965896746,0.00640367997760684,-0.010328628170946763,-0.007454329312092262
145,1.0004831133957757,0.013908689023509585,1,0,0.9909389361999394,-0.001938085067044175,0.1311455847875488,0.010322353730783695,-0.008046791741505781,-0.006721943371316445
146,1.0004437481622046,0.013505130092864167,1,0,0.9884870904515614,-0.0017395531322978088,0.1315736546704361,0.010704882485483472,-0.008323571192710889,-0.003883093426208491
147,1.000362450273421,0.013202753503603856,1,0,0.9957140526254137,-0.002130245443277314,0.13121395150295806,0.010127476228462697,-0.007584282347472251,-0.005053787418904384
148,1.0002466356666506,0.013031924323909965,1,0,0.9937471852184057,3.174209765720873e-05,0.12933240308049934,0.008315395346554686,-0.0064688484240661625,-0.006781107310542542
149,1.0001090324823632,0.013008201736294788,1,0,0.9899367181658736,0.002774219535912033,0.1272556251595968,0.0016261192999595707,-0.0044151178138629316,-0.008321380586254395
150,0.9999659620610685,0.0131286738464761,1,0,0.9902559998771636,0.0010514088468530668,0.1271622331009262,0.001154740752147086,-0.0035421495688946814,-0.00904069299268889
151,0.9998350469995068,0.013371292162075237,1,0,0.9912670349007057,-0.003229923856330311,0.1274949986319366,0.004813293708736589,-0.0007637195969004824,-0.008095836640525366
152,0.999732843510354,0.013697864074863106,1,0,0.99209692060398,-0.005943461347993647,0.1308366821907167,0.006787921659716223,-0.006683046712463716,-0.009927318946512111
153,0.9996728206249428,0.01406040876470948,1,0,0.9927165658545185,-0.002715201322892458,0.12757738853186198,0.012822367384774748,-0.012845347096618007,-0.007743016746454835
154,0.9996638801454449,0.0144095139806824,1,0,0.9891603673910198,-0.0003891599760268832,0.12655828731036425,0.010499244131074217,-0.009025014539095424,-0.0073524084408217935
155,0.999709463055092,0.014702655083542583,1,0,0.9919660025779702,-0.002273687478725925,0.12787829378523818,0.012006849715594849,-0.013085444028596304,-0.007090767194806355
156,0.9998072722061928,0.014910526467492172,1,0,0.9922366678159098,-0.001709545135073339,0.12584492456638965,0.01198977290000593,-0.0051536178839335055,-0.005958203524177544
157,0.9999496281684661,0.015020223868140411,1,0,0.991529299466934,-0.0014784456261741842,0.12691974322908908,0.010760949946977698,-0.004313577956999569,-0.008005837734245383
158,1.0001243950722525,0.015035164187557123,1,0,0.9926793106676892,0.0010915318454285474,0.12711574926249783,0.010844418682073257,-0.00848658528753008,-0.0065246150561172524
159,1.0003163321915192,0.014972463658206208,1,0,0.9909140246928689,-0.0006058098139706961,0.12951854504563362,0.006610591311723518,-0.005138040066405356,-0.00721540470256888
160,1.000508705566923,0.014858868251801422,1,0,0.9925514173949957,-0.003050797785275516,0.12883369430193659,0.013442940299841971,-0.008786245669882833,-0.003959013222282368
161,1.0006850036933923,0.014726255300381809,1,0,0.992103230344624,-0.0023230346763938475,0.12910797606622762,0.012449889599597721,-0.005185340992866972,-0.004327122166181239
162,1.0008305914586118,0.01460738535015522,1,0,0.9930458523670274,-0.0030633689146377045,0.12748513880777662,0.010091360485507715,-0.006829124380341529,-0.008395463154648203
163,1.0009341044236864,0.014532218668935311,1,0,0.9936575325452505,-0.0004722439365701269,0.1255170823633242,0.013564036628298252,-0.005240426500591796,-0.006362623246075763
164,1.000988371635587,0.014524897683352108,1,0,0.9938180815975222,-0.0021487337245826316,0.12623897892324118,0.010448736842182484,-0.0019458237973645751,-0.006722929086933093
165,1.0009907036408239,0.014601462747067771,1,0,0.9919651407817826,-0.0034297836911117018,0.12929842192878246,0.01588271852851466,-0.0024766202113369494,-0.005526991343005314
166,1.0009425059448842,0.0147684315482144,1,0,0.9933260840512381,-0.0007930367381671281,0.12841327542924078,0.012312994508037923,0.0016362753720064454,-0.004700518935953246
167,1.0008483425445807,0.015022447843474184,1,0,0.9929820969073472,-0.0008016725131922614,0.12712730540488162,0.011260764704705668,0.0059272605901639205,-0.005119190342902611
168,1.0007147220149004,0.015351241197351383,1,0,0.9905358202470804,-0.0016560344052932781,0.13103136215846167,0.009795678705545742,0.004623850132994078,-0.0064878244002327815
169,1.0005489682933393,0.015736060109733246,1,0,0.9909248670143563,-0.0008640372615008888,0.12752596446728934,0.011336634513768946,0.007374570900352875,-0.006612974537986416
170,1.0003585319696493,0.0161554457011124,1,0,0.9916055429687279,-0.002550762883045167,0.12789441419847147,0.013146625751507057,0.006941808801555898,-0.006523838967522435
171,1.000150943286668,0.016589708703060306,1,0,0.992714495151593,-0.0017006930475549598,0.12816469637573716,0.019251349646227,0.008327235614687277,-0.005986396195471329
172,0.9999343102602393,0.01702498136166945,1,0,0.9927564169106561,0.0006831458151271844,0.12818415494036525,0.017411777222764734,0.007485698439982201,-0.004037425550166208
173,0.9997179590108827,0.01745558440282123,1,0,0.9925159733693868,0.0009377374350733575,0.1306974517699711,0.013077343907637476,0.012091703422467329,-0.0074926566894038095
174,0.9995126853225812,0.01788388687245801,1,0,0.9918101710011845,-0.0013181888428907052,0.1302330441574075,0.010966347085431169,0.008273692382077123,-0.005994045945663624
175,0.9993302232027941,0.01831769426324035,1,0,0.9908077212166421,-0.0009689534616731789,0.13158125951721744,0.009544612634615679,0.014109299852589114,-0.0075460589060231415
176,0.9991818729988469,0.01876603392852077,1,0,0.9907201600973657,-0.0026868075469222217,0.13009578660805435,0.011519134432262624,0.01025416914772408,-0.006958097176439658
177,0.9990766186225628,0.019234627064073077,1,0,0.9883764828630432,-0.0027935348391778126,0.13043061754533328,0.014737474907118684,0.01028758371892203,-0.0040216269665252205
178,0.9990193454531803,0.019722280159224885,1,0,0.9881187094023892,-0.0032421441695192,0.12949461165760012,0.013997818878585694,0.011457375156591872,-0.004647274363975316
179,0.9990098211323345,0.020219078008844697,1,0,0.9907753188929275,-0.001557261555708759,0.12743506327873136,0.013325558036618097,0.012303496206476557,-0.0047196535634958245
180,0.9990428568353013,0.020706795308078743,1,0,0.9910477561200027,-0.0016536245852489943,0.13185575040290776,0.008748168933281635,0.013524109849126636,-0.0077891347719454915
181,0.9991096016272716,0.021161428327633895,1,0,0.9918838619304109,-0.0030183584249636295,0.1307269807660686,0.010754127344851133,0.018764736965320838,-0.007237689126577244
182,0.9991994706234286,0.021557196602226603,1,0,0.9917041959270607,-0.0020239188082083357,0.13428997019209224,0.014062706365918864,0.022041080341775106,-0.004505132668277173
183,0.9993020154318849,0.021870891177379063,1,0,0.9896243724010757,-0.003582302600663913,0.13523659461828968,0.014104612952848946,0.017290728637489223,-0.005946202083419569
184,0.9994081842787704,0.02208531272090523,1,0,0.9915298140159379,-0.0009934950940444056,0.13413718833004046,0.015644048593810352,0.01535573815755729,-0.00488066426394515
185,0.9995107615461607,0.02219092970389113,1,0,0.9902065331789952,0.0016669798704606056,0.13133681679470738,0.010952557861931682,0.01623808616607781,-0.0049560448869324985
186,0.9996041308126582,0.022185609639191625,1,0,0.9894957902643242,-0.00011995893148272244,0.1319622786848701,0.010656012852341003,0.019268392649280278,-0.006169850583441569
187,0.9996837392875388,0.02207290605950118,1,0,0.9899583361141036,-0.0003258562748387709,0.13351082861935543,0.006817399751329366,0.022105532180971423,-0.007819155671473628
188,0.999745694140775,0.02185967446921053,1,0,0.9907319292356015,-0.0004892440244577093,0.1315828881647111,0.004185125061905378,0.014418672850196804,-0.0077692566666113455
189,0.999786785173584,0.021553828334745437,1,0,0.9915739504739499,-0.0010322757162610874,0.13334327061101758,0.004539080395219775,0.018975378935427757,-0.009113125712622476
190,0.9998049734304701,0.021162963912628032,1,0,0.9902726454790299,-0.003997487304970147,0.13800707439069865,0.007926292460337953,0.017298368856291102,-0.006765066508758367
191,0.9998001478500489,0.020694341361863596,1,0,0.9902642212186388,-0.002635032316770119,0.13454992287389878,0.010493607783847596,0.012800672811952196,-0.006838166028474759
192,0.9997748332129458,0.020156255865873645,1,0,0.9913844008005624,-0.001819396865975103,0.13517272472194303,0.01168631359384486,0.01993430563927482,-0.005812349706757873
193,0.9997345312188641,0.01956028629005714,1,0,0.9934158548439503,-0.0020702270317160794,0.1356109162582797,0.013253399074694324,0.014407071900465812,-0.006474402410194945
194,0.9996874581799012,0.018923505094281798,1,0,0.9891530386986159,0.0005029613119778599,0.13614085546460988,0.011674734412040672,0.01677082379446698,-0.0067885177343798815
195,0.999643622616913,0.018269672642901087,1,0,0.9888678877091208,0.002105537374315192,0.13401606090073837,0.0025952232935560243,0.011182972069418774,-0.009161122727235111
196,0.9996134505944697,0.017628749441478374,1,0,0.9897586499351292,0.0005762954980494346,0.13338393832671722,-0.0008213529411748504,0.020386105399180572,-0.008792907070132003
197,0.9996063626980247,0.017034545766373425,1,0,0.9894981734075078,-0.002519202742934469,0.13976342961269414,0.0005209322836427887,0.015381279814858427,-0.00885522706724615
198,0.9996296608471066,0.016520773607801013,1,0,0.9928511945980879,-0.0007637058441426491,0.1367371859247254,0.004550084975760194,0.012639827605420897,-0.007736364403291429
199,0.9996878347933067,0.016116151634262922,1,0,0.9886375889065402,0.0007932142149199866,0.13772453883081417,0.005676524757228395,0.009544601589781395,-0.010946950555367584
200,0.9997821789416081,0.015839579476215424,1,0,0.9910457179058474,0.0005243096358663572,0.13750195041446342,0.003270025135609639,0.007309603733481335,-0.007394173273560291
201,0.9999105803469005,0.01569659962107019,1,0,0.9903543738594707,-0.002989582221729725,0.13616438863323937,0.004476548110750902,0.009261920244133897,-0.008013317538646075
202,1.0000674444225495,0.01567816158746245,1,0,0.9905843258171678,-0.004179903589985168,0.13679038564615678,0.00594542681551662,0.011910238000407757,-0.010392668305822306
203,1.000243826625032,0.01576203685122246,1,0,0.990335729982875,-0.0015035114556814521,0.1382231833442859,0.011140879979174581,0.011227398584506353,-0.007485731046795232
204,1.0004278735025482,0.015916370856573325,1,0,0.9905035557243125,-0.00027323901613730416,0.13665294081631704,0.010597371672081145,0.01231175934747084,-0.008834735716576237
205,1.0006056547441118,0.016104249520272666,1,0,0.9909358567065163,-0.0021189411088724333,0.14139507417932431,0.009616559559584644,0.010810877675641397,-0.008001769892265089
206,1.0007624034494473,0.016288097836929596,1,0,0.9904764285440772,-0.00011370316490371395,0.1380876602688937,0.014357419061623019,0.005110961085735807,-0.007501624008062447
207,1.0008840883551813,0.01643314346090675,1,0,0.9912238458961056,0.0003779151411119879,0.13917406195085902,0.011102333747932359,0.011072749898168574,-0.005207354200439596
208,1.0009591426822346,0.016509749845435552,1,0,0.991842928591221,0.00032995640331081065,0.13823623103318605,0.007251724990224673,0.007172587711601162,-0.008062830415802814
209,1.0009800907280657,0.016494853543667767,1,0,0.9915539488243779,-0.00010378343604839334,0.13957885849440654,0.008972550387862606,0.013512390215955423,-0.00835878348936263
210,1.0009447675551855,0.016372879530651422,1,0,0.9916995958975532,-0.0018103337028850337,0.14221059450711915,0.00870328761389347,0.009266375711832824,-0.007675210617462621
211,1.0008568514773235,0.01613637336459411,1,0,0.9909129404951165,-0.0015044693592293672,0.14079905558302727,0.010114096588886323,0.01456476970220598,-0.006783977376246598
212,1.000725541731675,0.01578634824678849,1,0,0.9909866817260106,-0.001965994815337924,0.14123670368081498,0.009255885830050386,0.009728270278175685,-0.007154962032086005
213,1.0005643895541037,0.015332210276360341,1,0,0.9908627894923778,-0.0010590177732994978,0.13891978568647526,0.009016321584734298,0.006340728887606051,-0.008357164991530872
214,1.0003894727316427,0.01479117243143391,1,0,0.9900187357721221,-0.004235829403667708,0.1423151923082547,0.011453843760019525,0.005845647725551153,-0.008567426868355025
215,1.0002172410652677,0.014187182987138364,1,0,0.9903386572734842,-0.002427453053036577,0.13858032445933038,0.011150575103593614,0.0036003584975986287,-0.006310625095418677
216,1.0000624281880537,0.013549423676851932,1,0,0.987962218044466,-0.001251594512010471,0.14074413816843337,0.012267180715212411,0.007043124308052216,-0.006302772648319421
217,0.9999364071054677,0.012910362776256514,1,0,0.9911777114975278,-0.00015503462308989028,0.13759467831114075,0.009378484402508878,0.00574391248671837,-0.006203187695730222
218,0.9998462433439598,0.012303298960887318,1,0,0.990420266846519,-0.0014011249186087356,0.14114265849866311,0.00875791799811941,0.009346145606590783,-0.0052888473127873726
219,0.9997944930206927,0.01175940988910367,1,0,0.9897095830395168,0.0011720707428488815,0.1411059207066861,0.003410037067585424,0.0024309290156467,-0.010784952043969846
220,0.9997796019372056,0.011304524764933524,1,0,0.9899428281155193,0.0010504265134271557,0.13922772548360593,0.003671680556302137,0.006365839244249395,-0.006777917090049771
221,0.9997966834857773,0.010956081705101445,1,0,0.9895463483384923,-0.0036260824409137136,0.14442436641614373,0.003932545157486403,0.0023738171711822106,-0.00855874333490686
222,0.9998384824535762,0.010720876802158276,1,0,0.9905494841594479,-3.8809472876307184e-05,0.1407395415962225,0.006700626013923234,0.0029324536800826055,-0.00748746271096193
223,0.9998963971325647,0.010594160070425795,1,0,0.9895236745053206,-0.0017893560176641613,0.1406623207933394,0.004389883413000266,0.004581128786015957,-0.008671347059515633
224,0.9999614964199908,0.010560393291101734,1,0,0.9889444425540458,9.156893923788189e-05,0.13975572469451053,0.003415732954974061,0.0007287377143327299,-0.007249601344140972
225,1.0000255214963998,0.010595663215774398,1,0,0.9897384482024792,-0.0009265647763736062,0.14157876893738583,0.0038960417459434917,0.0014722198428619496,-0.009827891094906891
226,1.0000818601886503,0.010671419378870095,1,0,0.9909447379472844,-0.002377874016416985,0.14174963182821396,0.0036526427886808674,6.075601290108861e-05,-0.010385953379663132
227,1.0001263916138632,0.0107588863229829,1,0,0.9903089040666099,-0.002059782523464494,0.14117711677660974,0.009726829729868106,0.0008607927401475982,-0.009378373449609349
228,1.000157977030264,0.010833241319313241,1,0,0.9911709226097566,-0.0028343817784789575,0.14105581535312245,0.011149399254435165,0.0013927888200507192,-0.006619274265066264
229,1.0001783376067437,0.010876615302109566,1,0,0.991258948592844,-0.0005537413163420708,0.13968829533542593,0.009995048577189483,-0.0012549802536183697,-0.005991614856812083
230,1.0001911743285579,0.010879294347726736,1,0,0.9903276742349354,0.0002851129100850299,0.1430301273960541,0.00843515816225689,0.002395316429780402,-0.005313000749231328
231,1.00020062055157,0.010839087758365507,1,0,0.9890153592366384,-0.0006716254173217871,0.14182081485244039,0.004429040985596455,0.001823127943821919,-0.007078034628055699
232,1.0002093917428314,0.01075940669317304,1,0,0.9894717950907694,0.0005649152818237695,0.14073319357043698,0.005846113608159127,0.0022671298896096595,-0.009197980012269878
233,1.0002171990553774,0.010646889278655482,1,0,0.9881928582056875,-0.0009922432459102907,0.14095186877208665,0.005070049920369159,0.001990779548637376,-0.008543635500437486
234,1.0002200114266393,0.010509345991016805,1,0,0.9901338459098604,-4.37996148713914e-05,0.13929775873926226,0.004888836676283917,-0.0018735354415469235,-0.007754321347930774
235,1.0002105381555821,0.010354527421640164,1,0,0.9906485916391747,-0.000532025895001081,0.14243670097248273,0.002074300600955504,0.0038388575715660404,-0.008664856703265972
236,1.000179930397099,0.010189904228353043,1,0,0.9898298798102436,-0.00266668296623733,0.13967849572957985,0.00705908515816767,0.000559788455550145,-0.006057129065031067
237,1.0001203178961202,0.010023345520260457,1,0,0.9883807562501682,-0.0026384646179721865,0.14334097072503954,0.009218057543802585,-0.002274847069941398,-0.0039072590437948555
238,1.0000275295946595,0.009864277393976833,1,0,0.9957863764535267,-0.002426653755159377,0.13789702615397667,0.01067212066989079,-0.004740355770128776,-0.0063355094281591605
239,0.9999032326470226,0.009724663154800414,1,0,0.9915796530488563,-0.0006897591342030476,0.13665377520791622,0.010268178642720529,0.002865614232128863,-0.003928794420564688
240,0.9997558073330134,0.009619124936809385,1,0,0.9889203708320159,0.0008227297168541073,0.13833379341660665,0.004894012575966591,0.0010139522145000894,-0.006549140269684618
241,0.9995996236143421,0.009563819975659407,1,0,0.9889480218100234,0.001104776326343138,0.14012421950102527,0.004319187530321967,0.003889860461299041,-0.008572737070550278
242,0.9994529076968793,0.009574175831032605,1,0,0.9885842695337336,-0.0019112610827821865,0.14282733848709467,0.0019506289917607296,0.0049404046938199145,-0.00585644135308821
243,0.9993347933409239,0.009662006904052256,1,0,0.9899400271294243,-0.0001744184753066933,0.13928340184228907,0.0025117189533658125,0.0027542642016608722,-0.010507981896842737
244,0.9992622436557502,0.009832709179115603,1,0,0.9883361094334496,-0.002460963814247096,0.14219859215607764,0.004444463172374855,0.0016370647172237202,-0.006283362268602321
245,0.9992473853388745,0.010083201695490504,1,0,0.9886927691573882,-0.0007987561311442645,0.1403929410008916,0.0037933134259664626,0.0003766751657604032,-0.008868710088807245
246,0.9992956030017223,0.010401157175694167,1,0,0.9902605615608653,-0.0017608548515299172,0.14020482203639215,0.0037632100824963022,-0.0019749788344777023,-0.006871724344690154
247,0.9994045794721517,0.010765857771601033,1,0,0.9896123488856543,-0.002912466068057821,0.1373238100087534,0.0028306607435879183,-0.004460397951647325,-0.008583667892974456
248,0.9995643424809858,0.011150678936380547,1,0,0.9892021835608903,-0.0036611926440620534,0.1398158062326318,0.006623384428865204,1.2313143521830228e-05,-0.009718215835311756
249,0.9997582936910425,0.011526761873935107,1,0,0.9891881259349441,-0.004601032574051195,0.14028404663285213,0.010258875942513438,-0.004050967564618669,-0.009376041610018395
250,0.9999651383698108,0.011867034097905621,1,0,0.9896099221277086,4.716449214899505e-05,0.13977122737007028,0.007486234352229031,-0.0015279897614566657,-0.009701460359483643
251,1.000161548084478,0.012149593151582075,1,0,0.9911656302140288,-0.001661928243153954,0.13919502423921706,0.01184440421120487,-0.0023701731660139423,-0.0060032671289489805
252,1.000325245120127,0.012359686876158156,1,0,0.9907162966971709,-0.0018403104052564082,0.13967115853764547,0.012917601196737434,0.00044881833868974186,-0.00440557341938725
253,1.0004380485930402,0.01249000684855093,1,0,0.9915058584182544,0.000261349980798417,0.14159430985918472,0.00857629611855619,0.00015166389578690853,-0.006601362385535765
254,1.0004883608503978,0.012539548111041339,1,0,0.9911973520109413,-0.0007031606424593554,0.138518661100339,0.00790387403955483,0.0001290883233317513,-0.009524316416299241
255,1.0004726500870056,0.012511691797274072,1,0,0.9910862980866798,-0.0016528404130213377,0.14288464168687456,0.008110301104894305,0.00042201629471116914,-0.0066311076653145
256,1.0003956833465357,0.012412321944862095,1,0,0.9903205262271245,-0.0032242006505679207,0.1414080147060187,0.0063794726643866305,0.0005884773269230747,-0.009293086966975743
257,1.0002695232579195,0.012248655298849583,1,0,0.9900541635185628,-0.0022829313565518924,0.14029439074053238,0.007701440525589974,0.004367505902730682,-0.007014031507680115
258,1.000111549965897,0.012029096295531373,1,0,0.9888995888044577,-0.0024362153863238746,0.14147808788578542,0.010706681297481658,-0.0011228443605080032,-0.0068721433312888365
259,0.9999419340787922,0.011763959087858149,1,0,0.9900622657020313,-0.0006393101173380379,0.1403551939085757,0.010780076522245791,-0.001235329207940032,-0.00753653335530948
260,0.9997810133271159,0.011466495893707025,1,0,0.9898543458727488,-0.002919370099229934,0.13938575623337426,0.01019606525853253,-0.0012132203879321507,-0.00566366804587383
261,0.9996469214919453,0.011153491228853637,1,0,0.9910970786968318,-0.0008821435440540446,0.13867806788798964,0.012313616645287084,-0.0020829339701282992,-0.006141504730031418
262,0.9995536673937009,0.010844790899154848,1,0,0.9896426483174094,-0.0003507898830712056,0.13863050907478996,0.009602965128709286,-0.0016898917491599695,-0.0070398954257333895
263,0.9995097709886616,0.01056149584740105,1,0,0.9884626372606131,-0.0008607942504977873,0.14035924594469107,0.008159406070313293,-0.002045121264726108,-0.005404495894792861
264,0.9995175647636632,0.01032306287318118,1,0,0.9891020926354119,-0.0015429436992644104,0.13772197952608406,0.0037636298506221124,1.6900469925907683e-05,-0.0066624854572043595
265,0.999573281165112,0.010144046096744005,1,0,0.9896926936270523,-9.121133355030095e-05,0.14008554715608557,0.0039294320946035985,-0.00034947209975346897,-0.007079130263453225
266,0.9996679622846564,0.010031449343213612,1,0,0.9905805156917318,-0.0012121973265132812,0.13837144294080264,0.007140008001798058,-0.0032026169652913266,-0.0068160749395807145
267,0.999789039537741,0.009983490795889463,1,0,0.9905547022158915,-0.001742329270853157,0.1420518722172849,0.006227768168571866,-0.0018882298721133257,-0.00756284624774324
268,0.9999222531784849,0.009990112416099291,1,0,0.9898190209567709,-0.0011839993438554153,0.14183430528917862,0.004679021165553444,-0.0029938842770664887,-0.008621191752131104
269,1.0000535335930847,0.010035082822608097,1,0,0.9902386948797572,-0.0021422291579404895,0.14078377690407984,0.0043139250935438555,-0.00037696339138272583,-0.007556617751775547
270,1.0001705621282238,0.010099242310026705,1,0,0.9903451664892056,-0.00015609743615916275,0.1415209944661951,0.0052127544208677955,-0.0023883830711702173,-0.008950124382312035
271,1.0002638869581897,0.010164303398438745,1,0,0.9897324136446893,-0.0010384569858998027,0.14004602195503427,0.005441481087006539,0.0018565535061426696,-0.009498989620957085
272,1.0003275985183693,0.010216544804255361,1,0,0.9895765716147996,-0.0009142851230584409,0.14194212536119588,0.005113892091928719,-0.0029930624170112718,-0.00815744982504853
273,1.0003596212770955,0.010249700074640222,1,0,0.9906231996758289,-0.0002882834171459326,0.141810654257318,0.007717705772313931,-0.0016765492121007153,-0.008769507854171306
274,1.0003616468866556,0.010266402412549145,1,0,0.9919672672669296,-0.0017940632560760528,0.14052047602132292,0.007565724262178693,-0.0033708237552272915,-0.009744802708784576
275,1.0003386611673633,0.010277751450250398,1,0,0.9908792674217711,0.000611791768826411,0.13769900415243533,0.007819930890337074,-0.0033015241205316343,-0.005654867898774941
276,1.0002979988221203,0.010300926740709999,1,0,0.9901033818462788,-0.0008630514245793926,0.14077708542411144,0.0063566602194132385,0.003581030228866027,-0.007438069251228972
277,1.0002479627281877,0.010355244792947381,1,0,0.990978752994752,-0.0003766830778325031,0.13960706964173158,0.006632324146611006,-5.119033163485426e-05,-0.006381551916653264
278,1.0001962265626987,0.010457506091048781,1,0,0.9893852168268968,-0.0017727939267237855,0.14129144768760346,0.007946006350291954,-0.001167433236710341,-0.004819458625674635
279,1.0001483911379174,0.010617728402644477,1,0,0.9881868610144197,-0.00011114083467560497,0.14005811899143764,0.004737522735166762,-0.0015849698734964023,-0.006688881948062051
280,1.0001071027492383,0.010836315920373147,1,0,0.9897539653185825,0.0012560685351943046,0.13958421524989081,0.004848045859093209,-0.0032852022232537034,-0.008762509131759584
281,1.0000720234839784,0.011103393270773658,1,0,0.9918844963182345,-0.0015198579386231737,0.13858761386907506,0.0007393193129004288,-0.0015301710217559712,-0.009616503176370153
282,1.0000406792744514,0.01140053464147687,1,0,0.9903152649939656,-0.0030557006909723563,0.13817798764041578,0.004364722814530091,-0.002339957418634394,-0.007136031047015318
283,1.0000099122009363,0.011704548130364485,1,0,0.9879983655790103,-0.0021006015619239684,0.1381104566132094,0.012321022859632451,-0.002037583783270505,-0.005575932991831238
284,0.9999774679511374,0.011992417326202888,1,0,0.9940681570620297,-0.0033347519099656306,0.1383496037539696,0.013473025685114109,-0.00587881125953178,-0.007207045084748506
285,0.9999431881492928,0.012246077431529364,1,0,0.9945373806632491,2.8591318450635173e-05,0.13701545898887307,0.01401013420262494,-0.0007262565458034495,-0.006590432279159202
286,0.9999093420284844,0.012455644742740458,1,0,0.9874111341647513,0.0028027783828208485,0.14076744483233936,0.007517131794405226,0.0008127188554430386,-0.009960296575531711
287,0.9998799029620246,0.012620208196750688,1,0,0.9886613543879794,0.0031486152674565578,0.1380410941304266,0.004340847736587886,5.746308862404653e-05,-0.010479036497499193
288,0.9998590469263867,0.012746172692944603,1,0,0.9884518739667985,-0.00010097941953126838,0.14069250934506727,0.005611642913001527,0.003226193619563208,-0.009907471972547207
289,0.9998495385657991,0.012843955523961125,1,0,0.990873351788011,-0.0011946883740879188,0.14074786528979022,0.004119235289344598,-0.002257086472366806,-0.009782769154082082
290,0.9998516806844918,0.012924202414196157,1,0,0.9882268895365425,-0.0010163531254336778,0.13948451805232964,0.006875868146761499,0.004931839971130908,-0.009652209604840482
291,0.9998631793723398,0.012994573888380701,1,0,0.9895985314106954,0.0006440725524570768,0.13809210575703118,0.007739218907253596,-0.0024194898012808884,-0.010226716397350432
292,0.9998798801990053,0.013057769376555556,1,0,0.9929089575260541,-0.0019127135682748195,0.1389816882491833,0.007340502261855403,0.002726273710594526,-0.00853502889310315
293,0.9998970266363303,0.013111038642678131,1,0,0.9909280836710801,-0.001696483217142844,0.1381853212245006,0.00893874486063028,0.0036724302604952868,-0.008068187140723989
294,0.999910541371289,0.01314708815802004,1,0,0.9909800031360998,-0.0016713147718459462,0.13894471292698668,0.010549549206257223,0.005462196848569994,-0.007101011891410989
295,0.999917899512407,0.01315601735153384,1,0,0.9897428879008047,-0.0002162278591155131,0.13807468507613382,0.012307692412108728,0.0011916584601164603,-0.007804343708462283
296,0.9999184368433033,0.013127713989699207,1,0,0.9879783557548427,0.0012180388613575014,0.13970042787137546,0.010846050201973267,-0.0016481974588595356,-0.00753648593171917
297,0.999913238819444,0.01305406970619218,1,0,0.9908662860618647,-0.00010474994025002481,0.1377363361695073,0.009640954916795372,-0.003291640846729985,-0.008174768199473357
298,0.9999048760719313,0.01293049626242617,1,0,0.9900323582281733,0.0002601759894237304,0.1392634612296967,0.015025389231195518,-0.0008511019854773813,-0.003683241119160703
299,0.9998971389834195,0.012756477296923804,1,0,0.9913963625177895,-0.000783335568765035,0.14022017785699334,0.009485061486996732,-0.0021744340085118634,-0.006502867553677685
300,0.9998947185285267,0.012535191050560553,1,0,0.9909064878204854,0.00044070704792505453,0.1363077637911669,0.00958859063792447,-0.0027564636370996207,-0.006014920256283793
301,0.9999026747439024,0.012272526512149953,1,0,0.9901832424781155,0.0005821308715311339,0.13967886994571252,0.008302544986570534,-0.0022454038447003544,-0.008549781919851483
302,0.9999256078681479,0.011976008172526356,1,0,0.9903546830798569,0.0007768161748420211,0.13934163634245014,0.00640178065043922,-0.0037489975095788015,-0.005801368356482432
303,0.9999666328242054,0.0116541400585353,1,0,0.9886490302360441,-0.00039965633367494924,0.13777543015697633,0.007390908298169375,-0.0011518790429713458,-0.006924919188504235
304,1.0000264238014385,0.011316439123376341,1,0,0.9903145185038635,0.0003475861822411946,0.14056049667970572,0.00908692913827909,-0.005860485636336611,-0.009600888499898685
305,1.0001026384626313,0.010974030446846247,1,0,0.9895356992443405,-0.0017735772454974858,0.13741530374237002,0.008656553337393263,-0.0037009024389884067,-0.007321459749964736
306,1.0001899232192584,0.010640319980252921,1,0,0.9921572363342548,-0.0015938800852169806,0.13936311377285784,0.00732959711385821,-0.004329926868356018,-0.007307492813892457
307,1.0002805069034426,0.010331171196032623,1,0,0.9911183796906223,-0.000170768721966842,0.13732898009595737,0.006264251957442746,-0.00357022002997431,-0.00653676721356318
308,1.0003652326468868,0.010064240057854175,1,0,0.9882563235147085,-0.0005484444577753396,0.1375419648963197,0.006647246223098844,-0.0062673929796608,-0.0057559759225163385
309,1.0004348339180913,0.009857477715218433,1,0,0.9929327519491009,-0.0013100636636369323,0.13855501343974153,0.0035537875928698323,-0.0032940510773879724,-0.00827925974303781
310,1.00048128343418,0.009727078330264257,1,0,0.9905727144498611,-0.0009895933047608591,0.13629038904747645,0.005783310823608702,-0.005131827799220336,-0.006418686110203478
311,1.0004990401724507,0.009685281929116947,1,0,0.9917894452844765,0.0013591891494125683,0.13763747159195538,0.0038787882443649664,0.00021469712062810838,-0.00714449697375357
312,1.000485992943629,0.009738487123168079,1,0,0.9909344962970067,-0.0012832460200092749,0.13776791548730213,0.002121513010339651,-0.002679203969974961,-0.008107333533747874
313,1.0004439234737623,0.009886090655755518,1,0,0.990478835340125,0.00011618956983498536,0.1352179837440344,0.0030143304098389704,-0.005348907057190542,-0.007717662970374627
314,1.0003783989426938,0.010120313428754552,1,0,0.9924783153777819,-0.00041720704226299584,0.13781935273598767,0.003570604138829467,-0.003174587134908181,-0.008604116105504607
315,1.0002980958019636,0.010427015312411098,1,0,0.9908921650012261,-0.002074404572654153,0.13565548353554663,0.0037993769620299433,-0.003484132870439043,-0.010875766923358232
316,1.0002136298282318,0.010787252637752256,1,0,0.9903710541176117,-0.0005138778071645081,0.1374617891692997,0.005819847089583437,-0.004305491470466582,-0.007690545045399246
317,1.000136050889914,0.011179213429089636,1,0,0.990432438967668,-0.0011512386502534194,0.13729322147660766,0.00609669922189394,-0.002984658915228888,-0.009016879386470293
318,1.0000752555487011,0.011580208242760182,1,0,0.9899171941352253,0.0005699610903913541,0.13708043398391492,0.005872899666396556,-0.004222847586911803,-0.00781696285051765
319,1.0000386169224649,0.0119685176252078,1,0,0.990398645626176,0.0003204824384029564,0.13575477371894198,0.006436440663804761,-0.005263867081123479,-0.008668696757324467
320,1.000030077863888,0.012324978426282463,1,0,0.9903473050892733,-0.0013049461423115475,0.1368516765923032,0.009104644202136839,-0.006634288911718302,-0.0064255106502017646
321,1.0000498123639532,0.012634178209154147,1,0,0.9910023522177484,-0.0005816241852523476,0.1358898348974901,0.010549639894574721,-0.003654689313388577,-0.007174706833609069
322,1.0000943891503729,0.012885083165214233,1,0,0.9924007685878865,0.00050400114177339,0.13752411645305854,0.010908863869451862,-0.007833837359286997,-0.007014641880464368
323,1.0001572492713244,0.013070967102253786,1,0,0.9916744634186059,0.00040681178795264094,0.1353585076545159,0.008780826621496778,-0.0008713736362727053,-0.007087644680469771
324,1.0002293160490727,0.013188695825682072,1,0,0.988073516001816,0.0008436791400727394,0.13938752112352049,0.009275040154191743,0.0002449793503554792,-0.008329431742048872
325,1.0002997044425068,0.01323767725480267,1,0,0.990410027183531,0.00023634868696559722,0.13639439729517105,0.009472698210680596,-0.0004058972167804944,-0.00830943610233856
326,1.0003566637546744,0.013218941895514728,1,0,0.990158105912055,0.0008890474830286944,0.1382308343696451,0.008547228722593,-0.001098516097189919,-0.00943118800422456
327,1.0003888914591352,0.013134758973046293,1,0,0.991993156475619,0.0005608475966130076,0.1373543427220117,0.008881824565663271,-0.00475431822324758,-0.009087925063609148
328,1.0003871608847406,0.012988973929636861,1,0,0.9930464842779203,-0.0013671594784475773,0.13467998483825758,0.008132241059654459,-0.001045378814035039,-0.007888564278898436
329,1.000345980873969,0.012788003474959902,1,0,0.9885133521470548,-0.0024946569481793875,0.13700671617652413,0.009026780004050909,-0.0008265034405526766,-0.005993037490787708
330,1.0002649319902956,0.012542192529482942,1,0,0.989917487003132,-0.001018960766534314,0.1379307321020191,0.013213938305503272,0.000816782394598168,-0.006699310240423705
331,1.000149388189354,0.012266988739563146,1,0,0.9942929601749447,-0.0018145230657858416,0.13698454944970387,0.014183450174164036,-0.003697987884664133,-0.0059569165279106774
332,1.000010392873581,0.011983182156789372,1,0,0.9929749414873494,0.00011394129833479738,0.13508689542952018,0.01240900257693779,0.0032735641913719353,-0.007615693199457423
333,0.9998635041349136,0.011715518095547432,1,0,0.9881814310685069,0.0030045789830578816,0.13900916025934282,0.007011872102334819,0.0022473050064074143,-0.008643197925836087
334,0.9997266148577162,0.011489494772051797,1,0,0.9888095714471579,0.000950206961196239,0.13610163123431435,0.004692986181605687,0.002247246422746667,-0.0075793048387208855
335,0.9996171099234054,0.0113269382123489,1,0,0.9902481071166173,-0.0010188440086031177,0.13857099604453624,0.003771006278376473,0.0037466754698150698,-0.007724700151214102
336,0.9995489959027944,0.011241561250305796,1,0,0.9912889713550388,-0.0010593459305026723,0.13305218486369652,0.003517160207534308,6.736212329731753e-05,-0.008877650562414447
337,0.999530627095684,0.01123581529869178,1,0,0.9877115934228898,-0.0009387449184101245,0.1364144613986657,0.007470442233787724,0.003145444347913061,-0.0069971357450083855
338,0.9995634402481407,0.011299940453445215,1,0,0.9896115119840456,0.0002773486681363945,0.13805594720220155,0.005001969242267842,-0.0008587738581909675,-0.008729767719445647
339,0.9996418678592432,0.011413474660986325,1,0,0.9918310264964619,-0.001593001496682766,0.13695873239116385,0.007781551799774254,-0.004616248830208027,-0.006159778904918112
340,0.9997543670455582,0.011548856528346016,1,0,0.9905494439476913,-0.0022239985783265807,0.13375676208485363,0.010084303401218879,-0.004798885366479495,-0.007251490940596603
341,0.9998852902723515,0.011676281751846816,1,0,0.9906343738249147,-0.002874067657733064,0.13517599265473804,0.0094830369998318,0.0013466157955835877,-0.007785676301504211
342,1.0000172181740412,0.011768713478160709,1,0,0.9912532422837034,-0.00015187470877976822,0.13651454670339033,0.010528518801435974,-0.0022076904351046927,-0.009066701482118253
343,1.0001334057778983,0.01180595844522797,1,0,0.9891378165864624,0.0006679947954221004,0.13626564672493874,0.008267680241743389,-0.0023524174941023943,-0.009356547333329855
344,1.000220075828622,0.011777013537516309,1,0,0.9924913518693852,-0.00017963141807147187,0.1375760121576633,0.010043639751212325,-0.004565136297111731,-0.004461259867147181
345,1.0002683345510586,0.011680376290905176,1,0,0.9908551282653142,0.0006929146653289526,0.1361111246587157,0.012356444928141664,9.357289832114595e-05,-0.0044416598195381905
346,1.0002754831291598,0.011522550516297858,1,0,0.9894958557887679,-0.00012287755187887856,0.13764995075201303,0.008684407692774293,-0.0027439093837874928,-0.003650388537262318
347,1.0002455035229516,0.011315427225801682,1,0,0.993454930238006,0.0003795156141234053,0.13242614270903955,0.006798391763762318,0.0031279329558090607,-0.005736940035112665
348,1.0001885371729677,0.011073477252220677,1,0,0.9918789324651687,-0.0011035899956361064,0.1387978492681512,0.0031275435587166805,0.0023414761757077304,-0.007468384663483035
349,1.0001192588898373,0.010811662293300947,1,0,0.9922161078167326,-0.00040909229726844625,0.13795116615983258,0.005653891507867202,-0.0026655553363051578,-0.009007523700348807
350,1.0000542312492802,0.010544614862826948,1,0,0.9891947641644205,0.0001383502860040494,0.1359711123258049,0.006578220048789742,-0.0036941896164776047,-0.008548772378694522
351,1.0000086501654073,0.010287071311399547,1,0,0.9879750872692642,-0.0010963136245157512,0.13432479636162284,0.0045109516817602256,-0.0009712665761074366,-0.008451873082601292
352,0.9999932364932939,0.010055018988578157,1,0,0.9896802522246232,-0.0006603507544346067,0.13622286435499203,0.008033331178930214,-0.0011765393887297265,-0.008006979310178693
353,1.0000121293400674,0.009866739164975458,1,0,0.9894131173114858,-0.0004176655424674016,0.13431962523671934,0.008987625460625367,-0.004826214565868468,-0.007432951568180526
354,1.0000623429484703,0.009742931714388468,1,0,0.9926405944632878,0.00042116066764569493,0.13300759130714002,0.006800322342443887,-0.0011701894335170732,-0.009331441507276945
355,1.000134789322502,0.009705370069353339,1,0,0.9923179221284791,-0.0010020763715188,0.13513234601416033,0.005086011626893624,-0.0008346349238025861,-0.00698825426769875
356,1.0002163502757893,0.009774021721015153,1,0,0.9920118256899749,-0.0008979905800708259,0.13518386850384903,0.004457609198684637,-0.0014656412199038824,-0.007651212162347044
357,1.0002922577801354,0.00996313906253105,1,0,0.9914139099131861,-0.00027542680609312606,0.13401074830289797,0.0033671483415946986,0.0016231455425101664,-0.007625212463411183
358,1.0003481597038768,0.0102772218639086,1,0,0.9918485689515669,-0.00043873414446827125,0.13418119051711616,0.006935525664270828,0.002454630922184051,-0.00635851671513198
359,1.0003715694143118,0.01070780558545275,1,0,0.9908887847547856,0.00022760358833939453,0.13309689288182172,0.008929797638057207,-0.0010424443148761935,-0.006639648474484891
360,1.0003527280293147,0.011231797513188745,1,0,0.9914147558827994,-0.0023702573409337966,0.1349846005880892,0.007452118342249587,0.00029979907601874545,-0.007390345439458934
361,1.0002851260828864,0.01181176394671587,1,0,0.9887783009965728,-0.0008474883704624284,0.13484514423894767,0.010767864516149745,-0.0012711412136691982,-0.0059997038217531225
362,1.0001660013102431,0.012398324904241378,1,0,0.9924485670816393,-0.0005797770126973385,0.13237482663379407,0.009561619461872473,0.0014936289362912016,-0.005348965001574835
363,0.9999970520561859,0.012934665853895947,1,0,0.9902708293124907,-0.0016954735807829058,0.13472038162384672,0.008947519052953613,0.0016482931883100196,-0.006844675819449134
364,0.999785416728582,0.013363050745962862,1,0,0.9904518809186998,0.00028624899744408253,0.13329363817358844,0.009304951987639006,-0.0034970678726233117,-0.007515512016745251
365,0.9995447524694555,0.01363300938159628,1,0,0.991563808829296,-0.0017582382028966722,0.1339373361028754,0.009685057900378302,0.0018633785609244034,-0.006866084163578248
366,0.9992960842163423,0.013710518248625164,1,0,0.9894510316492136,-0.0015547797952610372,0.13614178527565698,0.013310709518076096,-0.0029082402582272077,-0.00737015242407144
367,0.9990680169643847,0.013587048663194145,1,0,0.9904796558593777,-0.0004833526341684991,0.1336338236276404,0.012127212705059256,-0.0038901537023625222,-0.0053338420949846565
368,0.9988958980723758,0.013286967004694675,1,0,0.991121842067032,-0.00020266844554716143,0.1348635834657743,0.012395107773107922,-0.0020307238436415667,-0.005683774302464361
369,0.9988195724630734,0.012871586511557169,1,0,0.9908183611373199,0.0002937310650557113,0.13376915519093013,0.01319744979426401,-0.0011635250783269418,-0.005747277329317131
370,0.9988795032223932,0.012438238067823895,1,0,0.9901608310877353,-0.0004739262923688383,0.13556421050318712,0.015291358414153532,0.0011314299484189614,-0.007695022067754276
371,0.9991112612229123,0.012113032078355417,1,0,0.9911136322479435,0.0008592541102518077,0.13521836017757893,0.013900306648809261,-0.0011929886729451784,-0.005703682089356987
372,0.9995387187593999,0.01203656372358953,1,0,0.9901224571848251,-0.001247577731764109,0.13454922917897746,0.013776845107472502,-0.001268843066534637,-0.00784089293725136
373,1.0001666544285797,0.012342756432800682,1,0,0.9907436326637244,0.0009606955299793552,0.13451221059757873,0.013424302226371547,-0.0015792691107627866,-0.007024126289785272
374,1.000973804017729,0.013132324964177546,1,0,0.9917622595017661,-0.0003674430513435084,0.1333279497666351,0.01260650901512375,-0.0004375163116222761,-0.006257799509686802
375,1.0019076040189134,0.014443788050011279,1,0,0.9920007227193685,0.0006885140431624805,0.13514388268066282,0.014116854597307497,3.7989088508575534e-06,-0.007612259190859796
376,1.0028819317228275,0.016226326573747674,1,0,0.9912270477622637,0.001644517539975776,0.13407700854985097,0.010670401567265363,-0.0012478645674282173,-0.006564874367700536
377,1.003779041221582,0.018319841206598114,1,0,0.995714870054284,0.0006191027272110952,0.13502467391751685,0.007221099682144699,0.005123898644292878,-0.008094837737591147
378,1.0044566360230696,0.020448072587783934,1,0,0.992218876087922,-0.0006378480422881687,0.13604231445999687,0.005480779749480437,0.0031597801787292437,-0.006413435438880509
379,1.0047606246201988,0.02223029178223155,1,0,0.990986174859736,-0.0022538020487961594,0.1349140828889178,0.00805780370309495,0.0041032081580544425,-0.008177861113751086
380,1.0045435748533955,0.02321553483103609,1,0,0.9900009553244219,-0.0009820324008148894,0.13819440314320922,0.014061930744621321,0.00388373410290665,-0.002547413575324962
381,1.003688128352292,0.02294056971911844,1,0,0.9966652345333006,-0.001398198972035775,0.130226978960718,0.013532540185746952,0.0007570646045161681,-0.004961869017856545
382,1.0021335584709323,0.021009081838450887,1,0,0.9922116791881431,0.0008546861852407748,0.13530236513069846,0.010976877247883413,0.013207270186783067,-0.005986138028430441
383,0.9999023857562264,0.017185555962352356,1,0,0.9906543338349636,0.0026341690731395456,0.1370331438603718,0.005750290739073162,0.006257060800498917,-0.0066487564525638445
384,0.9971228783884389,0.011493602278729066,1,0,0.9886647906853134,0.001493862492629717,0.13414725992796322,0.0072416239008685785,0.011444775995261601,-0.008040867747606388
385,0.9940426468651977,0.004305422915842207,1,0,0.991303554165372,-2.116329388625951e-05,0.13431437846368433,0.006854976195732571,0.006328988296798404,-0.008355596905717248
386,0.9910284378900647,-0.0035929112659798096,1,0,0.9938401628664851,-0.002320507701990244,0.13158894454714723,0.00985569086976609,0.007584838133997034,-0.008237111472921459
387,0.9885477252459169,-0.010976192522956608,1,0,0.9896262426171654,-0.0005474278739705272,0.13515506145481107,0.010185531111458092,0.009865090778472592,-0.004791314457364638
388,0.9871291116442288,-0.016208886455606874,1,0,0.9891356214990111,0.0005333261283846007,0.13618581634999866,0.009252797972521933,0.0026887863857725054,-0.005086650287319803
