id,ASVM,GSVM,walking_nonwalking,normal_abnormal,ax,ay,az,gx,gy,gz
1,0.7554904802880914,0.1475168203740452,1,1,0.7547505765034381,0.03213160467848007,-0.021414752989534543,-0.13344351490351736,-0.06224899606404909,0.007916247087783424
2,0.8172866677655487,0.14998281057924778,1,1,1.0702407765485409,0.04228062755968524,-0.03230451481943681,-0.18067433942938735,-0.10044400978534716,-0.0071304613623239315
3,0.8756162448818245,0.15178031166244918,1,1,0.9686482454910865,0.0361574219394151,-0.03054169102792647,-0.15165669898321854,-0.10635167346061809,-0.021135234847964493
4,0.9274123426889889,0.1521717785501891,1,1,1.025936160767986,0.042025529303290884,-0.031949389893228944,-0.15807018143123724,-0.11014243084986305,-0.025669599737039524
5,0.9704037863276774,0.15066007856884614,1,1,0.9959078538286625,0.03929495967263476,-0.031265748325518046,-0.15875795036248425,-0.09894485600047379,-0.032303806202525445
6,1.0033175026163859,0.1470579417427962,1,1,1.0217579647418853,0.030344795074560504,-0.029163142394313286,-0.15706177820104072,-0.06746466277775888,-0.041227329385577986
7,1.0259140110632046,0.14149251871827873,1,1,1.0017103989528013,0.025992025706009506,-0.02718420162219631,-0.12271741117417602,-0.03187672078582609,-0.047688279020240074
8,1.038877208261291,0.1343519321705922,1,1,1.0098836700513067,0.015979977410092116,-0.027169716326248237,-0.09345896908473454,-0.026408103326797983,-0.052030472106228284
9,1.0436012210512435,0.12619424490995937,1,1,1.0075975215667836,0.012216120713017272,-0.028276610499091526,-0.02837329480434977,-0.024444652960591236,-0.055448845597328246
10,1.041924513953341,0.11764660687261369,1,1,1.0105383480712113,0.01215721226982119,-0.02944992100695434,0.013997585624315417,-0.036778142718116996,-0.05534761469481409
11,1.0358583037270936,0.10932099175980362,1,1,1.007957162670978,0.012658599850071698,-0.023488588425544424,0.06538948294758222,-0.03182153147871047,-0.055457914833490184
12,1.0273465914970143,0.10176291760752974,1,1,1.0024215595579264,0.016660149695311332,-0.014922393629667921,0.09292809166737478,-0.02455255078490712,-0.05984753409379559
13,1.0180823739226879,0.09543454620639003,1,1,1.0054472685288784,0.02333625561971143,-0.014243097823792487,0.12086613144494475,-0.02552940172304263,-0.06177204594205179
14,1.009391521165951,0.09071987089054094,1,1,1.0031336767703385,0.030127554044955793,-0.015691907780052763,0.10311011986005353,-0.0038097002280562554,-0.06466644578213722
15,1.0021841043811286,0.08793305015691162,1,1,1.0015735664391583,0.023227772009767354,-0.007034176120190922,0.0789837097408967,0.008558117691656672,-0.06716277476641618
16,0.9969636904205177,0.08731326996081122,1,1,1.0086470519068516,0.022585755698791135,-0.019413372928598696,0.09152031137376286,0.01954951429064613,-0.06542533366798711
17,0.9938790029873475,0.08899839584739501,1,1,1.02822015123755,0.025044574907091978,-0.028131122589979497,0.04263136421164858,0.019269568997142765,-0.05915983607427958
18,0.9927998863730423,0.09298061401223266,1,1,1.011906644834309,0.039813500523290836,-0.020164581461045005,0.03542130962816165,0.06901595484754422,-0.05207955265872495
19,0.9934010655149162,0.099056467173358,1,1,0.9679863007920456,0.06056437657190234,-0.011392365685463916,0.04613504027118534,0.07032962419074784,-0.02041194083842338
20,0.9952422291338894,0.10678915838339119,1,1,0.9777420879765226,0.06556955109091246,-0.004293603411719946,0.044135529394545694,0.0500113556287557,0.00870484076790197
21,0.9978389474594984,0.11550202175118189,1,1,0.9975355056302084,0.07508750016710296,-0.015780210258958594,0.023321152750656462,0.036126713012495905,0.01285160454523015
22,1.0007224518499713,0.12431819197810048,1,1,1.0248132846718065,0.06381947521161242,-0.023359370544781533,-0.10536466082736352,0.015909087847073372,-0.008219836059703424
23,1.0034863095229256,0.13225216376338347,1,1,1.015927677539091,0.05788451469626196,-0.024615383263174077,-0.12800152803543163,0.03202403681712376,-0.024905333954256335
24,1.0058170903529988,0.13834498431464637,1,1,0.9971916504727746,0.07692115318513826,-0.022328581381690613,-0.14140024770496262,0.036063927612757916,-0.016228064271818332
25,1.0075073391938267,0.14182027682417825,1,1,0.996809686300342,0.0664644780333828,-0.010937117122035904,-0.21090310816899105,0.045663454382888095,-0.0028031358624586696
26,1.0084526347639997,0.14222879532477706,1,1,1.00148882032065,0.05182669723621795,-0.026531807494058778,-0.15653256483115383,0.052178854559571476,0.007961271811070347
27,1.0086377134102094,0.13954860066148234,1,1,1.001526844865353,0.03367045089052115,-0.03915647907296144,-0.19381297221267296,0.049691376655695195,0.02882226623921776
28,1.008117527146439,0.1342165985460107,1,1,1.011515981128252,0.005350230287360617,-0.024970365707774972,-0.15801665507537385,0.04205468818319389,0.03242042724909889
29,1.006997872334428,0.12708256395554673,1,1,1.0074246682203902,-0.0023206660902393315,-0.029041383075950538,-0.08237928089169659,0.055921375637059456,0.01611922366822971
30,1.0054183360632447,0.11929461479471717,1,1,0.9913308302508551,-0.0026509819604333715,-0.02720631954078666,-0.04645323735938191,0.08865338618401215,0.0060100965859215295
31,1.003538810901645,0.11214034198930341,1,1,0.9921751837177699,0.007317598561750622,-0.022082872332265108,0.023754944127540416,0.05866879206038194,0.007477737798665793
32,1.0015296087115664,0.10687585104701054,1,1,1.0137571220459538,0.026051528849724333,-0.03252923818691334,0.034279466853802225,0.04554007493304437,0.02463448813718156
33,0.9995636392519098,0.10457356607356026,1,1,1.0249324785815708,0.02890141956457818,-0.017483215769803988,-0.02215093327067212,0.07673495921960514,0.03883734076817237
34,0.9978075571724035,0.10601005228543904,1,1,1.0138702646144886,0.0031778848375135027,-0.0020077683865748035,0.012022301852063027,0.0830063298717497,0.03691877278568626
35,0.99640892282364,0.1116012649932129,1,1,0.9864976170646885,0.011872990177250216,-0.0010228151574355744,0.10612602786815553,0.09209202572948737,0.03036641549734825
36,0.9954794286352454,0.12137944164225414,1,1,0.9652042577999643,0.025219151632656946,0.0016520668702134076,0.14835517466463377,0.09934888996074194,0.033611415299807566
37,0.9950786076504652,0.13499788941661253,1,1,0.9707443282738358,0.03536560868318214,-0.0008148982194820869,0.14557422644416576,0.06136664245400752,0.02593756187206423
38,0.9952046668087148,0.15175015843470158,1,1,1.002084990131892,0.040365809891993905,-0.016927321170865626,0.14454467881586794,0.019716957846028844,0.008170432273008104
39,0.9957969293847957,0.17059815149903024,1,1,1.0107779829413681,0.04277208111306945,-0.019982737970189485,0.13086421688690064,0.03312304937334139,0.0018659373343177272
40,0.9967492072338242,0.1902148887863307,1,1,1.0058594389696502,0.05033756774744808,-0.005654196079510987,0.14575164162822352,0.021738802777626978,-0.0021489908261022087
41,0.9979290749018155,0.2090550408062447,1,1,1.0005552894532208,0.052834407561316674,0.0008601513447352485,0.17197667274980968,0.044862995390434056,-0.008179936049615002
42,0.9991972050482036,0.2254654237381351,1,1,0.9905016545118631,0.04213127378070844,-0.001065570130668953,0.19032688506245404,0.06328241060353923,-0.009864043405253856
43,1.0004231714982763,0.2378387561640186,1,1,0.9977608485026376,0.026025652245363348,-0.011142647521596548,0.21328406777371792,0.06448917512134157,-0.00012094210770733003
44,1.0014969636635236,0.24480092877879311,1,1,1.0031866254437432,0.017941917306422642,-0.014135680289805625,0.24076423799301055,0.05195231431189184,0.007509463603255646
45,1.0023369723789808,0.24540915434737953,1,1,0.998802298998487,0.0290632686037376,-0.004019488887982072,0.2754702104138529,0.05264740918903828,-0.0039927586248956135
46,1.002895222889779,0.23932885328284118,1,1,1.0013609935170404,0.04099047480194452,-0.004138697699542612,0.2829994082392784,0.055316688637520754,-0.01568419125238824
47,1.0031599906028046,0.22695334806336767,1,1,1.0034675055943134,0.04705296527641934,-0.008691750463220835,0.27689170968095517,0.05598297131987319,-0.02299014388641715
48,1.0031553313215593,0.20943423266132716,1,1,1.0045092033459184,0.057650167369265995,-0.006975614669166061,0.2755480707431764,0.05437767646435588,-0.021472275340408492
49,1.0029367107676903,0.18860232606411806,1,1,1.0064067767246399,0.06568787923611713,-0.001524238587952001,0.22565544241183588,0.04443757664186811,-0.020289825103514493
50,1.0025819655156691,0.16677814675851171,1,1,1.009978470308495,0.06289692623422488,0.00020156262745624199,0.1622090231261172,0.037553150017786724,-0.022303321181131135
51,1.002177525065932,0.14649342634289575,1,1,1.0073616256601077,0.05736030875110608,0.005250736637625161,0.07409316123059762,0.027363336000610573,-0.02356256443684725
52,1.0018013478608383,0.13016573695429715,1,1,0.986159955713731,0.06649771685444482,0.009946629500060419,0.049445319958154335,0.04976596317545408,-0.03316368839344879
53,1.0015060898982215,0.11978025685315326,1,1,0.9738628202022278,0.07593939717612842,0.012870698680207186,-0.007987499223693167,0.056126203506476346,-0.029527332337556507
54,1.0013075375582998,0.11663166931448403,1,1,0.9851277229132418,0.06749028624381544,0.01604587304216177,-0.04650144064063628,0.031512516833462643,-0.020811553917395108
55,1.001182720756674,0.12116585270285814,1,1,1.0088930313676125,0.07871491101820602,-0.0034494753285788738,-0.06999416578434835,0.009699874494289143,-0.026961828997145866
56,1.0010787948783242,0.13294022524241403,1,1,1.0194995110922502,0.06979760131907409,-0.0036743559634883167,-0.16834779018063648,0.04081233494338856,-0.041847347377715255
57,1.0009294055834033,0.15069938532895513,1,1,1.0035953489694978,0.06108865692427777,0.009732414300431019,-0.15032351023971124,0.03975709079513972,-0.0483443581679789
58,1.0006727422330537,0.17254468003700632,1,1,0.9941132345973923,0.06753386730400267,0.0077159292907282425,-0.1640340348154106,0.016207703074369337,-0.04266066120398015
59,1.0002662811107201,0.19616660400672936,1,1,0.9951500506724955,0.07005935746906009,0.01923463216950127,-0.1995320103381476,0.01820040963587675,-0.03417535426666601
60,0.9996959911366726,0.21910752840755468,1,1,0.9939825737706567,0.07315546809761425,0.019758155238453833,-0.2145638311640935,0.010310538061705888,-0.021688997951536643
61,0.9989800963737435,0.23902519155323346,1,1,0.9966597346653651,0.06858301438874334,0.016978747228632702,-0.2660947400627827,-0.0072190875636159784,-0.0014115124937019484
62,0.9981682014201801,0.25393075248940195,1,1,1.003981976927098,0.05232054253639015,0.017448232713520126,-0.28471146310549217,0.0035049890522358853,0.0024155086640464596
63,0.9973362413391915,0.26237850357627845,1,1,0.9995042996693316,0.04143762987883814,0.014884665092075186,-0.28705274348790016,0.02926833359131922,-0.00875342385060543
64,0.9965774399007586,0.26358936045221626,1,1,0.9945203946751068,0.0332470378744275,0.018253050330660842,-0.2776149610001918,0.04636271159210677,-0.017442571165204052
65,0.9959898828341598,0.2574981864010281,1,1,0.9930215024665631,0.03697035239649467,0.018005510307996242,-0.25526299097547983,0.048905448184099816,-0.022669764671599094
66,0.9956622520015764,0.24472493401962972,1,1,0.9889191369606317,0.03803614378738693,0.027422435512100562,-0.24430313776731638,0.02750297033459168,-0.024140958311971796
67,0.9956600229016858,0.22647912534241185,1,1,0.9949366719981442,0.04239669937511266,0.02729508180093572,-0.21168593091429272,-0.0029367940491932553,-0.02531074268843384
68,0.996014458939291,0.20441418248421503,1,1,0.9978884149144223,0.048137582898142996,0.028318914179570966,-0.20308336419631062,-0.0067104893756332355,-0.024291157999764418
69,0.9967161207797864,0.18045165805899002,1,1,0.9930602870032481,0.04669641296113771,0.029697980953104296,-0.15698007516754764,-0.012927850641921932,-0.026772180597728557
70,0.9977138811009366,0.15659574912309537,1,1,0.9886324144292566,0.04629475272928041,0.02377549950360337,-0.13377750023431734,-0.022159986183938447,-0.039695138413629955
71,0.9989199456195563,0.13475633236585943,1,1,0.9904519003239266,0.04669063403758214,0.021841091730488003,-0.1125104269488226,-0.0420493553398584,-0.051352773645596615
72,1.0002208657198914,0.11659484422062745,1,1,1.0004383982965148,0.05399873510402968,0.020322937927443004,-0.0910950266674515,-0.05145231015221385,-0.06085581328010443
73,1.0014934853073598,0.10340256648117249,1,1,1.0085977158506987,0.06052387140746946,0.020575573278620453,-0.08069666097031007,-0.041000880597621144,-0.06027501280239066
74,1.0026233040265187,0.09601668980626013,1,1,1.0046880756906729,0.0576603240398026,0.019888520091751568,-0.075290991735943,-0.010456984932953984,-0.06272913068311119
75,1.00352173707077,0.09477719791390174,1,1,1.0009069302066838,0.042562397526203576,0.018813561925953178,-0.048869294847254156,-0.016323822302888775,-0.06662080236727183
76,1.0041389495826638,0.099527157407443,1,1,1.004727726957428,0.036940446123602796,0.003654696002851941,0.0027854965463125635,-0.006804425884587025,-0.06626667332683117
77,1.0044701123457798,0.10965883546318693,1,1,1.0033601830392365,0.024445111289515358,-0.0025002247427897634,0.03484441198378282,-0.0019857814996453982,-0.059677435188805826
78,1.0045541932680466,0.12420578921445398,1,1,1.0108998752172298,0.022697129040172882,0.002289883533802931,0.09269654528691969,0.0027097720360270503,-0.053808691455278806
79,1.0044652582365674,0.14197489610192837,1,1,1.0169266562793509,0.03346236356318984,0.007750782529958346,0.13642853938802416,0.021670108979520212,-0.050049398125471586
80,1.0042970146254038,0.1617027465412477,1,1,1.004721271598468,0.043750959291843104,0.01682658094771758,0.18568176966144004,0.050742858431739896,-0.02990596066441025
81,1.0041426344714797,0.1822112823563421,1,1,0.9868908184018318,0.048160444901282025,0.02417473901933245,0.23336109551954737,0.043240711690965265,4.118691302760867e-05
82,1.0040737796124655,0.20253274884436806,1,1,0.9865497373623289,0.05669458921617672,0.023810984774093928,0.2702613174751146,0.022895542175165026,0.017097884733280777
83,1.0041241202911546,0.2219774791117482,1,1,0.9956773436593374,0.0679633969676738,0.015185532772368632,0.25042229081816153,0.024252227921065576,0.016077042051039908
84,1.0042820210807928,0.24013034202272107,1,1,1.0027570618823975,0.06066561002935647,0.020368295247587702,0.23292344112704125,0.02370467567694825,0.0065204815189293655
85,1.0044942018752612,0.25677980216016155,1,1,1.0090410074918035,0.06150956422153743,0.01116417344925134,0.24005595200397928,0.02273230737658886,-0.002759674582141927
86,1.004678522884506,0.27180148240442,1,1,1.0099296014337116,0.05806181570722035,0.010697338976902825,0.22231951143246262,0.0324491542726281,-0.00921496365260088
87,1.0047415260534134,0.28502973033445983,1,1,1.0138358120332236,0.054681629546403085,0.004152170982901493,0.24387764039330692,0.06088096865639723,-0.007525531391756628
88,1.0045959755845169,0.2961527651714949,1,1,1.000511301321561,0.05481751320891119,0.0024168318438666163,0.2285406536955209,0.10518714813376985,0.014559828817389275
89,1.0041751042901526,0.30466008994526617,1,1,0.9984459456761147,0.04534178903742318,0.010267459968376472,0.24978723703528363,0.09251357996784561,0.03199453255142789
90,1.00344251707792,0.309857817825781,1,1,0.9977800766109389,0.04386796209680302,0.005824646787384465,0.28037441665497104,0.09474101636323425,0.03741981363569015
91,1.0023984448316465,0.3109517600625932,1,1,0.9964979863021415,0.04101459920390593,0.011213507584636736,0.2992063325512814,0.09278956268330271,0.03238439583752638
92,1.0010834389027121,0.3071828362784521,1,1,0.9983304873194906,0.04628731977923139,0.012753598188325305,0.31581951181453594,0.10019420034682529,0.028820852055495512
93,0.9995796762189579,0.29798771382684514,1,1,0.9995856553751553,0.05122690660833086,0.015729023447009084,0.32101161181657173,0.08636529000423394,0.023840133199067682
94,0.998008536530577,0.28315205615659383,1,1,1.01750325165694,0.05976824319552315,0.005936287859904556,0.30323317393437665,0.06833877914434898,0.027062507709095077
95,0.996522039288161,0.2629252921041169,1,1,1.0124921078933542,0.07096746769185693,0.008160235907362584,0.25161315591744565,0.08910601310571444,0.02997410430408686
96,0.9952861745473294,0.23807319437225677,1,1,0.9848466250245804,0.08155913363885331,0.024623262724012752,0.2564295406513031,0.08725821404620729,0.029226103379927242
97,0.9944567319220332,0.20985502659194658,1,1,0.9715412814356909,0.0883598598977331,0.03103434917834032,0.24465428306369663,0.06734829672606542,0.03133071239249467
98,0.9941520257612231,0.1799232623395044,1,1,0.9744629876259171,0.09384940930121885,0.027505789933309585,0.20900503714862356,0.05387916402123333,0.02397246669322564
99,0.9944295265354702,0.15015560515640258,1,1,0.9839160766799641,0.09475740299935986,0.029666131919253907,0.11955878312739249,0.02448595011323298,0.00977285271794422
100,0.9952728515779313,0.1224416272339296,1,1,0.9949409705603366,0.0925418812463732,0.03371741712870632,0.07431226620910233,0.002322762127438427,-0.007897394974161307
101,0.996592189751135,0.0984576512767772,1,1,0.9896629253201292,0.09636775066972561,0.028819081440703345,0.056485771531232506,-0.017790165162996578,-0.015283621856715049
102,0.998237233499141,0.07946873989428492,1,1,0.9948068328985807,0.09595827628878544,0.031199323560762805,0.033381151221334365,-0.023356003677725393,-0.015868922966823625
103,1.0000189846791065,0.06619255268819539,1,1,1.0015563542690646,0.08985529817785472,0.03059780009140779,0.005479833183375961,-0.004975703068710771,-0.015370350490388684
104,1.0017358121274853,0.05874764167300128,1,1,1.0017544687786468,0.08023346388003631,0.032592416997862625,-0.03346734183094948,-0.007672194435111912,-0.00996823118974318
105,1.003199364466157,0.056692500106657245,1,1,1.0014991205474106,0.07603362443639229,0.03434580257817278,-0.05771132120854024,-0.017750402516268846,-0.007122793276660674
106,1.0042568840229806,0.059145097106030206,1,1,0.9991752858011015,0.0733138992930554,0.032303904716499104,-0.06934553613798018,-0.027543983213900117,-0.006368491846315764
107,1.0048077644210072,0.06495873830349448,1,1,1.0016377646908747,0.06810079864557884,0.033449689308753104,-0.07546293236100338,-0.03591905931301793,-0.004720400752354859
108,1.004813388460282,0.0729215669177425,1,1,1.0025907696622198,0.056472871335955833,0.029181038102128576,-0.09238556274300837,-0.031537436197327115,-0.008537027628973617
109,1.0042999854217893,0.08194513704762597,1,1,1.0035375827265518,0.05697824177149905,0.03139945481547342,-0.09845496628757307,-0.018304316382583747,-0.008709867148178294
110,1.0033544578404794,0.09121136002233608,1,1,1.0113195037878717,0.05085213388018987,0.01736721167112826,-0.13764459796308565,-0.005676071829442963,-0.006791691217682018
111,1.0021132369900205,0.1002549138046221,1,1,1.0029781718578388,0.036146800653569525,0.01756864427434337,-0.1672459142331182,0.021050809991583444,0.005141427193933891
112,1.0007447245408165,0.1089689760066673,1,1,0.9974465139026981,0.05378104900058059,0.030523971875253297,-0.09799465448756758,0.021605080871100163,0.0009071367834390585
113,0.9994269655658918,0.11753582646660005,1,1,0.9940453585345624,0.07368914648246801,0.03548072895342503,-0.09598128763024233,0.030197959206660963,-0.006127870237700101
114,0.9983235248008909,0.12629895635645705,1,1,0.9900694378707595,0.0714748936950363,0.04794574992277672,-0.09482370103746102,0.030929787894708745,0.0022172603403605978
115,0.9975614180848289,0.13560549018794738,1,1,0.9874033991233735,0.0750832118802254,0.04334371718794708,-0.09508327372496206,0.00890813808715345,0.01104794239614354
116,0.9972149063618293,0.14565247432618017,1,1,0.9894376946137223,0.06865048041001831,0.03167762126658505,-0.1395962187148097,-0.008520822320696765,0.009253411987467495
117,0.9972979643195135,0.1563670891052494,1,1,0.9929635308831503,0.06627023815360591,0.03626659821288837,-0.14104440055150635,-0.02521707463231708,-0.0107915162377086
118,0.99776656816959,0.1673421704667494,1,1,0.9933142445953185,0.08102426669392258,0.03612891497412042,-0.12327618323226239,-0.03351066798456415,-0.020229024410123808
119,0.9985300440766668,0.17783840584648164,1,1,0.9916709951426201,0.08925893062034174,0.04229505137168808,-0.13930126891490854,-0.041815798019291854,-0.021660054258094797
120,0.9994690523734452,0.18685489047022244,1,1,0.999036079652053,0.08592139606881573,0.03959106562709878,-0.15712961991615085,-0.05628105171441404,-0.01634847228044412
121,1.0004566671835038,0.19325980002071722,1,1,1.0035835337593277,0.07964736374809858,0.0352287033802603,-0.19749811787082677,-0.0456402454110028,-0.006486940104190591
122,1.0013785818595278,0.19596236460001265,1,1,1.0046848901718513,0.06089024381898094,0.03219232305340768,-0.21239001135728552,-0.048129193244326116,-0.0010141876811333942
123,1.0021488464062216,0.19409800628762128,1,1,1.001424899089819,0.04964949313693532,0.02722138154202424,-0.2249551564350044,-0.046567977168611385,-0.012192935733231628
124,1.0027187565168798,0.1871936965958141,1,1,0.9995731059538397,0.023540172758940534,0.025183608509761767,-0.24642060671248495,-0.030801517823115444,-0.020910881293697878
125,1.003078215619938,0.1752826683277872,1,1,1.003025370583415,0.012132471701560656,0.026478582310034467,-0.21753085238782613,-0.021847884122169033,-0.014187581844693587
126,1.0032504135593587,0.15894695858996766,1,1,1.0096321885957251,0.04503957950243764,0.029936742414950153,-0.14456541469842432,-0.0003285129716900415,-0.015366222663127425
127,1.0032815896537264,0.13928100302798627,1,1,0.9955699390254394,0.06245917751697146,0.036383599980838136,-0.12617904676989006,0.0462207109798015,-0.007676568923805921
128,1.0032281425322664,0.11778537244974252,1,1,0.9959776267121366,0.047504412613765076,0.03862100734775265,-0.10290961793175553,0.03852424895049496,0.011497123033119793
129,1.0031437043266154,0.09621155824170495,1,1,0.9909675501214827,0.05556359692816117,0.03179562922367472,-0.043772961694085226,0.024987736547860493,0.017975657596497264
130,1.0030687917548178,0.07638352232818411,1,1,1.004787304573128,0.05279513606893182,0.02797882055432941,-0.07794435109452214,-0.0030174145738306934,0.00409722538025622
131,1.0030248102410537,0.06002009721478553,1,1,1.0071831810938041,0.05719934318221631,0.022178987655942263,-0.044792422822613066,0.011808072772297428,-0.01872045840300656
132,1.0030126747431976,0.04857677558779205,1,1,0.9993696888953807,0.06999425632900937,0.021278774339461966,-0.03842831092665605,0.0028793376071680247,-0.03150218943751464
133,1.0030150321028248,0.043118802332262264,1,1,1.0029160622251347,0.0627570258368781,0.02286846816059032,-0.0016236618032963788,0.005814149008698731,-0.03249252124379477
134,1.0030007582056302,0.04423200461127274,1,1,1.0008044249663353,0.06358541623083984,0.018887560341171308,0.04894940235927432,0.0026926753743733278,-0.02838203159891181
135,1.0029309029542068,0.051974325358829176,1,1,0.9945378749458308,0.06050827205065192,0.015495771472278654,0.05311131441901846,-0.00811134420859849,-0.009313964249619087
136,1.0027658596190616,0.06586928640192624,1,1,0.9971750113477023,0.04786711095153097,0.015121635270333108,0.04723741133284414,-0.015052792687879336,0.006009193715025194
137,1.002473649539642,0.0849420153371094,1,1,1.0009160334422231,0.030848797932606538,0.022282190572196492,0.0550244805328667,-0.011171419034593223,0.005002462541030455
138,1.00203861877852,0.10779794805745511,1,1,1.0074250115012924,0.016064287233390158,0.023047913212276484,0.08026544393095084,-0.015005716119132317,-0.0009729867189451044
139,1.0014687906032451,0.1327420077399684,1,1,1.0129496899133517,0.012632946152763405,0.02304973966370015,0.12423362659323474,-0.0030879890627688554,0.0031877985558309407
140,1.0007993612588408,0.15793067521991463,1,1,1.00623494124666,0.03429591574819453,0.021275709076541846,0.18854414553001192,0.015507385289674153,0.0097920414221852
141,1.0000902169990753,0.18154205509020033,1,1,0.9956029471591794,0.04848737536440588,0.02356936964180172,0.1870905677562893,0.03440491566508314,0.020166878955833772
142,0.9994170938893825,0.20194317855585514,1,1,0.9943864479687309,0.047223662480037454,0.03215189565716677,0.20778354490214085,0.038421140253429284,0.025226985209786786
143,0.9988583088572925,0.2178323598672,1,1,0.987867509594662,0.058065449434343164,0.030882921700610643,0.2572497733303494,0.026517619585090316,0.02722722590851159
144,0.998480590429636,0.2283378806449508,1,1,0.9936162019872481,0.06477298049936164,0.022441679533506155,0.25420711033573873,0.008024578893320847,0.0220827665401585
145,0.9983276402287704,0.2330612767612461,1,1,0.9964037234059885,0.07065802370653117,0.023516304116297484,0.2462115660294169,-0.003953051511052453,0.006959105246648989
146,0.9984138486874706,0.23206281371513235,1,1,0.994113804826564,0.08128262942944652,0.02471692097093113,0.2223533350915363,-0.007779956040370954,-0.0018187374753002416
147,0.9987239152269504,0.22579701766240584,1,1,0.991291331296117,0.0837478305641531,0.03096557088138726,0.20450214493524058,-0.00992007052315149,-0.0018247554543231565
148,0.9992177570798236,0.21501481727705316,1,1,0.9957724111426248,0.08215030886659132,0.033126446157393706,0.19738424618678982,-0.015997916239829654,0.005755476275152667
149,0.9998392417354633,0.20065312575406197,1,1,0.998914740526614,0.0768241175010793,0.027078462451235998,0.18017141213930493,-0.005353705168724779,0.014554500529803142
150,1.000526758640035,0.18373155056468687,1,1,1.0035849401900103,0.07034437179421896,0.028158198993727283,0.16449208089096587,-0.0023479710044764595,0.019305605200195936
151,1.0012233973516929,0.1652705901112683,1,1,0.9979449374886454,0.06101376603528064,0.026048050601232366,0.15056632058794162,7.783641939268546e-05,0.018580401355689405
152,1.0018847071010795,0.1462382775873564,1,1,0.9991758134239143,0.06104124667774973,0.029908805837128433,0.14647963071003367,-0.008596625383863247,0.0173121824481617
153,1.002482703423859,0.12752458262031532,1,1,1.0021746797994828,0.05654636112779909,0.028305440970426143,0.1296860963318521,-0.012694112702822714,0.020171416588232967
154,1.003005629393832,0.10993641540117148,1,1,1.0054493091106884,0.058673981861356125,0.027920643895324625,0.12872106309347534,-0.016501810674500322,0.02604009799537681
155,1.0034536601203816,0.09420210391106541,1,1,1.0047424201030712,0.06741662195315923,0.02912115603798355,0.11322200185615988,-0.006122235554996766,0.025084162255462047
156,1.0038313447361014,0.08097372420929232,1,1,0.9959881627964348,0.06851008594016339,0.0331761678082262,0.08750510124963626,-0.003845935556484668,0.024437522461461202
157,1.004138341685949,0.0708188442167292,1,1,0.9941284836473991,0.07299544370478692,0.033495090410573,0.08924418194546603,-0.004301612519316729,0.019886039486184462
158,1.0043607452426726,0.06419919853698405,1,1,0.9961718662373215,0.07493858091683,0.02880991253509613,0.05999318233733107,-0.002554459930606584,0.009762510417345577
159,1.0044654300836353,0.061440807503756585,1,1,1.005352904160343,0.07984683508682522,0.022022151054224687,0.027884387450839588,0.009217473124789667,-0.00320082216458307
160,1.0043990267727072,0.0627059527369664,1,1,1.0029164415116911,0.0886585895620811,0.02180238922397064,-0.007477939161927911,0.025186034314635366,-0.00613146268457134
161,1.0040918462274129,0.06797990293013899,1,1,0.998485996642444,0.09139618999431218,0.03397303742900431,-0.038884706314122955,0.022304289488459226,-0.002208149369983491
162,1.0034661539237317,0.07708251134007843,1,1,0.9955481254633923,0.09121041917185334,0.03683342511838426,-0.06492112639276991,0.012770361932804527,-0.0014327299454185277
163,1.0024480048544313,0.08970698647808319,1,1,0.991760999626694,0.08239345391258744,0.035921795301566,-0.10430412601472547,0.0007408532776066141,-0.0015655172703725496
164,1.0009819192088205,0.10547820424930847,1,1,0.9946221695507733,0.07595857335465313,0.036437100843267095,-0.12746160065510762,-0.011705688646446591,-0.00683638411197285
165,0.9990473066590909,0.12401501556951684,1,1,1.00036029640383,0.07372626160601078,0.030216974081186683,-0.14686005755230652,-0.007808975546741039,-0.008201094158518345
166,0.9966745516092981,0.14497811719050702,1,1,0.9982519597843889,0.06873212945253732,0.032463199186896635,-0.17419183374515404,-0.00667234447024274,-0.000734738655952961
167,0.9939575735224133,0.16808790371577803,1,1,0.9941587432579596,0.06403466538644126,0.03901135853798348,-0.18694592062113252,-0.01746727021752503,0.0031156752198693333
168,0.9910592398330772,0.1931040408831038,1,1,0.9960785556566595,0.06235171720832314,0.03697152424900381,-0.2032634432894255,-0.020012091242581725,0.003649605174127326
169,0.988206625870814,0.21976812862163572,1,1,0.9949788644832641,0.06396251835715212,0.03918637825953281,-0.22651312363897363,-0.012023888062485841,0.001053267735798379
170,0.9856746889023882,0.2477205672356162,1,1,0.9898919330933041,0.06591258658400646,0.03915182670241297,-0.23302655339197095,-0.008801951693193278,-0.003346671740442282
171,0.9837592129773999,0.2764107170874577,1,1,0.9727623480317271,0.07230684143231043,0.04287248939729626,-0.24716764072100275,-0.014207366588370943,-0.01185967837031707
172,0.982742558520473,0.30502404990791865,1,1,0.9625360190771017,0.08194921565516618,0.03934482077204866,-0.2535062879272419,-0.029972624900617504,-0.014989101394489505
173,0.9828580041466398,0.33244981667104756,1,1,0.9696611185518894,0.08805229527001414,0.03923585202579086,-0.30726209257726056,-0.03396458822835262,-0.020668811433218356
174,0.9842591076378255,0.3573069752062089,1,1,0.9873387600263989,0.08827272422370848,0.035222968614024845,-0.338627937571118,-0.020443361687593822,-0.027538638159248247
175,0.9869990199347115,0.3780355458272858,1,1,0.9779836775140108,0.09084270891553953,0.02997712220897911,-0.38007049434225465,-0.015878409998314264,-0.0313155066159688
176,0.9910219789784587,0.39304811007629614,1,1,0.9773974386568994,0.08461999890767218,0.021508010317648003,-0.38813750254103907,-0.04946300102030824,-0.0316896020065445
177,0.9961667599947781,0.40092539280186784,1,1,0.985361232520636,0.10207039860881255,-0.0031361608880566194,-0.3524167144944414,-0.06155007607993621,-0.04397221522141755
178,1.002180126068268,0.4006324793710457,1,1,1.0008565408487706,0.11916998326819019,-0.023072980415627897,-0.38209130875884056,-0.0985599434238228,-0.044058822988493986
179,1.0087367792101256,0.39172715658481455,1,1,1.0207137994418032,0.1037879973296502,-0.043498212970010684,-0.4326224574932246,-0.09583114601636936,-0.022429206665361887
180,1.0154609616745478,0.37452759059343066,1,1,1.0288632580867842,0.0996319470307397,-0.05823936766464535,-0.4159596527372791,-0.07245643232517276,-0.018552941338232567
181,1.0219448837672462,0.3502044415833752,1,1,1.0272118817787044,0.0886380348146262,-0.07988970305465085,-0.41850353994794487,-0.06113368612655198,-0.013838067678825906
182,1.0277617457556918,0.3207667324949531,1,1,1.0187054156116997,0.06783549509938572,-0.0752465653195619,-0.40162942801728896,-0.054738984839387016,0.00474611576767967
183,1.0324759684469371,0.2889243686948614,1,1,1.001874478275502,0.06084030801116,-0.05577785295465176,-0.3110635206683796,-0.06040014574494862,0.020617677538964548
184,1.035658209039424,0.25783214485649864,1,1,0.9898186283625017,0.057627500663373764,-0.055038788868124626,-0.2177661476497238,-0.07622860325078998,0.03867502386150406
185,1.0369147526020983,0.23074549398310754,1,1,0.9954472006603541,0.053236097383370394,-0.06239232405319101,-0.15926416307003785,-0.09729776774590677,0.04478453986573435
186,1.0359375044309849,0.2106398220570591,1,1,1.0288892304241555,0.04914575653393217,-0.06651067801572595,-0.09483220632409259,-0.06823760679434125,0.06127314597553125
187,1.0325719239263438,0.19985596198919936,1,1,1.0600057249085342,0.036160102188162284,-0.05904004857057508,-0.09406228845426108,0.010995156297949088,0.08879207454247667
188,1.0268889343693108,0.19983066128569335,1,1,1.0819486526263784,0.027129428956567808,-0.03975517489493196,-0.06793316698343106,0.07569309956606786,0.1000760270850928
189,1.0192385835548212,0.21095460008464886,1,1,1.0728184433652417,0.031133223159792396,-0.025607569746341503,-0.056553166234348556,0.11790815962274354,0.12088180557480431
190,1.0102630117123295,0.2325761868024673,1,1,1.0254084005890398,0.040813659760161845,-0.022383662042090413,-0.07181572640187343,0.16888647310314825,0.1345480211441494
191,1.0008554036426585,0.2631435319881346,1,1,0.9716222581514768,0.05570117542023183,-0.010048404005308237,-0.01712278670169942,0.1770364941394086,0.16659042335909857
192,0.9920663053804,0.3004549026072491,1,1,0.9602942560738346,0.04704098107892579,-0.005511388590174073,0.06119731679829799,0.2104072244126027,0.19826959333571567
193,0.9849719826322746,0.34197225134531817,1,1,0.9673756257658256,0.028172881527939456,-0.001343128225783384,0.11561582788820607,0.292621959750596,0.2127851415773416
194,0.9805255876919475,0.3851431376597079,1,1,1.0099825236538569,0.012947034288800131,0.010176859202954207,0.10682272954783145,0.3551152739664867,0.2545372875526776
195,0.9794102935353743,0.4276734773785017,1,1,1.0433189118920105,0.021494347102224184,0.0393413180119078,0.07040518104266724,0.4597829163970657,0.3377324164077122
196,0.9819094044237199,0.4676995080114977,1,1,0.9703001628202761,0.009860662768757416,0.07290130008919175,-0.16221797055136886,0.5316585130456929,0.33607306192296443
197,0.9878081468119813,0.5038265509877734,1,1,0.9141513021734886,-0.021785266112818308,0.05315977910163323,-0.14493295028872655,0.4141470220976659,0.23824104444894423
198,0.9963467254721402,0.5350364164888156,1,1,0.9205768426631775,-0.032542256612719436,0.026720805938213264,-0.11595979875009083,0.39448776289892645,0.1383051467602138
