id,ASVM,GSVM,walking_nonwalking,normal_abnormal,ax,ay,az,gx,gy,gz
1,0.7507401871409426,0.012260967019291162,1,0,0.7295573614652037,0.059782226854287766,0.16641374286963584,0.010006122386350147,0.0057212050479092,-0.0044732199989403745
2,0.8117300619382,0.012633895708343328,1,0,1.0375268135546118,0.08965315788528479,0.23705331763586804,0.011671542568109514,0.008124069465533068,-0.004254687484102827
3,0.8692297508784727,0.013040961776076956,1,0,0.9369310920155763,0.08403529849881693,0.21460784305928748,0.007311510790722127,0.006935868620635803,-0.004565350169727949
4,0.9202087600852944,0.013494860639754896,1,0,0.989222661784913,0.08598199246575568,0.22817162300393687,0.0031450088102069,0.007059086528347685,-0.010496515144058785
5,0.9624323397375939,0.013996088340908252,1,0,0.9565499019938352,0.0832768009387588,0.21995599981286473,-0.001248993428977827,0.0048508264540608565,-0.012566820668690344
6,0.9946621400387216,0.014529513663708629,1,0,0.9808259602586398,0.0852056015166007,0.22468572510570994,-0.006341684306702477,0.00742658879492071,-0.00857770648758816
7,1.0166910849204183,0.01506356209839431,1,0,0.9667028542015812,0.07996507305876167,0.22093314434835423,-0.004119681176863414,0.004574271789899273,-0.008977756018149423
8,1.0292335199503706,0.015552496646241584,1,0,0.9771899341025004,0.07960027880732569,0.22207136979225234,-0.0037321563986235373,0.010163783731680961,-0.009084036136068566
9,1.0337124719814699,0.015941744494543077,1,0,0.9775211273957636,0.08177129070723518,0.22045343601259446,0.0006696266446932595,0.01936496943467899,-0.0066607655146925125
10,1.031992798052362,0.016175522619113595,1,0,0.9717905026104899,0.08368188453707268,0.2204283528364785,0.0008340768235855804,0.015590636503091542,-0.005301519755500472
11,1.026106227947869,0.016205411479778203,1,0,0.968717227595944,0.08371934994268211,0.22343403249316768,0.0006149305220077095,0.017209554077510146,-0.006552891124138662
12,1.0180056605355694,0.015998345483879014,1,0,0.9650293693351542,0.08597776097914588,0.2236545962511736,-0.0016605109878434852,0.009264454081191417,-0.007869274130844716
13,1.0093745248491197,0.015542771179173945,1,0,0.9628824355571962,0.08494986204711398,0.22672028549147052,-0.0026823603471446823,0.014921906130337614,-0.008797802861130048
14,1.0015046548215227,0.014852150277115037,1,0,0.9655506007853037,0.08497943957677094,0.2280426908185202,-0.0036744632593889337,0.017300419733478165,-0.009832941164352155
15,0.9952445158035296,0.013965290126267248,1,0,0.9675440382257368,0.08198701335411011,0.2279548091105294,-0.007681522347523345,0.00879736206404074,-0.007136311619526753
16,0.9910100487428986,0.012943274487211673,1,0,0.9668607953695886,0.08423282741156118,0.22964343114905522,-0.006097822354381808,0.003943031613495711,-0.009288824064758486
17,0.9888437937030704,0.011863266561542305,1,0,0.967054851832153,0.08159048869355796,0.2262354657917956,-0.0038501236008011237,-0.0008095044953981158,-0.012052662373766827
18,0.9885046659043468,0.010810084602004073,1,0,0.9763900115250045,0.07544421632473712,0.22238057973189365,-0.002719629260685719,0.0021951831785979284,-0.008087749052776075
19,0.9895705094491231,0.009866890710803478,1,0,0.9764754612099174,0.08111822566717916,0.2250238014883429,0.0028248884512470976,0.0070343757841092765,-0.004277318154132252
20,0.9915377420576988,0.00910641140234673,1,0,0.9677558058223227,0.08350835267814252,0.2265163985928079,0.005019108563440785,0.003337500400003038,-0.0026967374258857688
21,0.9939063670220223,0.008583874638301379,1,0,0.9663276016661058,0.0826790275554692,0.22758932921398514,0.00268925870509283,0.0074098713084514295,-0.006163209168379775
22,0.9962435143107158,0.008332415209851871,1,0,0.9680850539399168,0.08037286181595593,0.22707063150598397,-9.050960477170614e-05,0.005879724387599147,-0.006495800429818299
23,0.9982233339926413,0.008361211357860696,1,0,0.9694949874251275,0.08206060810801773,0.23038857397313867,0.003022924610392746,0.0031808025256906776,-0.004749859762074429
24,0.9996445415777069,0.008656236350510058,1,0,0.9695684348718798,0.0843431994351825,0.22817929934331038,0.003075747191674727,0.004590353480852783,-0.004065164944903011
25,1.0004289947277567,0.009183281468905817,1,0,0.9702386180614804,0.0802074448505524,0.22664475551349755,0.006464090379103551,0.0036404947944295193,-0.008512814660427664
26,1.000605752506499,0.009892713913988486,1,0,0.9680757942454722,0.07726843209960543,0.2255423286478363,0.008023016432467354,-0.0031285860827801157,-0.00693455922295618
27,1.0002855280937792,0.010725217976019483,1,0,0.9691756303608257,0.07824743802541895,0.22549243483428957,0.009696562899709415,0.0006975168529982683,-0.0030478579043609877
28,0.9996304170330671,0.011617661312108991,1,0,0.9670945557043268,0.08049473987180862,0.2245611091442771,0.015217394403794762,0.0023741195341305775,0.0013138297274754775
29,0.9988232670866657,0.012508366519593353,1,0,0.9663508106683233,0.08588514871638475,0.22759674396706442,0.00936596317101594,-0.007066664645504518,-0.0004984552475376127
30,0.9980401370778501,0.01334142328871337,1,0,0.9691774230120714,0.08361671898682246,0.22520211821937158,0.005167883828126027,-0.007661756611970898,-0.003862233544266703
31,0.9974281789012526,0.01407009183949993,1,0,0.9688979490631592,0.07906939683264605,0.22325887564487987,0.003155884600354982,-0.012841311711562454,-0.003282394353692296
32,0.9970902314056923,0.014659604451348084,1,0,0.9656520172644968,0.08244144502287308,0.22372311106662554,0.0044452798785485975,-0.012353710639713432,-0.004416149712657588
33,0.9970766304782891,0.015089588234719304,1,0,0.9663187690512607,0.07961779881478633,0.22169112717281317,0.004537907941516404,-0.011481608316425885,-0.007900067471715481
34,0.9973842031345871,0.015355946784861586,1,0,0.9690476215123237,0.07888433672146979,0.22188239823112368,0.0017411612864051953,-0.015602676225841754,-0.008244506400884853
35,0.9979619294839125,0.015471611850944806,1,0,0.970872379627435,0.07816408529293137,0.21851485975984497,0.0044049427440188225,-0.01566837218175484,-0.010150916491617444
36,0.9987221940704972,0.015465396617235895,1,0,0.9698613395132397,0.07886689501970937,0.21916252177416526,0.006318454552339542,-0.01497096200969106,-0.00756510211509196
37,0.9995559905945881,0.015378428432658315,1,0,0.97206369412374,0.07870476954878991,0.21932257568634558,0.008734349709379814,-0.007970679668440962,-0.008376043246871868
38,1.0003500343147624,0.015258302377957784,1,0,0.9752733797946481,0.07868904200110428,0.21911896940377917,0.009037468993892078,-0.0026071482356575647,-0.006628989112451159
39,1.0010035125444396,0.015151896261093133,1,0,0.9763164772587266,0.07722412410800158,0.21597530962556616,0.011637264996700607,-0.0025730426844191253,-0.007900564814827222
40,1.0014421751754776,0.015098279258003573,1,0,0.9763014723217615,0.07651776435771161,0.21838203080300223,0.012778403745458244,-0.004063137697790001,-0.006395519411704985
41,1.001627711903618,0.015123079597554701,1,0,0.9793457995669131,0.08038413763671139,0.22198866731375602,0.014059450377914008,0.00030648164068663254,-0.004824075456455366
42,1.001560962829241,0.015235202915907211,1,0,0.9774203066874478,0.08134468818733362,0.22610305826643187,0.008930300035133558,0.0036070534299047683,-0.008750206335883904
43,1.001278490382728,0.015426249005610822,1,0,0.969125099282264,0.07795615198490417,0.2273715944308939,0.005672557073897298,0.009564483753272573,-0.010049326356545296
44,1.0008433357853204,0.01567253041863714,1,0,0.9664600540927872,0.07725387696848755,0.22671908860572415,0.004771074926422664,0.01196489244528538,-0.010734964948460192
45,1.0003320820363457,0.015939221617004423,1,0,0.97072378832366,0.07919307909575289,0.22540412426169384,0.008237206169627741,0.010962813720719103,-0.00906434036018653
46,0.9998211053427593,0.016185857927203826,1,0,0.9691005158481375,0.07598962229764397,0.221617091339321,0.011460251280307168,0.01018962475129361,-0.00700787691249403
47,0.9993747712609085,0.016372255373020863,1,0,0.9668488401881591,0.0771129867901973,0.221072599879037,0.014208796134339794,0.006684085061087112,-0.004217611164535975
48,0.9990374898557085,0.01646398199572117,1,0,0.9710877123416423,0.08041868769202837,0.221385747470738,0.01606526681733534,0.005228093695781845,-0.0003886864652057228
49,0.9988304081976744,0.016436693341825043,1,0,0.9723220167245529,0.07799420467399747,0.2210857046690541,0.015792340696202604,0.002634625178677513,-0.0028011672235225818
50,0.9987524099739961,0.016278835160416782,1,0,0.9718518565275908,0.07905748866843325,0.22162500390542655,0.019780918503635666,-0.001340239169729901,-0.004740596399269871
51,0.998784253799382,0.01599239691369648,1,0,0.9727751869085589,0.08329253275228521,0.2220150473637733,0.01341627355992732,-0.0014852735158738678,-0.005924400219504621
52,0.9988943306266262,0.015591647514292876,1,0,0.9724091988549717,0.08048139189601648,0.22178096136701442,0.013207445880693822,0.0025997145363038637,-0.004225487452736885
53,0.9990447010642601,0.015100135518425858,1,0,0.9695470320222795,0.08094480670517634,0.2204147638541263,0.014101682326317755,0.00951465416464312,-0.005345001994831787
54,0.9991965987545796,0.014546584350975587,1,0,0.9696492021576512,0.0833146050192504,0.22440166051152993,0.0106900461730681,0.006945064019028142,-0.005302543652224829
55,0.999315154355595,0.013960533485170987,1,0,0.9685288525218444,0.08123562007110398,0.2224593685457617,0.006328503121903406,0.0040841771016338815,-0.008708201059921277
56,0.9993734267243414,0.013368666858886375,1,0,0.9691280878518288,0.08133770543843839,0.2229064713402454,0.003690452704073645,0.004628725282337571,-0.010651851467707397
57,0.9993557855499573,0.012792740538940082,1,0,0.9725539678965229,0.08345935017892114,0.22549943698562477,0.004164177790233531,0.00406860288834598,-0.007811766894787441
58,0.9992603554622405,0.012249770898123647,1,0,0.9754252442705462,0.08500677162980529,0.22179536504614383,0.0003106210548498893,0.0038503141110238473,-0.009285127441427845
59,0.9990998962125064,0.011754586716087884,1,0,0.9703246773485839,0.08392242983169176,0.22119348945111958,-0.006097716416094416,0.002473333188250581,-0.010192757214020999
60,0.9989005014476235,0.011324067333974055,1,0,0.9701394419916421,0.07611105473971982,0.22310427181541154,-0.00915379428542414,0.0031688219339982802,-0.011585792605637173
61,0.9986979578410453,0.010981637507885398,1,0,0.9701305515367702,0.0753178175144701,0.22313922897059266,6.697040475487446e-05,0.011382900949610657,-0.011045305774018795
62,0.9985322456472595,0.010760218538016711,1,0,0.9696247507352516,0.08134645768351512,0.2257142857753016,0.003737862603939305,0.006086966706894319,-0.00827868355452012
63,0.9984411038715475,0.010702111194115472,1,0,0.9673585189681309,0.08623384029974242,0.22762057537490427,-0.003314668457896833,0.0012986426955154825,-0.011661508349064006
64,0.998453706488181,0.01085514386203476,1,0,0.9683407470919038,0.0792600210355408,0.22205539659546505,-0.003333686734896289,0.005075054184608467,-0.009725330345247158
65,0.9985854124130217,0.011265467391767491,1,0,0.9722621958594103,0.07686008836774331,0.22008428265300634,0.0004357342110663539,0.004885330396347489,-0.00813827178496168
66,0.9988343668419996,0.011968215413595357,1,0,0.9700727188362802,0.07787236258772055,0.22078208833676446,0.00493364566488204,0.005986141765144494,-0.007761200447451188
67,0.9991804872707162,0.01297770181187847,1,0,0.9692093587337908,0.07719742534266348,0.2182310293981776,0.006337085178235465,0.001381474734457717,-0.011413011662974143
68,0.99958710068899,0.01427891140818891,1,0,0.9716627685048406,0.07858864998857373,0.22022034386068529,0.005703540319982218,0.004840230862469646,-0.011758416748472713
69,1.000005203899179,0.015821870442987534,1,0,0.9722907892585706,0.08054232541769843,0.21893651952269177,0.011178967178664108,0.005448521867665021,-0.00787826169348704
70,1.0003799475766564,0.0175202144289663,1,0,0.9715402249378567,0.08203458461528115,0.2197810074191036,0.008316113265993484,0.0057172493456984904,-0.008741296190434365
71,1.0006585196324271,0.019254959374192946,1,0,0.973853607862814,0.08087286050178144,0.21788274055336654,0.006758035272442099,0.007541910724839115,-0.00843420151897093
72,1.0007982415012486,0.02088398413561498,1,0,0.977334731584519,0.07747474021783966,0.22031874323866266,0.008885561687748449,0.017256486194127053,-0.007122274565230485
73,1.0007735091394825,0.02225684301595218,1,0,0.9747337775185408,0.07645213319036989,0.21787395188975242,0.01333016893358137,0.016994946356402554,-0.006230389250919369
74,1.0005803033691725,0.02323329404742305,1,0,0.9724926718260726,0.08242040881482188,0.22245401484307212,0.014829820181297217,0.02167357353965155,-0.005528440252577004
75,1.0002374091900639,0.023702762076300177,1,0,0.9720854633971628,0.08306727717137982,0.225343875195425,0.01365106703471229,0.021693550696773315,-0.009543353461496618
76,0.9997841167542656,0.023601367035103273,1,0,0.970857562343274,0.08077515769564632,0.22815929478330496,0.012110036242190082,0.02192246709373106,-0.007070884798615262
77,0.9992748086464928,0.022923369767240024,1,0,0.9693721660605907,0.08217314676576878,0.22710067325396216,0.01148530698019218,0.02336131209941872,-0.006591811937807986
78,0.9987713270209677,0.021724787837735477,1,0,0.9685730107573061,0.08293638211573195,0.22596299363127997,0.009170703885339792,0.021690653255365733,-0.009418337003374782
79,0.9983343414811754,0.02011822016122566,1,0,0.966919696464514,0.08442496068757055,0.22236029006773753,0.007561052613280122,0.019966063974042325,-0.009303376415654995
80,0.998015082896704,0.018259364161216925,1,0,0.9678426262294632,0.08531429811944323,0.22706601353630732,0.006287138150392956,0.015445170354324847,-0.008266206919022592
81,0.9978487090309235,0.01632716441109715,1,0,0.9674268959194949,0.08627441527046181,0.22602199892966027,0.00015659675689378384,0.007848094694403883,-0.004253032067829039
82,0.9978502264675326,0.014500759351630185,1,0,0.9667817599366207,0.08606121048837702,0.22184972172805353,-0.0017917560631366114,0.006085785580665558,-0.0089727374602515
83,0.998013415449027,0.012936994025122767,1,0,0.9683323141758955,0.08290985499822466,0.22281546534516075,-0.0017204937464913533,0.004311037641207289,-0.01175670693687984
84,0.9983126988004232,0.0117519533049107,1,0,0.9696209497840675,0.08339646292433534,0.22384625995083704,-0.0020225968763659553,0.002770484217748193,-0.009474805125879109
85,0.9987074049536023,0.011008924495427922,1,0,0.9727099485041231,0.0821352099087763,0.2274066920035559,0.00040612963764269464,0.005519300985295084,-0.007699255868896594
86,0.9991474694563676,0.010713970398992008,1,0,0.9712348642620852,0.08287158094665595,0.2267921837832466,0.0003812461731498837,0.0031549050135896706,-0.006901597184382038
87,0.9995794766212456,0.010819271693712088,1,0,0.9677514058323282,0.08551397344849553,0.228906517949397,0.0033779671966301388,0.005461398185682858,-0.004756336629447966
88,0.9999521852858754,0.011233544672887062,1,0,0.9685413607077978,0.08728864848383755,0.23224680971825737,-0.0011593554284103757,0.008889340441352887,-0.006979426886066305
89,1.0002211645579067,0.011837970524577726,1,0,0.968464053770264,0.08603214027683433,0.23216996929576897,-0.0019016695607550046,0.006591615851148533,-0.010965465141199034
90,1.0003525599793475,0.012505198480647925,1,0,0.9685192223096752,0.08294559486889046,0.23196922742573725,-0.003381867342883158,0.004709604625211779,-0.015554634850121431
91,1.000326113183167,0.013118363840433711,1,0,0.9678912532008395,0.0845846802169454,0.23010961930743595,-0.0021434964096483495,0.010662668648973894,-0.013159024519640137
92,1.0001373992559586,0.013586997597955425,1,0,0.971154254238772,0.08696988353126142,0.23085134125627627,-0.004525414695211171,0.015903866220847634,-0.010884388737118913
93,0.9997989629932795,0.013857347902725458,1,0,0.9740023039793902,0.08819882554773732,0.23388163613807966,-0.005199917017493356,0.01021396120114418,-0.005861816758986467
94,0.999339819467295,0.013915876493704892,1,0,0.969434176522826,0.08123517376733068,0.23194923980280585,-0.0055223621461866716,0.003627098534566372,-0.006778849805982285
95,0.9988028922187803,0.013786134289534785,1,0,0.9638531657946111,0.07387637662287874,0.23423135005846263,0.004114201951580672,0.014104963709022792,-0.006549897989063981
96,0.9982404921070479,0.01352031577143144,1,0,0.9651316572586134,0.08216602723539777,0.23463282592272205,0.008621852851672362,0.01756966564998694,-0.003909296639128464
97,0.9977085725828465,0.013187296290804593,1,0,0.9654568273826865,0.0954465295481201,0.23454104303226567,0.0020369384930629497,0.010441849150403974,-0.0018339850048404438
98,0.9972607433495251,0.012859177199606359,1,0,0.9678018384945596,0.0876097991556806,0.2337628272086015,-0.005028885865107364,0.0012161102005611834,-0.0027026297736138837
99,0.9969427877186964,0.012598659237316179,1,0,0.9654517718423119,0.07875165299165762,0.23266729840912603,0.0009843226867528388,-0.0014316375984378988,-0.0056113545987503165
100,0.9967880816311047,0.012449683826557466,1,0,0.9638093934656095,0.08205749045708594,0.23433163913554578,0.008924612173387744,-0.003946911535240851,-0.006270223004760308
101,0.9968141828945717,0.012433137979537004,1,0,0.9655885001885491,0.08889245795790451,0.23331649265844578,0.006195512782321998,-0.010076688966025527,-0.004360116914469118
102,0.9970208948422129,0.012547965951319046,1,0,0.9641862016632371,0.08920433030555094,0.23306880507710118,0.001691952713584781,-0.01297440182846749,-0.0060757615574611274
103,0.9973900871213593,0.012776448009871783,1,0,0.9659429675359603,0.0847872606114169,0.228387269953834,-0.00432026367760483,-0.012451218316526444,-0.007127647293660019
104,0.9978873951476954,0.013091420770696518,1,0,0.9685010806180152,0.0861364753664259,0.22802064344961287,-0.004645149683560131,-0.012840303539835646,-0.008838966495123503
105,0.9984656817079569,0.013463064493563385,1,0,0.9684263630869065,0.08415227798832514,0.23079341469650383,-0.006078330187129882,-0.015983900261878955,-0.006814654673211259
106,0.9990699154877478,0.01386342586868421,1,0,0.9684521410570427,0.07974925785135795,0.22963220667971593,-0.0028446882597679794,-0.011951807825936162,-0.00860627475275638
107,0.9996429716511652,0.01426785611283664,1,0,0.9666659277264918,0.08000549794878836,0.2303015859975178,0.0010794384359237407,-0.010792169807321245,-0.00987808807988336
108,1.0001317947415818,0.014653784161460617,1,0,0.9721442665768308,0.0842205157940649,0.23036588221150386,-0.0024122553024481853,-0.006879623825142794,-0.008080218423438534
109,1.0004932978769885,0.014998364079101947,1,0,0.9723233397025577,0.08382252928461019,0.22934983916403498,-0.00033475389713067284,-0.003335535583402346,-0.006881426365356131
110,1.0006992690269474,0.015277090800316664,1,0,0.9708706538530988,0.07756522110433568,0.22917841166818134,0.004549741059291684,-0.0017353576685849338,-0.007159097630434647
111,1.0007395491909878,0.015465106992234584,1,0,0.9723262329425755,0.07286150889462159,0.2293194052331052,0.013536597011295875,0.0017087387349682603,-0.007477112656305574
112,1.0006229709433876,0.01554159851065476,1,0,0.9698995665222375,0.07599778233756053,0.22980555373823489,0.019713783682635055,0.009334305701334492,-0.005202239102611202
113,1.0003759186202803,0.015495914859723943,1,0,0.9710266306317736,0.08378601554585258,0.23276649688754292,0.01970494022041703,0.01359897399447177,-0.002705641542548049
114,1.0000387043061005,0.015332810795435131,1,0,0.9708074158746753,0.0874348464518517,0.23020195201761745,0.013079536204479273,0.010940159894870792,-0.0013463480026150885
115,0.9996601892845245,0.015074274975647513,1,0,0.9684651760226679,0.08352004438255721,0.23266534936996014,0.009491827278873969,0.009113263909175287,-0.004893942914591537
116,0.9992913080389395,0.014756749769436243,1,0,0.966011271538799,0.08229009106192303,0.23060536633165166,0.00876480124378281,0.009934228141264547,-0.008883718284236477
117,0.998978406731641,0.014424314216148093,1,0,0.9671294512873841,0.07880287632066461,0.2282988846625669,0.008150781452583813,0.006219530957988353,-0.008346370343510651
118,0.9987574443749664,0.014119721394165166,1,0,0.9693748388897463,0.0821738972533394,0.22746122746892874,0.005758048074974228,0.002576135288278637,-0.005352678717338027
119,0.9986499363102094,0.013875717686022072,1,0,0.969067503066634,0.08182959798566074,0.22671357113913668,0.008666597903611578,-0.005726940944871658,-0.0021829886049663863
120,0.9986610730693708,0.013708881258873536,1,0,0.9712879526545223,0.08104491035176897,0.22427796100837763,0.008914508288358748,-0.005589950389406519,-0.004796298134264458
121,0.9987799819775653,0.013617413702421739,1,0,0.9695288800558258,0.07915251729596863,0.22370941263746713,0.01306766359239369,-0.005412150612192419,-0.004843910223365723
122,0.998981851319325,0.013583125303214354,1,0,0.9693750677625271,0.08108194850430973,0.22355189435257422,0.014066391764133787,-0.004135971379882782,-0.0014356099207665728
123,0.9992316152934758,0.013576707753495423,1,0,0.9677226723516346,0.08316594306928783,0.22348036621563028,0.009482863806751621,-0.009337589990488558,-0.004702926522552201
124,0.9994889126999881,0.013564704045215927,1,0,0.9696849449145755,0.08202379277767223,0.2247663876700501,0.008473176010731867,-0.012466612109354342,-0.00837841501696959
125,0.9997138817667658,0.01351648515314773,1,0,0.9723188941319416,0.08387938720520081,0.23033829070327572,0.008888825514940319,-0.008494326322508867,-0.005912487379066073
126,0.9998730171293909,0.013409889144190014,1,0,0.9722419317151859,0.08226562888439584,0.22973973919000318,0.010851238527516498,-0.007673344241606297,-0.002117000837483742
127,0.9999440218221284,0.013234753818654826,1,0,0.9716317382905142,0.08173033596585488,0.23067720819732998,0.007841542955270958,-0.009562001682442867,-0.0015042171198054073
128,0.9999186484112167,0.012994156645255585,1,0,0.9704906109435885,0.08200687002219319,0.22698802528808523,0.00883449955133616,-0.008809412806205941,-0.007586802765216957
129,0.9998030303033772,0.012703583524023742,1,0,0.9674906658161724,0.0793746551782574,0.22765682550179578,0.003996383699106174,-0.0061671368663546566,-0.008083028710147402
130,0.99961570702936,0.012388432624486896,1,0,0.9700813217071645,0.07748446665590958,0.2288261820448466,0.010395884694089131,0.0008716199217622925,-0.00495647029425895
131,0.999384057957178,0.012080293978185537,1,0,0.9685662089354745,0.0833169004170656,0.2276169846092088,0.016207645606764597,0.00040925890818954247,0.002708983019701117
132,0.9991399653757961,0.011812418539495667,1,0,0.9694180207630667,0.08571287073221266,0.2298935645682917,0.008627804525872668,-0.0011475598231613544,0.004199755598672586
133,0.998915328412881,0.011614790702713606,1,0,0.9726901745835702,0.08031390708868087,0.23008281159724833,0.006271350674413166,-0.0061918836952791,0.004030225305281477
134,0.9987378305072709,0.01150931062665539,1,0,0.9664221851494015,0.07863021190622418,0.22848446472929726,0.0069776117886825185,-0.013514568524796527,0.0003982520712597331
135,0.9986273528354174,0.011505721910756609,1,0,0.9623150834722886,0.0807715187031339,0.23032965170888087,0.002358992342268191,-0.007697215501000665,-0.004858013749757938
136,0.9985935716920462,0.01159897592282978,1,0,0.967645731929152,0.08479768310946448,0.230254258056856,0.0008938028140796255,-0.0028876296172277724,-0.005970899304070966
137,0.9986352445635465,0.011768666204721707,1,0,0.9723113551915,0.082720493053253,0.22754905030689312,0.001784842462015416,-0.009655445732494262,-0.004645722729237509
138,0.9987412415101553,0.011980930892531482,1,0,0.9713949087335103,0.08111663011340829,0.22673228630163744,0.004776277417400449,-0.013439874303901854,-0.002991655800742638
139,0.9988927743440423,0.012192724499832436,1,0,0.9710193798555132,0.08152691959735087,0.22840925655215571,0.007852894435021424,-0.01251232547897358,0.0006350239369620487
140,0.9990660452815541,0.012357777541656737,1,0,0.9656981252766832,0.08027512559281351,0.2280270271564577,0.004852927571530147,-0.011346284542243837,-0.0005826363315383318
141,0.9992348457978103,0.012433290810436705,1,0,0.9673876256824028,0.07802114862403035,0.22664985987957562,0.004821595308473666,-0.0048314060040204635,-0.005978209323093235
142,0.9993730999981404,0.012386582400762887,1,0,0.9709204949616181,0.08253684032411356,0.22793454048486456,0.006944356402587714,-0.007448550079900764,-0.005471929948369286
143,0.9994574846508485,0.012201184794203283,1,0,0.972057234815352,0.08601799578262179,0.22667877493714164,0.005728912826608932,-0.010341869738054763,-0.0034022224680987797
144,0.999470006626502,0.01188188427067609,1,0,0.9701939966770599,0.08234682055111027,0.23027399856789013,0.00038189051761149296,-0.013299846585255999,-0.004480310619069028
145,0.9994001429690117,0.011457902076139096,1,0,0.968236738953253,0.07976820459719147,0.22880069215006643,-0.0032999160490454886,-0.012642008963229836,-0.0035609450509195987
146,0.9992461828744457,0.010983176928884706,1,0,0.9690006618147846,0.07589431092081486,0.228804219186806,0.00013898843272353722,-0.013024134113844206,-0.005577455193694684
147,0.9990156931339668,0.010532843817044276,1,0,0.9692202105282167,0.0792074764857854,0.2289062666144794,0.004126842311968244,-0.012220622644211157,-0.004745957792580251
148,0.9987252540972262,0.010195598583195313,1,0,0.9684333604010869,0.08209040291864293,0.22805112415798792,0.0029134382407951637,-0.010356202758350043,-0.002126299582047857
149,0.9983996129921918,0.01006256841107565,1,0,0.9682724665505066,0.08129939807112924,0.22543444727960546,-0.0008708144781491688,-0.006606997593858626,0.0009110280270566999
150,0.9980702474662428,0.010214305973454628,1,0,0.9722109487428995,0.07947362517184191,0.22465546515741736,-0.00033756719243708904,-0.004006491170439545,0.0016335846660159668
151,0.9977731778079151,0.010708192715335131,1,0,0.9709726530109506,0.07733983917168857,0.22600924216094523,-0.0004622413462645225,-0.009839790955343208,-0.00034215438003557745
152,0.9975458470771331,0.011568509845849572,1,0,0.9676081271989989,0.0764123119386716,0.226586051560393,0.0028650032525518333,-0.01091309399555719,-0.005513923498435569
153,0.9974230977409945,0.012780704163506754,1,0,0.9641394404572662,0.0774420273306456,0.2281564320106338,0.00430244453899398,-0.010668653578293913,-0.006959437590228345
154,0.9974326429558258,0.014290389471046687,1,0,0.9693161960898784,0.07850733844545119,0.22896762192836895,0.005316093329444695,-0.01117588234783851,-0.006617770231292089
155,0.997590697305809,0.016006919779614454,1,0,0.9700030307663393,0.07604629254686571,0.22833930327064514,0.010915874345385095,-0.009336695929342323,-0.0038101857932078586
156,0.9978984216394508,0.017811106955607257,1,0,0.9697048234617712,0.07805976890841548,0.224071758708088,0.013943958513396743,-0.004807182743393237,-0.004706745620480156
157,0.9983397100723911,0.01956658362521566,1,0,0.9691925369907154,0.07913729485673,0.22241768661259073,0.010586269172008583,-0.008057978218062254,-0.008766858495720214
158,0.9988808636089308,0.02113409205926225,1,0,0.9644913118435054,0.0798146984065264,0.2184877287022131,0.011645019386255786,-0.01118256323443268,-0.011453936075308199
159,0.9994727944096597,0.0223874358958292,1,0,0.969816361856173,0.07711956653681128,0.2128041531149156,0.017087282562721202,-0.013558071677286992,-0.010032066786220355
160,1.000056204909761,0.023229040365296487,1,0,0.97603855321291,0.07288146411469325,0.2118208246115091,0.02509972169795155,-0.011688062175715695,-0.004763450020222153
161,1.0005694213362186,0.02360236655125388,1,0,0.978851958728238,0.07580833741436116,0.21150571402163135,0.031407209766704136,-0.008745100667901455,0.006397109761469577
162,1.000957481283128,0.023498324688729436,1,0,0.9797800143582225,0.08348151746067367,0.21892395159405803,0.0310194293041666,-0.01236897651436802,0.00635315677205987
163,1.0011803508883195,0.022953778770198018,1,0,0.9733660164297819,0.08948226212324245,0.22117443925249425,0.01427344550748051,-0.014480389628611983,-0.00028333158036294184
164,1.0012183153483807,0.022042277285485506,1,0,0.9711630499967264,0.08687574105862039,0.22238169542428424,0.0023283248446579934,-0.00883743014017087,-0.008799922144169086
165,1.0010735715165444,0.020859609357526347,1,0,0.971687551713814,0.08632204069079517,0.2218576283698408,-0.00486256606979853,-0.0013109993047389088,-0.00834073528532213
166,1.0007682465553351,0.01950840570156289,1,0,0.9710630850249953,0.08818747131498439,0.22297780305338236,-0.014667174573917424,-0.0052293754560095405,-0.012085038764558138
167,1.0003398691834233,0.01808580045512629,1,0,0.9735531461708312,0.07584665353984463,0.22123279718022676,-0.014450384329403402,-0.008505776913465346,-0.01314764315828616
168,0.9998355692056474,0.016676378025223235,1,0,0.9714016765573672,0.06381229754813972,0.21962651728630464,-0.0036057304165936555,-0.005232390995082617,-0.0098043698996711
169,0.9993061919808232,0.015350488136971848,1,0,0.9667613015737332,0.06938726686900126,0.22071084571563288,0.011240641489417847,0.0037349788103678886,-0.008462377951827308
170,0.9988012760724697,0.014166539535572623,1,0,0.9699269287778142,0.07766662441192813,0.220704955023788,0.017116951385714146,0.007758014726532714,-0.008767128854100996
171,0.9983654094891788,0.013175188188744516,1,0,0.9762316347903915,0.08074153179911892,0.22214701560574154,0.016675258180646444,0.0025342153784035123,-0.006644487586874956
172,0.9980358259874496,0.0124231922842955,1,0,0.9734856287871868,0.07828843776400622,0.22105626118992402,0.01129970569403998,0.0008400599300798186,-0.006475883475738013
173,0.9978405531663053,0.011955152374001852,1,0,0.9704604609921094,0.08239170513287065,0.21991432943705666,0.00635930769392691,-0.0011070893828757857,-0.0063666729182955155
174,0.9977964634729138,0.011812357599569511,1,0,0.9674674401135279,0.08200181315358238,0.22204324430107128,8.471305185775706e-05,-0.0024132627032764737,-0.00972445008460928
175,0.9979072596657991,0.012029010366409928,1,0,0.9647698958044474,0.07819590959109919,0.22083586411012124,-0.003940748692825633,-0.007861591831714058,-0.013328613151783006
176,0.9981621968084284,0.01262665668476216,1,0,0.9683681740574023,0.07310400220768513,0.2199427377193677,-0.0025943869526553623,-0.007550266153350262,-0.0133321373411791
177,0.9985365577440839,0.013607748174363839,1,0,0.9714044291364793,0.07599797580638458,0.2192890309131284,-0.0031143311244777303,-0.0102871051936091,-0.007857579435741576
178,0.998994371780268,0.014949386970463358,1,0,0.9743690919482488,0.0758038917251139,0.21717153023012983,0.005926303239023133,-0.006042923657522357,-0.005386151411026951
179,0.99949295512211,0.01659868212182635,1,0,0.9739995903365148,0.07800281256955956,0.217564642575391,0.00944867471788434,-0.004179556548437283,-0.005637925199746899
180,0.9999881294089034,0.0184714210737675,1,0,0.9751479155583201,0.07676424228176167,0.21846289292516616,0.013602468119059198,-0.002889265738262448,-0.008336136629551646
181,1.000438811185963,0.02045542133676752,1,0,0.9762664714788789,0.07800291338274432,0.21879158630837398,0.018944315519227827,0.00305429159146481,-0.006898265065081046
182,1.0008100633241082,0.02241890177937045,1,0,0.9742484296641989,0.07779938989119467,0.21590777429335256,0.017567431402348965,0.010470041728797874,-0.00473412791701676
183,1.0010744358200376,0.024222931009070227,1,0,0.9689767727020872,0.07858880302523466,0.21580983259487907,0.020395861993297685,0.017590660066968977,-0.0033511432854244363
184,1.001212190784037,0.02573599037843837,1,0,0.9728240751970522,0.07995492294529671,0.21515992843831327,0.02126649307406108,0.020635843783056645,-0.0039132288608430075
185,1.0012114373654426,0.026848217513417913,1,0,0.9705972702922987,0.08130033914761654,0.21552863972104366,0.016517933596130865,0.02311061927051846,-0.0036896545390828444
186,1.0010690081465947,0.02748303924621675,1,0,0.974348152379479,0.0851320847860728,0.2195273134348985,0.013173408959647125,0.021112617742104968,-0.0038891142411073745
187,1.0007921482761875,0.027604552394926662,1,0,0.9806139071450902,0.08065824611336789,0.22102235449407712,0.017863958135786107,0.027139755191852005,-0.009285828442328344
188,1.0004002328725927,0.027219887386609392,1,0,0.9726372067740366,0.08080833306824249,0.2184563126453241,0.011878649285846674,0.024796255041863724,-0.011411472634172972
189,0.999925361050329,0.026376648193540644,1,0,0.9694602002469027,0.08427884741275032,0.2161766670100261,-0.0030012818886290186,0.018545430297211465,-0.01183908123256713
190,0.9994110185971644,0.025156329209345473,1,0,0.9727175864762964,0.07875534562986217,0.21622507641993716,-0.003626669290936779,0.01450070553385777,-0.01718979365987004
191,0.9989086865123481,0.02366530368724513,1,0,0.9734785311106273,0.07926686389872144,0.21734306936649755,-0.002315264398674538,0.011966037425089709,-0.017650347792471304
192,0.9984727362624558,0.02202525613717789,1,0,0.9741965006510824,0.0763732357437643,0.21930982164585683,0.001262205797038519,0.012184042795444057,-0.014637818113888888
193,0.9981540783108469,0.02036455990532738,1,0,0.9714351402132904,0.07462706702225987,0.2222057134572695,0.006033933903598824,0.012841509857522047,-0.013890773248317015
194,0.9979931692770359,0.018811240512611942,1,0,0.9683149150565308,0.07359866930545277,0.22022625763893847,0.01017775877507556,0.013511697360376594,-0.010231259546967632
195,0.9980133777648608,0.017487214449576308,1,0,0.9650194979432122,0.07967522100508588,0.22285456438933235,0.015288685779725737,0.01715235819698793,-0.00913597902391222
196,0.9982161440286574,0.01650284692495155,1,0,0.9655351575730122,0.08605899667461119,0.21914660351037032,0.013429426736763712,0.011155869220796534,-0.00707580442820282
197,0.9985793925161797,0.015950851901791883,1,0,0.971280419947455,0.08647290538022787,0.21916007889430406,0.009368961233085508,0.008874173839974566,-0.0071781544872460065
198,0.9990600327347203,0.015899248339494448,1,0,0.9710555297572006,0.07924624750916631,0.2176686097196751,0.005491759794377811,0.0007671804761528961,-0.010846728433360014
199,0.9996003308917504,0.016384116443608137,1,0,0.9745200365176547,0.07729665775744961,0.21439135207977972,0.010372791426734909,0.004892058717841956,-0.010241755271206944
200,1.0001369424737034,0.017403618806441812,1,0,0.9733662891632698,0.08020339791395134,0.2181148650140846,0.012572632274882985,0.0064664039110420716,-0.011769176730538707
201,1.0006108190411014,0.018914797488081243,1,0,0.9717530167606542,0.08535725901785046,0.22110669853786866,0.01007507554887907,-0.0026798008063864784,-0.01209104637948692
202,1.000976065189771,0.020834206743660124,1,0,0.9781016281509997,0.08479283599422718,0.21948750468131714,0.010765126206940206,0.0030984295517834976,-0.014066539290197968
203,1.0012059917171594,0.02304284889466152,1,0,0.97986984858195,0.07845727171384245,0.22403730103673522,0.014979494778901196,0.010384499213828077,-0.010719434990772523
204,1.0012950796322575,0.025395254227867117,1,0,0.9733789651658454,0.07579521404807357,0.22577668518384617,0.019616041286478557,0.01699108262507489,-0.0053952806759576845
205,1.0012564710326664,0.027731826199497545,1,0,0.9662340332243793,0.0801134511744826,0.2256665199466139,0.024223535075952773,0.018783268023302664,-0.0067370144123219495
206,1.001115870441339,0.029892886262152328,1,0,0.9692171018016595,0.0830925722621844,0.2274962848490037,0.021623549732373577,0.022032422332245165,-0.011335403378077692
207,1.0009038433003874,0.031732534853827585,1,0,0.9670442184543806,0.08446300711936666,0.22603250014607656,0.0166810897588431,0.023134939884904147,-0.01011428749641253
208,1.0006487971195992,0.03313069993161972,1,0,0.9722601080562826,0.08295806519548565,0.2239302589517887,0.01725621566638696,0.02652974211623286,-0.008658601639697311
209,1.000372308095401,0.034002377599294115,1,0,0.9724431021401657,0.08149078677051935,0.22369935938292376,0.016640198992213896,0.02518287680775153,-0.011190310679129987
210,1.000087396276942,0.03430363170672326,1,0,0.969950288918866,0.07989907220039752,0.22332752145602136,0.019207610555779204,0.025975862655377387,-0.009346847725888605
211,0.9997994360046767,0.03403410254501831,1,0,0.9712275150758856,0.08085268318851185,0.2233603896019934,0.02156912899130462,0.03071013307139153,-0.00891716133749702
212,0.999508860906305,0.033235651714149196,1,0,0.9732363721658719,0.08137087737270828,0.22371337390968063,0.024032166644497047,0.02854154442866042,-0.004412661730655921
213,0.9992146107668554,0.031986716568339714,1,0,0.9719070548759358,0.08804562231381069,0.22374756053364162,0.021735241890613714,0.027573868278950798,-0.005281833360232432
214,0.9989172693947788,0.030392362738711275,1,0,0.9696383526399793,0.08971211804743122,0.22491600910149073,0.01685265103834134,0.024064992051300565,-0.003644447194077541
215,0.9986210775746693,0.02857099892186797,1,0,0.9684881857838196,0.08921922433919845,0.2268199163601878,0.009036573115087343,0.02191618523176914,-0.0067668260480015265
216,0.9983344641215497,0.02663987825817153,1,0,0.9681166375717529,0.08694234358212806,0.2274154566010075,0.006060642772118254,0.016769817690540288,-0.010249282920682142
217,0.9980692497722236,0.02470221649984947,1,0,0.9658704167863521,0.08689951461921293,0.2260494717964894,2.4715353851120717e-05,0.018058409836787255,-0.010020149435773583
218,0.9978390241586484,0.022838538070589345,1,0,0.9673312087687715,0.0886053692791049,0.2306050325392092,-0.004144049158721723,0.016770157360981353,-0.011587767174878737
219,0.9976572726910045,0.02110372092534773,1,0,0.9664785279965415,0.08787648511243566,0.23129022604225355,-0.008685906411227507,0.014424296950519154,-0.013006033264776794
220,0.9975356846183222,0.019529610051316187,1,0,0.9659731890177269,0.08644341322817453,0.23264660658592184,-0.01369560948414987,0.011122442819393761,-0.014770157707342597
221,0.997482849229085,0.018131639410851372,1,0,0.9681920402444026,0.0824637222511996,0.2294851109656498,-0.009846166128935298,0.011447732258095457,-0.013262781734595127
222,0.9975033890656995,0.016917115121444965,1,0,0.9674618627816667,0.08449566522348344,0.22889184270701074,-0.007316992137075172,0.011567395683949579,-0.009887690527887584
223,0.9975975450650154,0.01589278529781325,1,0,0.964297012067324,0.08660303282468892,0.23292015512696695,-0.007496122523853451,0.009752131231448994,-0.013921679806422933
224,0.9977612742797658,0.01506983288083073,1,0,0.9640104826744744,0.08571357243477472,0.23284960321356016,-0.007762072671783542,0.009864316667376258,-0.012996378335987536
225,0.9979869264016792,0.014465160884146637,1,0,0.9679697301545915,0.08589447489826929,0.23039162100033894,-0.008073496495200836,0.007102603178460845,-0.014752010660582428
226,0.9982644057029642,0.014098662276055848,1,0,0.9716602765486984,0.08321338364381506,0.2284025145394521,-0.004293434857261062,-0.0003497927677426201,-0.01344356232629159
227,0.9985824302763964,0.013987112854557242,1,0,0.9696579990321998,0.08321324056973128,0.23300681214255162,-0.0007027537245699869,-0.0031701383304003155,-0.009698134324521662
228,0.9989293271559054,0.014136302343542642,1,0,0.9670527892802822,0.08418016991476948,0.23243457753544494,-0.001784104353801873,-0.0020333605503042823,-0.009678285188312846
229,0.9992929980350302,0.014533666302492778,1,0,0.9661538232756787,0.08602204843463634,0.23212620739178827,0.0005682482468658463,0.004115817068094573,-0.00974655411088479
230,0.9996601786338114,0.015143615378549911,1,0,0.9686335191953388,0.08998768326732325,0.23258551727310028,-0.0021562849343728105,0.009454862938353473,-0.011516053578681636
231,1.0000155416043697,0.015906940292817123,1,0,0.9683208292751629,0.08845770932563957,0.23145845219156758,-0.007687966384171986,0.009039675505436698,-0.014281149475110007
232,1.0003413043354097,0.016744507023343663,1,0,0.9666202075370693,0.08247801761646839,0.23242495017549877,-0.004122222009726643,0.00659788292788342,-0.015697811997609324
233,1.0006178336779397,0.017564523131869625,1,0,0.96932778338356,0.0809765375395782,0.2303373438924948,0.002885018470509688,0.0075891854143501445,-0.01299906571098708
234,1.0008254204887288,0.01827226999417735,1,0,0.9704799505119057,0.0853178143571101,0.2331549927975074,0.00363237352482162,0.010714847265222753,-0.011926239635603905
235,1.0009469874174046,0.01878119489331018,1,0,0.9730632318941306,0.08684468575240407,0.2316301486099487,0.002787866036445868,0.01288916512342482,-0.011719263304931143
236,1.0009710921356083,0.01902421478278546,1,0,0.9698880108573559,0.08035102509761331,0.2294737325429026,0.006221112800685033,0.005549713217144011,-0.01311865041438888
237,1.0008944003213474,0.018963738201372125,1,0,0.9723379396235644,0.07625981381785235,0.22967186160040698,0.019342250527327718,0.014022616943375763,-0.014267977840821256
238,1.0007229396050172,0.018598407520518303,1,0,0.9704383299345171,0.08654411828544328,0.23318853402495607,0.025817350499242026,0.018499197169500756,-0.004728260414772078
239,1.0004717874504965,0.01796442995804091,1,0,0.9671870962176882,0.0962134565187537,0.23943240363294863,0.012219222946771954,0.010478978678817322,-0.0038647820265859238
240,1.000163209646953,0.017130213048472048,1,0,0.9675025604283416,0.09281220674301692,0.2333421168215411,0.000707781682063895,0.009848037253161622,-0.008167467495751141
241,0.9998235826442405,0.01618487382175017,1,0,0.9694040357157367,0.08475807661574807,0.2286958222487665,-1.488643492758575e-06,0.007057492132548199,-0.011936147014060351
242,0.9994796875120227,0.015223143512940233,1,0,0.9681511483232469,0.08400448767618014,0.23297863204013192,0.005459489456799237,0.00272762124506658,-0.011833618803902296
243,0.9991551039090082,0.014330152380070859,1,0,0.9634939746325593,0.08895887270637134,0.2350061057383289,0.0033362044789008536,0.002903643897105303,-0.006774612872411314
244,0.998867404195268,0.013569279313802711,1,0,0.9665699396337184,0.09147682151529195,0.237941256954204,-0.004346673213010188,0.00508846012852014,-0.008796628743545254
245,0.9986266350561115,0.012975151564187555,1,0,0.9667628796615853,0.08833102556144745,0.23669718549725063,-0.006671914235707344,0.004170431577039844,-0.011884943961124363
246,0.9984352250429334,0.012552492908756603,1,0,0.9678249151787018,0.0854990842688693,0.2349888231049404,-0.0055603150447209645,0.002587411126848986,-0.011752036817506391
247,0.998289120659142,0.012280209775649606,1,0,0.9656191414789711,0.08462386992376701,0.23504794727243328,-0.0008733687999711827,0.0031581542039109895,-0.009317684598241203
248,0.9981797987895495,0.012119180084252017,1,0,0.9640456405147061,0.08678570386066778,0.23667990074594408,0.0022123896382538776,0.010612008945274937,-0.009707502452223897
249,0.9980968263803498,0.012021774278210887,1,0,0.9656222101608315,0.08275827149864286,0.23479638659245866,0.00327650319517841,0.013801683272554138,-0.007291694561383967
250,0.9980306501642118,0.011941081806483133,1,0,0.9676825698529263,0.08618970229434895,0.23723093420390828,0.003735853741602661,0.014386944354465069,-0.006897204854745305
251,0.9979751606096025,0.011838100081248217,1,0,0.9672278415608502,0.08804704967848975,0.2402900418064102,0.004263212200355018,0.009396685691873028,-0.004670444253710832
252,0.9979293935271651,0.01168584676075329,1,0,0.9655296331559257,0.0877532609095077,0.2419571834802181,0.005910876156883963,0.00561825994733812,-0.005150283625315755
253,0.9978977740036883,0.01147035145217725,1,0,0.9660922787686991,0.08753866868722597,0.24345619565411494,0.0010611273417887683,0.005581675771158482,-0.008226275892002399
254,0.9978887108529483,0.01118933187661937,1,0,0.9607254372398587,0.08618877860985234,0.2386433713494198,-0.0024553841636279035,0.011074665381274357,-0.004512137359399861
255,0.9979119658136711,0.010849695815749422,1,0,0.9623466905482243,0.08630911151909819,0.23956821800169717,-0.001836761833941214,0.008285140015592374,-0.004993558918533775
256,0.997975695596669,0.010464874281008325,1,0,0.9659368990483641,0.08676355052735064,0.23887975291067437,-0.0011433185772047002,-0.00271744699794201,-0.007581267823025013
257,0.9980840973940237,0.010052672116056368,1,0,0.96514034749953,0.08503074843263592,0.24064598757416686,0.003244807333681964,-0.0004906335673013749,-0.00933385184854398
258,0.998236197393442,0.00963398753577574,1,0,0.9647702359300453,0.08532724474210854,0.24097992338056648,0.004870055208124222,-0.00428624739930061,-0.006815000140961792
259,0.9984258292285803,0.009232386279962205,1,0,0.9638311971255882,0.08432933669223645,0.2426484135320636,0.007517240018758608,0.0012410072372396011,-0.004008405736183173
260,0.9986425403527383,0.008874124986343223,1,0,0.9660202991199939,0.08628537185003043,0.2404711448509306,0.009466010973246545,0.0022105757464775185,-0.004309479775310596
261,0.9988730494867574,0.008587912962792441,1,0,0.9689991199645288,0.08523388786171786,0.2391355943008151,0.012373167608176791,-0.001253126232507185,-0.0050098855200747
262,0.9991028543014403,0.00840362701863683,1,0,0.9657753574341805,0.08958613075830466,0.2380137528791152,0.009065628284598427,-0.0016453241121977844,-0.0035781917526986804
263,0.9993176639200202,0.008349478655643743,1,0,0.9651286389598207,0.09153639338046915,0.23902813647120244,0.001457063563915012,-0.00012992673962697356,-0.00549518157156593
264,0.999504547191181,0.008447776082259818,1,0,0.9638504073774202,0.08673723396837414,0.2364659111944083,-0.002281413849580103,-0.0028687464470797514,-0.005788598045226019
265,0.999652918983869,0.008710145968593612,1,0,0.9682614196788337,0.08857711465355779,0.23431125422165522,-0.0028072527136949912,0.0012162725723643857,-0.00811063532643814
266,0.9997554996115079,0.009133471052754324,1,0,0.9701940019435829,0.08684527493481341,0.23718856886636203,-0.0028896444785715507,0.0006456317624054633,-0.008287977398569643
267,0.9998091291142239,0.009697710038908963,1,0,0.9686390626820048,0.08465068262720434,0.23789770216942807,-0.002951713837681023,-0.0018183210183609082,-0.005937148674728193
268,0.9998150560478438,0.01036639004528524,1,0,0.9682705305434004,0.08240279975860884,0.23669950973224077,-0.0025743457648503935,0.006126809917024375,-0.006290491751811912
269,0.999778351753182,0.011090108978458087,1,0,0.9670980569003382,0.08174938665529216,0.236843819865335,0.00044376900722287784,0.007194296715049852,-0.007494561369856528
270,0.9997064441980392,0.011812874095281315,1,0,0.9684360993939373,0.08888201026372994,0.23750767659688643,-0.0034926598741881042,0.0036083389380558435,-0.006341008707790451
271,0.9996071793760494,0.012480493895101315,1,0,0.9672450118547722,0.09050923708202002,0.23193766647520486,-0.0097323776866555,0.005967797462758995,-0.009947921604417462
272,0.9994870918032194,0.013049590424521156,1,0,0.9633128719473223,0.0797264059696745,0.23196188252753577,-0.007475546287670499,0.007043982572393712,-0.015323369627376094
273,0.9993506240939726,0.013495299667672697,1,0,0.9666522021244629,0.07710474283543536,0.23461334183061655,-0.0006013365021512348,0.01300384165383686,-0.012083829863954643
274,0.9992007974257815,0.013815693464483398,1,0,0.9665386961437179,0.08818262271376637,0.2327890309732113,-0.00018935756733455824,0.016001988258030172,-0.0033017490291665937
275,0.9990412183271408,0.01403163274135083,1,0,0.9721698651238359,0.09343070463830706,0.23704202111491696,-0.01018186674384225,0.005858446232124969,-0.002158527123035299
276,0.9988784943214706,0.014182003402844569,1,0,0.9726434594344511,0.08969882069114722,0.2391656503475644,-0.011868419814978031,0.0012503927634486094,-0.006184118630896244
277,0.99872365008812,0.014315550290526058,1,0,0.9675543671042256,0.08279682989857122,0.2361825652422649,-0.008663396758418086,-0.0030620963506037173,-0.00952638119281199
278,0.9985914776428539,0.014481289757678269,1,0,0.9612132529344468,0.08398266369903097,0.23786037286350148,-0.006864544444144202,-0.00655695944763783,-0.008583226567309326
279,0.9984978346177519,0.014719607673305574,1,0,0.9601536238393026,0.08452521358654407,0.23712461549397093,-0.00818064693318668,-0.005903606607154316,-0.005302433891185566
280,0.9984559817791666,0.015055804506315582,1,0,0.9692241462820627,0.08349119417872224,0.23633372365430227,-0.005501657030121274,-0.0093975386377029,-0.001303397826426018
281,0.9984733453592277,0.015497199358814297,1,0,0.9675274954391143,0.08453773990662936,0.23475361006498138,0.0001683503458052066,-0.015732369343570543,-0.0030032940105641135
282,0.9985495432346333,0.01603401739152639,1,0,0.9703160430652193,0.08367230879676689,0.23389456328615804,0.00291874718308109,-0.01813978241899586,-0.006695705002581451
283,0.9986757903412837,0.016643321664969322,1,0,0.9655403937931911,0.08621593048527808,0.23348578508147974,0.001718280053831677,-0.017426654819007747,-0.00608745023666049
284,0.998835520296086,0.017294578394456233,1,0,0.9632319889422338,0.08428050290545241,0.23275263130134882,-0.0008531320977539097,-0.018482600739026373,-0.007422330871877438
285,0.9990062107791448,0.01795538636182172,1,0,0.9656359463965299,0.08081617268268582,0.23322700065428278,0.0011805469507809553,-0.012725357348424277,-0.004252616788180657
286,0.9991624902825588,0.018596385591594804,1,0,0.9697318201448425,0.08433440373971245,0.2351896937574123,0.0032642121612474133,-0.017095949960587598,-0.0034561723959884057
287,0.9992802753517283,0.019194930767131104,1,0,0.9723562932012015,0.0831823258533484,0.23395288757622157,0.003474133037569768,-0.019962424216837877,-0.0036713323593038118
288,0.9993411146037584,0.019737341462056385,1,0,0.9698549341257462,0.08174512769339785,0.2341076533338856,0.005980915425901701,-0.021853671560802347,-0.004899091941860485
289,0.9993356264409956,0.02021943065648434,1,0,0.9668467321601496,0.0834283330375803,0.2320607645288749,0.0065253804717876245,-0.0205474143829588,-0.006605399299510407
290,0.9992652141906235,0.020644969974746945,1,0,0.965167914322932,0.08432045303139458,0.23352231221187508,0.008722463265020504,-0.018642704136361436,-0.004297743408061576
291,0.999141870977833,0.021022112161620195,1,0,0.9708594869570655,0.08237440513116036,0.2348789644082116,0.00528388322649048,-0.018009810806985292,-0.002205354684167999
292,0.9989863499707607,0.021358464936281383,1,0,0.9686966340619773,0.08300086098381824,0.23364262713579342,0.011052216829207998,-0.015665708241215996,-0.001537281316683006
293,0.99882509688714,0.021656083043695266,1,0,0.9684034422759963,0.0808814355376456,0.232637978588841,0.014180233006740968,-0.013565739981948254,-0.001852561061251765
294,0.9986863628718227,0.021907767972368805,1,0,0.9650985717289547,0.07690340908991428,0.231916042934536,0.01869889426504837,-0.011248626069412092,-0.0029866922288319412
295,0.9985960566737744,0.022095704676596797,1,0,0.9667600094531346,0.0796110768116942,0.22884715387064875,0.02090971357136057,-0.007797496739776547,-0.0020927974206837886
296,0.9985740290491663,0.022192866448007914,1,0,0.9701249878022948,0.08502702878707351,0.23029190970029917,0.01876909224457985,-0.0033305724550424212,0.00019169906328229575
297,0.9986313677585971,0.02216705956715449,1,0,0.9697050429797766,0.08416440757214652,0.2324436885023638,0.020152575539413582,-0.007870200021981464,0.003064607036393552
298,0.9987689599396012,0.021987041903222822,1,0,0.9658587970605732,0.0801349099814076,0.22828871144451535,0.019049219646888032,-0.01024703504320573,0.0001944527729166747
299,0.9989773371273687,0.021629746497307544,1,0,0.9662134292556468,0.08145981308549373,0.23292309235884856,0.0189069047693016,-0.013597177568238125,-0.0022598196308502377
300,0.999237775828221,0.021087241858454606,1,0,0.9702790912038608,0.08156727263861321,0.23221516124523403,0.01872606280813242,-0.012448355184582168,-0.001350875922893298
301,0.999524591168948,0.020371805343684903,1,0,0.9700304518747561,0.08213847810116634,0.22633660633151603,0.022488654127263263,-0.0038850663502447767,0.0037335631321151817
302,0.9998083761657729,0.019517556207289066,1,0,0.9695203198329,0.08604956176786947,0.2298370839036133,0.025131019540460132,-0.005303492267876682,0.0023215067222832754
303,1.000059724818806,0.01857758842237902,1,0,0.9680817829792135,0.08890362519141182,0.22925753755638928,0.020071322308532345,-0.00850985625501,-0.0018199434928671875
304,1.0002528981584524,0.017616486261497245,1,0,0.9703961629535253,0.08658831285266963,0.23143990057345112,0.013153689145407835,-0.006897600016614568,-0.0020459182394620603
305,1.000368919872447,0.016699399279528276,1,0,0.9717484694167552,0.08389960203818504,0.22905080693194702,0.011516064657237734,-0.003948184864952576,-0.0001721884615493587
306,1.0003976318680143,0.015880108863793208,1,0,0.9712469518829472,0.08639839698264906,0.22914309553453774,0.009029779876605028,-0.002324818221767874,0.0018518224099460094
307,1.0003383370758374,0.015191124646780949,1,0,0.9704128175077562,0.08261979715928566,0.22752463750138338,0.01158987583274868,-0.005222863482015609,-0.002374597471944272
308,1.0001988974169524,0.014638406126540224,1,0,0.9704532767439605,0.07972279569638252,0.22985027336507802,0.009152708644657882,-0.00451864882572452,-0.005830529210557293
309,0.9999935133586523,0.01420197331048224,1,0,0.9702631594862828,0.0792113881995419,0.23236159478728313,0.01296570353980459,0.004258780412605615,-0.009099268553140702
310,0.9997397543466996,0.01384204248187285,1,0,0.9667355195355811,0.08378296236398135,0.22833172714502067,0.014887859570435596,0.0032502296199157293,-0.0028563599365560755
311,0.9994556201280849,0.013509008633613971,1,0,0.9661798573467247,0.08634241443799019,0.22678444226429406,0.009550001664482319,-0.002003902231008311,-0.0008478118760302518
312,0.9991574145623066,0.013154896944932628,1,0,0.9723681543182793,0.0786065336392522,0.22898409679507478,0.013805821528767647,-0.013999211149675677,-0.0035359213325787515
313,0.9988589500294617,0.012743777560649264,1,0,0.9672668034222048,0.07555506063791946,0.22921958701443593,0.014229109369453628,-0.016912391775552024,-0.002288116457652739
314,0.998572133634316,0.012258974317875107,1,0,0.9656636348568717,0.08305941673526665,0.23024448637649156,0.008569576685698103,-0.00641901451466381,-0.0019195988868600522
315,0.9983085096855192,0.011705777876332231,1,0,0.9714030534517315,0.08482237168750659,0.22894803475560294,0.0028064125057867266,0.005922617653010413,-0.004178472919910019
316,0.9980809855777502,0.011109754292508107,1,0,0.9728870855273993,0.0839984675273372,0.2250770287665911,-0.0012637280267128934,-0.001545871027605945,-0.006823152338467912
317,0.9979048039474432,0.010512029693308368,1,0,0.9700875046190456,0.081986374584124,0.2245750710423817,-0.004601529841786407,-0.004430948917936367,-0.005718609637136244
318,0.9977969742267119,0.009963369619740887,1,0,0.9687593814123006,0.08059624211793354,0.22596352818332724,-0.00697681812812613,0.000582938496175151,-0.007857000363246772
319,0.9977739455270589,0.009518332512135142,1,0,0.9667974743092969,0.0799788778151311,0.22738111180491966,-0.006767658952458711,0.005319838221488896,-0.008867814071830139
320,0.9978480865185676,0.00922985843699285,1,0,0.963834698470532,0.07543523131311071,0.2292136341167913,-0.00508253066612305,0.005423350434585025,-0.00935648167014752
321,0.99802410060206,0.009144059041352383,1,0,0.967822949152551,0.07611585216101784,0.22775715723652792,0.0021012829820929026,0.0025692190149699686,-0.007816087911603181
322,0.9982965359446985,0.009294999713012906,1,0,0.969521950990131,0.0818415779143321,0.22852654346912657,0.0015793651321473023,0.006214206244928478,-0.004320066595413573
323,0.998649081250419,0.009699721465524646,1,0,0.9697037061452889,0.0832453955241367,0.2282236132836435,-0.003369966248752942,0.0030699438302245236,-0.0072214014652009
324,0.9990556977942728,0.010354198947062949,1,0,0.9676126594595172,0.08164852826819737,0.22715739138476393,-0.005814629676383733,0.0017725357847992575,-0.008347945279566423
325,0.9994831914536748,0.011231052741870674,1,0,0.9714544590274692,0.08005212361291754,0.22450328095185215,-0.008024777168441863,0.0019984937280849257,-0.009014767429738824
326,0.9998946838963995,0.012279651108004495,1,0,0.9729664468105129,0.07864337087552911,0.22433207186229573,-0.0029512042430369103,0.004677300403774928,-0.0108347652819214
327,1.0002534635258529,0.013428990111883072,1,0,0.9714676632173836,0.07908125833839022,0.2264976465431873,0.00032406262112325284,0.0067507635540381885,-0.007167179311837463
328,1.0005267772199935,0.0145935783228899,1,0,0.9695884621456654,0.0797103943946246,0.22647630623988962,0.0012074863922357697,0.008034650806894288,-0.006838439381069372
329,1.000689267896944,0.015682345718263584,1,0,0.9689740399040532,0.08092940681792762,0.22730380279573673,0.005994752831856714,0.010803248086266362,-0.005003309624985751
330,1.0007259071398176,0.016610087440967734,1,0,0.9730076933229542,0.08190174169862723,0.2270185298749198,0.004816652746077512,0.01821339488375549,-0.007565524397667384
331,1.0006342619029365,0.01731010219252976,1,0,0.9718998909222584,0.08198226937427072,0.22787083416620393,0.0066812816766715745,0.017863017470094687,-0.009134519383993168
332,1.0004257561969705,0.017745858567845458,1,0,0.9713767142432875,0.080871007451835,0.23331624975035456,0.0027757249550744495,0.014548239000405506,-0.009980514193067036
333,1.0001254620770335,0.017919220556190916,1,0,0.972831868266383,0.07977490283416612,0.22990966502674606,0.0063791192633055995,0.01550911844456871,-0.006261817997433813
334,0.9997701087579288,0.017873127965499173,1,0,0.9665050505105524,0.08195544894789783,0.22902514428610063,0.013499132477284879,0.01598853436068445,-0.0035864123217241375
335,0.9994044300004874,0.0176873530844225,1,0,0.9668882185477905,0.07906666370348339,0.22831412298964038,0.0145566427333138,0.019340086287039177,-0.0050504390515113224
336,0.9990764197373463,0.017466764283989477,1,0,0.9703000671752601,0.08100971453884279,0.2285205451852164,0.014013948207156098,0.02168716534813438,-0.005523499733443677
337,0.998832222714125,0.017322569858175218,1,0,0.970788089088277,0.09157993220158558,0.23098515321473234,0.007659355040073055,0.01261040519440086,-0.005102164068546939
338,0.9987111968635333,0.017348582998839717,1,0,0.9662180644585402,0.08783059252563818,0.23326196482916448,0.0032843518741015936,0.006840121654064538,-0.004806862046253155
339,0.9987414415147757,0.017596413342430277,1,0,0.9654212047573202,0.08117777157400625,0.23153014077724707,0.001525269026037047,0.007290109344786183,-0.006961445403345533
340,0.9989360646495842,0.018054760956053684,1,0,0.9650335049487325,0.08165795808536148,0.23382462831793352,0.00487683373231083,0.013177111152541488,-0.011200313496225224
341,0.9992905417534051,0.018637855107950477,1,0,0.9703381995320137,0.08340374177240227,0.23155438760284638,0.0010898997240105712,0.010898818736266296,-0.009047305851521598
342,0.9997813834230344,0.01918662748869628,1,0,0.9727284911071156,0.08376519695136547,0.2316687751829756,0.006443669888341411,0.012105408441160566,-0.0050168548349032146
343,1.0003659721886884,0.01948423055522414,1,0,0.9709128470376713,0.08095175257604098,0.2295489810862345,0.005165444573071265,0.008372667741759791,-0.007632122069803575
344,1.000983216754047,0.01928559382751104,1,0,0.9718311831950027,0.07856162818951143,0.23032976533326027,0.008977965388680682,0.011839716244705051,-0.009922192093354312
345,1.0015548933239165,0.018358865757886013,1,0,0.968318813205452,0.08181986622548929,0.2357177460709477,0.015835375565702445,0.013292466081938833,-0.007365073669247777
346,1.001988075800536,0.016534755043964972,1,0,0.9679195389621862,0.08747966072670314,0.24125422401981353,0.009309341853699447,0.009467046350011573,-0.006220303884741548
347,1.0021795282221357,0.013758243562504349,1,0,0.968236417195811,0.08597921658738068,0.23887009016901092,0.004460530296644512,0.005968222143099004,-0.006166903468332939
348,1.0020230824311893,0.01013619331109731,1,0,0.9657120433332663,0.07985007155563048,0.2369181357415161,0.005566489972988974,0.005587763806077561,-0.005601933330092129
349,1.0014207964407231,0.005973879060670308,1,0,0.9617801036349636,0.08073071586689615,0.23529162611400892,0.011280536842035397,0.005945486453741182,-0.00858997537968738
350,1.000298055038512,0.0017931537986651464,1,0,0.9659831354737022,0.08626718941500976,0.23272582203138265,0.009704887236232407,0.004759584028436437,-0.008741988742542494
351,0.9986216319926301,-0.0016749800931198646,1,0,0.9711402551592347,0.08638841328764939,0.2336741653718962,0.007329424313817046,0.0017032314083431906,-0.007266408434557027
352,0.9964181479125838,-0.0035294059490208873,1,0,0.9680966589355391,0.08237174665979435,0.24101463227780737,0.009872270557264787,-0.002955554514767328,-0.008124001964072479
353,0.993788844913911,-0.0027726062076822563,1,0,0.9654832756631156,0.0820058451867136,0.23922929790872413,0.015287273611751598,0.0026975769939463516,-0.005355836044958519
