id,ASVM,GSVM,walking_nonwalking,normal_abnormal,ax,ay,az,gx,gy,gz
1,0.74398057256328,0.025967186741767227,1,0,0.7369530591032626,-0.009785840515174931,-0.10138732018790307,0.023664860468355812,-0.0027143214823247734,-0.010623710061005357
2,0.8062565636753682,0.027827400905849627,1,0,1.054286368372024,-0.017037994723734688,-0.1640281168489232,0.006505629686753645,-0.008042321458253497,-0.019252587545468915
3,0.8650013320812787,0.029637343666425703,1,0,0.9570266955627873,-0.01739147261648098,-0.13958155800916305,0.015190545735270766,-0.018138594166688053,-0.017782216303119765
4,0.9171335772326145,0.031342287648942535,1,0,1.0111366592610127,-0.012465305897792895,-0.13848544948376304,0.018957642331761643,-0.009086773341793005,-0.020380386840345384
5,0.9603828392734867,0.03287659650982997,1,0,0.9757904225398008,-0.010255098412254426,-0.14509716726877078,0.022125866414600598,0.0023002247109012285,-0.019089154021643896
6,0.9934928425655752,0.03416223355945464,1,0,0.9963277503973453,-0.006834950384313639,-0.13483650097508856,0.019828843419615154,-0.012277139249590093,-0.019200785062221296
7,1.0162540953700572,0.035112512198167245,1,0,0.9841047530038057,-0.004913564382311541,-0.14147064247900587,0.009419282307838835,-0.026447817783286212,-0.01627074201696378
8,1.029388331429752,0.03564106087056702,1,0,0.9932233480484784,-0.00523640158743785,-0.13622687749930876,0.002459738819617423,-0.03091490540855487,-0.014277523974194543
9,1.0343290943569858,0.0356747119245923,1,0,0.9898011515869476,-0.003795300410523796,-0.13779607358253193,-0.015134871430114763,-0.02917382286949334,-0.016809967740013587
10,1.03294974665817,0.035167768808947134,1,0,0.989579654421879,-0.007025697079119788,-0.13411509250013068,-0.021083532293879298,-0.03371287198691946,-0.010129743191880746
11,1.0272866818738464,0.03411420750151289,1,0,0.9871309873593019,-0.011321527251654733,-0.13051139071720239,-0.017364544583386092,-0.044307096429149796,-0.007342905224424999
12,1.0192955979619696,0.03255428907782174,1,0,0.9891037068463304,-0.011470447827891007,-0.13417059350945634,-0.005116843507546907,-0.03524321668578147,-0.009686360523076785
13,1.010665663987164,0.03057320047520625,1,0,0.9903601692302433,-0.010871713663930214,-0.13917866556855588,0.0025115131559363827,-0.030447954972389134,-0.007202584931589299
14,1.0027028856985603,0.028291653722824436,1,0,0.9920380720320877,-0.0095414061526207,-0.14287110204220185,0.007166837289689863,-0.018497831696747704,-0.004064352479043223
15,0.9962820223539373,0.025851043507231435,1,0,0.9887823710961214,-0.010935295377185237,-0.13956981809200553,0.007572654228887956,-0.012580407582323688,-0.002799966196958429
16,0.9918575013171764,0.023397502165834725,1,0,0.989572149672695,-0.011178848908043664,-0.13937072128938505,0.00845525313356147,-0.01634034299210687,-0.0026686068101945616
17,0.9895185316306409,0.021069094944226756,1,0,0.990408335658336,-0.011321679092407732,-0.1403828521208736,0.012761797179966792,-0.012931486696804145,0.0014173629787203467
18,0.9890717697883779,0.018988573927096856,1,0,0.9870045893063809,-0.00593061329867195,-0.13910237866529393,0.01313147896569211,-0.019507340551313295,0.0026581481133263283
19,0.9901356713808465,0.017261565764269068,1,0,0.9879314507390043,-0.006804412488582904,-0.14037505765960787,0.007575310290798464,-0.018565385988401052,0.0017126806672151625
20,0.9922331789988914,0.01597804063594664,1,0,0.9881577023241243,-0.005926505085850123,-0.1373381682963372,0.007422310772285549,-0.025173528117351813,0.003132966387403851
21,0.9948727922199924,0.015214192176253695,1,0,0.994286063722298,-0.006274959539379086,-0.14479618322731078,-0.003738726496933546,-0.016844307878623403,-0.0021676889366292066
22,0.9976116478114542,0.015032558370804808,1,0,0.9884536385554803,-0.008595444325321822,-0.14098109859654306,0.002201870036512065,0.0017851913401893415,-0.005101942953376756
23,1.0000976213768416,0.015479807936908504,1,0,0.990376890871726,-0.009195488748566221,-0.13773034711964038,0.004994116533136663,-0.017785749856415296,-0.003604207541518016
24,1.0020904551518095,0.01658316352409787,1,0,0.9953302938111439,-0.007117107680464091,-0.14376285674580797,0.012010253436172546,-0.0014877636107543842,-0.0017242669071493375
25,1.0034643021361027,0.018347119230878898,1,0,0.9914033444077026,-0.009186975585213569,-0.14134912252786885,0.011585698975869838,0.0028108897894778277,-0.006382470953467111
26,1.0041956766847968,0.020751805670580045,1,0,0.9905714708621264,-0.0072315480747084425,-0.14324817418627303,0.01763003365671504,-0.009879233630178513,-0.009505677391547908
27,1.0043416484649286,0.02375348221071758,1,0,0.9897188646876249,-0.009031854957368255,-0.14288328030336903,0.023543238246576084,-0.004647975015388825,-0.009175437822586603
28,1.0040133087539183,0.02728666752649302,1,0,0.989034319209055,-0.007411961892313369,-0.1415515270754122,0.030208164964404895,-0.006672461845272675,-0.011304320784208812
29,1.0033490618923453,0.03126677406032021,1,0,0.9917452831331011,-0.008776170231949331,-0.1402741117361277,0.03249204988834539,-0.005463978822320621,-0.010851291944832895
30,1.0024911861579433,0.035592164478648936,1,0,0.9935089847000609,-0.007853391301379924,-0.14566066781706885,0.0322141584402525,0.005503377534397376,-0.01349968532727986
31,1.0015676638982542,0.04014535918990945,1,0,0.9892660542432189,-0.007909596885007175,-0.13866404924119433,0.026473075694652758,0.014819518247600682,-0.01666045323489173
32,1.0006799537840763,0.04479424798545344,1,0,0.990246652002784,-0.010692185223099856,-0.14280311199984536,0.033759415020772995,-0.010931244746969182,-0.01742005028042805
33,0.9998964741898833,0.049394875491440705,1,0,0.9950487921173609,-0.0070072675058080675,-0.14526771282923379,0.04134077295672048,0.02362132801494451,-0.015489023537466902
34,0.99925111056291,0.05379719669409521,1,0,0.9860557073365123,-0.002899633515855951,-0.1324195898671282,0.047295693477715756,0.026499222570876474,-0.014372575645591487
35,0.9987459474270546,0.057854287802054434,1,0,0.9861989100352031,-0.001989352136344649,-0.13788558390262695,0.047926557404568866,0.02012545746471167,-0.011718790288579969
36,0.9983575059277267,0.06143446739500484,1,0,0.9853266759653768,-0.0011561854704156766,-0.13969989826073528,0.05085122587158653,0.029084604917790996,-0.014540087290542411
37,0.9980457429219715,0.06443504901598604,1,0,0.9932054094533505,-0.0058287787182559414,-0.13780042460011374,0.052604193452962265,0.010757340750116008,-0.013009109718818896
38,0.9977646854200516,0.06679584018703476,1,0,0.9922191861388686,-0.005971930273671493,-0.14346376574846081,0.06481314532248351,0.036283310807586754,-0.0054848080969499904
39,0.9974730449949191,0.06850969502977527,1,0,0.9874656067028696,0.0017893947332844465,-0.13705907626044123,0.07078603111731023,0.04575085589227609,-0.0005613955271326438
40,0.9971430286980348,0.06962666296024135,1,0,0.9855639026254457,-0.0002303530439968002,-0.13761590216199096,0.06359822155844351,0.03660326128019382,0.0063667262845049115
41,0.9967660507648366,0.07024844420629511,1,0,0.9893713543023457,-0.002433839356230382,-0.13906911047349327,0.058035302757956986,0.0455637528634484,0.008956358643792165
42,0.996354777193204,0.07051160640407801,1,0,0.9891733312981595,-0.004579605822165224,-0.13493178166809897,0.05815948866776054,0.049627066261906314,0.008973353395939637
43,0.9959414659585116,0.07056091651466954,1,0,0.9870481026907838,-0.005633928006602198,-0.1391585492435251,0.04850685472965172,0.047374616151881176,0.01098305482300022
44,0.9955728980778735,0.0705171081768835,1,0,0.9852817474388277,-0.0073909054041700895,-0.1358313997548226,0.04669221325200404,0.03766209243177566,0.013242159790682015
45,0.9953025591949544,0.07044556599973473,1,0,0.9866123734809089,-0.004471838434108106,-0.13791458272197302,0.049945033642396504,0.031078838755510617,0.015954688404368877
46,0.9951811613881163,0.07033324936846004,1,0,0.9867595089562173,-0.008073541095968528,-0.13588614559738715,0.05130353525981694,0.022328099197803885,0.013032732752604442
47,0.9952469450525381,0.07008030797232428,1,0,0.9845056823187599,-0.011076703442197107,-0.12864156303073138,0.05395504816440408,0.012729867225376907,0.01762260774844502
48,0.9955173935356909,0.06951018787020383,1,0,0.9826227480153148,-0.010299987500056253,-0.13038758642605283,0.06487162954568773,0.0009269806837115409,0.01736054980024472
49,0.9959840026695935,0.06839809816348857,1,0,0.9854320280646598,-0.007649880759788648,-0.1316861408447299,0.0705058860579589,-0.003988049012377622,0.012293007859290874
50,0.9966114557387082,0.06651349535643272,1,0,0.9853569308073196,-0.007961186405954505,-0.12930845703688595,0.06504650732302338,-0.014961308621091783,0.0038482443054743873
51,0.9973418491014389,0.06366887338425767,1,0,0.9862495310200801,-0.007245722141635202,-0.12815853582137976,0.06995622396238076,-0.026557354215083588,-0.0010751875368475788
52,0.9981035772027431,0.0597654286035938,1,0,0.9898345311381951,-0.002154070867392253,-0.13297296992962881,0.07023325132115003,-0.02336707210610183,-0.003441454193500165
53,0.9988233605965015,0.05482636285005657,1,0,0.992061835540632,-0.0010604319343383737,-0.1390574244845781,0.06449971476705144,-0.014544336737514915,-0.008833927445081022
54,0.9994389590337742,0.049010629628228525,1,0,0.9964464541172567,-0.000848479192301381,-0.13589699959912466,0.0545074791986067,-0.017789696028277693,-0.008800528574228951
55,0.9999096529134543,0.04260356355719215,1,0,0.9962287538351984,0.005840839515372528,-0.14119969273088587,0.044431171598150056,-0.00812920021505982,-0.010386917181013904
56,1.0002218992602858,0.03598540176699776,1,0,0.992693749710667,0.005018987530113856,-0.14058642871265864,0.03065736409719589,0.0004723964184837142,-0.009474454476175134
57,1.000388765531179,0.02958313166756052,1,0,0.9902214365317954,0.0036791848954407826,-0.1379898317176648,0.022059223322417294,0.0051458730081320085,-0.0041310424690769775
58,1.000443506297024,0.023814303209211168,1,0,0.9878151921129612,0.005179877282427971,-0.13712181203412716,0.012387026535614444,0.01057546947132873,-0.002864557213846994
59,1.000429332053298,0.019032758217670948,1,0,0.9858571945216309,0.0032585785655177128,-0.13337272906076303,0.002021620469014397,0.0030627761110333437,0.0018656701760935757
60,1.0003883814735968,0.015485523578219189,1,0,0.9876711071670526,-0.0019401348352800865,-0.13299059238981276,-0.0014428849215916138,-0.004432306131075532,0.0014846557323643563
61,1.000352833111933,0.013287650475234782,1,0,0.9895457185916048,-0.008419106170393386,-0.13586336473448762,0.0007763545600735741,0.0060400297274711915,0.00012388948512919237
62,1.0003401080281769,0.012418037217671301,1,0,0.9904998066657074,-0.009667885942147536,-0.13519483358445794,0.011384086887138559,0.006349642147737959,-0.0007527356950920049
63,1.0003526816404205,0.01273497897997604,1,0,0.9913996274396856,-0.008464020566170934,-0.13573982318708913,0.01601817654205027,0.0006958520100348274,-0.001141665909782262
64,1.0003816824977643,0.014006361066082095,1,0,0.9930627003160046,-0.00728325676015081,-0.13995670298133583,0.02307620656485191,0.014059526392809125,0.0001476747357764152
65,1.0004125761005602,0.015947069588833313,1,0,0.9934149331745754,-0.0043959986328028465,-0.13609420140761047,0.02526010886380241,0.005429425863510849,-0.0023885117973758904
66,1.0004309371830582,0.018255939229368964,1,0,0.9955291867771402,-0.004536109776930638,-0.13857014836383297,0.02075116414991321,0.009912613850077422,-0.0041303736978265835
67,1.0004265854227496,0.02064634895548191,1,0,0.9915701204966196,-0.0009601408739381467,-0.13606774973243224,0.018185986900512714,0.01479794759914347,-0.005434929027609478
68,1.0003951051558642,0.022867682546369478,1,0,0.9911167976295566,0.000366301955121498,-0.13106809388453894,0.013238969494866797,0.005216538940238243,-0.0071633339771725296
69,1.000336775380149,0.024718099874741075,1,0,0.9897597656674907,-0.0011062881074268695,-0.1342365583347858,0.01299310555200272,0.010549061612977424,-0.010070294672267938
70,1.0002538525928102,0.026051262335701778,1,0,0.989422881904298,-0.00039698495598380874,-0.13278995841312366,0.002516898893452628,0.004016182965575942,-0.013079324272082133
71,1.000147641561111,0.02678014036681274,1,0,0.9877697568227282,2.689927466329973e-05,-0.13363808466074845,-0.010608417971589677,0.009511465821466232,-0.015180510809326577
72,1.0000167242278657,0.02687975533253373,1,0,0.9894098401648548,0.002460747138765145,-0.13176536754209883,-0.028928489928451366,0.010970078838977989,-0.0169430700513762
73,0.9998571731050566,0.02638832056940034,1,0,0.9908402299655376,-0.0036916529623876974,-0.12938764963082947,-0.04436492531703112,-0.009985899387036916,-0.01871509356428203
74,0.9996647462213113,0.025404108301484634,1,0,0.9951276361262926,-0.0039501879822449945,-0.14080058407711862,-0.01880999808716832,-0.007992840379326367,-0.013408691447118657
75,0.9994382347089321,0.024075033196740245,1,0,0.9916436941753571,-0.0012455600061018906,-0.13009889215421985,-0.01351217432698588,0.02104708253930444,-0.008390562915995966
76,0.9991826674878187,0.02257992648164999,1,0,0.9891281632863732,-0.00550362335743398,-0.13159486741500076,-0.015787211159994312,0.01126757828368087,-0.0064361013323455205
77,0.9989111756376563,0.021103595329657627,1,0,0.9943533524853567,-0.004802969395588835,-0.12849669647207654,-0.008266874708526094,0.007628444140381069,-0.0003968836216142832
78,0.9986448345258305,0.019810164133970246,1,0,0.9899966354310717,-0.002016660631161091,-0.13016774248238505,-0.005203150837561074,0.013669034211662425,0.004174547806019915
79,0.9984104067596896,0.018819846276929605,1,0,0.9905473027970021,0.0009014803773879036,-0.12774947108714552,-0.0019921854436187386,0.013608032471891334,0.008930538065648322
80,0.9982364274166617,0.018193316025435897,1,0,0.987704493183402,-0.0014695176815958844,-0.12373105321708423,-0.0060259922783048175,0.00947239705049341,0.012369351342259336
81,0.9981484712326839,0.01792597286630543,1,0,0.9882501809914523,-0.002346844484797015,-0.12910209556773564,-0.0052495623429047586,0.0023193158947667812,0.013194923278518898
82,0.9981646197837241,0.017952423320327204,1,0,0.9892821753037344,-0.0020871660029127925,-0.13069017184757722,-0.004389555069058707,0.008068567179813958,0.01509460052393083
83,0.9982919891295963,0.018159921375758538,1,0,0.990289259322548,-0.0010572916286115972,-0.13091149725394147,-0.005587916871592314,0.0045827193701670705,0.015674541280174762
84,0.9985247615118193,0.018408354172613776,1,0,0.9918377823672947,-0.0012004574759526862,-0.1313675342220402,-0.0068786760808546695,0.010954481829685243,0.018712151568103623
85,0.9988437538382736,0.018553572978771152,1,0,0.9895230253987645,-0.0026456800116980276,-0.12635622888518577,-0.010953706143406251,-0.0017997473343045627,0.018639116708680233
86,0.9992173786860229,0.018470541542331236,1,0,0.9906892879281449,-0.0026050584679800544,-0.127377849316435,-0.009632376520594642,0.0003498019475499411,0.016041539763143424
87,0.999603910058213,0.01807302473409035,1,0,0.988647642401603,-0.00644269369703739,-0.13011676684944398,-0.007786056871771457,0.01260317438897232,0.014021594225537167
88,0.9999550543191852,0.017327272855856446,1,0,0.993384902760877,-0.005050730462169433,-0.12968612955199055,-0.0033301112753597695,0.015263323686008813,0.009059429262059106
89,1.0002207584570335,0.01625807629953543,1,0,0.9918831065879359,-0.005447214850511645,-0.1286762814550598,-0.005043050591100988,0.02189760769809081,0.00858527224324098
90,1.000354974426397,0.014946481135278127,1,0,0.990393592229695,-0.005789774537147605,-0.13082481341373522,-0.006577835289679985,0.013669255751604749,0.008187261068495435
91,1.00032189592192,0.013519472726884463,1,0,0.9918414588915231,-0.0038143149395083956,-0.12714892675669803,-0.0005951832386209867,0.01661897055507685,0.005294123380602407
92,1.000102073140613,0.012133233492414061,1,0,0.9924879131813694,-0.004121561891325189,-0.12617778423682857,-0.0009155653842234849,-0.001241669187975652,0.0025631274026853387
93,0.9996977287392658,0.010953011883255235,1,0,0.9947415801485845,-0.004911470290502688,-0.12377285505423977,-0.002953446897587456,-0.003510978168982227,0.00126712044587571
94,0.9991365104377636,0.010133597476545506,1,0,0.9897972221280842,-0.00467880290728352,-0.1296948055398187,-0.0010750328099045719,0.004842816536413625,-0.001852775584588345
95,0.9984729197899024,0.009804226434565059,1,0,0.9898356934892255,-0.0016484524842339872,-0.12550943169433992,-0.0033597098515702637,0.005040450335172218,-0.0021937424377090078
96,0.9977868239557198,0.010060333442765036,1,0,0.9915005385345121,-0.003589854157088742,-0.12551706859994174,-0.006207312131399648,0.0040900816315136606,-0.004356031092342941
97,0.9971786988446191,0.010962488319609366,1,0,0.9903495574487133,-0.002058094821360417,-0.12918528806980054,-0.0073631458052540455,0.008449918440623913,-0.003629926445270466
98,0.9967614577073322,0.012540883224425727,1,0,0.9887841453108687,-0.0027287666069017603,-0.1286211079924688,-0.01368969876470653,0.01065973687102477,-0.0031236870024667976
99,0.996648933379636,0.014802403805242684,1,0,0.9913051376436451,-0.0025694691281803743,-0.13095803268842382,-0.018661269941926996,0.00925484815224588,-0.002376370361867478
100,0.9969414294339666,0.017736898200838458,1,0,0.9907143149668128,-0.0032996370398857655,-0.12594830868128853,-0.022772083014449652,0.00861845449498131,-0.0020896177793306423
101,0.9977092877032757,0.021319873879808052,1,0,0.990880424206145,-0.006957690787338903,-0.1254306156196111,-0.02373507839538176,-0.002409528207489157,-0.003727521899222509
102,0.9989761072866443,0.025510398403685207,1,0,0.9904815163011745,-0.004091899151391962,-0.12467571254011825,-0.020193389385727154,-0.006660566143370093,-0.0057207145520455395
103,1.0007039966266005,0.030244998625902242,1,0,0.9900745603759731,-0.004530476186420212,-0.12237004716098926,-0.02427533219571263,-0.016200855208426165,-0.00886393110091413
104,1.0027838434367633,0.03543014350819027,1,0,0.9901345201290395,-0.0010471166889602793,-0.12865742873474703,-0.026782192274736147,-0.01668233024825178,-0.006727085699089667
105,1.0050337725436882,0.04093688833134452,1,0,0.9900027147464504,-0.0015010341845916122,-0.12521109326503707,-0.028076689386631524,-0.017594038004202946,-0.004597281372306964
106,1.0072084897188773,0.04660128349680514,1,0,0.9910431600375197,-0.005010392700451571,-0.12295639604585158,-0.03522554809487725,-0.017197223270112708,-0.0037834155952846987
107,1.0090209422557557,0.05223327923687595,1,0,0.9944167432415901,-0.00685714734828809,-0.12514619397239413,-0.03064224991214925,-0.023086149914127357,-0.0017368895456134164
108,1.010175663385305,0.05763507923303818,1,0,1.0022506687020691,-0.006962628255390932,-0.12834787384352978,-0.04510564561843397,-0.02420830593040144,0.003253818747070853
109,1.0104105393170202,0.0626271999997393,1,0,1.0000881890043016,-0.017288773027385955,-0.13863610407499535,-0.07455410850895577,-0.04301948978099955,0.009503103902451796
110,1.0095410822088642,0.06707740154467522,1,0,1.005892258643487,-0.014773181604840356,-0.13210563780491175,-0.05287256690326695,-0.0552498396412055,0.01977283464055049
111,1.007499322597314,0.07092552938263762,1,0,1.020683141947503,-0.008542504539407738,-0.1583644291096871,-0.04598976675417839,-0.002435707918227973,0.028907483601649058
112,1.0043588602752591,0.07419744284577999,1,0,1.0120417923475695,-0.007201642870954938,-0.150286297840195,-0.021807454921132684,0.0773406828209943,0.04284481662814205
113,1.0003391165888074,0.07700335482238115,1,0,0.9925657089362484,-0.005193961941123315,-0.13114248324530647,-0.011846428164036865,0.06882619418145293,0.06330898285291935
114,0.9957857269330942,0.07951866471221707,1,0,0.9831802884056436,-0.009217280403514206,-0.13040075206860383,-0.004134390584747914,0.04165453264995156,0.07668974442716242
115,0.9911294256188418,0.08194817959468055,1,0,0.980711005234822,-0.010707990504569737,-0.12365823974068736,0.010062856058939843,0.014996273151874831,0.07853828475451545
116,0.986830664064776,0.0844780302704015,1,0,0.972240283321768,-0.008619980203319236,-0.11543320526994078,0.006582471980176458,0.015912765593708526,0.08002610845827281
117,0.9833198308613548,0.08722340275565008,1,0,0.964951656647902,-0.007825366550230355,-0.1132163071030902,-0.004607132039662589,0.0037384114222276444,0.07285530749298341
118,0.9809430199638456,0.09018298438795264,1,0,0.9678327888044743,-0.0038402257305232617,-0.10627940960473103,0.0007088828687002581,-0.007591628722586361,0.06902346068422398
119,0.9799214872604258,0.0932114043251978,1,0,0.9665192132485616,-0.0070519891880962415,-0.10038339517851777,-0.00882801806231555,-0.025184397452306502,0.06727630222201046
120,0.9803299524011153,0.09601844246934603,1,0,0.9699638205074155,-0.010231654717789232,-0.10283667936094963,-0.020917009483554082,-0.06462403833788928,0.0595188981442504
121,0.9820953452710824,0.09819870896688847,1,0,0.9794633380713261,-0.013839012369607473,-0.10706364053417874,-0.02391224862055628,-0.06902833997106428,0.05227952978872258
122,0.9850141429419278,0.09928899724987211,1,0,0.98402960343789,-0.01648113551304898,-0.1133529737717716,-0.02514927349123956,-0.09334424681445627,0.042530013391517026
123,0.9887838042591293,0.09884432569848038,1,0,0.9850269942794967,-0.012758598841335265,-0.11879422885379465,-0.013663927369476164,-0.10335436437095538,0.03786529834165901
124,0.9930425194207124,0.09651939426980886,1,0,0.9837629491382764,-0.008945157940168674,-0.12145924381308863,-0.00909589193573087,-0.10240181168429759,0.03331288183391015
125,0.9974115952927415,0.09214067129250884,1,0,0.9899342732177691,-0.009658784925625349,-0.12405885440737366,-0.01584965036190118,-0.11018736004745187,0.026008129992187014
126,1.0015357123851978,0.08575576488337161,1,0,0.9966221511444028,-0.01603902739982891,-0.1276689104053874,-0.018284561676095063,-0.09901384672071434,0.019820545380295283
127,1.005117248954963,0.07765077398478444,1,0,1.0029882167792812,-0.01750599176608992,-0.12812810061702598,-0.0234585037435157,-0.07601195613588164,0.013815923666688821
128,1.0079415911235297,0.06833214871824012,1,0,1.0014501383468128,-0.017325530328348514,-0.1264004655475172,-0.018084626347806,-0.06510301871771913,0.007301747848249456
129,1.0098911327937916,0.058475919549926716,1,0,1.007055731322833,-0.018437651570115066,-0.1289339049044279,-0.01238198924639901,-0.059609141930984204,-0.00025278875593466463
130,1.0109468519826603,0.04885245554995007,1,0,1.0051626058360046,-0.016039681130469677,-0.1333337856709918,-0.007329816654821329,-0.04045111205632608,-0.0025760382381049387
131,1.0111779096686662,0.04023817574173891,1,0,1.0030121293043164,-0.017649471519768763,-0.13250909466877872,-0.009484383819527415,-0.02797404112683835,-0.005516166875844612
132,1.010721388814691,0.033326744751641484,1,0,0.9983940179819843,-0.019774820947432086,-0.12723639180954877,-0.010525101512353537,-0.012940071946497836,-0.00625136377029029
133,1.009755758851837,0.028651496882635692,1,0,0.9962783563340355,-0.022009319512854165,-0.12886034773384122,-0.00853599678925895,-0.024511966277772298,-0.007390332033813289
134,1.008472548941799,0.026528392764736206,1,0,0.9968844773491844,-0.025419350762842227,-0.12888614851442048,-0.0028797933721649255,-0.022452326060263664,-0.007106918765557588
135,1.0070507223422278,0.027025267002352017,1,0,0.9927540168864406,-0.02883128453957966,-0.12899352092315428,0.0057024933715349455,-0.014141771168059257,-0.008669393024160529
136,1.005637338735675,0.029959431400413485,1,0,0.9944383663257715,-0.03066479158802155,-0.13278978623274312,0.018198506485359228,-0.010243923831805985,-0.01002115160087537
137,1.00433658183948,0.034922526138771004,1,0,0.9931130645608977,-0.030261198544643843,-0.1330795017601967,0.029910909572142885,-0.0005745479755741851,-0.011859116610572226
138,1.0032075341889888,0.04132878874322737,1,0,0.9947229419996702,-0.024819833684041812,-0.13380850831131338,0.04238549355475787,0.011483794042503827,-0.009859157593232042
139,1.0022695431134738,0.048480418638205555,1,0,0.993284232539563,-0.021846470272351926,-0.1326823787216433,0.051493324065928534,0.02181481779068264,-0.010848895289180049
140,1.0015128827872202,0.05564179289262329,1,0,0.9961012134721627,-0.021486479493048067,-0.13328875589393077,0.05446368809881334,0.012165228596912216,-0.007079535104505626
141,1.0009118164700508,0.06211358569851667,1,0,0.9965660883093886,-0.016092963118545987,-0.1323764003417525,0.06403254222679072,0.037997612421999914,-0.007377921988577724
142,1.0004371499175349,0.06729860516193595,1,0,0.991783116147102,-0.016174912939095207,-0.13164277033861863,0.0657751554544418,0.028385172908593603,-0.01008229420222056
143,1.0000659147346178,0.07075307365059552,1,0,0.9930652033091468,-0.013797833196364667,-0.1303797533620772,0.0658597268852033,0.026296566695904862,-0.010700872026414985
144,0.9997867674258067,0.072219627260469,1,0,0.9916310657546199,-0.011818554846762043,-0.12959860054540592,0.06624961877481964,0.028960331927213524,-0.010859068784957678
145,0.9996007238856777,0.07164093890674654,1,0,0.9915448620306077,-0.01051995713591129,-0.13241937652395439,0.06029694252410251,0.02554823186936314,-0.008268789785795889
146,0.9995176881769426,0.06915495714515994,1,0,0.9911463822029398,-0.009562877690091334,-0.13388582629689152,0.06257970001205214,0.035308605584794706,-0.0057183388385509525
147,0.9995498086052574,0.06507387891373316,1,0,0.9906613099896213,-0.009138784042743327,-0.1362683743307012,0.06193297850822393,0.03679341381175857,-0.004729756896216252
148,0.9997030892723816,0.059849299845577374,1,0,0.9881099104492727,-0.00864470428081627,-0.13713994056541634,0.05709564678513703,0.023934184312946073,-0.00089158232835782
149,0.9999689697252626,0.05402618924905306,1,0,0.9908596946182123,-0.0143955704910523,-0.1391454565846449,0.04909158835451217,0.023877252861850766,-0.0013068569042261687
150,1.000317736503094,0.04818901719228706,1,0,0.9871028584939269,-0.013836764785578905,-0.1401257821873043,0.04435931272688707,0.01821723897646553,0.0010561291119855444
151,1.0006955801054138,0.042904480445340946,1,0,0.9854225902949393,-0.012558237802594633,-0.14437003577377794,0.03843616364207155,0.0030181131191413415,0.0006317284972297927
152,1.0010267874173062,0.03866627357742002,1,0,0.9867811842204066,-0.014563491738345489,-0.1435866278137762,0.036160891676366484,0.0010814310765620457,0.0007848967225016229
153,1.0012218711551621,0.03584772531967611,1,0,0.9866319074206797,-0.015183377319469202,-0.14108407932401595,0.028150656069337452,-0.00811635772166111,0.004324717498464277
154,1.001191309084716,0.03466772311670011,1,0,0.9877382844878813,-0.012535444039423376,-0.14852187038680978,0.030285689640423996,-0.016886375966231125,0.01038331662219534
155,1.0008630805783258,0.03517430926399266,1,0,0.9991587260564956,-0.013893423809870542,-0.14665277743592492,0.014262958510278215,-0.006319270859490958,0.01298293768982587
156,1.0002007023298665,0.03724882450229137,1,0,0.9927293676595222,-0.011233040391108484,-0.14198015076591766,0.0011515490874137678,-0.0010055840001657078,0.019221986725639247
157,0.999217546875925,0.0406314036535265,1,0,0.9942969633093839,-0.009174898385784242,-0.13124705401648679,-0.012910328289815998,-0.0165512573955716,0.024403162424420245
158,0.9979833600727772,0.044965557553113426,1,0,1.002812352413032,-0.007725547337295438,-0.13420631519747425,-0.029608183025561178,0.009842701111836027,0.03135294549589369
159,0.9966201561411917,0.04985540562470295,1,0,0.992265102879257,-0.007782548539987703,-0.12231442056201229,-0.052650749290656045,0.03735497384424463,0.037647597096778146
160,0.9952868068702098,0.05492496275628232,1,0,0.9912229355409217,-0.012041731283647389,-0.11387411613405306,-0.062117461903028394,0.021016470826437515,0.03989378849377222
161,0.9941543060978969,0.059866863397166604,1,0,0.9793765539473345,-0.01483846558801765,-0.1164799791566867,-0.061500168457730126,0.03841793668447332,0.04427254215784998
162,0.9933763153635241,0.06446977970236306,1,0,0.973403935123041,-0.02236985152664402,-0.12425709455659878,-0.05477430036461938,0.008015158844337709,0.047002333423098355
163,0.9930612707713807,0.06861956890928395,1,0,0.978364644916067,-0.027521652480801746,-0.12645998618324894,-0.04721299212151169,0.004536790028325815,0.04899824584727421
164,0.99325224759339,0.07227695064916592,1,0,0.9760862448201086,-0.03119853091657772,-0.1380612102713347,-0.031177622808861133,-0.011586707515224969,0.04441356537150125
165,0.9939188689254478,0.075441433788396,1,0,0.9840205250456086,-0.027311960021842455,-0.1337578441052454,-0.015591936646418805,-0.031493069109835355,0.03501427437128667
166,0.9949625711245539,0.07811482290882855,1,0,0.9853532993966646,-0.019490625728554263,-0.1401316553854999,-0.034722029630860504,-0.025301135555889958,0.029971342063235446
167,0.9962335833906343,0.08027667266629193,1,0,0.9860163485936351,-0.01712030114249559,-0.15107317673593998,-0.046770790027643214,-0.04695950835405698,0.0289286301291907
168,0.997555842560173,0.08187884790586338,1,0,0.9929753738465394,-0.013872718806874422,-0.14499017756382193,-0.060096330493985384,-0.06131028415674217,0.025570902536010763
169,0.9987550498153724,0.08285887573201912,1,0,0.991101382237165,-0.01958062996847267,-0.14497500837490393,-0.07768450278632774,-0.05086350805640029,0.01613108595033559
170,0.999685114129916,0.08316505074841123,1,0,0.9838444424843349,-0.02772879651374935,-0.14507980884831628,-0.07436388964396767,-0.06652165972181362,0.010248601117703617
171,1.0002490104828776,0.08278282196697968,1,0,0.9952492188492854,-0.03141801237889901,-0.15230712541734334,-0.0715979118169247,-0.06107943730988878,0.006202366669662283
172,1.000411158674213,0.08175264061895103,1,0,0.9993369444167605,-0.03092828095771198,-0.16790502163691545,-0.08200225973927525,0.0457536413801783,-7.226603384871958e-05
173,1.0001995397925518,0.0801732244715888,1,0,0.9896322932627585,-0.03186937040505267,-0.14001437135637462,-0.07895183508791138,0.01492522042059326,-0.0038620761337622446
174,0.999697150344719,0.07818935996902894,1,0,0.9902220315329289,-0.028475694924057063,-0.14656948620725443,-0.06627782213432191,-0.029476373530215687,0.004219686561572877
175,0.9990243427233644,0.07596820873904679,1,0,0.9793382518444436,-0.026535007986077472,-0.14027532791864078,-0.05212556531325947,-0.019962678534961854,0.005627743925775629
176,0.9983156809863108,0.07367118796212671,1,0,0.9823486273914629,-0.02531520854139501,-0.13646367398422585,-0.05287470569546354,-0.041074149423943995,0.0023981781573677867
177,0.9976961456674175,0.07142893829044343,1,0,0.9902788199127133,-0.02441623155665778,-0.14022335823600077,-0.04978367846294754,-0.05374086816608464,0.004951061669909652
178,0.997261273635094,0.06932477011826063,1,0,0.9845421600166171,-0.024132155299289686,-0.138823915533333,-0.04665987272804423,-0.04450604119631395,0.0030813891745296905
179,0.9970645009494072,0.06738858325351323,1,0,0.9754797498943316,-0.026858171321877743,-0.1414229499080068,-0.04273282374253793,-0.05665720671804066,0.0026435324029416307
180,0.9971133800541967,0.0656002631691552,1,0,0.9825066802968371,-0.02906148276197839,-0.14172929879744633,-0.03516103669072809,-0.0634167589384779,0.001042126084065692
181,0.9973747827509508,0.06389990209771833,1,0,0.9905832856415058,-0.02698717646124957,-0.14452852867352958,-0.033643018008949026,-0.055264918058797664,0.001155128342790218
182,0.997787500802157,0.06220188796013589,1,0,0.9953263540841452,-0.02395860220558163,-0.14395015236586436,-0.02682815035322672,-0.05176531991710473,0.0010799605595889804
183,0.9982789956174529,0.06041051138313272,1,0,0.9899704529213672,-0.018992332544670653,-0.14408148862160863,-0.029351716209970416,-0.05035038030634899,-0.0019095607544765273
184,0.9987822049876853,0.05843559307862893,1,0,0.9895456800150134,-0.020828502756213292,-0.144593877632161,-0.0337219875924031,-0.05133838227347318,-0.0012754809764307395
185,0.9992487880838743,0.05620707922711553,1,0,0.9919305282130277,-0.019014579250196544,-0.14369847088424526,-0.033041849659214924,-0.041444058320397804,-0.0027247589905897837
186,0.9996565839212775,0.053687445112248704,1,0,0.9910753804002994,-0.0202818135810402,-0.14299428511242132,-0.036690261703741345,-0.0470285055987266,-0.003680135892196466
187,1.0000106008678888,0.050880479086877595,1,0,0.9897773319476296,-0.027316628709507466,-0.1491979310252636,-0.031003238054070056,-0.04160351055580623,-0.0027870069113053474
188,1.0003381356139005,0.04783501492152844,1,0,0.9853241635279164,-0.030326816390130025,-0.14672725929933575,-0.021648954070913412,-0.03940538607217031,-0.004735399332801178
189,1.0006795904009407,0.04464256217312564,1,0,0.9872295847163632,-0.028147659715320343,-0.1465848749389966,-0.011754037679810606,-0.05163597239962762,-0.0056519971963267185
190,1.0010771432310597,0.041428447718947964,1,0,0.990639428085775,-0.02514503843719281,-0.14728056989857782,-0.005291207576704357,-0.05023477981081707,-0.006635260790381425
191,1.0015634940189793,0.03833699415604977,1,0,0.9890795874081858,-0.023282269912305472,-0.1514157659485801,-0.009186468397889079,-0.03721269571265288,-0.004389640046710827
192,1.002152531818518,0.035512600997287244,1,0,0.9874121401207523,-0.020637612472526812,-0.15496841237274384,-0.010867065294601203,-0.021340081523651803,-0.004089746935451734
193,1.0028332330832037,0.033080285832402086,1,0,0.9888829839556561,-0.0230485121986156,-0.15267775045924142,-0.011938090088981517,-0.008389157157949401,-0.006059649294066064
194,1.003567604671444,0.03113037125005609,1,0,0.9920365358110428,-0.028137843065108845,-0.1604878903576191,-0.02111646290907419,0.00849364440523998,-0.006246332391915277
195,1.004292998011203,0.029711313216436434,1,0,0.9878384572292805,-0.029774433447001616,-0.15332626889688636,-0.015813067728499768,0.0334227560858498,-0.0032466529512009826
196,1.0049285881213454,0.02883192178990942,1,0,0.9931187753819252,-0.027476210170682788,-0.15206433653111634,-0.006519307331601512,0.020218971507024043,-0.0039461421935922366
197,1.0053852776199816,0.028470732043408734,1,0,0.9950639648858447,-0.030664452525562474,-0.16034628574019452,-0.021173614639562258,0.050353584625277975,-0.0039416680610757
198,1.00557781476132,0.02858787520298146,1,0,0.9923412490854262,-0.03277610990243535,-0.14521499895700024,0.0009135014207858482,0.02994451821035327,0.00016895587382811171
199,1.0054375735258068,0.029134559720037197,1,0,0.9948914494245414,-0.024728305197612592,-0.1484619040225048,0.007235235874178365,0.024886583049918053,0.0017683731041613527
200,1.0049243021288472,0.030057095099091213,1,0,0.9921213089361784,-0.02581270795778026,-0.15180847347435159,0.010447459551432323,0.033676100594552213,0.002246254401371795
201,1.0040351626605062,0.03129518961095335,1,0,0.9938510116534426,-0.022813345447598152,-0.16019487278392522,0.005331640678677182,0.029434535750050922,0.006527356032278917
202,1.0028094549862434,0.03277664177082186,1,0,1.0001992857479873,-0.021034723310296103,-0.1550239214163044,0.0024660093865875423,0.007353336573683928,0.008724075496252329
203,1.0013276339024955,0.03441169921483935,1,0,0.9919772489502003,-0.017176679805253166,-0.14949712995229777,0.010390224865623531,0.041380922877917836,0.006832284349017671
204,0.9997039003531272,0.03609014983527361,1,0,0.9824123242185683,-0.01838596713749297,-0.1499032154170207,0.008759256756288933,0.04040042106693965,0.004791571497129092
205,0.998072888632918,0.037682962326026144,1,0,0.9921634409240051,-0.02091900326681547,-0.13900808743208143,0.011572607018294247,0.016939739366259716,0.0022790174669829505
206,0.9965723628170453,0.039048775010624474,1,0,0.9871772931591555,-0.017851231289038247,-0.14456019990844376,0.01780466797647613,0.05035427511810109,0.004143255710332414
207,0.9953247840600034,0.040044486393732044,1,0,0.9766339682404779,-0.017299948058583366,-0.1381927275997431,0.016878714647409605,0.03746477288426957,0.004389785542533562
208,0.994420929452133,0.04053873859519462,1,0,0.9774751110808586,-0.01606828402645305,-0.14006532637516098,0.019499313221585685,0.017125995424341768,0.0013260103334518554
209,0.993908505901129,0.04042696319165455,1,0,0.98378598213866,-0.014365911233281571,-0.1439065882474486,0.02844885269496305,0.03488306037229896,-0.002526124970271898
210,0.9937878197053726,0.03964660559413086,1,0,0.9826728938687108,-0.015870030232340585,-0.13751560964652873,0.031186878797306698,0.026340411847199232,-0.007715201671274733
211,0.9940150610911376,0.03819080221246045,1,0,0.9846381242977248,-0.01860621203010314,-0.1443503655668053,0.03131819027712638,0.011107951379147323,-0.006798830093946958
212,0.994512160428494,0.03611811598228964,1,0,0.9825245402989189,-0.018044751240798833,-0.14564267174199935,0.04253055705474902,0.01724853796137302,-0.005365285215074252
213,0.9951810634098798,0.03355544867766835,1,0,0.9861059646302761,-0.014296685977770176,-0.14360971454887547,0.04091390135972344,0.009466029003818785,-0.005405378924096353
214,0.9959197903915262,0.03069148448584815,1,0,0.9896493057182834,-0.011966049885996753,-0.1436583652598152,0.036757419918014726,0.01616663740080328,-0.0074722618284770465
215,0.9966376050415516,0.027759277481425218,1,0,0.9884937071731276,-0.011548624145646868,-0.14203417059849938,0.029583690647825543,0.0038282718155676224,-0.006735873237265953
216,0.9972669164867028,0.025008939626594315,1,0,0.9884093705593524,-0.007008427346095573,-0.14624900586334655,0.019197138965629065,-0.0014016099464062405,-0.0056235273225721345
217,0.9977701925852955,0.022674320238318744,1,0,0.9869046083113245,-0.010497820152759794,-0.14703311521262125,0.00746149014997518,-0.002261458051769932,-0.001354969459836574
218,0.9981410822642808,0.020939932867533685,1,0,0.9907462483129278,-0.013690196032106642,-0.1438029638235033,0.006266056102110065,-0.013856169683809713,-0.0032125437131119137
219,0.9983999116300211,0.01991499326465221,1,0,0.9924561156066523,-0.017178320407421236,-0.14534994147325814,0.010948008377148771,-0.004735966312976309,0.0004110387117566264
220,0.9985845997903996,0.01961991086288317,1,0,0.9832189563348965,-0.01687689926278209,-0.142013762829488,0.016595652908528432,-0.003048286934695244,0.005796400141376428
221,0.9987388612746433,0.019987625110807948,1,0,0.9842711498640796,-0.017658959958921132,-0.13589847300911054,0.01730850282958384,0.004149757442447406,0.005585044898631666
222,0.9989002274548606,0.02087898842824397,1,0,0.9861996452990643,-0.021750605667882845,-0.13388536294921927,0.017937420824502837,0.0042092072707415815,0.0068628354567061185
223,0.9990905559134377,0.02210885160723219,1,0,0.9876915041441843,-0.021376255095565035,-0.13398904535868109,0.02654735171612217,0.007323968046472445,0.003632542418130599
224,0.9993110193876167,0.023477926758642593,1,0,0.9887757379625696,-0.019639234710388236,-0.13709311679367492,0.02801097638696036,0.012891101224383963,0.0022916515107533936
225,0.9995422892407041,0.024804937899025388,1,0,0.9896654542830692,-0.01689846479566396,-0.13979478903240075,0.022668951708224628,0.014044458039654813,0.002597204305778043
226,0.9997492984977302,0.02595403153994882,1,0,0.9917131673248794,-0.016856959446851963,-0.13490390853858616,0.02494726796115412,-0.009589792841593245,0.0014398400698780876
227,0.9998890098511314,0.026853737902030397,1,0,0.9939895922479064,-0.014021100939581883,-0.14196146052084604,0.030457479818819088,0.0032217660002262756,0.0006147282336932719
228,0.9999191811238419,0.027505458505028675,1,0,0.9908247442568074,-0.013098275118854022,-0.1357246795782299,0.03202667772942575,-0.0039314470681237335,0.0023809163574562827
229,0.9998062223590852,0.02798101900606245,1,0,0.9913466674183005,-0.012069573345839678,-0.14062433879035102,0.025509848181712973,-0.0021491932582454803,0.0027607217065922737
230,0.9995307774897845,0.02841014399472401,1,0,0.9910980535753147,-0.015578269929072732,-0.13977571978526687,0.02959428091443049,-0.0015500079142610123,0.001966260050474522
231,0.9990904211372513,0.028959849934466785,1,0,0.9902749493934963,-0.016833398763434544,-0.13648211388796336,0.02830988428580319,0.00017289777898000467,0.0033096849228297833
232,0.9984996016205951,0.02980863290699477,1,0,0.9861308971863209,-0.015333629396915726,-0.13728329546931672,0.027144970635068346,-0.0025067578378969385,0.0011019893760507618
233,0.9977875397011855,0.03111879939073024,1,0,0.9862111850921378,-0.016621545737079666,-0.13313506035250733,0.030547272946386653,-0.00633864183887061,0.0004048075677992166
234,0.9969950975075775,0.033010351029209045,1,0,0.9865645310735065,-0.017046117674899827,-0.1348978690574987,0.03024803455322394,-0.011348591181398924,0.0007000149757199782
235,0.9961715429644854,0.03553961176959506,1,0,0.9867054660583623,-0.01699727791389959,-0.1364924295403534,0.028442522520926532,-0.016667468006446733,0.0014193660531534825
236,0.9953716681687138,0.03868539525725095,1,0,0.9883933188899026,-0.017624654806295263,-0.1363275795274011,0.0291034525636861,-0.009040818890852518,0.0015013370813955795
237,0.9946531360472454,0.04234495006259322,1,0,0.9871338051026847,-0.01706926796634024,-0.13287179922999445,0.03415717303008283,-0.01835674701580855,-1.785720832062682e-05
238,0.9940735823269573,0.046341006814040464,1,0,0.9853676160635073,-0.021283092310615582,-0.13810315169683635,0.03665430257975664,-0.021217118576923474,-0.0013899127396330413
239,0.9936870783194711,0.05043980126667691,1,0,0.9831861648691342,-0.018844386616355607,-0.131292084299549,0.04238295247143907,-0.022818042368180195,-0.00032913899509188344
240,0.9935399665799676,0.054378089321132694,1,0,0.9827332943587003,-0.014512695490936735,-0.1361869265401899,0.043120845722214994,-0.04148366868336075,0.002635915466201787
241,0.9936665200219663,0.05789536991488113,1,0,0.9853257568063213,-0.014475908771083344,-0.13454779047201937,0.041436176124158175,-0.04043873703350294,-0.0002858278813133159
242,0.9940850761648372,0.06076631452955718,1,0,0.9815865679651622,-0.0174595490302748,-0.13268113194267714,0.03291697676090772,-0.05999067667378281,-0.0017575608495588406
243,0.9947951998586971,0.0628281204001386,1,0,0.9873028753733978,-0.016584834876592257,-0.14362375255588694,0.03944201603820394,-0.07292570668557877,-0.0014345549214602753
244,0.9957761612076448,0.06399834483749528,1,0,0.9888798448533047,-0.015179982555846336,-0.13476192764010944,0.03627332827310107,-0.04485672698231325,-0.0033315021225826615
245,0.9969867824035658,0.06428078439255629,1,0,0.9852133160745978,-0.015520520296191415,-0.13973924634574583,0.03434218760585033,-0.04320595252661616,-0.00893494349029001
246,0.9983666766245792,0.06375969056574872,1,0,0.9861732081766184,-0.012486462469976825,-0.13724720537119542,0.038947583814457065,-0.051734608839563406,-0.0067171027813838205
247,0.9998390662910527,0.06258490562692069,1,0,0.9877814704209473,-0.008297627961970791,-0.14074857831809034,0.040688034368140856,-0.04708087320664773,-0.005697973007819156
248,1.0013154680571348,0.06095134364678948,1,0,0.9918141585272241,-0.010197772885694721,-0.14690704462536214,0.03297726512236822,-0.05231536672498804,-0.001733544775217523
249,1.0027023066336889,0.05907583079495099,1,0,0.9899539881048333,-0.017244033735993786,-0.15007020903445573,0.02767564163484486,-0.047141957030816285,-0.0011540962029213484
250,1.003909023056682,0.05717362281937598,1,0,0.9914878164932138,-0.021156929125167145,-0.15259832111388777,0.036919716318302466,-0.04135754893157214,-0.0019805766585100854
251,1.0048567569068485,0.05543642714110264,1,0,0.9970792902265931,-0.02354726519887242,-0.15144635997961245,0.041424486075481284,-0.0388187488731212,-0.002737569215202865
252,1.0054864057919104,0.054013313339413546,1,0,0.9954109564159106,-0.020413527020948043,-0.1511747935332233,0.04571057115376266,-0.039907640126482444,0.00086777384120171
253,1.0057648631974905,0.05299544435199077,1,0,0.9924962067490051,-0.014822766683733078,-0.1558950969859155,0.04692921448392262,-0.02890790852097823,0.0003605173373201031
254,1.0056885252324441,0.05240545442925104,1,0,0.9927374816477527,-0.01488320697563173,-0.15307317079748808,0.045422494454592566,-0.017338416286081147,2.899065309733002e-05
255,1.0052836344725053,0.05219279412415647,1,0,0.9971733269085342,-0.012753991471115356,-0.15300442583739293,0.04324276824060982,-0.009379103349491238,-0.001152952837102666
256,1.004603468456663,0.05223706706581993,1,0,0.9962079758668153,-0.01591085032203752,-0.15086756765608897,0.0397772574633158,0.0076607334528355124,-0.005146449960757846
257,1.0037227040251084,0.052361405627389924,1,0,0.9900824964043077,-0.018661102034875605,-0.15196312434526388,0.03882378774313428,0.024916336470172436,-0.008027953410096721
258,1.0027296593286532,0.05235660490430457,1,0,0.9860065873763373,-0.02044294970846518,-0.15008886964109738,0.047586876857893916,0.019992633229752657,-0.009988711389382288
259,1.001717569712146,0.05201420912147364,1,0,0.9883980102830644,-0.02142158745960731,-0.15176341153276995,0.051462739394885874,0.01911910007988427,-0.013651020024921804
260,1.0007762654758412,0.05116396428759771,1,0,0.9876160266275986,-0.022746515168872532,-0.15615237588428432,0.05415738212838931,0.009563489601350523,-0.017554332799165216
261,0.999985269968449,0.049709165241973684,1,0,0.9901133066074038,-0.019200525641746298,-0.15662987522583974,0.05657230406411532,-0.005246623220228225,-0.013473062374006192
262,0.9994085865487629,0.04765313503399496,1,0,0.991509706534055,-0.015349140318281404,-0.15768563902980803,0.05358533608809663,-0.007653110931678086,-0.010056841934927398
263,0.9990908382827194,0.045111392639744376,1,0,0.9857119496162662,-0.016635466622935607,-0.14907977235855935,0.04924558066616521,-0.0034830515408938423,-0.007157308093092167
264,0.99905437953462,0.042306519915011415,1,0,0.9850015160616744,-0.017068178128964443,-0.15179281617955126,0.04471339707974047,-0.007898586526421206,-0.0038785178008192488
265,0.9992974374106807,0.03954567648103736,1,0,0.9882796096469065,-0.015770488631841138,-0.14961149997025097,0.04130220439608949,-0.0026401528071793388,-0.0031469290227015196
266,0.9997938043482214,0.037183510570270965,1,0,0.987391690634289,-0.013374214292648786,-0.15169413886138505,0.034282793679729535,-0.00010109826856556834,-0.0029046187961646085
267,1.0004947097298673,0.0355754329328534,1,0,0.986099295705306,-0.013042555532620964,-0.15094389183182183,0.03657857645585482,0.003499256617478319,-0.0019343041976394146
268,1.0013332412070026,0.03502765097108328,1,0,0.9873952606586738,-0.012999778468981489,-0.15110277298299618,0.0293331866052596,0.004717164705038593,-0.0004107874176263831
269,1.0022312334895307,0.03575096717518542,1,0,0.9889817214423857,-0.017953480737557998,-0.15624246295823888,0.022971897601676654,0.00701720857962405,0.0026183706903112848
270,1.0031079570348564,0.0378251221418625,1,0,0.9939011844661005,-0.017487025733760275,-0.15387709519029252,0.01876864329126892,0.02445858655031155,0.003392653434873036
271,1.0038892797847954,0.04117929401391291,1,0,0.9970205067586639,-0.01751554753198914,-0.15534775669218004,0.003951822209809541,0.03508575322587596,0.005397626861726141
272,1.0045155108212478,0.045592168448986586,1,0,0.9971181706259407,-0.015358350398016666,-0.14887473517330613,-0.015688346278371946,0.03423119018498425,0.00549379330346225
273,1.004946239585224,0.05071203364913141,1,0,0.9930546890739007,-0.016489370783770427,-0.1464156062869447,-0.028197766069757713,0.042869727565736114,0.01036714369783122
274,1.0051612779216723,0.0560942531738349,1,0,0.9921731740672795,-0.018782275485246774,-0.14677303752688586,-0.0341903179251057,0.04445199906046009,0.016369114787937688
275,1.005157952435752,0.06125086244112945,1,0,0.9948259241601412,-0.02176492394417785,-0.1454039834592458,-0.0314110139001405,0.04992818411708031,0.018162172070038715
276,1.0049459076544247,0.06570535871274276,1,0,0.9941929524436358,-0.02173949088564527,-0.14345621957414745,-0.03512248261088721,0.0595732510126771,0.01821468982293234
277,1.0045409420691787,0.06904518392287518,1,0,0.9920066104998482,-0.022346051440011633,-0.13965322517561884,-0.03416523103620424,0.06988335681461687,0.020480261591708744
278,1.0039593106223061,0.07096489567258818,1,0,0.990792026756595,-0.018808723610876165,-0.1374044490924586,-0.026050832033477314,0.07366720083801159,0.020753404509809215
279,1.0032136098981657,0.07129453336621729,1,0,0.9965769668155274,-0.016238028591723165,-0.13316428076124026,-0.02841420790035195,0.056804768766008505,0.02085576583290273
280,1.0023108945382955,0.0700101335010666,1,0,0.9957758629849162,-0.01582874137863606,-0.13436185468095146,-0.0367753383700527,0.07266705267594446,0.014712471015328226
281,1.001253141109723,0.06722629232572108,1,0,0.9906598818136982,-0.01916447620581462,-0.12641266247298932,-0.037630285917067074,0.04411401778933186,0.011216191405010232
282,1.0000398135156374,0.06317338552508216,1,0,0.988928271791464,-0.020731407933045447,-0.1311883243955178,-0.03760909698815292,0.05599054592155159,0.009503933815749753
283,0.9986722080846099,0.05816403385103777,1,0,0.9873554719407928,-0.0179208326970222,-0.13428359892768607,-0.02710924190994949,0.04625362688960075,0.003220369361129223
284,0.9971592328831795,0.05255454205429407,1,0,0.9903400590434192,-0.02094799775266761,-0.13446680815666084,-0.030881963009312233,0.02324018031321708,-0.005690264782375203
285,0.9955240186648959,0.046707288954191906,1,0,0.9854399631860831,-0.020494461388290534,-0.147073942329469,-0.01777735899838849,0.031830654412350216,-0.00691170845979299
286,0.9938103390560356,0.04095920028746752,1,0,0.9845337715490574,-0.017597755338626984,-0.12806621645754665,-0.004253304764688633,0.04103179607647793,-0.009867779113398825
287,0.992087555116511,0.03559938873904784,1,0,0.9848481535890706,-0.017269272417562966,-0.12953237217777627,-0.007616830164381282,0.04438240832093766,-0.01262448375221042
288,0.9904528447221449,0.030856392371676027,1,0,0.9815382208498541,-0.01356406874081906,-0.13183213657053888,0.009836503287531289,0.029689418151391013,-0.010734842806152127
289,0.9890297022461818,0.0268934978297215,1,0,0.9824963525774875,-0.01142771787475861,-0.12585359032504284,0.009709858946011889,0.022875308586197914,-0.009149808625666157
290,0.9879619501989378,0.023810348606615968,1,0,0.9842692606528527,-0.013146754855528077,-0.12645030175323882,0.0065548474353109955,0.01822897616317868,-0.007080574224647123
291,0.9874028210580309,0.021650022989150728,1,0,0.9826854186836329,-0.01325284202976188,-0.12447152653749222,0.011585487554947172,0.0059804442539971945,-0.005171341219873645
292,0.9874992044304739,0.020411731132288325,1,0,0.9815040566771023,-0.010293572000302028,-0.12804640197925604,0.012358699973053734,0.0037368618146145457,-0.002823162443099348
293,0.9883720322429801,0.02006920103178144,1,0,0.9776638863714001,-0.011273844262223113,-0.1296903613596881,0.010836269800845488,-0.008568262740173069,-0.0036216316825773524
294,0.9900948997211527,0.02059348276503048,1,0,0.9811968950065842,-0.013672652208755859,-0.13106823085021624,0.006042577484554447,-0.022876290683608587,-0.005097507875484468
295,0.9926740622131569,0.021976753154282002,1,0,0.9822619745187781,-0.018786972342481483,-0.1319571772177723,0.009039564326138705,-0.026604295683181605,-0.0031527380546470004
296,0.996033558981137,0.024251626425505258,1,0,0.9814022952538929,-0.017801321523130954,-0.1283341210890021,0.014860768039983414,-0.029559040654370424,-0.005448485309364237
297,1.0000092352325223,0.027499472509448432,1,0,0.981524595027293,-0.015247982815950278,-0.1260108993681166,0.022802969458044473,-0.04376155323901072,-0.005801146751586712
298,1.0043547914556992,0.03184208358667276,1,0,0.9873532780073564,-0.01377901135293688,-0.135075227362692,0.02406208967941474,-0.05154849274371394,-0.0075288708925076685
299,1.0087615207033478,0.0374141175813914,1,0,0.9924985055176544,-0.016315884524654514,-0.14971482917343032,0.011281310577774255,-0.03482668002411643,-0.008674574429853301
300,1.0128910049352362,0.044318980032078646,1,0,0.9963533153485112,-0.011565889231992492,-0.14201142488171625,0.012117390129915634,-0.014809707215254259,-0.003605187247173776
301,1.0164170190655322,0.052576949602007705,1,0,1.0075690586868682,-0.007262282059652614,-0.15526132463118272,-0.030339988551310475,-0.035643996753584616,0.0028247443141955
302,1.0190698911597666,0.062078891322584526,1,0,1.0239195071416147,-0.01131415640760787,-0.16376005711892086,-0.03261238277040928,0.006011836725778761,0.013806751857984549
303,1.0206744247241035,0.0725595594270308,1,0,1.033002263011291,-0.01569739913098975,-0.13482185120322687,-0.004884726270359796,0.057828205363680926,0.018366537328561132
304,1.0211722159548104,0.08360098077630113,1,0,1.0402341505797692,-0.019822472907164088,-0.13443842614005128,0.00021172157438428298,0.038250615154451835,0.03418075189615248
305,1.0206217594191136,0.09467007302852486,1,0,1.0047515880340228,-0.021867384216087155,-0.12698584879506475,0.020828059447516582,0.07632728891099616,0.03916941515401754
306,1.019175166480395,0.10518687575914493,1,0,0.9991264992855777,-0.024709134640718576,-0.13279191252518874,0.05461626138301655,0.06861720476218366,0.04503062860628488
307,1.0170369435941253,0.11461164317007212,1,0,1.0058376857594504,-0.017568980989449333,-0.13560376166885274,0.07641432988820546,0.1293023725067683,0.05435358812562573
308,1.0144153660554962,0.12253230361060904,1,0,1.0007369789108345,-0.0033927980659500946,-0.10297540257004908,0.03370044464977776,0.16322508411471473,0.059320889099294255
309,1.0114787729866515,0.12873125910173297,1,0,0.9952425716513884,0.0012697450726325131,-0.09758864868532816,-0.011650591095356615,0.14144531403229169,0.06099462754028141
310,1.008327898895121,0.13321473394940714,1,0,0.9746073091440237,-0.0027273299196183777,-0.1023052439691333,-0.03904865735661428,0.12359703265269742,0.04705812913978852
311,1.0049922544926573,0.13619862395443438,1,0,0.966909884730981,-0.008765573728337896,-0.10658385659676445,-0.04355354829211114,0.10217714054841634,0.04455163577670352
312,1.0014537756555852,0.1380579105690432,1,0,0.9909998869215675,-0.0167955544816158,-0.11211083364433928,-0.02625277623682976,0.09701712880217488,0.04708909913532035
313,0.997694071620422,0.13925652604693275,1,0,1.0067360698399836,-0.014710909504190831,-0.11173148989281968,-0.0297412851443672,0.09170081722174875,0.04462810716957581
314,0.993753461018213,0.14027752250463937,1,0,1.0242334253490533,-0.011482390278666276,-0.11137619075996186,-0.05455980782429471,0.11269731282504133,0.045940686964893195
315,0.9897835017994325,0.14156957303450085,1,0,1.022050526122848,-0.02556620666140377,-0.08312291817126995,-0.07281725626234652,0.12365471155331025,0.042114316521738644
316,0.9860733781385264,0.14351805542743776,1,0,1.0218217804022596,-0.02690115669958294,-0.0857493213064478,-0.06466561816142548,0.09212497084780792,0.026012332082929177
317,0.9830359254578415,0.14644091263676867,1,0,0.9856163380647772,-0.021756086150316902,-0.08910036446096853,-0.04802099020331588,0.15671425062442546,0.0263464507254231
318,0.9811499334624668,0.15060349855619332,1,0,0.9692350219262597,-0.0052640434424989155,-0.0773476599641654,-0.055942440356714807,0.11881109613906136,0.033216844669061156
319,0.9808680941003273,0.1562429155169816,1,0,0.9615097312800234,0.007800083449021238,-0.07346458626199015,-0.09779340317361337,0.13606381236068535,0.036419958784911444
320,0.982510326674561,0.16359027582312716,1,0,0.9524806469114032,-0.0022807560397436802,-0.0654013423618085,-0.15146994348309764,0.09790955022823873,0.037860430115342986
321,0.9861671357282145,0.17287881579932804,1,0,0.9532394572557253,-0.013629805561177565,-0.0764436032401774,-0.18306253041095283,0.08472042147087602,0.031814098698161576
322,0.9916362576511745,0.18432761205787626,1,0,0.9285709145355687,-0.025834843550392193,-0.09344092313506754,-0.19150347075228058,0.12793566536834594,0.017332289469404155
323,0.9984088751560061,0.19809585261988485,1,0,0.9737147545771497,-0.03410373201807055,-0.09382214441828671,-0.17365830975311458,0.10631757735057368,-0.029728611713366212
324,1.0057104353003097,0.21421156406691225,1,0,1.0581946780614038,-0.057851712648062055,-0.10342789920878548,-0.1479982693040217,0.10314164398865744,-0.057865026140144625
325,1.0125880610486744,0.23248968214931892,1,0,1.0560092240153656,-0.05132375989698123,-0.11706626671083371,-0.026508034779692134,0.1866177443908391,-0.03848205521101309
326,1.0180265712946848,0.2524632881222072,1,0,1.0019465922010768,-0.018648522867530208,-0.1253941634700381,0.08739878305878762,0.20954734306703884,-0.005992008911744757
327,1.0210732789215118,0.2733543825724961,1,0,0.9746411079186357,-0.023520351260923698,-0.14008807830428674,0.1458177520768846,0.18126761789912577,0.010140981030282313
328,1.02095783785922,0.29410520062353696,1,0,0.989875413272931,-0.042159788331434966,-0.15928476221413296,0.17897343182676287,0.1577204294937408,0.01308724945724035
329,1.0172008494629692,0.3134795240134288,1,0,1.0014260735391498,-0.03982977637822478,-0.1801142013865844,0.2174527940470133,0.20171689683673233,0.017606510462347985
330,1.0097071095091283,0.33022848677309513,1,0,1.0000161212080831,-0.009286550507172964,-0.17282388525749914,0.27632358745495966,0.2124029745335041,0.010818982626804684
331,0.9988358738561843,0.34329969059210597,1,0,0.9933818721064956,0.01470950457937252,-0.15296371332867126,0.30747682076998983,0.20397472050367094,-0.00214542113090673
332,0.985435738997851,0.3520555214162519,1,0,0.9956185272794333,0.014682988498391203,-0.14957657343379357,0.3090274620487674,0.18589796644647438,-0.014191390138002935
333,0.9708295506079964,0.3564599728400477,1,0,1.0040948639290639,0.007902013190607468,-0.14362360941949767,0.34140833650517655,0.18508318808881583,-0.011112717913891746
334,0.9567364684989738,0.357194149017092,1,0,0.9848796444476113,-0.0019511016930912957,-0.12977779317160446,0.37075285919985324,0.21116769883347122,-0.0015016373251045914
335,0.9451241501995367,0.3556675106606743,1,0,0.9617898878750404,0.00373090973484065,-0.1188218122227709,0.3889647057895402,0.21401776707624312,0.002937580041943483
336,0.9379939440611571,0.35390404995834823,1,0,0.943215179472029,0.014300589774270215,-0.11543952809198903,0.38289761322122,0.19796332960374138,-0.00064601869085418
337,0.937114750972507,0.3543011714620774,1,0,0.9210173030815135,0.01618336593171755,-0.10092427754043015,0.3523777171920418,0.15814248605803227,-0.007627928677719985
338,0.9437339395192684,0.35928438162994064,1,0,0.9277806207766102,0.025899567933041587,-0.11490570019785834,0.289882555209823,0.10955841867005939,-0.02820220826531818
339,0.9583032807373966,0.37090856394205635,1,0,0.9543695676832138,0.015546070967232239,-0.12011244807045464,0.21124813907083095,0.13362272903909964,-0.05625464360305
340,0.9802627941407738,0.39047755841437776,1,0,0.9754384459420898,0.0021218882953013764,-0.06504428523030373,0.1433846209924171,0.17897893057830208,-0.09982017609939392
341,1.007926283529879,0.41825818568180645,1,0,0.9362352055595791,-0.018319353277393438,-0.03827504985434965,0.012925121734583907,0.2983899059574062,-0.1770469900404126
342,1.0385101747031589,0.453348105548668,1,0,0.8391300211254293,-0.04431241203310614,0.005364435536870792,-0.0955022769938272,0.3522551060165606,-0.28244692940199495
343,1.0683397211742311,0.49372373250982016,1,0,0.8629103042071398,-0.059445055975373036,0.009106236473430921,-0.1218837320890794,0.2819224910970147,-0.3745233714936384
344,1.093246536444741,0.536457476734905,1,0,1.0465242530723933,-0.018937072670088557,-0.08266236488877324,-0.09744958314461408,0.381371858165056,-0.38405273951116425
345,1.1091326918856201,0.5780654461273658,1,0,1.2292959018294425,0.07821861744694761,-0.14623881597959185,-0.1133251121402996,0.544372572837958,-0.29756217401878066
