id,ASVM,GSVM,walking_nonwalking,normal_abnormal,ax,ay,az,gx,gy,gz
1,1.0163663525557187,0.1717869092491647,0,0,0.12500000509858109,1.0,-0.13183594805565613,-0.0983493,0.13927728,0.021685716
2,1.0146744455286403,0.16387857233781242,0,0,0.12305754352748458,0.9987374053537745,-0.13164170108722764,-0.09651999087273451,0.16125474300936068,0.02107485
3,1.0130037209205744,0.15570044979455747,0,0,0.12111508195638807,0.9974748107075491,-0.13144745411879916,-0.08403980010945274,0.1457925122248756,0.014070445527363184
4,1.0113733583342668,0.14703272770754006,0,0,0.11917262038529156,0.9962122160613236,-0.13125320715037067,-0.06353095312624453,0.12950537622062924,0.008245707896057348
5,1.0098044849509418,0.13777494972190388,0,0,0.11723015881419505,0.9949496214150981,-0.1310589601819422,-0.049988260244574576,0.11582187790217016,0.0030058230963141567
6,1.0083205410533136,0.1279820219185681,0,0,0.11528769724309852,0.9936870267688727,-0.13086471321351373,-0.0552777462379524,0.12950770520695862,0.0006001772458308232
7,1.0069467337224245,0.11787645898857181,0,0,0.11334523567200201,0.9924244321226471,-0.13067046624508524,-0.05953562171761658,0.12919879126943007,-0.005507282313471502
8,1.0057085686548504,0.10783401655500091,0,0,0.1114027741009055,0.9911618374764216,-0.13047621927665676,-0.053099936439794715,0.11639816656533754,-0.018325957
9,1.0046296661547163,0.09834194812523582,0,0,0.10946031252980899,0.9898992428301961,-0.13028197230822827,-0.033909002894263435,0.0931484030041975,-0.015262229315810524
10,1.0037292686312347,0.0899331436775015,0,0,0.10751785095871248,0.9886366481839707,-0.1300877253397998,-0.034204467429718874,0.07910888595381527,-0.011910952022088353
11,1.0030199853346995,0.0831052192655941,0,0,0.10557538938761597,0.9873740535377452,-0.12989347837137133,-0.02382923739128696,0.06171509092725816,-0.009164809133093522
12,1.0025063399321186,0.07823890416743177,0,0,0.10639125959697603,0.9879504933988271,-0.1262388954895999,-0.023552846110933615,0.05109241530493433,-0.008464614515353212
13,1.0021845432065903,0.07553231423912367,0,0,0.1073673587924191,0.9886337611029428,-0.12238330483971663,-0.03033251839076558,0.008444665817909338,-0.010998443348590846
14,1.0020436139011422,0.07496566370805108,0,0,0.10834345798786219,0.9893170288070584,-0.11852771418983335,-0.01801120027359809,-0.04484471405388149,-0.011929487253442415
15,1.0020676032282112,0.07630461862186394,0,0,0.10931955718330527,0.9900002965111739,-0.11467212353995007,-0.007338286312101874,-0.08611528144904466,-0.021681764344944288
16,1.0022383753536825,0.07914103647746133,0,0,0.11029565637874834,0.9906835642152896,-0.11081653289006681,0.008854616190687448,-0.10048880490007993,-0.019853608301358912
17,1.0025382541812784,0.08296025681045037,0,0,0.11127175557419143,0.9913668319194052,-0.10696094224018353,0.004880836472604099,-0.10779581209005776,-0.014071808897987668
18,1.0029518843435496,0.08721839340334576,0,0,0.1122478547696345,0.9920500996235209,-0.10310535159030025,-0.007811516361491198,-0.09623290175490778,-0.019023309774737245
19,1.0034668334785715,0.09141353422999991,0,0,0.11322395396507759,0.9927333673276365,-0.09924976094041697,0.012532167456194853,-0.09162103360966321,-0.019842342906575796
20,1.0040727291446454,0.09514017831646016,0,0,0.11420005316052066,0.9934166350317521,-0.0953941702905337,0.029372247467127348,-0.08431339019545903,-0.019210777048766038
21,1.004759025706804,0.09812313591672378,0,0,0.11517615235596375,0.9940999027358677,-0.09153857964065042,0.043979551947872966,-0.08489269767285793,-0.012222246089874196
22,1.005511789306555,0.10023240374598426,0,0,0.11615225155140682,0.9947831704399833,-0.08768298899076715,0.04638758850804692,-0.07144544843632031,-0.015277820972580963
23,1.0063101336321703,0.10148294708198123,0,0,0.11712835074684991,0.995466438144099,-0.08382739834088387,0.016525683543035668,-0.07514417742793791,-0.018002425371497686
24,1.0071231022589786,0.10202298134757509,0,0,0.118104449942293,0.9961497058482146,-0.0799718076910006,0.0165222705124279,-0.11296670573473855,-0.01161056992841519
25,1.0079078475096095,0.10211191378471787,0,0,0.11908054913773607,0.9968329735523302,-0.07611621704111732,0.011318977690201421,-0.13957648938447612,-0.002454519886625945
26,1.008609881489607,0.10208613209302635,0,0,0.12005664833317915,0.9975162412564459,-0.07226062639123404,0.02230505501568154,-0.1276821386690792,0.008557763325291514
27,1.0091659632071501,0.1023101055551399,0,0,0.12103274752862223,0.9981995089605614,-0.06840503574135076,0.03327894016526443,-0.10205084350360576,0.011915175960036058
28,1.0095098420866033,0.10311406751202334,0,0,0.12200884672406531,0.9988827766646771,-0.06454944509146748,0.02050628511510785,-0.08371875366306951,0.02807361582973625
29,1.009580627354006,0.10472694972909047,0,0,0.12298494591950838,0.9995660443687927,-0.060693854441584205,0.0067253747792648064,-0.069643032952457,0.03847181923212162
30,1.0093330424466798,0.10722019761307018,0,0,0.12396104511495147,1.0002493120729083,-0.05683826379170095,0.02473991839336301,-0.05742392974504257,0.03176511360744638
31,1.0087483273569438,0.11048047405879824,0,0,0.12493714431039454,1.0009325797770239,-0.05298267314181767,0.06016651479060338,0.0042685108718102304,0.008249402554070553
32,1.0078441667721247,0.11422523353407299,0,0,0.12445124261597673,1.000061978079495,-0.05419774125227643,0.07268509894278365,0.07242502122945935,-0.024752740645812652
33,1.0066818499147667,0.11806542825956597,0,0,0.12386470725620294,0.9990844191465388,-0.05576183717821835,0.07905572038286166,0.09089027439033011,-0.048760865852987466
34,1.0053689740276368,0.12160695914330096,0,0,0.12327817189642915,0.9981068602135824,-0.05732593310416028,0.06904532129862359,0.023563643515060885,-0.06596467235387991
35,1.0040563807314407,0.12457080852639008,0,0,0.12269163653665535,0.9971293012806262,-0.05889002903010221,0.08185520768497284,-0.09894450206397117,-0.06628053895835846
36,1.0029286032950224,0.12690412824766265,0,0,0.12210510117688156,0.9961517423476698,-0.06045412495604414,0.08948796004589168,-0.18814882593987983,-0.06016857335891779
37,1.00218784680076,0.12885229477377047,0,0,0.12151856581710777,0.9951741834147135,-0.06201822088198605,0.05773103451297407,-0.21135425896207582,-0.058965564096606866
38,1.0020323920082528,0.13096686387275266,0,0,0.12093203045733397,0.9941966244817572,-0.06358231680792799,0.04852076473893009,-0.13393261144259674,-0.06352184086215187
39,1.0026312692783133,0.13403876277510815,0,0,0.12034549509756018,0.9932190655488009,-0.06514641273386991,0.029634259552388617,-0.014584683726715978,-0.04886400889602568
40,1.004097998557402,0.13896782533439445,0,0,0.11975895973778639,0.9922415066158445,-0.06671050865981183,0.036944682758976416,0.10420717191033517,-0.027475606267208907
41,1.0064669648699163,0.14659972203761015,0,0,0.11917242437801259,0.9912639476828882,-0.06827460458575377,0.0558155601780088,0.12719572676061552,0.004495744321342631
42,1.0096763566059095,0.15756983918896442,0,0,0.1261508138351957,0.9938858975730908,-0.07693762582911462,0.06810638048204717,0.020663388038087153,0.02748130169807574
43,1.013561294193546,0.1721889481710679,0,0,0.13356271875556236,0.9967141208595877,-0.08600745797563053,0.05664837892638647,-0.10338246497533042,0.018656104301559118
44,1.0178597173403852,0.19039236564282358,0,0,0.14097462367592906,0.9995423441460846,-0.0950772901221465,0.06108236512615138,-0.19454419913896676,0.004280949793752507
45,1.0222319310896386,0.2117574358851784,0,0,0.14838652859629578,1.0023705674325813,-0.10414712226866245,0.047254190833464875,-0.24830370235595894,-0.01418007749368587
46,1.0262927647631381,0.23557730177063416,0,0,0.15579843351666248,1.0051987907190783,-0.1132169544151784,0.02232189310339387,-0.2550289981531176,-0.036720617262036376
47,1.029653373764211,0.26096731543940455,0,0,0.1632103384370292,1.0080270140055752,-0.12228678656169437,0.03274979937819386,-0.2658195726545738,-0.051389410485274026
48,1.0319679803089585,0.2869781262032946,0,0,0.1706222433573959,1.010855237292072,-0.13135661870821033,0.04473299749639516,-0.27123066450252337,-0.05939398114491706
49,1.032979427974371,0.3126949199709132,0,0,0.17803414827776257,1.013683460578569,-0.14042645085472624,0.07080814011380326,-0.30812037279642485,-0.04584546758510434
50,1.0325565235373815,0.33730998805094403,0,0,0.18544605319812926,1.0165116838650659,-0.14949628300124218,0.11396813042121808,-0.3529330916856581,-0.027877897910805503
51,1.030716106752845,0.36016199392778536,0,0,0.192857958118496,1.0193399071515628,-0.15856611514775815,0.10876731661274228,-0.4025506838026762,-0.029611896722188887
52,1.027624092819189,0.3807405990796892,0,0,0.1967704432338919,1.0169729764425723,-0.14809373264808998,0.05590351495652149,-0.3353834739855068,-0.03603883671980682
53,1.0235728030144182,0.39866199397587887,0,0,0.1768662335013419,1.0044623306042364,-0.1051295481241642,0.04765455776434502,-0.3665283963692124,-0.02043135172647435
54,1.018936699397103,0.41362905232314595,0,0,0.1442890038585981,0.9959361305562616,-0.07808269420387742,0.06345361319730311,-0.3847712105294468,-0.0036947476398175587
55,1.0141141339399335,0.4253950573292437,0,0,0.1214020165354063,0.9866363969653584,-0.07370481979879646,0.09745727788849354,-0.41305268899762754,-0.011402455558718883
56,1.0094669442232853,0.4337487186744668,0,0,0.11242396365280193,0.9846843977463887,-0.0796848945784696,0.13540157052893292,-0.433700703388347,-0.031141616725790393
57,1.0052708444300882,0.4385321371014344,0,0,0.10870538826527705,0.9797434720790964,-0.09031788373072279,0.1393211307278164,-0.3915508967597209,-0.060418105879362104
58,1.0016870789292525,0.43969731362854697,0,0,0.108398443913059,0.9801314626390915,-0.09277344047151678,0.12671263453317663,-0.38175340831865323,-0.09307516654726956
59,0.9987607075936655,0.4374033002981656,0,0,0.11632108463517786,0.9812610441608044,-0.09594249593309001,0.09263490549700623,-0.3622173119161676,-0.13157269191716547
60,0.9964447705313532,0.4321531604206592,0,0,0.1270017697546037,0.9829869238195609,-0.10818890910935343,0.08520166836435644,-0.27820328686732676,-0.177849727580198
61,0.9946438547867807,0.4249633049173524,0,0,0.15402399265563815,0.9898717986374217,-0.11174101609982996,0.06018567943452386,-0.26108399523809506,-0.2543599301488093
62,0.9932663526713834,0.41754443048476336,0,0,0.15828466325873164,0.9950900353985856,-0.08713151763270331,0.07579114073579266,-0.34401360164107686,-0.27432332520438685
63,0.9922728623120661,0.4124539479246404,0,0,0.15322516595248667,0.9933627662262157,-0.0797843219784288,0.07583354352598896,-0.40499016312257563,-0.3421551665709855
64,0.9917093192318914,0.41316096999611857,0,0,0.15644399182569732,0.9887706809104005,-0.07802800342479571,0.014377753358464107,-0.4172313397095682,-0.3616223871295008
65,0.9917174127787163,0.42395782494546125,0,0,0.16088556649044095,0.9805986395396281,-0.08050148796802634,-0.011935305367044487,-0.4154586799825633,-0.38355732059285086
66,0.9925205352676552,0.4496661667514574,0,0,0.1584453254330908,0.9667188264666359,-0.07788281076017407,-0.0005995596843284512,-0.40439022714029854,-0.38851540573134324
67,0.9943892251606842,0.49512195038411166,0,0,0.16966940182325915,0.965905776130324,-0.08228747258543999,0.011831246505944975,-0.43860670765755055,-0.3754104755053509
68,0.9975941223018444,0.5644737784724225,0,0,0.18189182865933526,0.9744697122206417,-0.09801893415893409,-0.054683404878340724,-0.4388938776485839,-0.4117280432848026
69,1.0023558939833788,0.6603819235749779,0,0,0.18521050760906577,0.9823730654425542,-0.09797634892875981,-0.1358860793086925,-0.36703840352647277,-0.44914491871728324
70,1.0088007251521476,0.7832502996350321,0,0,0.1948370262182163,0.9887311431241578,-0.10203798206697795,-0.2551540632046889,-0.24244899950292848,-0.4895571522529807
71,1.016928191832663,0.9306514433472136,0,0,0.18849040797066158,0.9757923660876403,-0.10776543240824399,-0.3864499904679668,-0.08759910662984391,-0.4695068674794132
72,1.0265968750247407,1.0971049057130522,0,0,0.16224769695115657,0.973893276560184,-0.11918133182663015,-0.605549965601126,0.07927671170607177,-0.36170450462203446
73,1.0375316313303204,1.274331989648256,0,0,0.13742814026331446,1.0043162664186907,-0.12047188688172486,-0.8434491119795818,0.3250901751361076,-0.17138522980584553
74,1.0493534293231843,1.452029267922774,0,0,0.12117488001473056,1.0493304526283405,-0.11015500565641399,-1.040000106939256,0.7545511096717106,0.11277170526007413
75,1.061627256692733,1.6190869013298748,0,0,0.1175423855487076,1.0750886462675622,-0.11195849023457709,-1.4010583424043035,1.0649848109449742,0.2770831158193775
76,1.0739175828839775,1.7650500740131698,0,0,0.15566444264348564,1.0854112692682742,-0.10857002861451173,-1.8756184397232385,1.4025236024420018,0.35368302407814384
77,1.0858377931907783,1.8815239369528736,0,0,0.19844061938155297,1.075808489614401,-0.12952160752504938,-2.0539322499819495,1.5073773067509026,0.48851196956317655
78,1.0970822227929904,1.9632003576405161,0,0,0.21439168413263973,1.0696529500380554,-0.10376016545874986,-1.9755806197941408,1.2850998895486923,0.5324046488598574
79,1.1074360027091672,2.0082662154554867,0,0,0.21783773892635108,1.0773413742028424,-0.07623616396667084,-1.864147374865241,0.8793131539029703,0.5207760149530842
80,1.1167655771297589,2.018122808962221,0,0,0.21710692038842097,1.0690259820960162,-0.06123097312572463,-1.6453780328855014,0.26973589105674434,0.5586345963705636
81,1.1249980250802736,1.9965435050524243,0,0,0.24893469089663867,1.0510120895394837,-0.05275212307919297,-1.2974395438438426,-0.42603190548948816,0.6384158368408426
82,1.1320980975980715,1.9485452092726165,0,0,0.27635706764110385,1.0868014094177596,-0.03161984183076476,-1.2613595923061505,-0.41065539822881086,0.8125847906271297
83,1.1380476703556899,1.8792963309235184,0,0,0.2780708935214623,1.1354515163728134,0.0023617835892194724,-1.2513705631284913,-0.1458654154110089,0.9425192728651249
84,1.1428247350756053,1.7933249759612335,0,0,0.2632366578575574,1.165944909198526,0.0018531652849908492,-1.110713026303982,0.5911191855973089,1.0223696126752664
85,1.14637245178736,1.6941630531800338,0,0,0.25676333958065206,1.203448172000065,-0.026004189375436786,-0.952040102521144,1.1563088554571066,0.9318871079581156
86,1.1485488589655573,1.584418314614481,0,0,0.24912355461861876,1.170222263459197,-0.06550292311333046,-0.8631666071025799,1.3878767610077982,0.7895579878324339
87,1.1490580436072677,1.4661529163327451,0,0,0.16871713386488957,1.0840310084039126,-0.015674689657320235,-0.6624093762395383,1.3948554715225192,0.668270673583101
88,1.1473816764942986,1.3413908069929876,0,0,0.09177882905658717,1.0165620725990911,-0.0074798376092811165,-0.4899363982924838,1.26147943314951,0.6343904222753268
89,1.1427469522002947,1.2125819751917484,0,0,-0.0014494057257956228,1.007274843235892,-0.00593763185057083,-0.3171656011389605,1.0049618674313203,0.6086595847042308
90,1.1341710141759596,1.082902170375275,0,0,-0.13475066240420305,1.0512284922497854,-0.005638236218436083,-0.2473800051760494,0.8873983629202313,0.5711538962800875
91,1.1206052474408388,0.9563319066945275,0,0,-0.16638015644225965,1.098457301181311,0.015478723941009593,-0.1796266242227563,0.9370010321294094,0.5157410044931885
92,1.1011689469213817,0.8375131670483305,0,0,-0.1424053345653712,1.1641648040669756,0.09389805677269038,-0.2577878385783133,0.8693349535220877,0.3989368282730923
93,1.075424642180828,0.7314201369514305,0,0,-0.04168570689502253,1.2133582355847254,0.04650861465520266,-0.185896034400398,0.4944639671195186,0.32343348062549737
94,1.0436230292407156,0.642909872505365,0,0,0.06066734144967978,1.1707250561975298,0.02748795799119533,-0.07714154418014345,0.01523030366132685,0.36116257020816717
95,1.0068446907969293,0.5762428767438292,0,0,0.15671630108610438,1.0778517752307648,-0.06275067261934164,-0.038620208517851,-0.09237976398485483,0.44369050291381246
96,0.9669895957164999,0.534669211941966,0,0,0.18373127630718283,0.9700460913516873,-0.07791523716756582,-0.08012471835243037,0.002215744167839186,0.5341459470327931
97,0.9266051902951319,0.5201506365294742,0,0,0.15466060009781457,0.8601025008722601,-0.03172182293670246,-0.16700539865930608,0.08880200526025202,0.4706836033753943
98,0.8885853999568312,0.5332421641098911,0,0,0.10890152573500712,0.7949106288348087,0.05579088678657762,-0.078920028010846,0.2468662972431473,0.4449275227529087
99,0.8558021783790655,0.5731114115667842,0,0,0.06999464770147866,0.7780812757473035,0.0878702648514578,0.047695108193548226,0.5379013106720426,0.41216655430107524
100,0.830740476652158,0.6376479002971843,0,0,0.032312844255009965,0.7746553381395439,0.11098911647921454,0.11237125207128405,0.7446296496559479,0.4752116068877896
101,0.8151972039007143,0.7236105002293098,0,0,-0.028914336830199578,0.7927828643067695,0.13752008601436158,0.21770391229361483,0.5290168794753985,0.5310293004066686
102,0.8100825601112702,0.8267791640243044,0,0,-0.13274429851743463,0.8118089870995131,0.1165062387596906,0.3541532563243234,0.23272095349549676,0.5338697841441442
103,0.815338312385738,0.942112753164471,0,0,-0.10965604327293164,0.784480222947002,0.1044727210001349,0.44041121447484904,0.26741445477263937,0.4951119338350101
104,0.8299698075067458,1.0639502335848225,0,0,-0.014780628608296273,0.7643858890829033,0.18098331306538876,0.5161084805856414,0.6539504676293644,0.4724515781307658
105,0.8521785024170822,1.18630237809382,0,0,0.06430800866823509,0.7882031157724322,0.2735111308301902,0.8388348026527359,0.7667326042604489,0.3907450540594842
106,0.8795759357037516,1.3032552436353615,0,0,0.13049592892890058,0.8492556534287071,0.2804648703842001,1.1308485032030617,0.3753661116216775,0.18944138597703516
107,0.9094541133590182,1.4094596173043745,0,0,0.15275022810799282,0.8985117521738257,0.27429263143876964,1.1861847017585476,-0.04719082048844523,0.05167556743647553
108,0.9390813490841674,1.5006336242610965,0,0,0.16983735963953606,0.9016983628724368,0.30226799095970536,1.7224540410532607,-0.6466673735188504,0.14326325388390174
109,0.9659906780429143,1.5739701705138163,0,0,0.20961470569126142,0.8805556680032389,0.3547893676682492,2.1785670530734045,-1.2498415142033072,0.12990364317087646
110,0.9882325393859056,1.6283306332398546,0,0,0.2531508153126747,0.8120043531335508,0.3934865210390049,1.0266671503619933,-1.5168719201930734,-0.008511815565570489
111,1.004571756476917,1.664150399274736,0,0,0.32127967082129805,0.8012052760694917,0.4221942489055547,-1.084137076619208,-0.3120400217766205,0.07016915055524356
112,1.014614741229635,1.683090929494386,0,0,0.3850517345316968,0.8479826001151992,0.4582175579724486,-0.6086171138381047,-0.06749741611488261,-0.3688573308094122
113,1.0188520234147331,1.6875895229123052,0,0,0.44148506343494526,0.9298493864845447,0.4742590168278052,0.1274564655857056,-0.7745662917022711,-0.913437412467792
114,1.0185962286212822,1.6804836031885655,0,0,0.3904001884002033,0.9850758031160691,0.48064441549438486,1.1175602745968594,-1.8420881797929525,-1.1870721233923944
115,1.0157961954830717,1.6647847509712415,0,0,0.34618994944622156,0.9930113050283863,0.466845841569071,1.4278531761388256,-1.5349121969631168,-1.0239300876355732
116,1.0127244512844837,1.6435303667620733,0,0,0.334933295996746,0.878519382070881,0.4804371821890957,1.142744525510612,-1.0211178688986757,-0.48878719081697514
117,1.0115700135779782,1.6195736431810186,0,0,0.28679738504152374,0.7106689591418714,0.46675229760441417,1.2002253664412152,-1.1056067970558834,0.08802371554704431
118,1.0140112448637693,1.5952308420815047,0,0,0.2094113975054591,0.6022075684593428,0.39184539992774076,1.265654189633054,-1.5031032998395926,-0.03625008437537175
119,1.020874342399175,1.571826869856585,0,0,0.11150162008960983,0.5929093890083066,0.16985272238537852,0.693917054251619,-0.8406479625611494,-0.22904129595969375
120,1.0319799859606524,1.5492831614211193,0,0,-0.06648213470911234,0.6883022957019738,0.17385586673093786,0.5467415713066002,-0.5267240377321568,-0.2933136980986179
121,1.046230286355638,1.525936095636923,0,0,-0.10220729397380988,1.285916441609511,0.24837115548800573,0.7521434317615763,-0.8190302161162569,-0.4247882303527093
122,1.0618993247551598,1.4987441179088372,0,0,0.0630687156772403,1.8002959565838774,0.22247020039690824,0.6505692440850893,-1.1823471464053599,-0.41691024591097026
123,1.0770044972975892,1.463933856485984,0,0,-0.04688512365259425,1.5168977583441468,0.09415974409829125,0.6601880431251249,-1.570269542366794,-0.3489320600798243
124,1.0896123641527196,1.417985913463101,0,0,-0.3392468255768818,0.6930662271247967,0.0013913355986490095,0.752619074814667,-1.60651345636145,-0.226742684031256
125,1.0980011935331622,1.3587408220816475,0,0,-0.2167111398867494,0.43134945841886124,-0.19369951888316625,0.7145145860068964,-1.301581539484894,-0.26886873587507537
126,1.100718608610298,1.2863675165591602,0,0,0.09375184548459232,0.5512277554226895,-0.44828674852011097,0.5654860374675454,-1.0774103528659875,-0.40627889535849804
127,1.0966441694831257,1.2039784467651222,0,0,0.339772331711878,1.0049408815897705,-0.35890510513213014,0.6785718708688809,-1.1212444808138393,-0.5934917128169832
128,1.0851369568253224,1.117756027168821,0,0,0.47786483155370757,1.4678954618675382,-0.11647784582206529,0.8179184902839429,-0.8158560330633905,-0.7500459415296932
129,1.0662493899533763,1.0365367237319125,0,0,0.3057061834576387,1.365190079046109,-0.02203485842663468,0.634177136719219,-0.44147087677310076,-0.9128979933246851
130,1.0409061930502594,0.9708735014726804,0,0,0.020412709104560084,1.0104998702851313,-0.05762024241216727,0.36224097472365774,-0.37600249765805377,-0.9343124092326035
131,1.0109418435893227,0.9316737223947561,0,0,0.0605658052338314,0.9579699360454936,-0.1336968512758485,0.32039075132904526,-0.5604712745980721,-0.7708545835655567
132,0.9789520102753627,0.9285884562586273,0,0,0.031596389726824006,0.9070656747371606,-0.07415848321545068,0.15778300747595764,-0.4979955119764484,-0.6217295819038281
133,0.9479896707458464,0.9683970130753883,0,0,0.05103871760015334,0.907050765162299,0.0074325366975110645,0.007622355552724756,-0.41900772459177676,-0.37364348214833704
134,0.9211800504523692,1.0536693532901658,0,0,0.07452569330372437,0.8561257097571746,-0.038994061786744465,0.03250956323732531,-0.545353912951272,-0.11562790538370517
135,0.9013339136371677,1.1819805024497672,0,0,0.11413039279991653,0.8571642615145288,-0.08630378921229162,-0.23709327018529955,-0.6283573063327222,-0.1497761747648141
136,0.8906229750513548,1.3458796568636462,0,0,0.179631039803101,0.8459063306927141,-0.11311757964422793,-0.8411632687053119,-0.21679061327060142,-0.2869614162627024
137,0.8903598931469916,1.5336814950961155,0,0,0.2189091249344694,0.8289310968896351,-0.025833284234377647,-1.4366243618952481,0.1720163321391464,-0.010581940221107393
138,0.9009053061623324,1.7309716341438883,0,0,0.24233974631341101,0.7986500359876447,-0.017173184337461303,-1.9050460656053487,0.5581616467511863,0.5154634467374265
139,0.9217069817140559,1.9225464904887897,0,0,0.22380931534112525,0.8124644525793511,-0.10221033335609982,-2.272658669488466,0.8346637597191575,0.8975805644333001
140,0.9514596168059182,2.094393738279092,0,0,0.15778658046917518,0.9552862764354899,-0.12791676915652528,-2.485326188002397,0.7032790449910022,0.8984367469106158
141,0.9883558544651494,2.2353082551894143,0,0,0.18433363902825967,1.0110753395729974,-0.06787913979379415,-2.311493983290334,1.0452882938082988,0.8946897794502896
142,1.0303810412510561,2.3378434035834874,0,0,0.2412840251422529,1.0448799941053812,0.0031826490460790916,-2.2069605695024395,1.0512127403317084,1.0665615039024383
143,1.0755921691159136,2.3984880848883936,0,0,0.2601117281965589,1.137158513812524,0.03035196056235793,-1.8002568245200008,0.23132977780000144,1.15321378496
144,1.122321312881103,2.417173335968857,0,0,0.26428942667852984,1.2260837621513794,-0.014109910988235837,-1.5693790472139,-0.2079476470341526,0.833744722372679
145,1.169257489669123,2.3963781378858102,0,0,0.3272994894046062,1.200720797269325,0.016752603048889644,-1.7662705380617978,0.06291997932303363,0.7351977490870787
146,1.2153867380902903,2.340167866123728,0,0,0.32173259372946345,1.1774506477254554,0.1381925579127166,-1.7981698112532485,0.313461962402557,0.8137457600439741
147,1.2598045532014375,2.253442741556069,0,0,0.26845140844209564,1.1532067392726757,0.16971531162871686,-1.7719042542332268,0.6457254320087833,0.9025495015415321
148,1.3014496818176182,2.141529850460062,0,0,0.30065254315981726,1.1809469707686364,0.07285044478837886,-1.7034779312487673,1.1706531317814153,1.141264474215821
149,1.3388326798714874,2.010087151232415,0,0,0.35005828547981466,1.2978948922623017,0.07950716817078318,-1.5147768618102422,1.6381448474791585,1.202974696347757
150,1.3698392207030963,1.8651677474960378,0,0,0.298650654410091,1.2497337431009696,0.03792608513403075,-1.0915525544311493,1.6384288697627254,1.1419614062056376
151,1.3916783437576412,1.7132591971858053,0,0,0.19951121535581676,1.2272192793375067,0.07222829827586119,-0.626402380172226,1.2477083127970352,0.8333015270808809
152,1.4010258358130097,1.5611689825206156,0,0,0.016041629612939225,1.197863937045912,-0.1172699709961101,-0.35763215655562525,1.144853804567358,0.5213926703456944
153,1.3943846448262978,1.4157320366084152,0,0,0.01209618930041293,1.1992946267578584,-0.2804871303827667,-0.002604373709603849,1.3477856716430183,0.29627773485502806
154,1.3686435641070915,1.2834046425290804,0,0,0.02616251836627369,1.4186526767650185,0.028392899285385395,0.42277356522971155,1.2561289922069565,0.16958755663589545
155,1.3217620560177796,1.1698408671034908,0,0,-0.1128587841260863,1.5290039322159263,0.13678327281068686,0.6972788542322267,0.6030095284206264,-0.024714006317070457
156,1.2534562626415946,1.079531216230276,0,0,-0.0834815925802595,1.4642829902299561,0.04854772649777427,0.8512204435876941,-0.1926349957203329,-0.20278578331602015
157,1.1657324786787442,1.0155473389484475,0,0,0.11050160055020167,1.3200124300742009,-0.007366853926463414,0.9149880752754029,-0.937968896965601,-0.26840845233446026
158,1.063126972365615,0.9793984108844722,0,0,0.1353036941986961,1.154334026087702,0.049941371790674885,0.8501652799911826,-0.9666931511681688,-0.28339064569098465
159,0.9525621097864427,0.9709765182316895,0,0,0.1924681622741099,1.0492024167505147,-0.017947548874470892,0.7464970926517556,-0.44436164883785223,-0.09784614172922976
160,0.8427985568388655,0.9885692147828798,0,0,0.1906603898453894,0.9404914523766288,-0.09978959180341361,0.30396188006993147,0.24984081513630876,0.3219236851201656
161,0.743532175430478,1.0289495068236825,0,0,0.07710227749261897,0.7492310072106521,-0.19181634588916963,-0.42632400330209425,0.8068666646061825,0.763703677168496
162,0.6642432867234054,1.0875837793954595,0,0,-0.05798334694356311,0.546619402475043,-0.11941449920953258,-0.41931179473141195,0.6088085705722034,0.9951116284351873
163,0.6129529334909933,1.15899405565087,0,0,-0.19004944680770605,0.3951081135743456,-0.05242541416619703,0.04130444454456301,-0.20530679772177104,0.42552777101804595
164,0.5950701184593551,1.2372762068695118,0,0,-0.2715568697237325,0.33123077410126106,-0.0548147411278199,0.6978893022857162,-0.22704699022660144,-0.20281538255763645
165,0.6125164171034696,1.3167251036991348,0,0,-0.2657234630639538,0.33779219187219595,-0.11255515886814449,1.9074864270959964,-0.6804381660996384,-0.8700703174240618
166,0.6632853517816083,1.3924517926296358,0,0,-0.2145000466656423,0.38070151984137646,-0.011717304980270883,2.0245855998397415,-1.358223382852566,-0.8883368589503198
167,0.7415385487350222,1.4608227606959703,0,0,-0.1546696966763807,0.43450483462318407,0.16617013374928674,0.31271427199746554,-1.0525135136934625,-0.15378186625627024
168,0.8382679725932001,1.5195754626748694,0,0,-0.044931272006910286,0.5244941177203406,0.3079890142335763,-0.7310739405505732,-1.0872530947336922,0.0880004197570318
169,0.9424689959491002,1.567592112921689,0,0,0.08524465667093306,0.6775473708868209,0.32965519254296,0.49326203125692,-0.7029742457905123,-0.446024224047434
170,1.0426759606913834,1.6044623737195236,0,0,0.29948042600481206,1.0776152301386288,0.3926702651176572,0.9380568589733606,-0.46417467489597564,-1.0088590337351722
171,1.1286195352990622,1.6300246053461163,0,0,0.5144324237269047,1.4673208066759333,0.70962127370404,1.244964688078226,-0.41256893639714165,-1.262992404174502
172,1.192697279395115,1.6440229527615062,0,0,0.6139945956685904,1.6909559424461107,0.9795213053462727,1.6007804009703086,-0.4730218395109633,-0.9820807749854426
173,1.2309437172584865,1.6459232118719154,0,0,0.7108162078035694,1.5424367514083244,0.8958393011476403,1.4833382040207035,-0.24883918714569656,-0.19591156693869757
174,1.2432792117091067,1.634871420648614,0,0,0.4741760282422955,0.8632214116339764,0.7658117681753752,1.5666059770675203,-0.6203944692369174,-0.10691923088893379
175,1.2330061482395256,1.6097776560705246,0,0,0.14832468752858682,0.30727690969558596,0.365150515940284,1.3867660738249556,-0.4399021698136116,-0.16822815006483008
176,1.205742974909327,1.5695329341365962,0,0,-0.16572003450041048,0.22723293358448468,0.005513621528560723,0.9596902124924923,-0.25716856327927934,-0.2256974663543545
177,1.1681363037992456,1.513376396899339,0,0,-0.24942594417818992,0.792379387933224,-0.024584277542720013,1.1207329725524833,-0.7944460550735808,-0.27854617065724924
178,1.126688670071778,1.4413985601391641,0,0,-0.0033533884367899884,1.6277014565995194,0.20186233308952534,1.1140564976712035,-1.4824686732386079,-0.369540635255577
179,1.0868979693212462,1.3550994804630814,0,0,0.2571939055843407,1.7423617399796356,0.41693969589866736,0.8780606777220772,-1.488003765390013,-0.5608960879246043
180,1.0527323040298664,1.2578576975262066,0,0,-0.04146411842089569,0.7932249797897816,0.016550032725525035,0.6602302705316236,-0.8280373811228252,-0.618833095875344
181,1.0263784857128233,1.155157586147184,0,0,-0.2438692164767674,0.36593214861507156,-0.2628872037135067,0.5427557027469688,-0.7006490737765847,-0.5604851203319424
182,1.008227119282723,1.0544803303225094,0,0,-0.06465710625450773,0.41648752532284244,-0.4476984842419668,0.6012893706834254,-0.7834632515318146,-0.4756190428436762
183,0.997109347737642,0.964843428476706,0,0,0.26686668114119355,0.7796827493473026,-0.45357781534684033,0.6573326171915214,-0.4964930926327193,-0.6075617274325076
184,0.9907885566393622,0.8960274200355856,0,0,0.5008179129176934,1.2436756384983814,-0.20890231897034217,0.7458597313019392,-0.08859492229916287,-0.8082846970360148
185,0.9866285097321562,0.8575515490259277,0,0,0.4264620529431254,1.364103524012216,-0.0004111684775716197,0.6118005614616614,0.068090123913738,-0.9772243040035943
186,0.9822779522631716,0.8574808207095111,0,0,0.10501514683480695,1.1576076866895666,-0.05300581741560976,0.35029918982252767,-0.06138824224327272,-0.9269478966699879
187,0.9761988371190466,0.9011897426286963,0,0,0.025763781995366483,0.9970533246013259,-0.06418204733115912,0.12488551022978797,-0.061959882145392754,-0.6171760894464153
188,0.9679301898183829,0.990271017979596,0,0,0.02632425052912477,0.8273388628352599,0.0057137737230488084,-0.10661826852101512,0.3187775517605076,-0.3970878502379063
189,0.9580775635265868,1.121829801553033,0,0,0.02228666023606658,0.8793501973542187,0.10199981585782954,-0.25237786065355855,0.26641866363725736,-0.026297603151366034
190,0.9480945368442061,1.2883998934340064,0,0,-0.017431689461922816,0.8960352238232278,0.050474028755519415,-0.5948387828347871,-0.2593160280505903,0.06774349412567716
191,0.9399520172794923,1.478623792182439,0,0,0.03464531405383751,0.8894981882541503,-0.08692907152931059,-1.2233793676353533,0.31979240084594185,0.29663648317874397
192,0.9357817061421231,1.6786586866218807,0,0,0.19519267678442284,0.911754448316341,-0.09305734892221472,-1.936713108153577,0.5433216588620661,0.7277721846032106
193,0.9375546600591956,1.8740577594840029,0,0,0.34555788934896686,0.8449487583403338,-0.06302434993918911,-2.357137092111088,0.87581560390421,1.1529018550815038
194,0.9468314746419767,2.051715894930289,0,0,0.35871400640555473,0.7946404224368115,-0.061305950892381805,-2.3446556361904767,0.26815627302380907,1.0755754423015877
195,0.9646024865235231,2.2014375983480083,0,0,0.266291435057042,0.861251255605814,-0.13323028774710122,-2.2678049504248174,0.832828640920768,0.9579318998083381
196,0.9912218188612172,2.316801537286148,0,0,0.21253133371477256,0.9725987003463462,-0.12192753094528788,-2.2169163628592212,1.1372535811567843,0.893194626264096
197,1.0264238215571813,2.395208969093614,0,0,0.21460469178292021,1.0265002654770445,-0.029641953706664868,-1.9594931288950703,0.8543583146462623,0.88606006
198,1.0693944195096752,2.4372295415036156,0,0,0.26299513809507785,1.1031386874361209,0.06587240181404201,-1.638850420043792,0.2892980143351966,0.9043839937699045
199,1.11885840340736,2.445529479695135,0,0,0.2714195127227647,1.1921724547661212,0.009846302199454992,-1.4869578484824442,0.003915487384447356,0.9338270608311836
200,1.1731431352023824,2.423741744777617,0,0,0.3454379454724568,1.2161378662952251,-0.09432800089900807,-1.6199988531049678,0.5351809587039271,1.2174997987580134
201,1.2301923693959835,2.3755968202506903,0,0,0.46368807799360384,1.1380715462072948,0.0981157544541552,-1.6956392178011486,0.7519404291526091,1.2392188765231211
202,1.2875287914043176,2.304494962406719,0,0,0.3819396733129355,1.1630133739776827,0.20304172172052956,-1.5954878060231348,1.0166811574591168,1.2542930145991227
203,1.342193021989308,2.213524610579521,0,0,0.24916707959319745,1.2656051117768226,0.07272398514116055,-1.3480383414592119,1.4991749966870904,1.2623506280543855
204,1.390709345177563,2.10578392475448,0,0,0.18816099884478452,1.2778453561127328,0.04522580113354466,-1.048499912495087,2.1481835172495107,1.2729587104911593
205,1.4291355537457162,1.9847848017706549,0,0,0.06950320190200474,1.3563451682603338,0.08428767067438883,-0.6053697347446619,2.1053373755442535,1.0830519226246205
206,1.4532441885287954,1.8547258611564228,0,0,-0.040382241751768994,1.3616742405678253,-0.1465324816454967,-0.278193262422812,1.723576678622338,0.7653844197387268
207,1.4588589613566862,1.7205067422962412,0,0,-0.03577540657198332,1.3187721468762532,-0.267734178118676,-0.024559131660579357,1.3271042259760568,0.50948335490288
208,1.442338512334022,1.5874847321040182,0,0,-0.02115489534592767,1.3362313805170702,-0.13908449752726296,0.34678280759185937,1.1467148372165759,0.3549588020015654
209,1.4011634904393167,1.4610830509728951,0,0,-0.00902403740694948,1.4482305456200404,0.009867281282921947,0.7301321638170991,1.0961229445328027,0.2610793126838961
210,1.334545523139354,1.346395573071543,0,0,0.009940119656651659,1.5390287891869574,0.05967440326508947,1.0151018164721293,0.7031623078889059,0.08090258165687146
211,1.2439456509469833,1.2478917416527104,0,0,0.0683210985956834,1.4261056764786244,0.07645800466422997,1.1296753059130102,-0.17635088334939011,-0.20626577461616194
212,1.1333789903419529,1.1692471943001297,0,0,0.18742940016502152,1.2605882783019038,0.08313629770845368,1.2244867274690125,-0.9255737118752427,-0.4068168495401818
213,1.009403152743787,1.1132563760095153,0,0,0.13521774335128625,1.0855273930165574,0.09758178704942748,1.1460751421031505,-0.8698976925747534,-0.4158347783263091
214,0.880737942106843,1.0817550746339033,0,0,0.09678154723359834,0.9562171965642008,0.027756489331935287,0.9354649702937796,-0.3378952692823494,-0.04505739205245558
215,0.7575273196433383,1.0755063187240368,0,0,0.01819138197919838,0.8146827292759059,-0.11149088542899657,-0.15763050839560822,0.1799170191888136,0.4847508012147893
216,0.6503147086833566,1.0940649038598504,0,0,-0.04951387247582795,0.619253384701308,-0.19292559947201382,-0.738900004480016,0.574080175788427,0.9880091218731356
217,0.5688507978334386,1.135686828280675,0,0,-0.11878730296462292,0.45690683906511576,-0.09231648313167792,-0.3287486228485708,0.2883515681981495,0.8295381879384665
218,0.5208865782918751,1.197353230366146,0,0,-0.13737627764696425,0.35581125242984796,-0.02886120693933138,0.6000317494640406,-0.37315513242753406,0.1907487947697682
219,0.5111204538095616,1.2749398556698779,0,0,-0.14729379291877712,0.32457650918979986,-0.00995624242890123,1.5923595368243322,-0.40869672770270743,-0.8551999843243349
220,0.5404622377341272,1.3635112020305797,0,0,-0.16404738961048812,0.3286286022786355,-0.017120268516237495,1.0394284217861491,-0.8378105070204257,-0.6255620231878305
221,0.6057465852220381,1.4576779687955617,0,0,-0.18009889037750224,0.34186610505655474,0.025890533888851295,-0.7554510625755749,-1.3425593091054824,0.07141421205143976
222,0.6999767084154838,1.5519482041488204,0,0,-0.183218995972628,0.3692090187859403,0.19188040357070332,-0.1872306262977981,-1.2520556716830162,0.0069544140954621875
223,0.8131109095465586,1.641031363563613,0,0,-0.12156894796213263,0.4450194545446638,0.3346002688149097,0.7858595300058555,-0.9526667606850117,-0.4934868474941458
224,0.9333228931150643,1.7200901525715626,0,0,0.04256674897796304,0.6710199052077618,0.40969543727175156,1.2480925932038878,-1.2080038941747617,-1.061740178640784
225,1.048575615726676,1.7849395520733446,0,0,0.2571442428081511,1.0977773626138867,0.5236668699607169,1.397045731937385,-1.054954513071057,-1.2947574538071056
226,1.1482590009882485,1.8321689061327064,0,0,0.5832925060857127,1.6017134380781815,0.8766528679573462,1.3066923657910452,-0.8951345937512457,-1.0245602793830912
227,1.2245822608315742,1.8591542378799415,0,0,0.8045487317188942,1.8064772186685747,1.0475385908274184,1.3041043626815865,-1.0889303397133914,-0.4219561282960329
228,1.2734258942980952,1.863963397170709,0,0,0.6546233314999607,1.156901690742566,0.7970128863907601,1.5047647298758537,-1.261478688386054,-0.34002674189026616
229,1.29448026466659,1.8452177253860922,0,0,0.2510612856732017,0.4116531502341348,0.4987087518909339,1.20868323968095,-0.7126434867597151,-0.20710304283349787
230,1.2907032151075468,1.8020184343509216,0,0,-0.21080917665145069,0.35482753589756955,0.09067716571606693,1.0916085810903229,-0.5675014189096772,-0.14202813617582002
231,1.2673215397934476,1.7340445664094368,0,0,-0.23627153256599834,1.2225032740262691,0.009503933232061995,1.1612431549168873,-1.0518466480072295,-0.2287485985039117
232,1.230673833836868,1.6418723094082415,0,0,0.08939103630414105,1.7853062843923175,0.18455298217104224,1.346673842867182,-1.5372299458889678,-0.25990642430780037
233,1.1871284109235294,1.5274656359910261,0,0,0.09787707610534624,1.3278027949758333,0.1983553001905024,1.0666017848562923,-1.524368132368681,-0.47627686551635356
234,1.1422004822610123,1.3946934372214028,0,0,-0.2621916241548577,0.5403550354636101,-0.08407708721720908,0.9192319998973594,-0.9373134256612744,-0.6644168670904064
235,1.0999360330329602,1.249696315949259,0,0,-0.3302147174476155,0.3733282506598513,-0.3574324658951365,0.6075388384187527,-0.6235250907985698,-0.6565971676281288
236,1.0626285919284164,1.1009693475199938,0,0,-0.11012071344194595,0.6110632545131031,-0.4701100883664382,0.5074251897088539,-0.6921129058229393,-0.5975864654486027
237,1.0309157153766872,0.959099586713716,0,0,0.26951154481588085,1.1029696628304144,-0.39013427197096323,0.5479918585880916,-0.7441128323828418,-0.6252013606288263
238,1.0042193923279672,0.836146887767198,0,0,0.4327704764116602,1.4485466292686668,-0.10097403355527981,0.6756020904562667,-0.38130008918110725,-0.8117854744889441
239,0.9813860305147125,0.7446764066431891,0,0,0.17983544291869608,1.2257195799516676,-0.019926469962610178,0.618490026963107,0.012113101942523914,-0.9157095453475728
240,0.9613216196543791,0.696473732425485,0,0,0.14138655962868257,1.0976030870319105,-0.1593154777282725,0.4198935038235236,-0.11973856867647424,-0.8593391502941132
241,0.9434445831496737,0.7010308231758213,0,0,0.21784216991025127,0.9487606010498743,-0.1325282642839543,0.19619178138082055,-0.1620744844170325,-0.5778216137365705
242,0.9278699065660784,0.7639836582662196,0,0,0.18408366202295368,0.8277372706117809,-0.01758231813895693,0.050405616444708874,0.2362007422768664,-0.36662654950675333
243,0.9153393563013708,0.885778584079629,0,0,0.13899985143589394,0.7578817482712543,0.022020034185944604,0.056611935785670926,0.16564971233263018,0.010388763716562934
244,0.9069817675603111,1.060894685291837,0,0,0.05558231654762492,0.7748932391432919,-0.011254678475550669,-0.1318506335968212,-0.3017447171647043,0.043096928290968034
245,0.9040107797346055,1.2779110387441053,0,0,0.008221664545200623,0.8150219719195108,-0.10058738928001267,-0.5836341124959934,-0.17992326722800328,-0.05435320044559808
246,0.9074519653279758,1.520564466691733,0,0,0.11922860452801318,0.9290805090294756,-0.05115076089891464,-1.32828279681366,0.006101184808963501,0.02808847734569985
247,0.917954012047933,1.7697189044093207,0,0,0.25325178135971715,0.9502693421422016,0.013163985838866993,-2.02079227246032,0.3127341431825416,0.3599414474444461
248,0.9356996423810254,2.0059229480008116,0,0,0.33346886017843386,0.8547461711192924,0.01076816734341531,-2.5606789968228854,1.0395807294678427,0.8020629136616445
249,0.9604066702479135,2.212049369281896,0,0,0.3011247174911227,0.7904639271390765,-0.11103611347461924,-2.663377612833799,1.0910088303108814,1.0775640479075326
250,0.9914006785998591,2.375461413071771,0,0,0.23676695749979854,0.9305278552182663,-0.11474714046141427,-2.4996926798916266,1.3682685915713533,1.112676473148708
251,1.0277383781246716,2.4892635266080503,0,0,0.26196844915780837,1.0233701986221333,0.0009412627450990349,-2.3365733249549385,1.36776779597437,0.9798542040256395
252,1.068353828844833,2.5524347603509825,0,0,0.2890024884575153,1.101655750019554,0.014948521319048032,-2.1759116555422096,0.8528051165866068,0.8756754833333332
253,1.1121884900438486,2.5689301911065523,0,0,0.2940114584271638,1.1973709296532007,-0.14269176737946976,-1.8651220286998265,-0.040293133942466995,0.876905824158179
254,1.158260854167252,2.5460781976942326,0,0,0.421326537730811,1.1563434484717405,-0.1554921216001491,-1.5743606989395709,-0.3525155695958412,0.9557255562625081
255,1.205641589178327,2.49273066083071,0,0,0.4526922407677619,1.1240052671463983,0.16257155475333174,-1.5617106008384896,0.04670003247793686,1.190548750329406
256,1.2533258294666767,2.4176111002184095,0,0,0.35519276040561243,1.1944744292714946,0.22462049570466636,-1.6917934995599115,0.3512209420404122,1.3557886387277498
257,1.3000269751687048,2.328172969007161,0,0,0.36011866841125,1.2303887880764106,0.1508564444997343,-1.5122747424020615,0.6087295312227904,1.4559332406806487
258,1.3439450613058703,2.230087193209851,0,0,0.3315045931521569,1.2614245880762485,0.1365135438295747,-1.1831004933967924,1.127648243049763,1.4514109547888159
259,1.3825804310957617,2.1272936196230505,0,0,0.3159882789507749,1.2171776701029737,-0.00012800799293667531,-0.8281342035140442,1.90421860261181,1.4343539037198243
260,1.4126681049937448,2.022422289223535,0,0,0.23622844250782798,1.2123934573400683,-0.02224378117449057,-0.41154665436142013,2.291921175684925,1.225768782514111
261,1.4302985011818468,1.9173391255219563,0,0,0.038287668924869456,1.2773779957326579,-0.024824715566439205,-0.0839857696453605,2.024080519975954,0.8273947456020806
262,1.4312629846100857,1.8136041052491791,0,0,-0.10145077796511745,1.3176815959378532,-0.1361843555257227,0.06458906443095996,1.5992454153631392,0.41969880293297285
263,1.4116175885532076,1.7127336660233388,0,0,-0.14914969057293634,1.376950833586049,-0.1603944257467514,0.39322854991220957,1.3768222906225065,0.12424160309856401
264,1.3684024475021874,1.6162827852921768,0,0,-0.048534837979421784,1.4587844917473254,0.00521433207679832,0.8069323092010332,1.1362507815501155,-0.07938935499621114
265,1.300402467286262,1.5258411854059866,0,0,0.0440539412130623,1.4859523780991004,0.10741356211058202,1.1759983472481632,0.4325406675541371,-0.30889875528114574
266,1.2088024556996204,1.4430394716889223,0,0,0.1427623043311125,1.3762059891168417,0.09817697304754941,1.3381052267708755,-0.38439026851009805,-0.46111780895726223
267,1.0975886075483445,1.3696018966590855,0,0,0.18947979417943403,1.2347168087549039,0.0750832789220104,1.3500454286404948,-0.9691898033455824,-0.47558888116031717
268,0.9735800351158245,1.3074091094667595,0,0,0.1614788285597976,1.0835734068027676,0.07276971374973723,1.256492199960087,-1.0592424333865496,-0.22648465323089018
269,0.8460307572210307,1.2584931974223224,0,0,0.06905562932592836,0.9514196347299567,0.06022450759315167,0.8371494640646864,-0.8338983247474565,0.14129133685565834
270,0.7258101307842723,1.2249033281619124,0,0,0.011764941751294168,0.8487251847538684,-0.04740513926359955,-0.6142591010759798,0.1671790406559859,0.7868798354519916
271,0.624236115581054,1.2084403470556893,0,0,-0.036887433426165114,0.6433291275900453,-0.20408478588255582,-0.8919231600633482,0.6301646314393142,1.117249502652937
272,0.5516951378633445,1.210321217048412,0,0,-0.08867163590691764,0.4140634078277117,-0.1390629822076394,-0.14089330185752547,-0.027831645718583965,0.5448833694999113
273,0.5162312538913472,1.2308650129053957,0,0,-0.1296617953609351,0.2558591114214854,-0.02970199182319591,0.9220896459457387,-0.34174546097366226,-0.47328698416601533
274,0.5223181688868925,1.269283264850069,0,0,-0.17945163928207203,0.20354685659529861,-0.019848459323298977,1.13173044253285,-0.699962377634414,-0.8553357377937025
275,0.5700280518621492,1.323616381529031,0,0,-0.21483522494712445,0.21392607373594788,-0.016508984070538593,0.20400335155298804,-1.4055552763389363,-0.007680983270975706
276,0.654772074829669,1.3908057176193194,0,0,-0.2066305668607508,0.26820430104737975,0.06869152263902274,-0.25170189725635733,-1.5000271538523182,0.25229713970382367
277,0.7677111899395517,1.4668611627678787,0,0,-0.15105093992240537,0.3769368510848838,0.23598203732204634,0.3347634521044437,-0.8645288439594692,-0.2682088726890115
278,0.8968323953451571,1.5470913985402386,0,0,-0.02192681214411659,0.5520197451215241,0.3907607257811333,0.882651731120903,-0.658022951185576,-1.0026904991181576
279,1.0285677664776418,1.6263812834895597,0,0,0.14503675563989607,0.8603915871494275,0.5161281429583148,1.213969804928468,-0.7453400917329025,-1.4210575750397556
280,1.1497142817090114,1.6994948316210936,0,0,0.37717301448898255,1.3824842335245067,0.7597551597932151,1.2886858305785116,-0.7416838016528987,-1.252720523140487
281,1.249314432307857,1.7613608527926243,0,0,0.6494596662372061,1.80615466810246,1.026574025513986,1.2543119657399855,-0.8280497548589529,-0.6738204507440413
282,1.320118392563264,1.8072997071990515,0,0,0.8926245203743431,1.8602589148615367,0.9876636089989014,1.368731348351,-1.2671167184334473,-0.35754611108362877
283,1.359311385810905,1.8331886024102493,0,0,0.6444567642295697,1.0791750066036923,0.8341261393929464,1.4344986204724417,-1.0651566612204761,-0.27643876190944994
284,1.3683702202158834,1.8356133560781227,0,0,0.18651809816676554,0.3340097664959353,0.5021588702654717,1.150982548794099,-0.7876543903328673,-0.2139474798465216
285,1.352159322423279,1.8120828390066452,0,0,-0.12911768250984465,0.48356854825293477,0.051340111675980696,1.116143938150517,-0.7572481853282581,-0.17426692055244156
286,1.3175757781431572,1.7613701426768116,0,0,0.003408894046509777,1.4463318044758677,0.06637998669300367,1.2928492164892609,-1.2603992190198958,-0.2579549893874295
287,1.2721069341052142,1.6839864037820818,0,0,0.22530538248202958,1.7304742741344814,0.1391952203980502,1.2521629608311649,-1.4296462993374812,-0.4595480008592596
288,1.2225788694723612,1.5827050122342439,0,0,-0.055033158480810876,0.9293876181390884,0.1053545365045578,1.0761920603310742,-1.4220404438771461,-0.6763458002393283
289,1.1742512859917524,1.4629807350805375,0,0,-0.39359567017570485,0.4217555438874932,-0.22699149932698634,0.8823501444008911,-0.9547641433956665,-0.8203771450140708
290,1.1303390338572539,1.3330940555867135,0,0,-0.16694172034820648,0.5819691682762365,-0.364477279032355,0.6956411112211546,-0.6513429963953543,-0.8568759330853155
291,1.0919991407899352,1.2038973382658582,0,0,0.2684905201580315,1.04042224004405,-0.3920638221354345,0.6881279924336198,-0.7526903922539401,-0.9010272255559992
292,1.0587535132685124,1.0881094007642926,0,0,0.4628123753786277,1.365289632377013,-0.13659688404692039,0.7605817798780565,-0.6951506670888951,-0.9440855900078734
293,1.0292123616724116,0.9991671626617188,0,0,0.39312291656154646,1.3916031777948208,0.04318344669166987,0.8557086913524837,-0.3875377017594278,-1.0435343700777973
294,1.0018802638924078,0.949700514175547,0,0,0.18000725803126064,1.1694450908369756,0.055695690122766484,0.566074381426262,-0.141197610430498,-1.0040301464494035
295,0.9758226117734066,0.949772436032884,0,0,0.15653072422849432,1.0572656155756701,-0.0744299574168062,0.1405985757709268,-0.23638197096916821,-0.7772332107929598
296,0.9510453098947709,1.0051263624626585,0,0,0.21007092870242222,0.9367300367716949,-0.11000457601748856,0.015643339439203402,0.0881082146479653,-0.48665015019725155
297,0.9285483960325117,1.1157762181035025,0,0,0.1809316642795163,0.8274384354040694,-0.031709519184738924,-0.09802666652957724,0.39065221163380287,-0.13116997053521307
298,0.910105576182541,1.2753086209761653,0,0,0.15296365676904405,0.7901092813117573,0.010280229642199894,-0.17572158046742023,-0.08309757406219295,-0.024472175966726385
299,0.8978732331505385,1.471196278932699,0,0,0.04496780786412276,0.7867126901821965,-0.02426754971250807,-0.7978683933608034,0.19581411462719658,-0.16019695264893166
300,0.8939444703436518,1.6862334924582714,0,0,0.018457703233374992,0.8297157413235859,-0.0961726805021912,-1.5598475668021354,0.7419940051625481,0.14479782882549191
301,0.899946793092241,1.9009315702827494,0,0,0.16670398549208093,0.9010256232149373,-0.03239604730583214,-2.1995472749216955,0.8138509164604615,0.592350762255291
302,0.9167501134065058,2.0964341701359266,0,0,0.2913949343611435,0.827585064907784,0.013254350244758193,-2.5719323865082693,1.4750672868908774,0.9785087994361771
303,0.9443187496889274,2.257333569925245,0,0,0.32039146922601364,0.7751326703169155,-0.04316883563715829,-2.6948519373368147,1.4932521253263709,1.0271939237597911
304,0.9817150219134863,2.3737650303393556,0,0,0.2722267166955748,0.8531849431732017,-0.12856178561911535,-2.4065206654966067,1.5256974034303943,0.979822782768249
305,1.027241326243125,2.4423361989488526,0,0,0.25701923248104,0.9961695717408675,-0.04661589397704487,-2.3858155281368827,1.2737980330798462,0.9644598411406843
306,1.0786859301278964,2.465751173773185,0,0,0.28935928126273486,1.1002771613988973,0.04634841811538449,-2.0452879444266467,0.43694370683408607,0.9642586237742639
307,1.133614569790094,2.451316438509808,0,0,0.35646478534957915,1.248164761710631,-0.03449733537116761,-1.4893672356104388,-0.1433197388269254,0.9011016804321853
308,1.1896342400952933,2.408772328561736,0,0,0.43895248004887405,1.2807795615370203,-0.09934008308731095,-1.4965075377581154,-0.03081193458760271,0.8018123165781696
309,1.2445591023397093,2.348011637701499,0,0,0.5334646493580627,1.1733769038334358,0.10505001839322724,-1.5321438114285706,0.07297585614285733,1.0369975816666688
310,1.296435869318465,2.277204450527445,0,0,0.4548260834994228,1.1897051834502885,0.2777217309938062,-1.3688409613057348,0.1925397570143248,1.2631746711783387
311,1.3434300237560324,2.2016774094173606,0,0,0.4676206375663204,1.2687360484397903,0.1188828921112316,-1.2553397800480743,0.4380858422596196,1.5109216685096183
312,1.3836192079757303,2.1236670061539753,0,0,0.3887732556811625,1.3255270378778532,0.12412473779657962,-0.8702583638434183,1.0749909822064017,1.5631570986951366
313,1.4147726963004925,2.042850666816577,0,0,0.2897580421399264,1.2275122954689228,0.05959697731937397,-0.5594879858420099,1.7719028039104012,1.4639085631754754
314,1.434211113706734,1.9574011062302508,0,0,0.12887881980794152,1.1596075247533155,-0.01067661811438343,-0.30476231544103505,2.2549692840436077,1.129974196491581
315,1.4388367658939574,1.865231951524582,0,0,-0.024304693471944437,1.2265866383202975,-0.15428730113589473,-0.035202123734438116,2.0768488971547074,0.7515851189784585
316,1.425396959612873,1.7651165852807316,0,0,-0.04710102164710149,1.2916136072006938,-0.26172161780247694,0.20388339335526695,1.6723040331339694,0.37038089318181483
317,1.3909875407689076,1.6574559371111899,0,0,-0.0879643033084043,1.3934932107342526,-0.08924814186991101,0.5397973703111282,1.5662940359194257,0.09972149641483892
318,1.3337318032235195,1.5446010325540491,0,0,-0.09869970577041934,1.5036062081832768,0.09695104392868426,0.8314958668118854,1.405071177821779,-0.041319291380199824
319,1.2535042798905107,1.4307479897962885,0,0,-0.09895606016357088,1.5087771031577628,0.08444616202235068,1.1384586179620095,0.8747813230473854,-0.14535268862406672
320,1.1525340347573196,1.3214895967677782,0,0,0.0020115570868227376,1.2765383010674887,0.058608913184474046,1.1866792276086968,0.05832127231345452,-0.16738444412252962
321,1.0357306879050745,1.2231371514927751,0,0,0.1716965370246762,1.1205247565416747,0.054996138811963316,1.0488660307026296,-0.6190932663177108,-0.12462284371451107
322,0.9106236759085905,1.1419362563110824,0,0,0.19169655544453076,1.0182024968101913,0.07552617370942506,0.7800998892128825,-0.6270655848300536,0.20365634654740414
323,0.7868723470638551,1.0832964902498987,0,0,0.15051002910745132,0.9145120951191159,0.0326761494404159,0.12476307055882815,-0.4843643806022839,0.5858568304502456
324,0.6753722523977562,1.0511358594916569,0,0,0.07057665168903657,0.7642691120927705,-0.09672575692988762,-0.8208177044329296,0.4794945769125003,1.002938157018139
325,0.5870437203414424,1.0474086978917205,0,0,-0.00028621352449663444,0.6053730897111658,-0.18312469045023233,-0.5607315511923473,0.6898460506518136,0.8208650265500657
326,0.5314435306966693,1.0718521480965308,0,0,-0.0802630724109238,0.41296876545769107,-0.17619212048329527,0.4430026269804367,-0.18650413723621836,0.13785934515099219
327,0.515387830832894,1.1219671191869691,0,0,-0.1442442686208595,0.23428996868048863,-0.04416719912015605,0.9886018987210342,-0.20432051724412725,-0.7200978981567974
328,0.541805060670989,1.1932427383453028,0,0,-0.1288291748406218,0.16786435639243386,-0.021139028989078764,0.2280500475389307,-0.968700223141403,-0.4548758929836253
329,0.609037468841565,1.2796170413542274,0,0,-0.12626058947102667,0.20648562529187553,-0.04198658484268386,-0.17831228298063714,-1.31948810133758,0.0056495585506147255
330,0.7107668973129551,1.374130996334627,0,0,-0.15493402015756372,0.3051022189720327,0.07584404168476443,0.36791662659956637,-0.9633722453657549,-0.3056196493063628
331,0.8366521859108071,1.4696920400492919,0,0,-0.1580825837835294,0.44617126183389405,0.27412056920614847,0.9202363142408307,-0.8506196043673465,-0.8072372044978411
332,0.9736413493155248,1.559829367184362,0,0,-0.0817200409133334,0.6822569185678509,0.4908629327380693,1.3898436407275583,-1.1600597908066423,-1.237180722004742
333,1.1077811127659218,1.6392994440974369,0,0,0.13476562587632718,1.1196288742843012,0.6840820387186307,1.4116514104641904,-0.9467939102281434,-1.356586398937835
334,1.2262164954437762,1.7044049710031455,0,0,0.5541120224875357,1.7147662005895914,0.9775811651819689,1.2033696947221124,-0.6816736972810896,-0.8652306396721218
335,1.3189903967895447,1.7529526557567114,0,0,0.7709708449381353,1.9098753347292763,1.1578074301052066,1.4152706317495407,-1.083558556674042,-0.34109345793035384
336,1.3802622187525067,1.7838903893803109,0,0,0.7411074968711098,1.50762705931757,0.8839103976645136,1.4483214111644602,-0.7298593335734119,-0.1658418433573418
337,1.4086965312415587,1.7967818365994341,0,0,0.35299405830249836,0.6891044158671819,0.5844164425592001,1.133693976372317,-0.28809221820207476,-0.12490444507557723
338,1.407003879079056,1.791339697758012,0,0,0.0038033761438178476,0.4625313050299172,0.2853175407078723,1.1634889428655688,-0.27022454320558537,-0.07867560965998334
339,1.380849854648965,1.767220537369618,0,0,0.017945485859927533,1.2228511282209291,0.14838522529568826,1.476067777445105,-0.8595913708981882,-0.030425600966063806
340,1.3374710692871261,1.7241859717358425,0,0,0.07000659338260383,1.785599571324385,0.17365947035764115,1.471562678207412,-1.4185815757882272,-0.1368422991750943
341,1.2843111019989237,1.6625907221981115,0,0,-0.031291308636273614,1.2420630298802455,0.017238641442996173,1.2574575495900846,-1.6102020789042308,-0.24711148006598177
342,1.2278882292155648,1.584033164714492,0,0,-0.36859436547283475,0.5149202273890289,-0.16698514530113262,1.0059208633221481,-1.2372001927796266,-0.3846912616334636
343,1.173025233610833,1.4919576362012132,0,0,-0.17554116862632815,0.5402432609449962,-0.3644620242053735,0.7373747431482216,-0.886432492612864,-0.6010233091689978
344,1.1225261098376729,1.392032537037071,0,0,0.1480112387396249,0.897741686607869,-0.42785369806704143,0.5773912059579532,-0.9929299819912732,-0.7862510162633874
345,1.0773223393231586,1.2921928869942974,0,0,0.4855461529579586,1.2887629625518602,-0.2597694875237035,0.5290174212515005,-1.0210526291683315,-1.03268214958017
346,1.0370063983437066,1.2022813249570659,0,0,0.4401160657284598,1.339933039250036,-0.03198335653222401,0.7356026219424475,-0.8315963489208615,-1.2502994705035984
347,1.0005669508988193,1.1332472874496877,0,0,0.2564103585324822,1.2123961658840385,0.013128852577568125,0.7015014845329645,-0.704018520159331,-1.291657263114918
348,0.9671027045934949,1.0959093937614148,0,0,0.17894515529897126,1.0624586235197626,-0.07082225514749203,0.31947907620606364,-0.600303348957708,-1.094014336390699
349,0.9363376494287693,1.0993820586870175,0,0,0.1780508709618997,0.9271021295969695,-0.08295519098616387,0.15382985970101687,-0.4729480717600167,-0.7300169013753249
350,0.9088534829765796,1.1494015084811537,0,0,0.21251250557809792,0.8785622826066832,-0.01378847450409231,0.06689359498192891,0.48321697894010357,-0.35048744540101257
351,0.886045831910712,1.24690461903768,0,0,0.11579279879436934,0.7966002642695249,0.024567871378379843,0.29625811464399837,0.2480664511260077,0.0030295861580765405
352,0.8698704718336688,1.3872508673895052,0,0,0.03998860432589757,0.8062188443398288,0.004914872859224013,-0.22282774875955771,0.20437175610799396,-0.1035523274592548
353,0.862470336317068,1.5603897418638795,0,0,0.027728041328430708,0.8142199433054993,-0.0671622380271957,-1.0638518377603268,0.575928895005903,0.09789517151572687
354,0.8657725070613156,1.7520632102000782,0,0,0.07012028539271294,0.8509509837620313,0.00257729603771349,-1.851828977142886,0.545050685201968,0.36840170729064914
355,0.881127968062974,1.945848931732291,0,0,0.1715414845803966,0.830372436164077,0.06213020699869487,-2.470906500306054,1.0460607075086652,0.8038620555600846
356,0.9090458543261813,2.1255947438333576,0,0,0.24863555525398695,0.8047712342279073,-0.0002956421998921951,-2.6974359456839614,0.9684347687963092,1.0159961668375774
357,0.949054447218619,2.277674263849203,0,0,0.25745925355730365,0.8068069267820976,-0.12187310077373495,-2.509642456216112,1.3148532601325496,0.9958088571199056
358,0.9997033324892657,2.392559999695187,0,0,0.26055169771919484,0.8978720500350018,-0.07610166414383483,-2.3991389373184133,1.2301565352375268,0.919631841931683
359,1.0587009486952612,2.465434373571671,0,0,0.30347120847201065,1.024480067409856,0.054499243192867905,-2.082972570636351,0.5787843110672329,0.8293738534769608
360,1.1231572650531072,2.4958496713972056,0,0,0.34578460191845395,1.1379408887755667,0.045673839096060216,-1.8079548060099504,0.05849858277213978,0.7302595215323385
361,1.1898772362998788,2.486700086750855,0,0,0.4812897837936147,1.2373863812268397,-0.19651009417593993,-1.80972200632886,0.09440883787422352,0.775001701077511
362,1.2556369002509653,2.4429040469443413,0,0,0.6779861900334363,1.1697660691773233,-0.08893967553413638,-1.6873768547511323,0.03314824235549739,1.064375968758605
363,1.3173792893794352,2.3701857392872805,0,0,0.573502112462099,1.2314457988277372,0.2703127878034139,-1.5366344077151928,0.4252143573978653,1.3585868349266197
364,1.372293088680375,2.2742206936659914,0,0,0.4665317899648878,1.3458417625573917,0.1894683892949531,-1.4462158663149502,0.7954964614413711,1.461145333227155
365,1.417775810176649,2.1602355209265216,0,0,0.367637654777614,1.3988534348433164,0.13305991292169747,-1.1416498945609075,1.385085558148756,1.4179309922270549
366,1.4513238320037163,2.0329904585706533,0,0,0.2605336480743065,1.2986299812022415,0.09931049658201876,-0.8949586748048887,1.9589677848308877,1.3564433145087076
367,1.4704239860924666,1.8969696925379291,0,0,0.12276340844232297,1.1744517721028707,0.1597447900488845,-0.6320187370805171,1.8921581958746443,1.183003689170957
368,1.4725361789198008,1.7565822920759493,0,0,-0.016293945071710603,1.263948200369822,0.015408382033629138,-0.27377359900707204,1.524478004120886,0.9333234468602868
369,1.4552432845092833,1.6162361002522554,0,0,-0.12714305834810796,1.3398366294477742,-0.2933438406027954,0.07159111573315156,1.2827477142228418,0.6525968127225399
370,1.416598491896183,1.480255234313568,0,0,-0.1467985091196327,1.4310259191366017,-0.13210234637869012,0.38450853166072857,1.0470001798693587,0.36920729246239103
371,1.3556329626321528,1.3527104087993427,0,0,-0.12502108156069866,1.4319362176129233,0.04933506477902912,0.8213885970398125,0.616644207512235,0.10220412314055098
372,1.2729234290219769,1.237269310355911,0,0,-0.06046348374863543,1.4314372574871943,0.049958577327298984,1.187770475785283,0.46118187588469234,-0.1236673012166939
373,1.1710833101458253,1.1371413012858778,0,0,0.05896498390740011,1.3147774499601472,0.035382234932089474,1.2935616535623156,0.39481538098527635,-0.3433661097899958
374,1.0550406483202917,1.0551197991713488,0,0,0.18869170845052652,1.180831537126663,-0.027867256915347628,1.0712874458441333,-0.036506653591780056,-0.38018994836356557
375,0.9319969574706402,0.9936671020994441,0,0,0.17763304867691804,1.050740506304416,-0.023154160024448457,0.8052731143055444,-0.4157871134722372,-0.00029694833192540134
376,0.8110121371474817,0.9549709554382192,0,0,0.12351460235784995,0.9280437524923201,-0.044454145484201485,0.19563548047475657,-0.7029454626112742,0.5526820989614376
377,0.702220933148732,0.9409212028648788,0,0,0.03852039548859536,0.7929045441471402,-0.1351704749587751,-0.5583592839696402,0.19582821905261283,0.9014051103937725
378,0.6157479969886334,0.9529795134950629,0,0,-0.018639456189200907,0.6447662799727735,-0.13647086549351198,-0.5114879003990439,0.94458109764565,0.8458145983559469
379,0.5604463089897256,0.9919333070584663,0,0,-0.09377177442331706,0.4409908491102598,-0.0357090297748226,0.3889220915809916,-0.2649169196037959,0.44948736908142223
380,0.5426320674844872,1.0575492397254156,0,0,-0.13570543813021715,0.3450922298106042,0.023966653864350044,1.3487639554021675,-0.47630896697478625,-0.667059338001198
381,0.5650191368027193,1.1481821842963886,0,0,-0.16581703843343365,0.27111993185275024,0.015442780964351983,0.0632245583783484,-0.4042045676216201,-0.45504837599997466
382,0.6260568650461343,1.2604410846941871,0,0,-0.1644220663512502,0.2370472601721256,0.028372961539005356,-0.7645666921611523,-0.690272156181777,0.07582869425878012
383,0.7198388173984331,1.3890385196810662,0,0,-0.17603785568633648,0.2571636829431035,0.07734787371212144,0.1751957331558449,-0.7970029489546293,-0.12123627254439831
384,0.8366751500860896,1.5269315111089752,0,0,-0.160810482594632,0.3713573865509518,0.20469499418077036,0.8641299372918292,-0.9128840285214009,-0.6872507174708175
385,0.9643114536426763,1.6657854656553333,0,0,0.03404819967807131,0.6276423384801653,0.46454666158720326,1.5052793633446888,-1.0989471780830178,-1.3419499773611336
386,1.0896414513410997,1.796683481601993,0,0,0.36447557704788525,1.0465941730426225,0.7420471183874429,1.5162853822017581,-0.7660610468891356,-1.296612805753735
387,1.2006227062374226,1.9109185742966834,0,0,0.7738512407324111,1.6635758839526043,1.0500578931740423,1.382999,-0.9386517819415493,-0.9731692710315818
388,1.2880067773630983,2.000700713879579,0,0,0.8294996889528927,1.9028163847787511,1.1301690278428043,1.4627026273355688,-1.3047057310487828,-0.6358011139443038
389,1.3464952240291497,2.0596824294646296,0,0,0.7148519606949035,1.4510158474993937,0.8430285576123314,1.680167109700456,-1.2140670121801318,-0.46493432636382065
390,1.3750682562120993,2.083303046803355,0,0,0.36788149329578,0.6192419051659472,0.5566242515469207,1.4507108844533578,-0.9402665393179523,-0.21802589861584637
391,1.3764748061840952,2.0690200910763075,0,0,-0.1397529297065515,0.3557265385168165,0.2728720176150782,1.3080935325120202,-0.9721688108754056,-0.2137703411157851
392,1.3561143719336457,2.0165149359742,0,0,-0.2373614366014552,1.201094004364284,0.10504409088936416,1.3005111923611083,-1.4138975964285785,-0.28284241736111276
393,1.320662034941933,1.9279255181579082,0,0,0.05115664557140465,1.7890054514533456,0.12471425112914417,1.1366591791104015,-1.721064314535351,-0.35781854916600603
394,1.2767550450599556,1.808084715208739,0,0,0.1681806206766152,1.1271483401139388,0.027296327187247584,0.9744277842490019,-1.7859268424701182,-0.506645133225101
395,1.229950252649654,1.6646663678319549,0,0,-0.08190333069587138,0.5726644927675024,-0.11909959419315932,0.6980517744064443,-1.486724228068418,-0.6263748220925526
396,1.1840729347463215,1.5081060093190861,0,0,-0.12979521112286826,0.6961093939072995,-0.42693501523788296,0.5956540754383525,-1.1671007686126997,-0.7725148461151827
397,1.1410231932392434,1.3511841681049772,0,0,0.12554430259038765,1.0914731860166993,-0.4222807213499201,0.5953395463046055,-1.0899944545454592,-0.8796098795513569
398,1.1010366074553972,1.20821420357145,0,0,0.2865495858610134,1.292709539582308,-0.15676850753118196,0.6353529649229597,-0.9370695851205004,-0.9652406800474159
399,1.063294229897257,1.0938369720600922,0,0,0.22919039183473772,1.3264860078388443,0.008578582578412373,0.8056160857690015,-0.5885633970077723,-1.0832466694793548
400,1.0266893803746049,1.021487880935472,0,0,0.16966863677843208,1.2301130990065055,-0.0781155456299566,0.5897549483403274,-0.44865663998000443,-0.9769749229754014
401,0.9905357043930945,1.0016815477144752,0,0,0.2106758784224981,1.1860101801554532,-0.16931474825140042,0.21714022890814177,-0.2974757835861495,-0.6753031872523502
402,0.95504801769545,1.0403558619143258,0,0,0.17099648888062755,1.0106931701155426,-0.08263078603819776,-0.10234231914444758,0.16302989866084805,-0.465338933314121
403,0.9215139629658289,1.1375998230775886,0,0,0.09867967419993638,0.8338359166070182,0.037246156766837804,-0.022231735118736645,0.4082258002429696,-0.07737190469450811
404,0.8921647226931347,1.2871069539300948,0,0,0.04850483962034131,0.7791638948482525,0.08742254971535765,-0.22335339703114981,0.18740985194732257,0.017833073355145113
405,0.8698209300481363,1.4766077293079534,0,0,-0.005986837826483724,0.7973848496421286,0.04532034678295842,-0.9705032619708982,0.5120972580290634,0.10134121121727722
406,0.8574219315799185,1.6893367272495599,0,0,0.023624379123095368,0.836623000809561,0.0030297417864853294,-1.5494154493670615,0.6769767799276729,0.38839431287522125
407,0.8575441323819865,1.9063270169517772,0,0,0.12652182731567124,0.808788366303374,-0.027902268827339663,-2.411989113476445,0.96556795471777,0.7803967230085302
408,0.8719915711387137,2.1090807718878626,0,0,0.2502991597834142,0.7375463503303877,-0.0269535228914841,-2.741755828661429,1.3479162030708312,1.0128658788976461
409,0.9015147403190266,2.282038892313518,0,0,0.34746721831731964,0.7163563929265567,-0.04303224477893251,-2.6384139714429056,0.90075923200883,1.032489141962673
410,0.9456880237617805,2.414325273815259,0,0,0.3298917045800453,0.8082584875445733,-0.09287785287749,-2.4468024958609265,0.8465574340397435,0.9493232847268228
411,1.0029491126721455,2.5004589734539193,0,0,0.3182296441492807,0.9574955307565541,-0.02220840217887875,-2.3570628198516315,0.4484452676559359,0.8427152419250167
412,1.0707731394537603,2.540022796354875,0,0,0.34547184321307406,1.1213832457797257,0.08479864532165167,-2.0408266149071954,-0.0662249954410433,0.7275917001396908
413,1.145925504978672,2.5365398222150404,0,0,0.3833695013061795,1.2504585379438784,-0.0389162284911233,-1.8374525872456704,-0.2497006215184611,0.768094907799544
414,1.2247219631355701,2.495962744778015,0,0,0.5584829012041118,1.1958562281754044,-0.10785285440452344,-1.6278998428487343,-0.16264871630959396,1.0368130047086517
415,1.3032320255923242,2.4251998519256497,0,0,0.6557711946623259,1.1786920834065555,0.2139203120600055,-1.6790300152926907,0.11082001204738251,1.332659013267156
416,1.3773921839452012,2.3310048358912394,0,0,0.5776101862851538,1.267310441505934,0.2678009003604586,-1.4968922654527477,0.5011196675000067,1.5047883705708691
417,1.4430383068827084,2.219393135005645,0,0,0.45881164774891414,1.3221672289205755,0.1751516383257628,-0.997135019999979,0.8677272687106016,1.512211198163668
418,1.4959073056966838,2.0955726653881177,0,0,0.27268560276964643,1.2977381816701707,0.15670738099406045,-0.6802326894545061,1.8415975353682676,1.394903133261125
419,1.5316847248966714,1.9642367823344884,0,0,0.11135522483549855,1.2370427468107916,0.010053212321283742,-0.36111600006391803,2.1738097984025395,1.185743135463278
420,1.5461780101349856,1.8299889044970055,0,0,-0.03681522906771657,1.3994025730251054,-0.055880500592029266,-0.12211097516352072,2.0613854353799392,0.8779793304397099
421,1.5356678141796507,1.6976682245744639,0,0,-0.21540461460563493,1.4407261263394797,-0.16068349470592844,0.14037312692495446,1.6572411122297726,0.6268068826861357
422,1.4974334082232832,1.5724252570971684,0,0,-0.26158787410600587,1.535551800874897,-0.11671867541317836,0.4877385698998125,1.2236922835671178,0.3441986911222339
423,1.4303795131348964,1.4595209156326474,0,0,-0.23930884410601538,1.568073163409886,-0.012628696350172334,0.8829837784385274,0.7994954163559578,0.05542566029499915
424,1.335636210277612,1.3639322948239219,0,0,-0.15053603554947406,1.5540989250013284,0.03660816245567557,1.2021422878889412,0.5791277602087354,-0.21496297556913083
425,1.2169816493318166,1.2898953031296367,0,0,0.03140326390643059,1.3731353223633163,0.01573307029237188,1.2715905657498494,0.1483463188857652,-0.41912168779361625
426,1.0809555915815345,1.2404985409202365,0,0,0.17730142346269742,1.1433538268808028,0.05836277019808314,1.040996275620008,-0.4685283856368229,-0.35113672714165584
427,0.9365825345197879,1.2174008519276267,0,0,0.22973148707644334,1.0417982283876472,0.005833509575555456,0.9257576436331427,-0.701780593308387,0.1256459468287535
428,0.7946893692160343,1.2207105589969043,0,0,0.15700720773422824,0.889542755534591,-0.012793696211833482,0.10925868727069749,-0.3026624665154487,0.676536549718027
429,0.6668680102271793,1.2490415128395176,0,0,0.04590641005601673,0.7079775815094654,-0.09777891190223519,-0.9799911818214299,0.8636987660071934,1.08970806858222
430,0.5641905651501726,1.2997350348674623,0,0,-0.03752470261762512,0.5471198497105285,-0.15322635656435005,-0.5410331244574127,1.1073565063504933,0.843563450387868
431,0.49583230796794037,1.3692052721136212,0,0,-0.08758673504148873,0.3490312013745454,-0.11488783553246508,0.12457636987756708,0.27920935964290233,0.15244096977129898
432,0.4677933305905936,1.4533415780347734,0,0,-0.13333100404182777,0.222906932315094,-0.02054246868804016,1.6739012446552337,-0.8795423220734943,-0.1252058185986446
433,0.4819255324821555,1.5478845962947656,0,0,-0.12966696905939046,0.14315454916401682,0.019541767665299088,2.1218137215554083,-1.5006635894394906,-0.8003844630970961
434,0.5354579520357777,1.648674792970244,0,0,-0.14173330659480032,0.102278864892394,0.02044358303749982,0.7544698123251606,-1.8159881126276063,-0.2880184749550042
435,0.6211634453307945,1.7516851954543098,0,0,-0.19993543762176347,0.12780134034132037,0.03989101489975898,-0.941940532648994,-0.5931164989435914,0.35522855034881406
436,0.7282219982184669,1.852840634401303,0,0,-0.260736992031732,0.25954714124603523,0.15419892403601154,0.3876998121484603,-1.0500217336085935,-0.01025529831844895
437,0.8437156995563455,1.947759522147235,0,0,-0.15036463733217062,0.4985383611645241,0.38624391149081555,0.6798493058785822,-0.8204727852734961,-1.0238454473051746
438,0.9545504642306909,2.0316190860158105,0,0,0.17181814780457344,1.0355195833136996,0.7056639813625029,1.1909059803496296,-1.1229630934306647,-1.670789305224759
439,1.0494648317111244,2.099278078650305,0,0,0.8631645797147365,1.7823507922638555,1.02205866626821,1.4270654267679614,-0.9319965752072812,-1.5083990872068997
440,1.1207010572373473,2.14564948169687,0,0,0.9028541986756082,1.8855757539719067,1.0568682095303992,1.552818830717131,-1.551570624800769,-1.0998893667729355
441,1.164939311490503,2.166207318928145,0,0,0.6263509005430429,1.1687684095504403,0.7764141387516821,1.4205368668965515,-1.4725129940689736,-0.6108694478620611
442,1.1832726299624425,2.1574919865777344,0,0,0.24540286644794065,0.3648378926194007,0.49051368385071786,1.6154991948364237,-1.5719403456247485,-0.2581906726980602
443,1.1802896410486068,2.11752651091173,0,0,0.00716881050523571,-0.05001953596131525,0.14865608287484797,1.5835224000000088,-1.4618217123076978,0.048317090423081764
444,1.1626047503828971,2.0461210880071907,0,0,-0.32832744457800933,0.09868042069026682,0.10656053265095393,1.2375451863300961,-1.171284389423292,-0.13250443395727918
445,1.137290213367248,1.9450896238859683,0,0,-0.1963630974393478,1.264390976666628,0.19664516482713162,1.009741734839096,-1.2399253929042584,-0.47792627923646047
446,1.110577295163372,1.8184139382149136,0,0,0.4191040019609675,1.8084744874030139,-0.08021396131825641,0.9451776966906461,-1.2610257942446077,-0.6137174155395675
447,1.0869933386044903,1.672362308820929,0,0,0.20704982968556682,1.049990824047376,-0.06778064742193282,0.9741266058242807,-1.696095164442238,-0.6945822582428389
448,1.06893510423577,1.5155096446113774,0,0,-0.34152512226399867,0.43833172366944867,-0.10116668020670477,0.8520763115173262,-1.253090515014872,-0.8223838694203713
449,1.056627176396752,1.3585532341067192,0,0,-0.35278898020881316,0.48799502301220943,-0.345135205217228,0.5858117501018515,-0.9399589426482895,-0.8219786759736357
450,1.0484352147770026,1.2138100804586889,0,0,-0.06372612296208181,0.7759230059610572,-0.5028290655528016,0.5716463119410531,-1.059210916463159,-0.8755118452884216
451,1.0415013576658085,1.094326735068863,0,0,0.26157154394728027,1.1530271484369463,-0.1857072528514274,0.603173861668959,-0.9949173585020724,-0.9932368466679706
452,1.0326045924004643,1.0126091122321281,0,0,0.35592908623937025,1.3974742448787096,0.06422698866116387,0.5652932738823598,-0.5382771870588442,-1.006418400705885
453,1.0190670713622436,0.9790721979001646,0,0,0.2624161950445225,1.374097061711726,-0.144788505971444,0.22708069984864337,-0.3780380007486935,-0.7933734583432699
454,0.9994944887591727,1.000414754224981,0,0,0.26251333226775003,1.209427976107726,-0.23289147856840264,-0.09518501197265647,-0.051153000822136335,-0.5370838113302768
455,0.9741837283757027,1.078223850314242,0,0,0.1929063608561503,0.8733082912662756,-0.04158690068761402,-0.054017511899497904,0.38978126928472484,-0.20937780504694395
456,0.9451341406887204,1.2081632285702324,0,0,0.08754661220155319,0.7781282522809351,0.031610085659171054,0.07266223311262096,0.14778481989297976,0.20617058011222494
457,0.9157111237068788,1.3800516075655693,0,0,0.016601389549130402,0.7803659795087566,-0.011392998432705217,-0.6091656703637109,-0.10474911002997225,0.14208164218780353
458,0.8900850915611833,1.5789747252503101,0,0,0.004025390661519811,0.8381011502163694,-0.020300401957189053,-1.4195418340954644,0.1470515439661972,0.2951723806163063
459,0.8725865661054738,1.7873238298344456,0,0,0.009476033127467474,0.8572256023458324,-0.05485849562403216,-2.319501428594106,0.3396097720889498,0.5915722641779088
460,0.8670934252043295,1.9873839721542776,0,0,0.1328517735181824,0.8188096875883428,-0.09720331648892633,-2.6773392934278784,1.1172834824210942,0.7917554811925661
461,0.8765280271054438,2.1639085661251554,0,0,0.2660824051828216,0.751724436942424,-0.011061922225069578,-2.690159336817062,1.1995238598575129,0.8822729448099632
462,0.9025095708548982,2.30609807147839,0,0,0.3220070560858573,0.7432083649408981,0.023662069138865725,-2.3949618138519555,1.2061659596348184,0.7340959798213915
463,0.9451828855193715,2.4085669869975734,0,0,0.27666987669314524,0.8514276787469554,-0.07100762009727764,-2.4831200927835084,0.19519584786078342,0.7913003384278404
464,1.0032219920645193,2.4711677872128517,0,0,0.2795902440708389,0.9982739205668691,-0.07140762554674027,-2.168410958717808,-0.5462476647812784,0.8476004383463147
465,1.0739816094348416,2.4978351280193056,0,0,0.3173035256504965,1.1155400019054182,-0.021156031191768183,-1.7306400510155573,-0.8585871562126713,0.8396381315770626
466,1.1537473929079596,2.494829683728938,0,0,0.4212658818484897,1.1882646796774978,-0.11555585931993761,-1.6433857553153133,-0.4121648364264123,0.8958544451051054
467,1.2380259035144274,2.468856656957071,0,0,0.6676097400534465,1.092055672541899,-0.030473932691773564,-1.4715390215166244,0.34706513993050697,1.1489358025027965
468,1.3218239604021744,2.425506819625344,0,0,0.6620733624634357,1.136824063538938,0.1851968007439233,-1.4259537972244143,0.6206267746574805,1.4376937595669255
469,1.3998906628639085,2.368340683341308,0,0,0.3780951408435976,1.3857820356594581,0.25047613404500574,-1.1611282544253125,0.7002730885863024,1.4920649433720468
470,1.4669238510219036,2.2987503994426146,0,0,0.2014662070156503,1.4484708300531721,0.2048668222004483,-0.9246022305599944,1.2534924723200154,1.389838617919999
471,1.5177669981486277,2.216537272861471,0,0,0.13132655663700746,1.3461988940331306,0.008340208314419385,-0.6907191640023929,1.9961700509287112,1.2952363357100043
472,1.5476378686702843,2.1209749154900095,0,0,0.017006337396626825,1.3764022536067422,-0.06857162279951436,-0.39132060984468453,2.5737448205894053,1.004755763201913
473,1.5524321168771027,2.0120203674334967,0,0,-0.1668672054018482,1.3814154155263545,-0.2581879221263831,-0.05639020802244344,2.505953873406812,0.7106787159919832
474,1.5291264514792222,1.891318306749446,0,0,-0.20988465722476682,1.4382628773989252,-0.10948818964162495,0.29776088720207117,2.1228084253420296,0.5516563674697514
475,1.4762654233235153,1.7627313469590753,0,0,-0.21532139521076926,1.510136760422723,0.12036761920618685,0.7485478553097589,1.3920844627915983,0.3913526358004766
476,1.3944642827891942,1.6322932572651052,0,0,-0.1915007732235525,1.560072964592109,0.1518789337300248,1.27145397428116,0.6277640828693933,0.235518007657743
477,1.2868176092980435,1.5076519555677228,0,0,-0.09179247097973707,1.50718187787879,0.02585917077158712,1.4423999097966338,0.1139016991914565,0.07478972540478131
478,1.1590882215207172,1.397179308330519,0,0,0.037577842707165104,1.2633989526613292,-0.05789039892929074,1.279105562186873,-0.14232042452286967,-0.031504980202782314
479,1.0195718242635499,1.3089550847301408,0,0,0.22771372677548196,1.0899322110445135,-0.09162222168124992,1.0683972789934322,-0.48853617441616465,0.017846635362703336
480,0.8785838730546188,1.2498068600829757,0,0,0.3244927465864721,0.9889733454595518,0.02203236324391445,0.5237209850182158,-0.6051632935980497,0.2927235237641874
481,0.7475797498151466,1.2245378203898023,0,0,0.2548812549757319,0.7987681662778046,-0.009939220776008414,-1.0733557837036631,0.35288780744441084,0.9968687207407156
482,0.6379828412639331,1.2354160986614633,0,0,0.14100137418485084,0.6036300643511253,-0.12408626719003871,-0.9510969100019803,0.73242294893106,0.9754299305694188
483,0.5598513985249111,1.2819439042931402,0,0,0.04735427120020844,0.44069879706253395,-0.21354131126437312,-0.25939591247148147,-0.14886182307984955,0.33684107163498017
484,0.5205606295870763,1.360888117932091,0,0,-0.06954375980053544,0.2618942112628124,-0.19768780305383865,1.2164377478277937,-1.1917401032632178,-0.028879264317670055
485,0.5237032854867822,1.4665369316148702,0,0,-0.17131285488299217,0.16936932770115162,-0.05461460342168156,1.3193536338241818,-1.3611698380731683,-0.7191146831552433
486,0.5684095536863873,1.5911341616648162,0,0,-0.18271316788974715,0.1659988057784948,0.01485556149317221,-0.12582338329363385,-1.4069455708930638,0.001977030785761339
487,0.6492482377064916,1.7254374496509868,0,0,-0.1976798548119666,0.23353476900886094,0.08620361150750377,-0.31279697061663386,-1.3297436407497147,0.15432693769043437
488,0.7567949731579136,1.859366248474764,0,0,-0.23576850835471483,0.35321562396614725,0.15766175376678138,0.788836737753215,-1.1267552931687983,-0.6059817028233222
489,0.8788453884445535,1.9827324784306086,0,0,-0.20090352516787038,0.5466155042946544,0.30964182785234723,0.9247184478787784,-1.0915584453333294,-1.564989037858539
490,1.002124103459019,2.0860362370636887,0,0,0.06711052750632414,0.9095922562576614,0.5933843802191696,1.396540277576242,-0.8113550480326865,-1.854192759517639
491,1.114213806324183,2.1612564516641664,0,0,0.5297879500856109,1.4942164950143333,0.9007706667647702,1.5465237598463633,-0.7731236436013167,-1.4863357347760666
492,1.2053334254491253,2.20252160972311,0,0,0.8444530930278787,1.85980736874187,1.0819949107989768,1.6750757457131558,-1.3210857373567817,-0.9515807495377133
493,1.269576720015286,2.2065532439236852,0,0,0.8437154458107167,1.7207389074977548,0.962069673940244,1.6659869040206987,-1.419181983718151,-0.4741549673845596
494,1.3053274564070199,2.172830310264692,0,0,0.3890526180492389,0.8222669131035089,0.7100646019637826,1.8283356262097574,-1.384472764408458,-0.19335440964251616
495,1.3147949108271693,2.10349121177668,0,0,0.028145175126257034,0.12228055207508397,0.2914474511977657,1.5331997995984539,-1.2201168108612648,-0.11570377244328656
496,1.3028824649433788,2.0030448550170017,0,0,-0.4309933237218539,0.16238607751877468,0.06713934805119345,1.2562679088276167,-1.077585567526287,-0.22173972754017
497,1.275778210708115,1.877991092677903,0,0,-0.22288754628014376,1.3089433896977436,0.12567199600822684,1.0835177939851153,-1.111868654415607,-0.3100000369784741
498,1.2396510133875704,1.7364446044814983,0,0,0.3852685298998553,1.7976761296432964,-0.09228808598686405,0.984413331304093,-1.3985729687177422,-0.5784757798312683
499,1.1996865163121244,1.5878092782838644,0,0,-0.004182451051631164,0.9541663847449984,-0.08219359198270439,0.7937059098320403,-1.2810452977672322,-0.7538700495988961
500,1.1595347045063085,1.442478255651049,0,0,-0.33630865054653153,0.6278537867698422,-0.235074446888574,0.5930810805853797,-1.0302317541986197,-0.8092832535627804
501,1.1211568691598413,1.3114727655742586,0,0,-0.08301058128690415,0.7249114178597489,-0.4114404756258804,0.44837508,-1.0952814,-0.9984592
502,1.0850362390216912,1.2059079371090224,0,0,0.27678891039346953,1.0894322025279088,-0.3529099296420982,0.5383507715264328,-1.2243767771530378,-1.1647997928133067
503,1.050682935045968,1.1361931685221693,0,0,0.360319371457386,1.3064116991406176,-0.04938616025093248,0.7067464025891254,-0.8425182731029653,-1.2336312288189604
504,1.0173003653980057,1.1109409876256813,0,0,0.34017986739797546,1.320420859046958,0.018198447793532937,0.5042042662709657,-0.4226892583803862,-1.0982953069128842
505,0.9844312222344241,1.1356750950229084,0,0,0.26593025807641996,1.1725523084770548,-0.16620401187005954,0.0922581984318005,-0.1310467235187668,-0.7794811850190673
506,0.9524127203676467,1.211575419480784,0,0,0.23181528061010437,0.9772200895951029,-0.1895763496701836,-0.10232029332691961,0.3023572399037667,-0.3152349990840141
507,0.9225433310617855,1.3346159510405948,0,0,0.15688800177932932,0.8037029811196216,-0.0722148976732684,-0.04398109063611879,0.031164143193171276,0.07450046060214063
508,0.8969599172126228,1.4954641660106016,0,0,0.12201970537475514,0.7403946703410403,0.027664308028882544,-0.6951837605706627,-0.0946343065504333,-0.1288098350366618
509,0.8783018767212871,1.680372602170758,0,0,0.07170697518239064,0.7981290710059188,0.11507576963314657,-1.6456306951006066,0.3390471262597411,-0.05568983893305519
510,0.8692733736165124,1.8730231291082657,0,0,-0.10884751928707259,0.835673708384527,-0.016475199082416483,-2.2571349855810805,0.5310652945431912,0.4847105547979857
511,0.8722077579316532,2.056975581303219,0,0,0.010511616111327548,0.8391180179176128,-0.08759971679990691,-2.6057935411252022,1.20779059607766,1.1011187222266297
512,0.8887091662753053,2.2181530146899004,0,0,0.17428118940641255,0.8023155670368839,-0.0754068492139678,-2.79380150094227,1.1213554316843246,1.2658875885747873
513,0.9194149427044609,2.3467611666204573,0,0,0.2958799277008068,0.7926568287575407,-0.0064832925587857545,-2.523317103650052,0.911530698876003,1.030860931633825
514,0.9638970186121633,2.438202956375979,0,0,0.3428134855919483,0.8497424595941309,-0.0807459252151824,-2.522502118953471,0.5355277403635076,1.039981895825845
515,1.0206981697280773,2.4928427493512513,0,0,0.3541293222465646,0.9463158781966183,-0.08278539900911913,-2.0690588912117414,-0.14128493902571546,1.007016979257155
516,1.0874764959167338,2.514791544010514,0,0,0.38485647245741406,1.0659393947234599,0.015569470191762223,-1.4070218093999916,-0.5392299827099869,1.0797519475000037
517,1.161210561546751,2.5101228361306234,0,0,0.4670003446034259,1.251405169812753,-0.03407727879375191,-1.4385411560814854,-0.4217597592170955,1.1060087496305178
518,1.2384057192343594,2.4850284873557413,0,0,0.6261765324255757,1.2373886693204792,-0.019372266011196983,-1.3750368735976184,0.15087651291769663,1.40945308057481
519,1.3152477327546557,2.4443726939004025,0,0,0.5783616093948978,1.2386864983919068,0.2669887288490853,-1.5393537773134292,0.30979839512837076,1.5839786059104484
520,1.387677041617247,2.3909366428444336,0,0,0.40845640365012825,1.3147009728937917,0.22927003364707593,-1.2498677052631546,0.5948059022807058,1.656093175438597
521,1.4514002465271683,2.3254343652936114,0,0,0.19068655224663802,1.3307316001979248,0.17908734173742433,-0.860148036799193,1.1666566679121029,1.5253489907292677
522,1.501899208515963,2.247184618675255,0,0,0.12930405178235937,1.2895095443160092,0.09323171713070542,-0.6020148382521365,2.0821437942135668,1.3250039624975132
523,1.5345242165290018,2.1551777743548555,0,0,0.06893084452733558,1.222928177109475,-0.05690693728794839,-0.41015163954762596,2.740668253035711,1.1324987486904832
524,1.5447521846857808,2.0491974901409433,0,0,0.003849563524072272,1.3654467893217552,-0.12951177011091308,-0.11329224417042766,2.6276794723613874,0.7789501427855305
525,1.528648738748307,1.930668061303242,0,0,-0.1086976676665491,1.5461527118179257,-0.19044650509990227,0.2182495857043068,1.9981467624375366,0.420999423312678
526,1.4835025321482478,1.8030146844318586,0,0,-0.16108987657891727,1.6288437014032124,-0.02988329672296757,0.6804016042857001,1.1861481011111326,0.22543399550000345
527,1.4085251490571726,1.6715087234959605,0,0,-0.15814806391445435,1.6357740483202399,0.03577492330723959,1.1672103007904924,0.5425990040316416,0.06298648418894222
528,1.3054615376975167,1.5427345102509642,0,0,-0.11674285234385913,1.4764365997840063,0.003291087931550235,1.4242490366520424,0.207630568355918,-0.15153534904231625
529,1.1789539748290485,1.4238814133169329,0,0,0.02120398652990152,1.2179918629553945,-0.004969233644112641,1.451120512889239,-0.2046783748285596,-0.41775839589279945
530,1.0365439533935767,1.3220312866752408,0,0,0.21247096417686664,1.1388528712196535,-0.009687988200853386,1.2409546573000136,-0.21348958092600587,-0.4575290902800067
531,0.888260106620348,1.2435361879841047,0,0,0.22133037307008221,0.9974833134621639,0.05248830556758202,0.9889636141337285,-0.39342675602085725,-0.13987379122867968
532,0.7458045362408934,1.1935221665020515,0,0,0.16405531720717015,0.8254579292254328,-0.008114379587331064,-0.4535705153612147,-0.09418646235500976,0.7506096529942834
533,0.6214057076580789,1.1755234981652898,0,0,0.07342738208962163,0.629921259574554,-0.07832913312448614,-1.1642259558379697,0.6571546941779152,1.201554532327244
534,0.5264552705482078,1.1912297060506392,0,0,-0.007510531342278934,0.4843043524177378,-0.18494294149490484,-0.551443052705321,0.6076529050030217,0.8819927755764386
535,0.47008952331918413,1.2403116084441193,0,0,-0.053270556731226285,0.34466845894500836,-0.18231250811696098,1.0636849736926564,-0.6201916419951641,0.13741174435238884
536,0.45790795680433094,1.3203017875915075,0,0,-0.10162460652501348,0.19846308737027057,-0.0630418359103327,1.0601294873506968,-0.8799351518735576,-0.506924323651485
537,0.4910330240126853,1.4265456096911746,0,0,-0.11511652222428247,0.13858775013895971,0.01574285495414548,-0.249824327301065,-1.1285570493716324,0.2667064743567024
538,0.5656991910317648,1.5522868856243555,0,0,-0.12555667550314226,0.12564452033974863,0.0287695663070092,-0.09301959016758043,-0.9964022852513899,0.3435093225139535
539,0.6735080771508786,1.6889740125299129,0,0,-0.22429976585386788,0.15841017886062672,0.11451497429613433,0.5885278552867946,-0.8188819937437531,-0.42029896774930314
540,0.8023959896709864,1.8268437336936718,0,0,-0.2433493791637323,0.291050814388297,0.2885106750760478,1.1595996265924922,-1.0184097962183902,-1.5958597746409782
541,0.9382348832124123,1.9557546491680793,0,0,-0.0984666753090923,0.6085433625198483,0.5107110435922881,1.4508398794682729,-0.606955907820644,-2.0293195190374558
542,1.0668437285264238,2.066135210525204,0,0,0.326173855182518,1.276726844919611,0.767997489290964,1.5024675844474238,-0.3710001923692772,-1.6065439396092718
543,1.1760544097531196,2.1498504978216784,0,0,0.9707315496640981,1.8072061564422643,1.1021846368095252,1.5661003337181476,-1.2406396690385733,-0.9208765838674766
544,1.257402853216755,2.2008236250748,0,0,1.080403028596074,1.897898324194698,1.02683719873254,1.7767475470238028,-1.5879307089093755,-0.4411237196447867
545,1.3070608683654157,2.2153462810272004,0,0,0.5955680732389825,1.1016603322708358,0.7497793172835546,1.7761620144482027,-1.1630107544601518,-0.2881217129135747
546,1.3258155563480563,2.1921174817480225,0,0,0.056709355621633435,0.249730269359601,0.3965416239617029,1.5151140898382778,-1.0514352890796614,-0.20981640715312483
547,1.318185225022671,2.1321193256989504,0,0,-0.2386504863915431,0.4341644751039658,0.07110129102608306,1.3212540079055313,-1.1252061886980285,-0.24639774068124037
548,1.290997817725311,2.038458654589368,0,0,0.07437200846791868,1.5191088186741037,0.12859132372265075,1.2233053250596666,-1.1846863542959416,-0.3921521126491644
549,1.251832757329635,1.9162670613720736,0,0,0.28878327271003146,1.5449639710527046,-0.10800276278629063,1.0676918224348746,-1.8619255560379087,-0.4243147271783824
550,1.2076459750287913,1.77266816951525,0,0,-0.11250054827556084,0.7175791538731362,0.016772890243709697,0.9611154293041702,-1.8006163588468969,-0.7004254800198924
551,1.163770810526328,1.6167311748678233,0,0,-0.43711786687298954,0.46336084216389095,-0.22283236016772243,0.6350456305885805,-1.0794823665465334,-0.8426796113093107
552,1.12339904128004,1.4592835342573347,0,0,-0.2912959700778697,0.5959442927422278,-0.4437846224541285,0.48012484052757853,-0.9663253208633118,-0.892742877498003
553,1.0875815638213737,1.3124693834725525,0,0,0.14895240229846168,1.0311890570354527,-0.4747206401968289,0.549822280734499,-1.3313956947019874,-0.8753456271824193
554,1.0556971823116905,1.1889866115731644,0,0,0.4061061100131029,1.4389933526407939,-0.216483830822936,0.5934304396198036,-1.1806597563960288,-0.9458335935445604
555,1.026226410940037,1.1009880992357526,0,0,0.2838016123504157,1.391691365640771,0.05956490236626026,0.6515715843702656,-0.8495114245157364,-1.0207495918493426
556,0.9975944154414548,1.0587005197000987,0,0,0.09917819421484825,1.1567064152642437,-0.15274973710704742,0.10669647014834036,-0.6099634423616657,-0.9089934017401724
557,0.968858779908377,1.0689161391258597,0,0,0.13017980566416398,1.0137224184461031,-0.17345070675164606,-0.20081352151893458,-0.36582807876454143,-0.6195315013666153
558,0.9401037842219236,1.1336326094071856,0,0,0.10568159724687025,0.870663078572923,-0.07814753762981035,-0.12889680949073354,0.18892138861111504,-0.12215183815739226
559,0.9125128532245771,1.249196439570225,0,0,0.08689219578582019,0.8212122234667688,-0.010873925203099002,-0.05260504492505517,0.060164338631690344,0.1906180905353323
560,0.8881759435642972,1.4062843090078043,0,0,0.07851315710209512,0.8319249207149927,0.013400762360872748,-0.7755290883310348,-0.10542343382310057,0.03659836477348804
561,0.8697289308706873,1.5909004394955475,0,0,-0.04581173951448367,0.8083471156939626,-0.026033848754726106,-1.5290544712366798,0.2747924713631097,0.22433452632557616
562,0.8599243082890079,1.7863051194307926,0,0,-0.062394772158773815,0.8305003656652273,-0.11990596803975015,-2.222573413302875,0.5085426088387535,0.5031254567409132
563,0.8612141035067183,1.9755082038243181,0,0,0.10769027780033733,0.8282819026813678,-0.10585896320149332,-2.430530948358689,1.1940169003202705,1.0265609682626204
564,0.8754021871100369,2.1437745665008134,0,0,0.2889629132615663,0.776765431377567,-0.02253679317927036,-2.549350342786853,1.1594088621728005,1.1869958656563668
565,0.9034021528036331,2.280573128561533,0,0,0.32853693739241696,0.7562123223006982,-0.05542858218799294,-2.3048565664855176,0.9296306599637867,1.094954937318847
566,0.9451195240604745,2.3805606554702634,0,0,0.2593505025113724,0.8088791627294177,-0.1177001696281996,-2.387371215868567,0.3396656816168892,1.0952273017832106
567,0.9994594557577131,2.4434600304241765,0,0,0.25907131039118575,0.9491445094902139,-0.03140458545931704,-2.159974854450672,-0.10539176753209935,1.0910071368083398
568,1.0644397458421473,2.472973732252732,0,0,0.30461355910161153,1.1020624685620684,0.025609767199989832,-1.7098991708366655,-0.44343342113146644,1.0552716470119525
569,1.1373657828935475,2.4750860691735013,0,0,0.4466882181805327,1.2562364994704813,-0.1314582989330836,-1.4796633201382023,-0.39418779122212116,1.06836721804541
570,1.2150086173863146,2.4562095634447814,0,0,0.6552017124397437,1.1539737956471112,-0.11632686281429494,-1.5293772949969588,0.3719762394895817,1.295670446708538
571,1.2937319742749618,2.42161311452476,0,0,0.6508014750806346,1.2148286387459244,0.24978210211852309,-1.4303632520958076,0.5369858594810366,1.4492589009980046
572,1.3695439555020954,2.374452205928882,0,0,0.44286379581884777,1.2901684197600212,0.23983707234404816,-1.265191156669987,0.6583241474376911,1.5260977071186452
573,1.4380962612875265,2.315548496742935,0,0,0.17311205603526159,1.1776596596875222,0.2186390344207148,-1.0211528088704962,0.9786343465996297,1.4684396564163247
574,1.4946991246648478,2.243886198196064,0,0,0.17497083815877107,1.2179841310778696,-0.03841003460058208,-0.7817577539179461,1.739556009371964,1.3287770101108298
575,1.5344421280724685,2.15763776929927,0,0,0.054699742488839825,1.3592645332851256,-0.12313287044189941,-0.3938225422874859,2.517810686721523,1.139105472307078
576,1.552494415969218,2.0554223109410037,0,0,-0.05662760458802697,1.488987838276805,-0.17845399440738205,0.012150780294744345,2.5021697118298785,0.795994886662723
577,1.5446038070666512,1.9374630274498097,0,0,-0.1172624500879513,1.5832518350777351,-0.1167684233977542,0.3344914030905438,2.0869511659842788,0.49252442394095897
578,1.50774376009226,1.8063668937477586,0,0,-0.20777638360238893,1.5774759123726594,0.022698022006954997,0.7816775857486798,1.4455059751653174,0.23882002579674053
579,1.4407984383999937,1.667382352069645,0,0,-0.21893602324758724,1.5592588173282806,0.06742466615826534,1.3074242499213897,0.7814331709315978,0.005944170740956413
580,1.345147999865652,1.5281365541855787,0,0,-0.15433947683796412,1.483422366617475,0.04282997748698506,1.588089973784103,0.3389053229102457,-0.2714989280980588
581,1.2250216514878072,1.397950449475583,0,0,0.019991312588225507,1.3198092295761923,-0.02077782627954097,1.403718667457647,-0.036290571064383284,-0.5401663916610011
582,1.087517593800631,1.2868650151694638,0,0,0.21472355658190645,1.2039588458224293,-0.039330428708303715,1.0865871638146054,-0.19178010741532503,-0.49167139204990645
583,0.9422363312214279,1.2045156322501238,0,0,0.3212411933758829,1.0353908322313814,0.07529105604310433,0.7522799545432562,-0.4751598214931513,0.0033017006790209634
584,0.8005279452856944,1.1589911702691675,0,0,0.2444405990619261,0.8171710502502578,0.05982106578131943,-0.7585054413969023,-0.1255838665685686,0.8089756102315097
585,0.6744091528486899,1.1558074351920422,0,0,0.13926861869398185,0.6637860116837228,-0.08590397557287253,-1.16020415713145,0.5679594816437391,1.0752760950329117
586,0.5752582855289317,1.1971026221769732,0,0,0.03413270958918212,0.5374663225785665,-0.24294550425055297,-0.16176972965921907,0.14584438348687595,0.7866471905610932
587,0.5124402933540981,1.2811385673465936,0,0,-0.0854096143631131,0.37309163220588887,-0.22701791925533726,0.9899971389480415,-0.33055534188648916,-0.34513849479324993
588,0.492043435824489,1.40218273704267,0,0,-0.17109846179644309,0.23600322259823212,-0.11373252519627002,0.18398614468938682,-0.8295337800913017,-0.41299946748361327
589,0.5159201887683532,1.550837279300518,0,0,-0.19326826134678798,0.13141575236098257,-0.011551547154810124,-0.40346082158954416,-1.6532391432796691,0.2110102526337945
590,0.5812126588492416,1.7148407149917737,0,0,-0.20577301293288802,0.07393136232357776,0.056490490814765044,0.3457862531539875,-1.167948719027714,-0.06053748895791349
591,0.6805004557017528,1.88028888073851,0,0,-0.25869137742346754,0.09816521356523628,0.14419679944564034,0.9573540341612846,-1.2368657733765254,-0.9905939505572148
592,0.8026304723402771,2.0331289299259407,0,0,-0.30384467192147546,0.23456155620475855,0.2772628583794283,1.3071872018911614,-1.6074062347742186,-1.7850989179467385
593,0.9341748145128672,2.1607024531603973,0,0,-0.18145636316511662,0.5309431824525772,0.4889816195869048,1.3314595259363644,-1.0085738364075587,-1.8702942902537205
594,1.0613276065563442,2.253079761160575,0,0,0.21270111312979645,1.1340429968824326,0.7072647706091653,1.3895388547297267,-1.0185528571541804,-1.337631010254401
595,1.1719191131609976,2.303962318518477,0,0,0.8032681124193968,1.7559233206335887,1.117373602961863,1.4544339035569922,-2.294041651495549,-0.7261965702021043
596,1.2571399570951884,2.3110289472174825,0,0,1.028726800260579,1.931079819727619,1.106135176382942,1.440351753888778,-2.0984597648723393,-0.5365460899663553
597,1.312586756164731,2.2757261043868233,0,0,0.6242768126776083,1.1182815604783232,0.7680057347022791,1.3456297279896172,-1.3160464461968362,-0.29897255870432765
598,1.3383996597456103,2.2026191745103048,0,0,0.010298222030427911,0.39516156326994584,0.4762813816438988,1.2920265814975367,-1.2391169088275864,-0.2809307346167491
599,1.338521677783891,2.098508036020629,0,0,-0.19967534700319017,0.880294277771888,0.14161719411034196,1.1763599628249735,-1.2431453127123848,-0.37568988029887473
600,1.3193485304108616,1.971537359554665,0,0,0.08826974790419331,1.6827302347959654,0.16710793692857695,1.2257976404411757,-1.1144248470588254,-0.38005025191176606
601,1.2881459977679122,1.8304808761034623,0,0,-0.006795231255634274,0.8489553918726565,-0.1783835535332467,1.2025628524500191,-1.5800190402195287,-0.3759000369639361
602,1.2515850066071437,1.6842716598402856,0,0,-0.3445900509824465,0.5734550730153093,-0.23980192622898105,0.9525885230175796,-1.6352194652904006,-0.5518698610765831
603,1.2146572246581437,1.54174274498873,0,0,-0.4607719729373945,0.5841955158533163,-0.40273724986010695,0.547403977535738,-0.9753136207471845,-0.7380053513911081
604,1.1801341319206335,1.411480815501879,0,0,-0.11192630518465145,0.8994854042472149,-0.48740572101367874,0.31058912420637386,-0.8685043273532997,-0.8172500040212703
605,1.1486140429114797,1.301685660958426,0,0,0.2764645785804133,1.2735580396358295,-0.3954567595061762,0.29268560940602123,-1.3140052420260377,-0.9858051638567943
606,1.1190649924219365,1.219940519719174,0,0,0.36810999336301903,1.4181276095660653,-0.05886064056612085,0.5688117491025642,-1.0990905030448714,-1.1760489495192308
607,1.0896578949453442,1.1728146509155897,0,0,0.21247211144604009,1.3495358007280367,0.06572680051765512,0.5685866389175256,-0.5779187853379121,-1.2925868171248571
608,1.058640104215899,1.165259012176663,0,0,0.1290075122715528,1.2431192375270639,-0.15153056606890716,0.3112715239421715,-0.4867424954069966,-1.1089083094376533
609,1.0250351759987302,1.1998436919262765,0,0,0.21963335029755743,1.0944235198003363,-0.17872490949348765,-0.14990494932044288,-0.39465956592941015,-0.8133821364307174
610,0.9890432733033063,1.2760042854346323,0,0,0.19440821743280012,0.9518734976510937,-0.12204740252051494,-0.3262621671928816,0.33588041466663593,-0.49732761890011784
611,0.9521170357398933,1.3895555199448815,0,0,0.18567302355139376,0.7769025296660486,-0.07848737851437508,-0.16859722655438864,0.6048499808875973,0.04517219591504025
612,0.9167670004463284,1.532735369577571,0,0,0.17333383124337676,0.7961171728279769,-0.0725067591731271,-0.6636199125990455,0.22217903546799841,0.33261924955270983
613,0.8861924027196966,1.6949351864199897,0,0,0.012357038640069913,0.844775284571525,-0.03016116029094376,-1.5062741028104556,0.7512766899541617,0.43068058193941094
614,0.8638365830225271,1.864070470813484,0,0,-0.017199097928590694,0.8719771243223563,-0.03707727222260882,-2.089368779086239,0.9385334732749019,0.7626119798404773
615,0.8529438663486464,2.02832030176458,0,0,0.12881595229026724,0.87745704897811,0.011283802377409412,-2.5450331343359065,1.0201836220023976,1.1071468662495088
616,0.8561662328876593,2.1778082485699315,0,0,0.2820897413888477,0.8029862916366897,0.047344625283420406,-2.5270322830732255,0.6602690336194493,1.1519655838535439
617,0.8752484441854592,2.305791824283362,0,0,0.2636528473190241,0.7319074671323115,-0.07214632748425584,-2.2354881764942647,0.6823760352183543,1.0790775797544774
618,0.9108121244890321,2.40907870828299,0,0,0.23784920541240853,0.7831327067375735,-0.1185435524945681,-2.279662215898053,-0.029698010841243905,1.0833688205097087
619,0.9622544771601759,2.487627077537719,0,0,0.2709323271306646,0.8773581729779594,-0.017956857953800767,-1.9786328437684648,-0.509365804878908,1.1265424503839327
620,1.0277659843937774,2.5435169365870434,0,0,0.38225390443320323,0.9800061688361296,0.07752664631642166,-1.6586972798208912,-0.4206587496895303,1.1494206801194062
621,1.104451396937774,2.5796281279479287,0,0,0.42045609400190503,1.1058503465733758,-0.05119549208150388,-1.6251945880079701,-0.03061627378644277,1.2052236927091655
622,1.1885173887769998,2.5984012249310555,0,0,0.5504869204084969,1.1302456866605066,-0.14566305410295186,-1.4654521278912895,0.5876992964094491,1.6423297404483264
623,1.275479973460056,2.600994691949643,0,0,0.748718838619162,1.2041388481933049,0.26197763545698155,-1.412834357680809,0.9527988007770536,1.7073245842199622
624,1.3603525204471607,2.5870146035128676,0,0,0.47026748039426675,1.4054243231066,0.12766427378917994,-1.1071777331343173,1.3710360098507597,1.5852618570149228
625,1.4378014578090577,2.55482825715375,0,0,0.17413008829786294,1.2938949394589505,0.12067089609189477,-0.7644525597931878,1.8406703054285292,1.4947689796778678
626,1.502294931018367,2.502324189338172,0,0,0.08706176401928413,1.2210270584204856,0.09918858937223424,-0.5690362807684632,2.514248441164689,1.4276052026415869
627,1.5483039745162779,2.427875249091113,0,0,-0.04723061960171814,1.34807620199784,0.03471483833389337,-0.3603496349407299,2.8398841505138424,1.291338677470365
628,1.5706237582517533,2.3312182283402416,0,0,-0.152266413065983,1.4380242809602601,-0.14570834217005632,-0.005695591031877683,2.5425054919047274,1.0815092333333114
629,1.564850499538289,2.2140043240170906,0,0,-0.13220685120435474,1.57510640420643,-0.08505951237994397,0.3918020264579997,1.9640596676109403,0.793276450683441
630,1.5279873918650673,2.0798989146107436,0,0,-0.1774441990964949,1.6190439096574472,0.033686751798217694,0.8727745599170966,1.4099269695480712,0.537055779190851
631,1.4590884975730365,1.934268011389265,0,0,-0.1705637584197442,1.6131601329876837,0.03884769595477809,1.1874278568420964,1.1348081620456834,0.2820447860238464
632,1.3598098879705547,1.783605933527777,0,0,-0.08375671752633441,1.4959154807649797,-0.05425235458902403,1.434444578677796,0.9048157422473269,-0.06598758122099284
633,1.234734269382726,1.6348874642561946,0,0,0.09935381559048696,1.3286070913154568,-0.026631592973242992,1.5671869880486828,0.19497887874940867,-0.3986639271368687
634,1.0913649926297284,1.4949820597742773,0,0,0.28930153684675186,1.1841016116295022,-0.05429846470147573,1.454560038239333,-0.2847211724621762,-0.6069176756533714
635,0.9397347698454117,1.3701984836156444,0,0,0.27674967853503807,1.0348100429286493,0.0015808080018295597,1.1320388842817501,-0.022257323856750565,-0.319784197453256
636,0.7916305379281408,1.265975636737382,0,0,0.18216285480146693,0.8619765945583486,-0.013069416480731937,-0.01429094185304875,0.6132693008321889,0.3139614264910242
637,0.6594914160497276,1.186702382725089,0,0,0.05688000678790497,0.6340070942875556,-0.10101182848742854,-1.2171661907710314,0.8147322369158934,1.3056102834112222
638,0.5550884946990855,1.1356176155615667,0,0,-0.009054273343020612,0.5182210528897698,-0.1400420080086962,-0.9777544655809426,0.6371881576186771,1.2468130037338683
639,0.48813868178961933,1.1147148971106642,0,0,-0.03624829172218973,0.40640781468667764,-0.05545427284958501,-0.040929871380877954,-0.0381128566514149,0.4872799674548809
640,0.46503293068265544,1.1245870438341283,0,0,-0.0752555966770423,0.2864604148540649,0.013732159086582265,1.2366250321357541,-0.4921518756566622,-0.2353200520340263
641,0.4878662581015931,1.1642056201703297,0,0,-0.09802939922880884,0.24245350002094782,0.013582575678741743,0.8905168999999717,-0.786291680246425,-0.6668466178064768
642,0.5539403048689348,1.2306981560361605,0,0,-0.14974030128086413,0.24122864648562792,-0.03406576195212999,-0.12724084503808247,-1.054965491503002,0.08272902910220782
643,0.6558668194485315,1.3192240296541868,0,0,-0.22722112083648835,0.24754724434143444,-0.029841933647541456,-0.23725575402111435,-0.7979939937741494,0.25616819335192265
644,0.7823308885123489,1.4230582785372503,0,0,-0.25651655375150856,0.32899066210174455,0.12755970330116928,0.4815561209138914,-0.41416233648505835,-0.28008009828296204
645,0.9194771766949337,1.5339697659749119,0,0,-0.12962030733529736,0.5550908775552661,0.3551087176475808,0.8588751684416128,-0.7797155388601067,-1.1985287451175792
646,1.0527663811421384,1.6429058881104055,0,0,0.14831610490783867,0.9946516561791492,0.5363671766404148,1.2659735577146425,-0.7660983478486869,-1.6942188079847957
647,1.1690263373303391,1.74088071550176,0,0,0.5528347766996409,1.553380653320818,0.8093097069734365,1.3731943431968079,-0.5981414136063773,-1.4305292309690494
648,1.258323052105788,1.8198728190808693,0,0,0.8217527125247149,1.885909262527774,1.1484751513268578,1.2776364901290964,-1.1312097834756727,-0.8850254159682172
649,1.3152512099741607,1.873537337156683,0,0,0.9662920631534395,1.8391169303168973,1.0213939132582783,1.3813519425185623,-1.3510589983305998,-0.4423473188767336
650,1.3393414145287525,1.8976212385123146,0,0,0.48673547940281603,0.8509121108084406,0.7593144118802335,1.4640885883928554,-1.3297336410714264,-0.24333162785714038
651,1.3345080585607612,1.8900826985398478,0,0,0.0421207373744113,0.0635825316489723,0.3188215576544785,1.2542958185978101,-1.0549962430675635,-0.07801182377749658
652,1.307739863991954,1.8510020918821264,0,0,-0.23640481266134905,0.37555744119580564,0.015608264355128815,1.150110144708424,-0.9279359647732183,-0.11157460315334664
653,1.2674286371843928,1.7824119109274001,0,0,0.21602157758048562,1.669552999740342,-0.021211899990754693,1.1890600684315735,-0.9011320681218763,-0.2322308930169865
654,1.221746344537692,1.6881596481517782,0,0,0.3282524711047346,1.5156665632269553,-0.149281160419112,1.2083838759019314,-1.1885611959338434,-0.34344464662547725
655,1.1773524992704147,1.5738550622632177,0,0,-0.14478280646216213,0.7146297160977477,0.021133312800682046,1.1316079160743135,-1.2454042302907902,-0.5049168680452365
656,1.1385702564274762,1.446867823892666,0,0,-0.43121958504368335,0.43140102209957343,-0.16199304031013664,0.949121578482795,-0.8838653039151491,-0.8034349874279332
657,1.107090122760047,1.3162752048424884,0,0,-0.21484624413065037,0.6138323060867095,-0.40043505269683916,0.7266234953499516,-0.40071237044246194,-0.9665330465004066
658,1.0822120240330868,1.192637848608824,0,0,0.1773868295329768,1.0620401109755417,-0.39610316830365855,0.6542571350657111,-0.5838034334766963,-1.0267763731780157
659,1.0615559411357713,1.0874978417957673,0,0,0.3449159810731883,1.3895295963729355,-0.07525344431054387,0.7361044367681513,-0.810680748992974,-1.0888253921545683
660,1.0420613469748699,1.0125294086407903,0,0,0.32232781260654764,1.4336458831573329,0.12101754136629532,0.8023323949662023,-0.7226155950059598,-1.1022672946322063
661,1.0210183794867467,0.9783300001845775,0,0,0.20980984697618452,1.2867003324370982,-0.02469781851341915,0.502506584570454,-0.45236191012865495,-1.0633272878265987
662,0.9968793876500095,0.9929358139426409,0,0,0.22889162621691742,1.1408108202083458,-0.10513079243399996,0.0985754192220595,-0.2201447452524758,-0.8047220318560994
663,0.9696855779605509,1.060279389083015,0,0,0.1907871976116513,0.9706200299624693,-0.053445830422357565,-0.041205245680135956,0.14240375184631562,-0.4369489040068401
664,0.9410668614706398,1.1789343900046003,0,0,0.13745697856566846,0.8068193245013344,-0.013462042469490992,0.06536791083696902,0.2946504219040139,-0.022827969094413515
665,0.9138846081829127,1.3415452474589398,0,0,0.135341023795277,0.7296524830843649,-0.06877450855670074,-0.13161658469021187,0.167818278603132,0.027011537408059765
666,0.8916558232609657,1.5352624446730176,0,0,0.09210247775393195,0.7394569336256485,-0.07498526623906068,-0.9887564749950407,0.2781670243903478,-0.08040545817601148
667,0.8779147731027727,1.74328939066006,0,0,0.023164420248867452,0.767309525470175,-0.07679669402762075,-1.6985228677935593,0.38185348707741545,0.27765008803760777
668,0.8756431841007005,1.9473438789309836,0,0,0.1057344316533735,0.8618369965311417,-0.04540200814350802,-2.385751358707622,0.812308316627229,0.7178261195429256
669,0.886852081303399,2.1305447449660457,0,0,0.23559472353783187,0.8934997880812681,0.04086267097215746,-2.6663452648585353,1.7819129761539998,1.0329102416507099
670,0.912348547925542,2.2800643330369716,0,0,0.2790895837128146,0.8246045358681247,0.02219609208503269,-2.678219780561115,1.8124647440881754,1.0094777536072137
671,0.9516841708723845,2.3889149439012,0,0,0.2418324954054661,0.8225560577308865,-0.06275818827939954,-2.3121594268538606,1.5546910566936858,0.8891196545975867
672,1.0032614612286275,2.4564634949233364,0,0,0.20967817367952338,0.9260405428752656,-0.02099472477934078,-2.2538534788438844,0.6989560631635682,0.883873236551318
673,1.0645618176225828,2.487614216823988,0,0,0.27867953086408276,1.0724625763320594,0.024837375263371844,-2.0555695992797247,-0.01100034142854659,0.9208782600840336
674,1.1324444477431583,2.490940683851579,0,0,0.43082503626064206,1.2294058975196716,-0.01924710316603218,-1.5831509759384605,-0.552067284115444,0.9583515418929748
675,1.2034514537814383,2.476278968457507,0,0,0.6193116448339278,1.2124146345566624,-0.08961742914767869,-1.423112349426674,-0.36263222036812953,1.0711788958358501
676,1.2740521986147721,2.452366284792621,0,0,0.6712713542951636,1.1522153154693642,0.09287571032248515,-1.2854462682501513,0.06593414807816704,1.41615448881539
677,1.3407806746489075,2.42503537292058,0,0,0.5326211498421031,1.2133661577964399,0.23189669027501297,-1.3390904393222387,0.3076222776579073,1.5398146669941826
678,1.4002597254254632,2.3962988448393676,0,0,0.44489201427357544,1.2871462569988346,0.21422986466190275,-1.0772701333599288,0.7082651856059337,1.5824465
679,1.4491497941175862,2.3644360265393054,0,0,0.3462297277940587,1.3916578363152907,0.3061778446148818,-0.6114676625869068,1.193445785396401,1.5468549902642528
680,1.484091448761123,2.324976469297408,0,0,0.2050072460269762,1.222642916724662,-0.07230398421313056,-0.3364826305069783,2.1065980705109726,1.4662546409210295
681,1.5017229112538433,2.2722912044564523,0,0,0.03164326259293414,1.2540534157028427,-0.15245404493375941,-0.06404759925344329,2.8705172600476945,1.2378393555158145
682,1.4988434945836708,2.2013820966700393,0,0,-0.13448255398520717,1.3626457354139376,-0.21423103604858368,0.20036403624319193,2.760322000506607,0.9056879953234458
683,1.4727581745674592,2.1094375959350526,0,0,-0.15363842925695684,1.465672359155177,-0.12082002225143772,0.4683384492080971,2.232624303851442,0.5294721294733726
684,1.4217808873678015,1.996822871651039,0,0,-0.1813990093671202,1.485964029737214,0.06991133269092699,0.8564761885674718,1.7158180042005007,0.19361427323756267
685,1.3458121986386111,1.867361743026736,0,0,-0.13660055124721165,1.4653089028809654,0.1418677965430788,1.2152739468911817,1.137837939707074,-0.0010267722307052694
686,1.2468645313547748,1.7279631019131148,0,0,-0.07343698227938132,1.387756426872422,0.08063770212633668,1.5127386106918395,0.35186799119489015,-0.1861487026415222
687,1.1293990348249996,1.5877689851516956,0,0,0.04168184932823456,1.2541954643442417,-0.009879375027080394,1.5544913564733351,-0.4734030874985547,-0.3070781789064612
688,1.0003610462507575,1.457035980938538,0,0,0.2151764530851205,1.122524313238096,-0.009278022909466433,1.1873739402646901,-0.7171365075957488,-0.11342911088430066
689,0.8688459077113563,1.3459386293139703,0,0,0.242156614768097,0.9953906850089508,0.03814774034816257,0.6980606351926836,-0.7952460217728148,0.19362775269114674
690,0.7453831181870936,1.2634436892400933,0,0,0.18632886322603007,0.8335691135503795,0.0008662253365197749,-0.5914420334500576,0.008329025486435894,0.8606556202940241
691,0.6408873287761538,1.216364040163214,0,0,0.11208355570479452,0.6586489896516715,-0.08894830189091191,-1.2428337611766973,0.74064333388434,1.1753194695217084
692,0.5653847622667093,1.2086597120868303,0,0,0.039909942879255235,0.508793752874886,-0.19127245345433372,-0.5476407,0.2883284,0.6606508
693,0.5266770812997721,1.2410200502254731,0,0,-0.02250664525697025,0.3491936201028349,-0.21968085878351756,0.8187116011807307,-0.4373848177306383,-0.16008190128079228
694,0.529142634450442,1.310749281121212,0,0,-0.09562081683428882,0.22230316048210766,-0.09780317366451405,0.763318253428185,-0.7764840606401753,-0.42587760447145245
695,0.57288766808675,1.4119758801217441,0,0,-0.11947830962396408,0.16448841850666576,-0.015154960401765808,0.1603919167543122,-1.7751968230125297,0.2647848785535193
696,0.6534384554457894,1.5361862421603332,0,0,-0.12285295737806061,0.2326137124025537,0.01024382185752796,0.12792410210239935,-1.0991941837000032,0.124468861489002
697,0.7621022372848312,1.6730434381748909,0,0,-0.17665900989497652,0.337214363209975,0.13216191553834625,0.5365978894733026,-0.9228215955864479,-0.6029466110691559
698,0.8870196354152023,1.8114109206328561,0,0,-0.1994626846826934,0.5059493614159145,0.3720938405673662,1.0748869289426748,-1.1536995842888325,-1.5868115389605288
699,1.014794735471173,1.940460644269343,0,0,-0.08434555415546596,0.8524745325837801,0.6491698441794808,1.3488088203134299,-1.006059859452489,-1.796479540349137
700,1.132445575674461,2.0507042000442404,0,0,0.24420654202153919,1.4602126870021392,0.9309427727423387,1.249418789339371,-0.931067567341014,-1.3987270449475246
701,1.2293042768462688,2.1347741993611598,0,0,0.6469547769836295,1.8582992212991971,1.0694810064174702,1.3101222905187866,-1.819975718386034,-0.7235329685648778
702,1.2984599243153803,2.1878328442261825,0,0,0.8448032459901761,1.8091842380076715,0.9572868004434378,1.3620584439577947,-2.024318714672508,-0.3658015057953425
703,1.3374214936461073,2.207582096193789,0,0,0.564481964064858,0.9915888897817933,0.6786464531106233,1.3416462619285277,-1.645674922759029,-0.3000239780395284
704,1.3478853613675064,2.1939541030692675,0,0,0.1598904785313555,0.3288346363436071,0.39635234054057267,1.1956721841114173,-1.339246629462536,-0.18885501976069122
705,1.33475239474074,2.1486409200858914,0,0,-0.07242039105877615,0.5800317399317294,0.08937491257626337,1.2090738970164392,-1.2457004999797046,-0.24191545979703485
706,1.3047312925869312,2.074657184926046,0,0,0.160288849412643,1.5458049725505727,0.1508563598341725,1.1034018923809508,-1.1520558667063472,-0.4185763724127
707,1.2649000918727922,1.9760974609722182,0,0,0.19645936355808608,1.5102681455373688,-0.16649302102218014,1.0014761811909079,-1.2876270082076133,-0.5705481
708,1.2215004113230596,1.8581505818376371,0,0,-0.20695604680697896,0.8018054506492723,-0.014569541207405499,1.1143352898047714,-1.9870570649970505,-0.6203225245474292
709,1.1791145047771918,1.7273013806785233,0,0,-0.4640850825251385,0.544575115141253,-0.15729030558997528,0.9301822392430226,-1.566671525099586,-0.8605734497609614
710,1.1402955121297336,1.5915439181060242,0,0,-0.3486695456464827,0.619948730802965,-0.3423727750632519,0.716858241878607,-0.9324131039999998,-1.006197723024876
711,1.1056662961159136,1.460396534273577,0,0,0.27647023602959503,1.2178122981540362,-0.33903419087986136,0.7456073307920219,-1.181790399170489,-1.0658246693659845
712,1.0744232727823817,1.344550545460788,0,0,0.4373073770161276,1.4299413974586197,-0.011038320975445208,0.7656155236935871,-1.3698469494061754,-1.053543203622328
713,1.045084889438751,1.2550688866987505,0,0,0.32092331605312646,1.3264821085295926,0.0934904722550353,0.8181440953417002,-0.9168060771129694,-1.0818397440725243
714,1.016266295261165,1.2021558214537342,0,0,0.17183880853353875,1.1346072975711003,-0.05949187712727492,0.42542765966184526,-0.5930128200375728,-1.0618897086041708
715,0.9872825646638129,1.1936446978816342,0,0,0.18368177955250542,1.0056063880438495,-0.1436973827325259,-0.12521815651312287,-0.3082353718347735,-0.7858077806195198
716,0.9584676012179555,1.2334851559390605,0,0,0.1798438347805778,0.8950925008811588,-0.1145397401020726,-0.22414772208266534,0.18002533360097145,-0.275671385902207
717,0.931194944975564,1.3206047000779886,0,0,0.1341241575624633,0.8470841900758466,-0.06709217111817578,0.00022432112722696506,0.3279309731843369,0.33665020614527613
718,0.9076588461660917,1.448510889304646,0,0,0.12821514794977337,0.8365084044671508,-0.0661207975565922,-0.5649245986453489,0.23982095722728863,0.34715695616819175
719,0.890506489789022,1.6058595411450831,0,0,0.11689525568554905,0.843269091353197,-0.08542701446552149,-1.2983495389762787,0.4994756421868028,0.36395993852817476
720,0.8824133272519531,1.777967495371556,0,0,0.0421534776022227,0.8251489412384354,-0.09163558958297315,-2.1556903531250398,0.48563193511018077,0.6193936304427261
721,0.8856774016616431,1.9489749310129245,0,0,0.06306000658605199,0.8579409068850803,-0.10586141937872974,-2.4917162626327394,1.0222426101783273,1.1065341158084627
722,0.9018871156206307,2.1041656061706404,0,0,0.20858607223303327,0.8572529443118341,-0.007136544550147255,-2.5876253,0.7431176,1.0629056
723,0.9316965918004811,2.231915345441951,0,0,0.34871332624876783,0.8153501615601302,0.06260570765789641,-2.23163330547945,0.8438237491244778,0.854805301995234
724,0.9747255382270298,2.324873772843562,0,0,0.32442269880458985,0.8174350974044307,-0.004113453344798504,-2.1752473151370704,0.31240954398087967,0.8127496473420743
725,1.0295850491734233,2.3802255981981033,0,0,0.2676232420112957,0.9244053307736625,-0.008928391916135349,-2.0265633403529435,-0.5878391152965001,0.8891679397184235
726,1.0940136536886893,2.3991202346478397,0,0,0.33884240661208,1.0760905169515425,0.008787905750171071,-1.7494631694034253,-1.2810998620988383,0.8716417691474702
727,1.1650872029994894,2.3855236222550853,0,0,0.5286560054251573,1.2379576047724823,-0.10352316978155089,-1.668441768698223,-1.0118178428520659,1.0185544452662714
728,1.239446936719099,2.3448160800894366,0,0,0.7344139435104687,1.1782997381258338,-0.13786498766572775,-1.4356749993224274,-0.42323161614187216,1.2645661777999393
729,1.3134848671122297,2.2824571326397955,0,0,0.7350233186544373,1.1777803950448231,0.268295009192902,-1.2789801380809573,0.2065040503898081,1.4259096062968515
730,1.3834452126236048,2.2029856559982512,0,0,0.500915182083935,1.3124991285380785,0.2450910094182459,-1.1082145252816764,0.5218741481102981,1.4043233612373989
731,1.4454426131296576,2.1095306940910548,0,0,0.2768764745820169,1.2858085505746801,0.2452601671047186,-0.8249463722112064,0.9461352060738224,1.3011974634378745
732,1.4954458898553362,2.0038828253425485,0,0,0.211266293985216,1.306043735212165,0.1592542065365796,-0.5818737683096182,1.568629260703056,1.17532072298577
