id,ASVM,GSVM,walking_nonwalking,normal_abnormal,ax,ay,az,gx,gy,gz
1,0.9725856478419921,0.6698045499112542,0,0,-0.49707032472862805,0.8271484145962178,0.12011719598435756,0.3417791,-0.57635134,-0.025350908
2,0.9741412353373967,0.593152380689097,0,0,-0.49238244988983776,0.8322269515354113,0.11621063280286073,0.3164325879534977,-0.5378785844758469,0.00029833095904990993
3,0.9756966738231889,0.5182291361883558,0,0,-0.4876945750510474,0.8373054884746048,0.1123040696213639,0.26362947244088175,-0.485970476753507,0.012221712044488978
4,0.9772705434275641,0.4465921104378425,0,0,-0.4830067002122571,0.8423840254137983,0.10839750643986706,0.2150538506031363,-0.4081038701447527,0.01800394642219541
5,0.9788786504481493,0.37965206268729845,0,0,-0.47831882537346676,0.8474625623529919,0.10449094325837023,0.1514873511774065,-0.3453924226213205,0.03571946146758153
6,0.9805325093162325,0.3185924218220264,0,0,-0.47363095053467646,0.8525410992921854,0.1005843800768734,0.14755017713971175,-0.2682908981084867,0.022606048943554842
7,0.9822383402274156,0.26428988952309757,0,0,-0.46894307569588617,0.8576196362313788,0.09667781689537656,0.1261884604940239,-0.21818014296414343,-0.003003704697529874
8,0.9839965586135068,0.21725052361371353,0,0,-0.4642552008570958,0.8626981731705724,0.09277125371387973,0.0702864461289039,-0.1738315643863139,-0.009758836668390697
9,0.9858016710047411,0.17757668210350863,0,0,-0.4595673260183055,0.8677767101097659,0.0888646905323829,0.04135876913982718,-0.12904432636292223,-0.016680027980754124
10,0.9876424570476363,0.1449767220867294,0,0,-0.4548794511795152,0.8728552470489594,0.08495812735088606,0.028105888953956555,-0.11545475159118995,-0.01894108356866654
11,0.9895023161595555,0.11882170206970927,0,0,-0.45019696750156735,0.8779301118399795,0.08105601773768008,0.040534883018894234,-0.11665728405230709,-0.03392999136634844
12,0.9913596948873008,0.098242902090985,0,0,-0.4522480437158761,0.8784184635624016,0.08271641491973855,0.03697786286845264,-0.11422496104758095,-0.04152345234586164
13,0.9931885879220234,0.08225377600631538,0,0,-0.45429911993018485,0.8789068152848237,0.08437681210179702,0.04580576206358382,-0.10202210992625074,-0.033234320440900945
14,0.9949592060549762,0.06987411104791483,0,0,-0.45635019614449357,0.8793951670072458,0.08603720928385548,0.02990589756521739,-0.0944599418867172,-0.003991822754188273
15,0.9966389883944564,0.060235340594962036,0,0,-0.45840127235880235,0.879883518729668,0.08769760646591396,0.046120327,-0.00580322,0.010079277
16,0.9981941539897826,0.05265320190003498,0,0,-0.46045234857311107,0.8803718704520901,0.08935800364797243,-0.0028972078656319712,0.05219376379600888,0.009855112097560955
17,0.999591908498397,0.04666329437840414,0,0,-0.4625034247874198,0.8808602221745122,0.0910184008300309,-0.02991785450130027,0.044599395076215236,0.010979993821364283
18,1.0008032494223145,0.042022472589699274,0,0,-0.4645545010017285,0.8813485738969342,0.09267879801208938,-0.03940552498195669,0.02386819950982351,0.0036752951251403216
19,1.0018060849240484,0.038682951511462046,0,0,-0.4666055772160373,0.8818369256193563,0.09433919519414784,-0.037906377714746205,0.009775566829170025,-0.000893039734689744
20,1.0025881529981109,0.03674776821588143,0,0,-0.468656653430346,0.8823252773417785,0.09599959237620631,-0.002437992741396484,0.003963332988661262,0.013131476454346539
21,1.003149070918275,0.03641725091483984,0,0,-0.470711901062696,0.8828061601747784,0.09765779127281758,0.022517339601980248,-0.007835405014534716,0.018342891885148507
22,1.0035008384018407,0.037936204241237496,0,0,-0.4746169408508891,0.8799750054873332,0.09834117270056628,0.032997704851685405,-0.013760940773033723,0.01954906072808989
23,1.0036663232781189,0.04154986207862517,0,0,-0.47852198063908225,0.8771438507998881,0.09902455412831496,0.028430757962614944,-0.0292797665177929,0.0027465732403838474
24,1.0036756671463194,0.047473726861221095,0,0,-0.48242702042727537,0.8743126961124429,0.09970793555606365,0.024450865518207233,-0.03634562445378151,-0.0006100096964145684
25,1.003561048410408,0.05587964038283505,0,0,-0.48633206021546843,0.8714815414249978,0.10039131698381233,0.007625144565981283,-0.027488631115791574,-0.009775673303254134
26,1.0033506640339254,0.06689842199251193,0,0,-0.49023710000366155,0.8686503867375526,0.10107469841156103,-0.02989062324054702,-0.039086775718423165,-0.023499883832662893
27,1.003063018243852,0.080637150116766,0,0,-0.4941421397918547,0.8658192320501074,0.10175807983930972,-0.028365078020226583,-0.026402130123381728,-0.050290371192152225
28,1.0027026102633194,0.09720531425532442,0,0,-0.4980471795800478,0.8629880773626623,0.1024414612670584,-0.05073251764260062,-0.04275033212285603,-0.09250002755285215
29,1.0022579316916758,0.11673877353215678,0,0,-0.501952219368241,0.860156922675217,0.1031248426948071,0.015268711692951034,-0.10348424692154554,-0.10322844516845883
30,1.0017023712313156,0.13940589039612447,0,0,-0.505857259156434,0.8573257679877719,0.10380822412255579,0.0003101983220160112,-0.16004523362872586,-0.11820346467853562
31,1.0009982311967736,0.16537958531281147,0,0,-0.5097622989446271,0.8544946133003267,0.10449160555030447,0.0733862638822731,-0.13249853701611536,-0.13018978277184054
32,1.0001036353072497,0.19476487259479786,0,0,-0.5086927917352613,0.8536144307076505,0.1068329030320353,0.07600354049609923,-0.11182206649329865,-0.18348911536707344
33,0.9989816954031449,0.22748379210314285,0,0,-0.5076190525637796,0.8527359078520313,0.10917561094127541,0.17004596679751646,-0.10322815527137992,-0.1811149334147807
34,0.9976109359441021,0.26313604546735714,0,0,-0.5065453133922979,0.8518573849964122,0.11151831885051551,0.19365346396876246,-0.0861430087905486,-0.13379907114537434
35,0.9959956579569162,0.3008703005342656,0,0,-0.5054715742208162,0.850978862140793,0.11386102675975561,0.15118915,-0.013744468,-0.09162979
36,0.994174662879075,0.3393134394306268,0,0,-0.5043978350493347,0.8501003392851737,0.11620373466899571,0.1515726571989836,0.10320762510946067,-0.08414310168764662
37,0.992226583111119,0.3766064589747822,0,0,-0.503324095877853,0.8492218164295545,0.1185464425782358,0.11807110547538423,0.1728321325194338,-0.06780129143711379
38,0.9902700498054906,0.4105792957296387,0,0,-0.5022503567063713,0.8483432935739353,0.12088915048747591,0.02358538953375984,0.3433820304335461,-0.02436318947974434
39,0.9884571575542079,0.4390609596555603,0,0,-0.5011766175348896,0.8474647707183162,0.12323185839671601,-0.088111484073331,0.46012636285969805,0.02011691413016696
40,0.9869592371722862,0.4602744237619954,0,0,-0.500102878363408,0.846586247862697,0.1255745663059561,-0.2525116423328678,0.5265242804709639,0.07875602757932555
41,0.9859448647855422,0.4732240842964158,0,0,-0.4990291391919264,0.8457077250070778,0.12791727421519622,-0.38193849466135515,0.5741753341035858,0.18528954258167368
42,0.9855513075558716,0.47796486351361034,0,0,-0.516683439207016,0.8306629757940772,0.1341397962982903,-0.4688418944591346,0.5756687306931093,0.26386563522435913
43,0.9858521393433102,0.4756585345211802,0,0,-0.5344375267034454,0.8155427455318216,0.14038299096117865,-0.36175043824519243,0.46467827153846164,0.23186887127403852
44,0.9868253340860822,0.46837672671863156,0,0,-0.5521916141998748,0.800422515269566,0.14662618562406707,-0.07559592128903109,0.25974335334667725,0.12351216004403512
45,0.9883274139409624,0.4586878419470637,0,0,-0.5699457016963042,0.7853022850073103,0.15286938028695546,0.12380474355232227,0.12716590037671907,-0.04533960610524232
46,0.9900798090264769,0.4491363470825133,0,0,-0.5876997891927337,0.7701820547450546,0.15911257494984388,0.2673104655803489,0.0492951756664707,-0.10804841706576634
47,0.9916731892426869,0.44175366908645197,0,0,-0.6054538766891632,0.7550618244827989,0.16535576961273227,0.3536349918769968,0.0403755347807508,-0.03567719023003194
48,0.9925940398093815,0.437717268389346,0,0,-0.6232079641855927,0.7399415942205432,0.17159896427562069,0.4235395923177089,-0.02094838180729235,-0.10474668664062509
49,0.9922752198451503,0.43721688249441265,0,0,-0.640962051682022,0.7248213639582876,0.17784215893850905,0.4657075928327646,-0.022209016703071634,0.03284286735836171
50,0.9901688712206907,0.4395271435749414,0,0,-0.6587161391784515,0.7097011336960319,0.18408535360139744,0.43462292075721154,-0.08124342801682691,0.05687159322596179
51,0.98583621317513,0.4432459241685446,0,0,-0.676470226674881,0.6945809034337762,0.19032854826428586,0.38061197236947814,-0.03366137511646612,0.2422068507228903
52,0.9790450382947534,0.44664097442095857,0,0,-0.6706131139278068,0.6918396588097878,0.18745333680539986,0.37011739596628523,0.008554688381697779,0.27878239318482895
53,0.9698627932283362,0.44804555140166386,0,0,-0.664367201176723,0.6893022559903735,0.18442797472730998,0.3769277362236922,0.02466761730835816,0.2705536093365402
54,0.9587315217348008,0.4462479715121305,0,0,-0.6581212884256391,0.6867648531709591,0.18140261264922014,0.32957454678972714,0.09283975372391653,0.32101803439807386
55,0.9465108611059797,0.44082593221747934,0,0,-0.6518753756745552,0.6842274503515448,0.17837725057113027,0.3313807726948244,0.11518353090422391,0.32618476875669233
56,0.9344766752823035,0.43238352752586107,0,0,-0.6456294629234715,0.6816900475321304,0.17535188849304043,0.32188896310679627,0.18114931756885266,0.31133152830394256
57,0.9242658359530068,0.4226580333687808,0,0,-0.6393835501723876,0.6791526447127161,0.17232652641495055,0.32220055816004795,0.16470059147874666,0.23987055524645765
58,0.9177623819244306,0.41447530969824486,0,0,-0.6331376374213037,0.6766152418933017,0.1693011643368607,0.25850128517494514,0.20369031206911475,0.19058440869546442
59,0.9169269814368699,0.4115458828973023,0,0,-0.6268917246702199,0.6740778390738874,0.1662758022587709,0.16495044651703783,0.4071013163150366,0.20768671153438054
60,0.9235800431926893,0.41810593927587253,0,0,-0.6206458119191361,0.671540436254473,0.16325044018068102,0.08887191486881339,0.5235294701888292,0.26129764667859207
61,0.9391580544966185,0.43841908461418194,0,0,-0.6143998991680523,0.6690030334350586,0.16022507810259118,0.050091991804574784,0.48289289208467145,0.34666266945425317
62,0.9644711366380995,0.47617285270257276,0,0,-0.6030665693989953,0.7172675083515718,0.13076656919766466,0.05834031276630103,0.3826868799082757,0.3524616879282156
63,0.9994953951710032,0.5338362906543113,0,0,-0.5987312045322809,0.7863079100012961,0.10869358045606572,0.05129393284216825,0.23468425338381882,0.3075033207014749
64,1.0432349698138934,0.612087173229881,0,0,-0.5798077698696473,0.8035757300603253,0.09216649518501994,0.03543446876577843,-0.03414480945281465,0.14330175307553633
65,1.093685537427964,0.7094474435448288,0,0,-0.6110487517088439,0.7801689025855759,0.0921107118751625,-0.03299328360501188,-0.2572624537112164,-0.10910469157517845
66,1.1479232550953682,0.8222532816606072,0,0,-0.6855383376740268,0.7804077335408159,0.11452636023834262,-0.05919764395631448,-0.5413619552899123,-0.3280004407307383
67,1.2023288421870708,0.9450148651436944,0,0,-0.7519253515458539,0.8236633387204472,0.13341880049702806,-0.05738652756478555,-0.8751672225062145,-0.5622570914448
68,1.252933171186556,1.0711059738823625,0,0,-0.8536882131218068,0.9241111064432997,0.1821501178929985,-0.28353687302344394,-1.2518368496293337,-0.7283319588859959
69,1.2958399628308561,1.193612574056464,0,0,-0.9580816608580329,1.0967323856712163,0.1686919748548362,-0.6831372734826975,-1.2131547547909585,-0.8277229798479696
70,1.327652288043417,1.3061161422385656,0,0,-0.9864385019337087,1.1533707357409426,0.16674026000170478,-0.853740613892793,-1.3313121220236896,-0.7079100186910253
71,1.3458174755293975,1.4032201435983653,0,0,-0.9676751380930733,1.14328973636798,0.1676962328092377,-0.9193814397287593,-1.1035308345432775,-0.44016409947746155
72,1.348821813134775,1.4807348945003473,0,0,-0.8374532567883989,1.105839970234658,0.14340445705254215,-0.8353333522157995,-0.7417852597730691,-0.29812053901305946
73,1.3362114921313972,1.5355710299735656,0,0,-0.6202156527695883,1.0193621580938683,0.11782855936518899,-1.0267231487993653,-0.4585710514903749,-0.3246095284500894
74,1.3084727765846969,1.565495141752065,0,0,-0.37466431259092875,1.0111920882234273,0.09963945952065083,-1.1523973,-0.3776229015348289,-0.5152147086186543
75,1.26684655509094,1.5689284053997743,0,0,-0.2861137441351421,1.0851143030277,0.04177512985140058,-1.1185252498311145,-0.48006040178819603,-0.693481387403138
76,1.2131595266195752,1.5449162194299157,0,0,-0.3519820986027949,1.1606026533321958,0.021307628444773092,-1.069817044545455,-0.8049285709782603,-0.8393916434782607
77,1.1497238103635228,1.4932998332123248,0,0,-0.4011206086860696,1.1258078591233638,0.05403130286418008,-0.8137985515471171,-1.0444168497689366,-0.8539880045810729
78,1.0793071504333336,1.4150274399398883,0,0,-0.4805567240757673,1.0545754344905631,0.1455474060123417,-0.42405155375597886,-1.1876213753588527,-0.8606828248086122
79,1.0051339544430051,1.31248440266848,0,0,-0.5498004978279425,0.9390076917974814,0.1573886361498973,-0.17339239404865547,-1.3384800052017405,-0.7411742967088611
80,0.9308607177016328,1.189709443097936,0,0,-0.5969228619403883,0.7807908684409323,0.18090720853068676,-0.012826649829782785,-1.3414519518813446,-0.5317482276826583
81,0.8604789517335997,1.0523906144020005,0,0,-0.5818014404912751,0.6225261204094621,0.20122598847001116,-0.027493983486130236,-1.0682516097580164,-0.32567182442651954
82,0.7981245740266113,0.9075911864996161,0,0,-0.5344140541457377,0.5205400077791944,0.20960088349522424,-0.08362239652069589,-0.8138732513177364,-0.24773951192161567
83,0.7478021204621954,0.7632259426875146,0,0,-0.47448917865639323,0.48988814362266064,0.22171079348422848,-0.21099669432919657,-0.6686492856547843,-0.20616898708450135
84,0.7130546670287427,0.6273716293947216,0,0,-0.362862260578385,0.5434476190343491,0.19025012490169926,-0.2855722233598046,-0.43170837918142835,-0.04623283516065881
85,0.6966206504942345,0.5075323529690539,0,0,-0.3319443772905363,0.5980326989728819,0.17586812254198733,-0.25163314884386184,-0.1629353801430279,-0.02380930360349627
86,0.7001178457018916,0.4099847233259984,0,0,-0.3252866381864978,0.6331684801896661,0.20286347019099443,-0.212637099089275,0.04946928718154584,0.038004491791491915
87,0.7237884542946429,0.3393021169007968,0,0,-0.3331844703779742,0.6119439957251859,0.25249294652303267,-0.12412394997320418,0.19206689660170492,0.2262028017052367
88,0.7663345191193951,0.29811013299470124,0,0,-0.34510741344404877,0.5561797814255327,0.28893357387283525,-0.13334264579266308,0.1233978219657088,0.3337650434609248
89,0.8248729270137384,0.28706899491536186,0,0,-0.37961711335906795,0.5172611485144735,0.29378682881621554,-0.0258354468689657,-0.19713247689655122,0.2597188288078819
90,0.8950403740634917,0.3050325923495455,0,0,-0.4433067221342997,0.5518951960666447,0.30679555289397537,-0.060343907111594305,-0.4827065430041482,0.15575911040884766
91,0.971271970940005,0.3493143871333174,0,0,-0.4835397745158151,0.6389919680667131,0.3899892916866242,-0.015030110301364426,-0.32822531648786923,-0.1467526210724042
92,1.0472557772338231,0.41600047298616105,0,0,-0.5347459396426412,0.7632615897372198,0.4780573242128823,0.15866514006469892,0.013475222974120788,-0.32710389698342085
93,1.116531395188729,0.5002791238092326,0,0,-0.6400060828949901,0.8329842809788152,0.5180071924714111,-0.06089144581721211,-0.312632200587896,-0.3652185595678413
94,1.173164819727083,0.5967861970530206,0,0,-0.698629655636105,0.8993519967295543,0.6071581094552123,0.06839032924288277,-0.04498930660105023,-0.07809794501110459
95,1.2124077665134878,0.6999780256268933,0,0,-0.7092408609169814,0.8742910507618037,0.6710075638389973,0.40491922467473146,0.6533856953391546,0.48523092437921644
96,1.231246402689923,0.8045270207567163,0,0,-0.6677181492653657,0.6872567850525705,0.639475247476064,0.07692912521456678,0.9337160039034046,0.5646991938242278
97,1.2287604570044948,0.9056986708404472,0,0,-0.5622377535365584,0.8054167493167949,0.6985134797535778,-0.04305317439592079,0.8398395095980808,0.5851229683863226
98,1.2062381654084644,0.9996419926487621,0,0,-0.6837659772445104,1.308427362676681,0.48260589901704753,0.2431916280480544,0.7366941598292295,0.5642121163363779
99,1.1670152671571645,1.0835358205058232,0,0,-0.6083135806027729,1.4377302245104553,0.1129903830557788,0.5304839837970143,0.8633099735164165,0.32331618945671814
100,1.1160328178617942,1.155574634600195,0,0,-0.3190862294765597,0.9374435402734105,0.10519734434777893,0.4453491466163749,1.0064464594648963,0.16368891035606523
101,1.0591558260718246,1.2148185773378029,0,0,-0.2852100646768926,0.6500529792395613,0.11931380312398457,0.6242534861387709,1.060473337672466,0.16187831280343928
102,1.0023606989136085,1.2609516985987823,0,0,-0.42014962314149784,0.6192578684511197,0.09316271858603209,0.7412040036958276,1.076571136593762,0.08351769924483719
103,0.9509483299347539,1.293994199379084,0,0,-0.6270526628319012,0.6619103033175675,0.09160886561520895,0.6414847067908674,1.1986938784254801,-0.040450917695912574
104,0.9089344042159713,1.3140131836076998,0,0,-0.6018714555550813,0.5262340400666669,0.11468572749733422,0.25430161933845086,1.2067592485331757,0.06086149232526192
105,0.8787117395003629,1.3208808767484659,0,0,-0.5361157571327941,0.5471618234633465,0.11232176230554616,-0.06896690227570329,1.1697884132411946,0.3685280935086951
106,0.8610062239343977,1.3141364908733308,0,0,-0.536081714204679,0.7176496638919224,0.12042388336209786,-0.023427109592810347,1.0800694453493003,0.5174191164151694
107,0.8550873986719592,1.2930072063588103,0,0,-0.5263407909120916,0.8242121651109712,0.13576106610689703,0.37897952919135275,0.9862575906645317,0.3386413938430747
108,0.8591555667701365,1.2566256658194377,0,0,-0.4569579067821907,0.7926383854683527,0.15939750889978851,0.4469457930921847,0.9981394772044088,0.3905353482725447
109,0.8708104489319708,1.2044442486104905,0,0,-0.4090324699291991,0.7610555600559082,0.1525098994734461,0.24502398937050304,0.8638387094424455,0.6125973108633103
110,0.8875120931687815,1.1367957331179168,0,0,-0.4429605229296454,0.8195213001865305,0.12647025351926663,0.14019749366117992,0.7675507286230431,0.7626537741870744
111,0.9069666326959198,1.0554951000637016,0,0,-0.5210239271322682,0.8607735046447059,0.013155776552414625,0.18633045005778098,0.848594185913529,0.9424386098924096
112,0.9273961143327035,0.964330485259587,0,0,-0.5309104737244744,0.7786494714983373,0.04464278784815934,0.22205075009665745,0.9315632265122827,0.9932697907168752
113,0.9476763568678881,0.8692699437967059,0,0,-0.5306444471005021,0.7260351537362295,0.1091785040367241,0.28042470611589887,0.7253574175724297,1.065484072239626
114,0.967349148552179,0.7782355118471865,0,0,-0.5430993183957091,0.7538219170167122,0.13458337712420326,0.3451140797288622,0.43243635200441616,0.9094870226752324
115,0.986533098772687,0.7003789078975798,0,0,-0.5678011949028614,0.7937358655071655,0.12588334437117682,0.3715976994688103,0.24902726266398104,0.6112755202575404
116,1.0057664328266656,0.6449210226056821,0,0,-0.5798226209286342,0.8042640307844138,0.14609922407545173,0.22758392756972043,0.11311143471314551,0.34829626830677096
117,1.025814078749037,0.6197507625090403,0,0,-0.6035884915229788,0.7791543559573355,0.1999101957034138,0.1463955703755502,0.042829022935278294,0.09304755577507173
118,1.0474653308929778,0.6300696297801087,0,0,-0.6805713267074293,0.7580985162900405,0.17997351027499287,0.07484202044604901,0.07724444354592841,-0.022851702176493818
119,1.0713420857366276,0.6773811540702134,0,0,-0.7381635696294981,0.7586579831074879,0.16592998849085022,-0.014624246881642811,0.06630691487318817,-0.23660736248792355
120,1.0977324074413408,0.7590497692364215,0,0,-0.7828583699907726,0.7742676454661049,0.14152835867927852,-0.26972091653716584,-0.3006600026045591,-0.5811072200079288
121,1.1264597227211157,0.8685134289882401,0,0,-0.7948013516796841,0.8258304653798231,0.16337970804878976,-0.6445739766340788,-0.2751257075279325,-0.6791208934357542
122,1.156795174440024,0.996075276161496,0,0,-0.7628018584034724,0.844662560239517,0.20201348401225735,-1.1609493,-0.2452624,-0.76052725
123,1.1874210022393195,1.1300777236004074,0,0,-0.7167344055744798,0.8514995149291219,0.191689941878103,-1.2035608363599843,-0.4786336684993974,-0.6671988525793496
124,1.216455602301127,1.2582169461216874,0,0,-0.6376008296179685,0.9886210383837366,0.20361359263555523,-1.051279803790614,-0.3168703579241866,-0.5723994450541514
125,1.241552473830936,1.368790957151843,0,0,-0.504550605545858,1.1081064831822254,0.07075547744505992,-1.1667318584735578,-0.021726464821514083,-0.6273400611358174
126,1.260081498525596,1.4517566360991894,0,0,-0.3655857435850083,1.087036956398226,0.008707157664080232,-1.2055507946723703,0.15915338518763247,-0.6781713713202404
127,1.2693905278942965,1.49955046529707,0,0,-0.4185031492733541,1.1399440699135568,0.0897452133896661,-1.1966667688022283,0.059189145277359315,-0.7378839059649818
128,1.267128870791329,1.5076704556497385,0,0,-0.468293834431339,1.2420753277058865,-0.0017033309163907008,-1.2093783329957153,-0.3381611479898684,-0.714215723295676
129,1.251593960024906,1.4750202210255603,0,0,-0.4896227978538062,1.2810033825155436,-0.006282181548049246,-0.8597073783427859,-0.969465651199354,-0.7665974733184768
130,1.222044292710061,1.403997471652471,0,0,-0.514259716268054,1.2478041326007112,0.04832758645483333,-0.24709499,-1.3603969,-0.7874053
131,1.1789164962360805,1.3002887308850208,0,0,-0.5267773613485204,1.1163488280198777,0.146425032631178,0.12004101352941314,-1.500734268627452,-0.7130234980392139
132,1.1238997577222178,1.172329561485073,0,0,-0.5347802134392707,0.9647770563092047,0.21467391518108211,0.21810459629200957,-1.3826315031827265,-0.4947168976407727
133,1.0598529946886097,1.0304224495430656,0,0,-0.5675005885319022,0.8182155143015852,0.19503239970916253,0.13720457025742616,-1.0310323700990112,-0.19075083134653573
134,0.990585252336926,0.8855770074103078,0,0,-0.5942129219461797,0.6908546636863111,0.15585054057149372,-0.049538292716100274,-0.5601096276628847,0.030415912472537696
135,0.9205436316356393,0.7482276010523378,0,0,-0.5094901534985529,0.6532778790533648,0.12473262814608337,-0.29295444848853297,-0.14778746610076335,0.07878677049833324
136,0.8544585536699667,0.6270479595366658,0,0,-0.3989243188224391,0.7236418791691983,0.13201237144340808,-0.42821194639268506,-0.0696269775803863,-0.025620738930869517
137,0.7969850825525726,0.5280820986995343,0,0,-0.2859898700304331,0.7990577063241938,0.15484266554903142,-0.341583156729658,-0.1005379517561161,-0.008341707175252015
138,0.7523596775696197,0.45434216645249503,0,0,-0.2134339177457948,0.7980892437128733,0.1407947684590298,-0.14758818812798824,0.0767360510901123,0.16163389918062257
139,0.7240757943714813,0.40591749999051996,0,0,-0.21882293101138173,0.7405549617594088,0.15044896233931207,0.08388096096744906,0.14103978660579622,0.2929658857721328
140,0.714579142708945,0.3805319038398155,0,0,-0.26504065318569714,0.6505474575322102,0.1857900507263676,0.2886826727923642,0.1808839029116948,0.4817291940334144
141,0.7249961978676344,0.3743998424106116,0,0,-0.34151578927065607,0.4995237666021253,0.23564211598294152,0.41684973059649255,0.271853263298247,0.5710462773473691
142,0.7549298312471135,0.3831814234653183,0,0,-0.3860460991594152,0.427358803265331,0.22232504723585775,0.4240586274401134,0.18311686216294898,0.370316228754706
143,0.8023702034433762,0.40283608798796533,0,0,-0.4159624876421556,0.4983337190381993,0.23015984742765205,0.06332334549115684,-0.3640521842749124,0.20883146317883564
144,0.8637659200591296,0.4302285592538999,0,0,-0.4495539658778348,0.6199228119782217,0.2625344298920335,-0.2785379292168081,-0.5237770031071235,0.11776172091734152
145,0.9342769134898453,0.46342491718295004,0,0,-0.5109821593970414,0.7191082480186393,0.34443603520073895,-0.21426539660020044,-0.04177666495713296,-0.002033578384246799
146,1.0081942682126783,0.5016960349893036,0,0,-0.5707667641951427,0.776964317990091,0.44471991666801564,-0.0972047679992283,0.4375248280127329,-0.159727833276094
147,1.0794775385751871,0.5452951294856508,0,0,-0.5759455134378696,0.8367897163401773,0.6013404301013177,-0.45793161706467855,0.2167568665671623,-0.17878900830845745
148,1.142339883115811,0.5950906087234243,0,0,-0.5629785531250019,0.8516965256301234,0.6212092705683486,-0.45102624688000337,-0.6430272647999966,-0.07535633152000144
149,1.1918108193003933,0.6521265226720403,0,0,-0.5984444208770549,0.8492109483767201,0.4982093747932444,0.0404578090400359,-0.17402858665603949,0.39665240818562514
150,1.2242213752221167,0.71717058133902,0,0,-0.5472107183008476,0.7443237535243951,0.5045776654107151,0.2695422678359986,0.29507896454400306,0.57941190084
151,1.2375744667849118,0.7903048719688622,0,0,-0.5480019137403673,0.8031395234294266,0.676654437547111,0.10676029867215801,0.5890215684632377,0.553167214801125
152,1.2317698087964342,0.8706114503516362,0,0,-0.6761792434576427,1.1265830065371818,0.6819109544593415,-0.0429772014670943,0.8049850879173348,0.4007519831380433
153,1.208643465526562,0.9559963782961012,0,0,-0.7884817488750386,1.3755817953102882,0.31230897324158324,0.09692629385461508,0.8680327059265143,0.06677879204965492
154,1.1717743474281956,1.043184553161664,0,0,-0.5840563674608227,1.233576093461612,-0.03478823721704477,0.35209211467863166,0.730997819094323,-0.01988008118656071
155,1.1260324403874415,1.1279068577510378,0,0,-0.367320454731163,0.9056617792721946,0.017742756017800298,0.5639853193747513,0.7163163750617285,0.22033466537634422
156,1.076907016934459,1.205281987308893,0,0,-0.3906219460439063,0.767357234718636,0.07087398340456472,0.7371871233411763,0.9020311749764702,0.32742221577254915
157,1.0297307131547464,1.2703574071027046,0,0,-0.5016187133353366,0.6107737056443194,0.03016641707649774,0.5979651794425739,1.3440299889306226,0.09962724563787173
158,0.9889614553317024,1.3187241302839727,0,0,-0.5535835408266825,0.5022695330323895,0.028876150251272995,0.07038152505074015,1.4820050513432832,0.08217286190686557
159,0.9576719828219085,1.3470835926052824,0,0,-0.5206210901304474,0.5197988705966661,0.03726555300555627,-0.45528272295676925,1.423801958019525,0.16943586385734394
160,0.9373335103884615,1.3536451225303738,0,0,-0.5388844925946936,0.9333244428696355,0.03199766469482232,-0.5747102234219921,1.342866047915839,0.3756119280269964
161,0.927893951577519,1.3382717145145022,0,0,-0.49327379646542374,1.106388612812428,0.005386210533559989,-0.2725400429589783,1.3176500230983672,0.3551136457188365
162,0.9280752406378034,1.3023533903261504,0,0,-0.37282632548333333,0.9401349365551104,0.044674961809889925,0.2025622654896876,1.2685351065691963,0.37895379211696445
163,0.9357774285551389,1.2484512290488199,0,0,-0.35023134606409173,0.838333539050075,0.11798773127053909,0.19370244931696645,1.079000827776677,0.5959674411403684
164,0.9484889386570725,1.1798072664961357,0,0,-0.41400698758712096,0.8332061157850227,0.09431509845612254,0.027033560766618805,0.7390500942184027,0.5779114573507683
165,0.9636434963923508,1.0998473182649227,0,0,-0.5039409675635274,0.8381615203423218,-0.00958616267202884,0.029674833045438314,0.5634588243654898,0.5784965128742997
166,0.9789034253346782,1.0118072463660153,0,0,-0.5415971616223707,0.7987880758104864,-0.06854585433026553,0.19429784289752822,0.4473439034157823,0.6162108720455441
167,0.9923695369133868,0.9185804945582673,0,0,-0.5809278554069649,0.7476202708834111,0.007008838251078866,0.27056936249053704,0.3833537937138864,0.7063951286989457
168,1.002722918630245,0.8228172147150609,0,0,-0.6750528257792593,0.7767683882645379,0.12872679713740554,0.26607150370311883,0.3810177302960916,0.7272741684563758
169,1.0093023173807925,0.727221652622987,0,0,-0.6947278939568491,0.7848094797488402,0.15551125321431258,0.2061759368833535,0.3997918161664643,0.8112117928007292
170,1.012117963218605,0.6349245719594802,0,0,-0.6696380374912265,0.742904820934907,0.12318316051676677,0.12213123518220227,0.35520830122407887,0.7901640388161869
171,1.0118021953716854,0.5497765915638803,0,0,-0.6262953426868757,0.7477252145415556,0.14136537940340688,0.08800398924419972,0.28250524737318067,0.7775821184585133
172,1.0095009964085386,0.4764264026948468,0,0,-0.5766148632538111,0.8232677722392595,0.17712206834207883,0.16362021301920046,0.15403780614433965,0.5897762090046367
173,1.006716185193385,0.42010875490585525,0,0,-0.5619872330886608,0.8370055492474583,0.1721069058048401,0.1576810734855095,0.06907869965144857,0.33944041133386177
174,1.005111671747209,0.38615138933380594,0,0,-0.5764117760576207,0.827838594272756,0.1659666523665093,0.022615605107636688,0.0876363907065546,0.2669517732651834
175,1.0062985502163992,0.3792902687699805,0,0,-0.6294030544030359,0.803561751462567,0.10892792073667086,-0.015268448772790932,0.19698005089961862,0.25472861689841714
176,1.011615849859108,0.40293377084200127,0,0,-0.6637166951801551,0.7604709303308174,0.10514995181344365,-0.07025018457222613,0.2194120628332091,0.12210788979709697
177,1.0219281957104271,0.45852885522621656,0,0,-0.6094555079302231,0.7408045981355128,0.1441248884511656,-0.03668432303006182,0.050259628476408094,-0.13576702572367158
178,1.0374667913138416,0.5451602837347804,0,0,-0.5991195364102381,0.753928229925318,0.1538195906001894,-0.06715575430696122,-0.13573401126710463,-0.32898999751338626
179,1.0577419624813507,0.659465701814819,0,0,-0.5962863279686994,0.7591778856619866,0.1705233036720342,-0.28375043832369884,-0.3082521276300573,-0.4641357799999998
180,1.081549625053076,0.7958812221717815,0,0,-0.6186068655864717,0.7820308853739613,0.21699654857710055,-0.46265656295025537,-0.47723560475128524,-0.5358953996569454
181,1.107078529661834,0.9471575008538737,0,0,-0.6527420003205937,0.9043675104444902,0.22348529625236693,-0.6786661647079509,-0.6566493147802307,-0.7226890142019927
182,1.1321029104246314,1.1050287799591485,0,0,-0.6688648900995492,1.0481733280748022,0.17429578715601926,-0.8119679861633988,-0.6885919337805343,-0.7901725478974767
183,1.1542244965465451,1.2608988037395108,0,0,-0.5888697827813467,1.1127929578647433,0.11035227992730656,-1.0565830124950613,-0.37106742034005025,-0.8050857383748523
184,1.1711195104959453,1.4064340347417237,0,0,-0.47123262765097024,1.0467212652030007,0.052344490491922836,-1.2186508797957551,0.00048426421931421364,-0.7862133236083297
185,1.1807561982151185,1.5340131390137712,0,0,-0.4084644197959169,0.9573203607749868,0.07111097605841339,-1.233317352625322,0.1193517203447593,-0.733989095145631
186,1.1815700436467969,1.6370465864383543,0,0,-0.4211541372555432,1.0451676079285688,0.08380916528433269,-1.1227603596002107,-0.1803720143292997,-0.7493525238821673
187,1.1726003410421602,1.7102243852520294,0,0,-0.41042839536463693,1.1481495486988431,0.040663416324770274,-0.8103469972895834,-0.8271476878360688,-0.8319011262844054
188,1.1535910621917398,1.749754529821789,0,0,-0.4100955116864206,1.1955642803679467,0.06611537525914818,-0.3563479160261453,-1.3815158127179115,-0.9565351856675923
189,1.1250460869447707,1.7536158673844382,0,0,-0.39443653409823964,1.155929688304826,0.10635287585105922,-0.015669578388575266,-1.727741997103782,-1.0271681570394207
190,1.0882211570063198,1.7217849282990236,0,0,-0.4568046012941937,0.8922815611033417,0.20872051407120157,0.10592207281845589,-1.8062744594383153,-0.9192487683731176
191,1.045043720959477,1.6563447803400535,0,0,-0.5940070373670208,0.7155730081256577,0.27897599883524243,0.2942071472305604,-1.7707140134373072,-0.7005294149969957
192,0.9979714332232078,1.5613815529197035,0,0,-0.6912215681982825,0.6417522441973103,0.27253385088756327,0.4672990866666666,-1.4451471815125958,-0.5802064704201673
193,0.9498146413386794,1.4426287245631009,0,0,-0.6556680767624548,0.6369566042527629,0.24561810856444047,0.3692025882176364,-1.069965985590995,-0.5830766224690431
194,0.9035481819389062,1.3069031446066548,0,0,-0.5453690951665291,0.6957654224526325,0.20517314118677887,0.1729600270033754,-0.8978610376066684,-0.5919284
195,0.8621273429871996,1.1614465374543406,0,0,-0.44844271941627195,0.7391909927914257,0.1608491305909518,0.131745804933761,-0.8383025150341235,-0.5675595582938591
196,0.8283121760163953,1.013309966182266,0,0,-0.396526798207323,0.7262955890298396,0.13391564762673935,0.2326403639681283,-0.8200844096414343,-0.4255829986294811
197,0.8044993658917075,0.8688930196987477,0,0,-0.37268051807876784,0.6949949211671681,0.15498083723497905,0.37389704766085524,-0.6483531277871294,-0.1728045880436941
198,0.7925612887810206,0.7336952819027381,0,0,-0.3610511789978728,0.6918872763238348,0.21055861043327198,0.5434981797341796,-0.3104005150565365,0.1210652892065066
199,0.7936951143130053,0.6122799056186888,0,0,-0.3719041810545518,0.704230435292171,0.24869117122332712,0.5772930670934188,-0.15855925415483108,0.2561571059291855
200,0.8082891444961877,0.5084010427361229,0,0,-0.38678332813897087,0.6828956401869075,0.2583814887841439,0.48937910309752297,0.018191796149878363,0.36766652605515493
201,0.8358191039013725,0.42521254967372807,0,0,-0.38812260907886154,0.6599117015618372,0.2550655394497212,0.3853633108617577,0.19526410906642902,0.41906451703770187
202,0.8747939854803805,0.36545991488596663,0,0,-0.3784831380457783,0.6347576106099676,0.23870036829961516,0.3195262423345203,0.16687776616923772,0.2748013019579763
203,0.9227765112342194,0.3315670663085798,0,0,-0.4050612262154907,0.6517623735549406,0.2859409212592392,0.2501121364267072,-0.4334453386304413,0.09588746628433945
204,0.9765011042012453,0.32556434283863644,0,0,-0.475854132049408,0.7632447738433975,0.3367135365891378,-0.011012273565369815,-0.3882081372900153,0.10170470359825742
205,1.03209783721635,0.3488546240356976,0,0,-0.5505298127753689,0.8605065723419478,0.3724241100624624,0.11337055030830198,-0.3278115413754877,0.06701650794149684
206,1.0854072708687037,0.40186911520396945,0,0,-0.6019306630929203,0.8506265427782791,0.41746953397878017,0.1397836795716254,0.13088969098456205,0.006049633934820712
207,1.1323493336739316,0.4837091431283482,0,0,-0.6170152915339961,0.8477106260306803,0.5256669922955971,0.010073233898087902,0.1803856063968863,0.017640016633091928
208,1.1692999151888015,0.5918895481273522,0,0,-0.6147638363563082,0.8606637688108572,0.5872025679507963,-0.13902541204634644,0.25529433619206676,0.2145813520542032
209,1.193433650704639,0.7222788791168543,0,0,-0.6336233700428986,0.7982843963367235,0.542830416104325,0.2074940092121653,0.5753756679459442,0.45011023801885586
210,1.203004169356406,0.8692725183709614,0,0,-0.6452599884288391,0.7346179345668054,0.4877905173547661,0.21274737600704566,0.8573574553773928,0.6430485798865849
211,1.197544334253659,1.0261612491850574,0,0,-0.5929788458569708,0.7584377564466875,0.5042725035285632,-0.12108639129641485,0.9497197257290838,0.6366741940717131
212,1.1779701007367143,1.1856061562891742,0,0,-0.6355839087527517,1.1278772011706333,0.47488639924461457,-0.2585211548337307,1.063744930047504,0.6272519525890745
213,1.146560591336846,1.340123947799135,0,0,-0.6216521624479455,1.3286565217673256,0.23126314899540742,-0.13475397557263266,1.201336269221052,0.567611665061053
214,1.1067763375185886,1.482517537704232,0,0,-0.4256341524652429,1.2178590895046728,0.11611731937813607,0.036950810074758325,1.2589146283380261,0.5471076271042254
215,1.0628907423963994,1.6062276179960335,0,0,-0.27094842897674315,0.8950956455549874,0.12655376689347278,0.19591404419431938,1.450631293838869,0.684917987280812
216,1.0194581648087588,1.7056080168252958,0,0,-0.3022142252759505,0.7388769382645765,0.06204360204730342,0.4900691251601241,1.5912376845115825,0.7254579882980854
217,0.9807055171233284,1.7761351948717614,0,0,-0.3983191414953889,0.6846538281927825,-0.0010981123767003734,0.6072,1.6377156329831517,0.534962885557977
218,0.9499734333857492,1.8145612097996209,0,0,-0.47771224639371085,0.652854358621758,-0.027497286409323557,0.4542503394705195,1.61941791195347,0.4807269368592051
219,0.9293233644807496,1.8190231812387476,0,0,-0.5263337849464094,0.6827978598370036,-0.0343683137173881,0.2703518963463447,1.5595793573573558,0.5436474354554562
220,0.9193765208068501,1.7891309270147238,0,0,-0.5502814091661384,0.8152954225331693,-0.03066684627132364,0.06860570701670396,1.4934808586515493,0.5771091019988033
221,0.9193873749759979,1.7260541272251964,0,0,-0.5142018420380895,0.8930441966081328,-0.00910044847358226,-0.05075080354199231,1.565831825992424,0.4703996897326948
222,0.9275047775388104,1.632608451519372,0,0,-0.3956990648168452,0.8302755206858287,0.046782465211870294,-0.21231277097186843,1.81870477736573,0.4739263812020458
223,0.9411508783487872,1.5133012507340795,0,0,-0.3552551451671246,0.8226427198718074,0.04036604540371385,-0.44527951803215027,1.6818775898863112,0.4466108536142664
224,0.9574495120046141,1.3742660488589225,0,0,-0.33484681307214986,0.9027591936841316,0.033490608109450946,-0.5307794971268971,1.3998300877095045,0.4009725871987247
225,0.9736475410357021,1.223019424443357,0,0,-0.3728200351982218,0.9816263372148549,-0.008780530320896478,-0.35896291202349573,1.084354708485636,0.36415269534502026
226,0.9874819409935802,1.0680212658915464,0,0,-0.4674488738245202,0.9674475142527537,-0.051072115298440475,-0.0887511676014287,0.8522226232488135,0.34669356997226636
227,0.9974512485620753,0.9180859623044593,0,0,-0.5436569899193403,0.8878212883294181,-0.019412474084421035,0.1064067756520964,0.6532399356381604,0.35091208323061773
228,1.0029602286994443,0.7817405002841862,0,0,-0.6229588202793795,0.8107238356734281,0.06072500531143182,0.23235716849419366,0.48939478992791274,0.3499986150861036
229,1.0043256376373015,0.6666326578653934,0,0,-0.6766051347339658,0.7432363771627144,0.09535350855164108,0.2608898783209598,0.40374530062821085,0.3806452688178195
230,1.0026543333955198,0.5790614965230709,0,0,-0.6873568398763027,0.690824262878477,0.1250535608621291,0.15852543943448907,0.33322916948626075,0.4706638343588201
231,0.9996247643839433,0.5236537376381472,0,0,-0.6710249394042832,0.6639654381722742,0.14342820442074192,0.03742914656650922,0.3192475941670148,0.5840388202601817
232,0.9972140030554878,0.5031672235604292,0,0,-0.6458271147769609,0.6738791030717847,0.16656760431859344,-0.0009326746556742525,0.257133308197944,0.6783856862326144
233,0.9974137968272566,0.5183845198942206,0,0,-0.6058150378750197,0.7100192818246441,0.17067278754537352,-0.008495538855886602,0.21355592598802564,0.5932945042634772
234,1.001971505564286,0.5680737317753513,0,0,-0.5758733537117806,0.8266015503300752,0.14921178166527377,-0.05190543476358979,0.17481395994069887,0.3773454840324163
235,1.0121780937918317,0.6490326174464528,0,0,-0.5805473513821695,0.9020600500620323,0.1090150041984855,0.03730226141292412,-0.08895986283662023,0.1541332510592523
236,1.0287110748263604,0.7562699388181635,0,0,-0.5782459336451304,0.89093507648684,0.10247394415862872,0.16631873841723782,-0.3524413034691474,-0.18567785041527854
237,1.0515324260344292,0.8833787568809186,0,0,-0.5871417629193025,0.8456151675439099,0.1557357746824022,0.20097576320739707,-0.6899467334201608,-0.5965575690316137
238,1.079843743701762,1.0231015628274773,0,0,-0.5735114905679704,0.7886675323027252,0.19334141935695093,0.2213732270512576,-1.0041119491632948,-0.8958709156068356
239,1.1121093193896752,1.1680000502790522,0,0,-0.6217986884654392,0.7478744237778964,0.18346440705219902,0.0868343191471949,-1.2054972324713158,-0.924129559653899
240,1.1461619498093845,1.3110782054760017,0,0,-0.7151694368087897,0.7525302974405975,0.17253102003360632,-0.301787975068815,-1.1839280562327963,-0.8271020440031461
241,1.1793965704930536,1.446210427556951,0,0,-0.8510708474317393,0.8957811439922359,0.219532626065652,-0.7319743274626861,-1.3351504784079602,-0.7241430524378116
242,1.2090328585900174,1.568296536481592,0,0,-0.8831206385906593,1.0570208271138963,0.1636376067306645,-0.851254961439094,-1.2336456528065232,-0.4133776585887727
243,1.2324019133250368,1.6731665921514547,0,0,-0.7671387892643938,1.138672381134197,0.0976958862028366,-1.0633810665143701,-0.6347089017408561,-0.48341594325521514
244,1.247202376515568,1.7573477296293394,0,0,-0.4753890423275882,1.079354631917005,0.028982638436491986,-1.2925150464450292,-0.11682892946624013,-0.6587550702904118
245,1.251687550354908,1.8178501526477846,0,0,-0.29679170456680626,1.0633636471415584,0.07329362174038595,-1.341310246589546,-0.22088511450738707,-0.8000266839948166
246,1.2447766525104431,1.8521125732491484,0,0,-0.28843181528918277,1.2003021283093582,0.03737893026130426,-1.0380939492437564,-0.8588020723335419,-0.8868047222392472
247,1.2261069331547625,1.8581738101901626,0,0,-0.3517909164053136,1.251149808989752,-0.04738632479472336,-0.5289868748788796,-1.5414580881254878,-0.9586460136318493
248,1.1960452514036788,1.8350351588847325,0,0,-0.40011770335234936,1.1665674865871454,-0.026809859815956974,-0.10069031273306604,-1.9452141462151402,-1.0122029699601593
249,1.155666171522122,1.783086220976168,0,0,-0.4438782800111686,1.055965978876109,0.08311201177208645,0.068076146224361,-1.9929957871454067,-0.9261336832870449
250,1.1066961885279103,1.7044214009057972,0,0,-0.5491890059332742,0.903015494432568,0.17026154266550914,0.09869509270779774,-1.7837604367387312,-0.8172897130926383
251,1.0514268250283296,1.602897586286559,0,0,-0.6721254606983014,0.7469005358815003,0.20424846878234812,0.14966199,-1.4347321678364924,-0.7362338967896314
252,0.992605766104953,1.483868835150911,0,0,-0.6994567425253148,0.6719102253256619,0.19059937675491384,0.057353136294534854,-1.134846919239901,-0.6976342178147266
253,0.9333163410176596,1.3536420229789339,0,0,-0.5929933530628194,0.6779265814442885,0.15936375955892915,-0.2011860264968892,-0.933128987822339,-0.6799067191096856
254,0.8768503685415534,1.218779409880075,0,0,-0.468001612052535,0.7386398360188227,0.12267266981025013,-0.2938240568183643,-0.920550375114277,-0.5925877357056881
255,0.8265717311918549,1.0854022344807877,0,0,-0.37451444305554166,0.7543214324997664,0.08551059521471398,-0.18515963121038043,-0.9483556541600634,-0.4127391202139462
256,0.785761968033025,0.9586291172480592,0,0,-0.31745422991843353,0.7451204604808627,0.11516297371379564,0.09222949489992256,-0.8256661531532946,-0.1322569326290682
257,0.7574368148930841,0.8422389820236679,0,0,-0.29644307282988186,0.7406428617443643,0.1698068618210943,0.3266796535059733,-0.42701886543825407,0.20235306848605258
258,0.7441254329352208,0.73860002577931,0,0,-0.3213956952026259,0.7433014363711434,0.2120206996638843,0.4499656037989374,-0.1122184545412175,0.37355345661617045
259,0.7476135306074895,0.6488561978753163,0,0,-0.3502656992769809,0.6855844300742561,0.23313156234917662,0.4982970711489044,0.16574609375123942,0.5847594163535714
260,0.768668541251637,0.5733070825776632,0,0,-0.3489691051978731,0.5981217854395191,0.21691326756214896,0.5307437826214184,0.40189160601520746,0.6605301636629638
261,0.8067874247320155,0.5118676913547155,0,0,-0.3466203208001962,0.529831244838581,0.18578436327650694,0.3436822568559113,0.4896328941660137,0.46495055852192524
262,0.8600277572680561,0.46447877272811294,0,0,-0.3725681564706722,0.5361084392074574,0.1976329071590471,-0.03881244189193024,-0.09181148547390403,0.18471763721256834
263,0.9249880552718516,0.4313706605135069,0,0,-0.40547631966903885,0.6380561208268942,0.24104201461908292,-0.2504499967317453,-0.4865167789281535,0.015596622519718733
264,0.9969839909813404,0.4131442893038575,0,0,-0.4667680620079296,0.8205304897629268,0.295852348210666,-0.0005235467801769238,-0.4804139875149057,-0.08050110958210824
265,1.0704251990016707,0.4106847929568219,0,0,-0.5189608657816576,0.9446214716699384,0.4056030561989916,0.21695594713747104,0.16859704309298573,-0.1568735604370212
266,1.1393480284218913,0.42494908569048057,0,0,-0.566123422979994,0.9495323101921942,0.6236167562194759,0.2173516680485362,0.2374662373065397,-0.04298379211458044
267,1.1980235179217398,0.45667679069895223,0,0,-0.6469722812932786,0.8662428777989495,0.7454559031378127,-0.005057760285027787,-0.47770829110914104,0.13601640418605257
268,1.2415510704192039,0.5060726390329293,0,0,-0.756761898894232,0.72909648368579,0.6234298941695597,0.3512106987020274,-0.5281862805706297,0.2549951129214365
269,1.2663661708528697,0.5725014436079494,0,0,-0.7653105851727817,0.6578839565798957,0.4731964388435991,0.472707706119435,-0.1757075171180263,0.39085980828640104
270,1.2706197929408647,0.6542332305433217,0,0,-0.6484786451382467,0.7064847047742276,0.540483782477113,0.20752100465056889,0.06603343196713363,0.3988611369867362
271,1.2544062051241043,0.7482852067236038,0,0,-0.6628112306965669,1.095037922402127,0.6048373780124524,0.07733339121572502,0.246773546808472,0.42207216410282306
272,1.2198121146473984,0.8504196876637213,0,0,-0.7747497703944741,1.4357141072613755,0.38567144180618596,0.046690395785330414,0.6600885633392891,0.26201329237925197
273,1.1707453250941762,0.9553489916670068,0,0,-0.5754834792765392,1.343445523862312,0.13908035112930228,0.12271155542143417,0.9500094703718586,0.04720057672430406
274,1.112508450595538,1.0571577008284743,0,0,-0.29882667502598675,0.9546162674100547,0.04649213342527529,0.3163141406124015,1.0131276027064404,-0.020805260967405658
275,1.051136235790179,1.149894385509579,0,0,-0.20533007305842038,0.7550995149443347,0.034865018446048085,0.4799314930758614,1.0147330824180183,0.2515176821256452
276,0.9925960062192992,1.228235205694893,0,0,-0.3014072546533375,0.7071814931443042,-0.023262220050313805,0.5248478251621875,1.2228399407164234,0.19289318970148625
277,0.9420098923096828,1.288096150850853,0,0,-0.43820088191887147,0.6417230292237637,-0.02745121236668396,0.3264413855423246,1.558425922090035,-0.16472418393814195
278,0.9030575768919382,1.32707137342509,0,0,-0.48355374946678825,0.5849246924262953,0.0010766345199633655,-0.05423467642018998,1.5228993811620422,-0.14664142321069434
279,0.8776636010452601,1.3446031120371353,0,0,-0.44494013550782957,0.6389530482541725,0.05634557534276109,-0.322193059379412,1.3711693813822192,0.13150834479550177
280,0.8659946760495617,1.34184464730423,0,0,-0.45528991552743164,0.8762668340135656,0.08538842881181581,-0.189190030765124,1.2360512592724395,0.2983589988790034
281,0.8667193789083623,1.3212501104068128,0,0,-0.45194510522050513,1.0027227449406153,0.06900556407371161,0.1498441940623913,1.1948354020391851,0.1793610032986778
282,0.8774338677174082,1.2859890456549388,0,0,-0.38005803730558924,0.8554767833586198,0.05480449969066189,0.3658469211483259,1.1918375578947364,0.2515394637679437
283,0.8951441395621231,1.2393182732390873,0,0,-0.37941331509404397,0.7657154827742755,0.09141274256037121,0.25747561720953244,1.0476558819810957,0.44073181174675075
284,0.9167169634626696,1.184045819308924,0,0,-0.4350262266353735,0.7897322858369358,0.09791292547024731,0.09281831290322538,0.8479462866188738,0.40211793985663297
285,0.9392498627112265,1.1222014247464367,0,0,-0.5162732316562774,0.8600858151807816,0.03343764042179082,0.06786905341888559,0.7405852748746103,0.456993444902036
286,0.960342498163711,1.0549918733377717,0,0,-0.5548128944305043,0.8005153891907725,-0.008063323295829913,0.14897349412708158,0.6833864137783108,0.5113958597614788
287,0.9782688193387982,0.9830645142097556,0,0,-0.5544951393862952,0.7649850386958286,0.07567260813977873,0.19541802808540257,0.6465302305501494,0.6428014206256175
288,0.9920576612382959,0.9070289808988986,0,0,-0.5596272046022073,0.7824080724311704,0.14865283606923188,0.126870130093874,0.6413878909446518,0.7604080756894236
289,1.0014954814706136,0.8281097030727017,0,0,-0.5795110864732078,0.7873279429865556,0.1446474184984039,0.017009208974277313,0.7018613163585211,0.8854646680868167
290,1.0070679449998183,0.748745949622543,0,0,-0.5867955042218479,0.7880127010583349,0.13879045792785566,-0.09958199887913886,0.636461293179096,0.9480787390905471
291,1.0098549331519393,0.672946061583436,0,0,-0.5758491580954312,0.8082626471719586,0.15838513510335223,-0.036863623452055974,0.4741033902465769,0.8940029391780836
292,1.0113877759611205,0.6062502426604983,0,0,-0.5630992364958489,0.8459974524812712,0.20186010728864245,0.16507100969412206,0.3528602964794087,0.5877410295081972
293,1.0134716234870995,0.5552540930951947,0,0,-0.561935282171612,0.8989317307819474,0.20059532611063022,0.19398167175004863,0.1697319502910139,0.37612588558900373
294,1.017973216172959,0.526763587328537,0,0,-0.592486777048,0.9082594191471188,0.13545281681848936,0.2284636,0.0779105638743249,0.17721424363618252
295,1.0265780006756453,0.5267502321585957,0,0,-0.6215303190911347,0.8215118903990231,0.09404833717527408,0.2721488724955784,0.10540486328669564,-0.022099181758887643
296,1.0405322855829036,0.559320030367453,0,0,-0.6678410839115155,0.7282316143455699,0.13379863585069834,0.23017365240740678,0.037272205555554445,-0.2912507304321003
297,1.0604030757802774,0.6258936042991107,0,0,-0.6703283690266101,0.6695372229243751,0.15330940197777354,0.11524752624057231,-0.13310678173084514,-0.5114262702421585
298,1.0859019890630848,0.7247340863631057,0,0,-0.7056743065702159,0.6512721041092344,0.1502955274871339,-0.08748447378496953,-0.2901142603043138,-0.5995276867492955
299,1.1158205446076068,0.8508821434127487,0,0,-0.7071579281988258,0.7075213169210334,0.16802793232573965,-0.3364944325604599,-0.42083835789326207,-0.5885725460923447
300,1.1481071833683627,0.9964875785543642,0,0,-0.6889158581758462,0.8175847058178394,0.19575649641829482,-0.5869973061632803,-0.41661553367068505,-0.6810982478908901
301,1.1800844869235754,1.151475556560305,0,0,-0.6965183464214254,1.0736161750973894,0.20245402071461369,-0.8634351822587014,-0.499980634738924,-0.6369463701344941
302,1.2087682802115265,1.3044528692530277,0,0,-0.653469268478236,1.2265188643540756,0.11320148903191918,-1.2005228546432878,-0.25591442977281564,-0.5348899236747702
303,1.231223542665252,1.4437426203746884,0,0,-0.5365250324057793,1.2028946546236996,0.0006012301372476736,-1.497069455569011,0.28227570639225724,-0.5866940691020993
304,1.2448890160148347,1.5584334842684975,0,0,-0.38918460062577737,1.0953135212900331,-0.004177691686795492,-1.529934026322112,0.417538881610575,-0.6279716426562496
305,1.247824980627888,1.6393440436846054,0,0,-0.3183781578884543,1.1340299069305542,0.04841295102870815,-1.314857260627586,0.13524360838365015,-0.6398862222853767
306,1.2388715982309169,1.6798318827517904,0,0,-0.2800852304582661,1.211025271479427,0.017726915446658196,-1.0095788849071354,-0.6488862251284493,-0.7128622373370284
307,1.2177272929312648,1.6764071187484633,0,0,-0.29969278937546456,1.2357177651863076,-0.0016733860614467429,-0.6661732449182853,-1.2487480428059115,-0.8365313058589092
308,1.1849598558708612,1.6291182390687455,0,0,-0.36224536090641923,1.1780987095251663,0.043581057587995124,-0.38592132488202113,-1.6768483664372855,-0.9633278937278804
309,1.141957149549826,1.5416574744722542,0,0,-0.41618722592025514,1.0497667324605477,0.14096822094499484,-0.1730183081175059,-1.730272713244249,-0.8904756168205911
310,1.090823022442798,1.4211111433783892,0,0,-0.4916169274974233,0.8783215908975482,0.23823279018354612,-0.10323816963881706,-1.5334923407819083,-0.6779609935304706
311,1.034230389424911,1.2773001958223096,0,0,-0.6239478289664026,0.7379870176302247,0.28394850672632643,-0.08554138987738649,-1.261010264643212,-0.4463430865567816
312,0.9752502042440051,1.1217327694763846,0,0,-0.6676461786365965,0.6651503684718651,0.23539834776667964,-0.11174689449502509,-0.8911268136092411,-0.32806137897333915
313,0.9171749637734958,0.9662945641729114,0,0,-0.6035964830926498,0.6627221175489327,0.17160905593955597,-0.24971477488372051,-0.5145605402454787,-0.3084877950215332
314,0.8633482856775256,0.8218842067814836,0,0,-0.41806713518239363,0.7331382548606492,0.1364291984839988,-0.35246416357736454,-0.4138583191650178,-0.2929160642223981
315,0.8170031327645262,0.697223988473214,0,0,-0.32773593703661785,0.7523340197499796,0.13926754429156726,-0.24758771042957478,-0.4126918933130646,-0.26503584657512647
316,0.7811047641419615,0.5980378516228599,0,0,-0.2767145326544012,0.7239666256681475,0.14592278020230212,0.0030736643359653777,-0.41664834794630323,-0.1388867080544976
317,0.7581915143154346,0.5267109906298645,0,0,-0.2796218121863033,0.7071395717693881,0.18843812360020482,0.2039773835754201,-0.2822948183798866,0.05065958439265853
318,0.7502067075323436,0.48245748391571414,0,0,-0.3173508760133617,0.7110233053839048,0.24797904926004435,0.310185516522762,-0.09477083685047387,0.13328514767464442
319,0.7583188121678309,0.46194044351724434,0,0,-0.3786876046786023,0.6963024922121713,0.27823848954345143,0.34263289138067743,0.08697994746479248,0.3457511387542251
320,0.7827358183192545,0.46021769872379936,0,0,-0.46551699613899,0.5694919596954476,0.2931774075652821,0.3429986260432949,0.24217665352374787,0.6025884791340907
321,0.822534849524406,0.4718313200834726,0,0,-0.440951940809127,0.5132175614116071,0.2876987342302129,0.3771881798297965,0.31833235705846746,0.5856703277392812
322,0.8755463088861376,0.49183665302273705,0,0,-0.41905645050948936,0.5468037766907063,0.29076961120944345,0.40321912329028503,-0.0784728773482894,0.4043236712537298
323,0.9383444366633552,0.5165894363351121,0,0,-0.42691160592420857,0.6197125968703887,0.3158910114230809,0.1451939810828151,-0.6630493090114302,0.26226831314617993
324,1.0063922839335797,0.5441734093098131,0,0,-0.47050110788650207,0.7302667201373017,0.3716998954087623,0.11999891396914583,-0.6339367070126165,0.08014329548186282
325,1.0743647917105146,0.5744330909204417,0,0,-0.5337720335820432,0.7822307903836325,0.4024902119761724,0.07625271931795281,-0.34388068946708983,-0.14543888028634075
326,1.1366354567296686,0.6086526874448117,0,0,-0.5796727037641641,0.8224950646548796,0.5201176594671433,-0.3374547133053341,-0.5662263326050502,-0.13026658121848173
327,1.1878723649385512,0.6489765882624574,0,0,-0.6443845559822895,0.9070665606858024,0.6585414094877903,-0.3043894457823487,-0.6572051524225493,0.1198700524066782
328,1.2236593946340801,0.6976940568183629,0,0,-0.7221098753824873,0.9412826568105381,0.6511001948992593,0.11069209179620289,-0.1160357470117169,0.2791948219692703
329,1.2410454400677995,0.756514657701116,0,0,-0.7087766412839966,0.8476447260353619,0.5808599799479366,0.3247218036688478,0.4524612224181169,0.57258250935081
330,1.2389314027867186,0.825948629397636,0,0,-0.6253100947933716,0.8622231455393933,0.6434867485589704,0.038080076793843905,0.6117749885719961,0.6129905110645483
331,1.2182275107831693,0.904881218361313,0,0,-0.6441073743939283,1.1727727081292614,0.6145649432086363,-0.10723182379802684,0.638124601073891,0.6532466426798061
332,1.181743825515656,0.990398824695565,0,0,-0.6424696167056726,1.2791160382287845,0.2031611674693178,0.13911399229284788,0.528987111872872,0.5706892695573226
333,1.133812122220272,1.0778991698784475,0,0,-0.35572138620180693,1.0530939662645924,0.048103424955102725,0.32212447954830703,0.5899015035131759,0.31146463703889393
334,1.0796837117436686,1.1614964154125673,0,0,-0.1810154474774111,0.7971701717345463,0.07056380994107447,0.37660518858725767,0.958013556786702,0.19212219642659287
335,1.0248026420427803,1.2346973068982212,0,0,-0.21075147762832688,0.722279176286992,0.08312043378520188,0.42396821341298063,1.2325292008363113,0.26936140381919804
336,0.9740929820729861,1.2912663665244775,0,0,-0.41979031046816245,0.7943509234614565,0.053590844660556206,0.5195023986047447,1.4723460276437477,0.08360011420587043
337,0.9313950743204548,1.326136218192949,0,0,-0.5272333733148751,0.7208482006772146,0.04270490344233083,0.41253888881649564,1.491795437298266,0.0037090073958155373
338,0.899137676375887,1.336188500327598,0,0,-0.5275879214614568,0.6205322051872967,0.006567383160916126,0.14399839339446888,1.395244459201772,0.05433320586414224
339,0.878267377880141,1.3207508703840656,0,0,-0.49220804990854755,0.7077936878835233,-0.005853508070767299,-0.28221851185184993,1.4098213553153152,0.1858176892872867
340,0.8684009629091448,1.281715013463385,0,0,-0.4980580723690383,0.8952757381896791,0.005839799821469105,-0.4551113921331467,1.3596378351059573,0.3477610462315077
341,0.8681310289945895,1.2232528418634228,0,0,-0.4365099698309772,0.8922516883712807,0.05867947511402727,-0.0413240581083801,1.2660853858518983,0.25399746291992875
342,0.8754011970065331,1.151175907571902,0,0,-0.3971505433563657,0.8062157592174545,0.1285113102326403,0.25158089612208306,1.1687645135248337,0.2575376253201684
343,0.8878756022243041,1.0720436187737539,0,0,-0.36679712334480147,0.7698894665370961,0.17317682098352424,0.2544186606285604,0.9074319080337935,0.26879221899430333
344,0.9032538546708303,0.9921775448824698,0,0,-0.35074619246544236,0.7652510760362032,0.16497060118086082,0.2757747906747143,0.5276282811139659,0.22290163911357314
345,0.9195131687043043,0.9167711497293932,0,0,-0.4121873580282796,0.7967103817603007,0.08284837217037848,0.3959164677499002,0.34771464223815224,0.23845530074074067
346,0.9350789227464127,0.8492795813474983,0,0,-0.5443923477200696,0.7963338227774426,0.02004503926796466,0.4721949530085503,0.25713683772718127,0.2886367352674489
347,0.9489294040863478,0.7912209978819273,0,0,-0.6437700732312874,0.7243100968084891,0.09533130776939969,0.5018489158334984,0.18112823143596868,0.3727074886476767
348,0.9606368434092454,0.7424260534073405,0,0,-0.6854058331827534,0.6791232639001692,0.18621950505638463,0.5141754320527745,0.16966413965075672,0.5429068436282505
349,0.9703443612092134,0.7016624839134914,0,0,-0.6612415755689891,0.6956451274370505,0.18326113726521645,0.5050204587724495,0.20357293038878913,0.6610817261930124
350,0.9786814481285419,0.6674704828940967,0,0,-0.6387044990463425,0.7131090695530116,0.1735770651131867,0.3784046766738851,0.29060003791133265,0.7617734645832517
351,0.9866274061528142,0.6389958566679557,0,0,-0.6218837232991759,0.7500550112184622,0.17936935379263227,0.24984388,0.34330627,0.8512407
352,0.9953388852181873,0.6166115373584014,0,0,-0.5889639758549735,0.7857653983794859,0.18587562512450964,0.15590748254480172,0.37756179390680966,0.839361642473118
353,1.0059618985966527,0.6021713907476783,0,0,-0.525281185850611,0.8114722593671778,0.17255447757913206,0.11705669421406274,0.37564954844921866,0.6744339237499992
354,1.0194503409363977,0.5988313898290634,0,0,-0.4674058858102292,0.8506980591983591,0.15208121401408187,0.1652311087600003,0.3186016601999987,0.4799275015799965
355,1.0364123326255903,0.6104814893278987,0,0,-0.45416528750958485,0.9059444389695527,0.13729417683353182,0.209806533403361,0.18636309432773174,0.28259447983193364
356,1.0570020898017318,0.6409286591258427,0,0,-0.4920993317041668,0.9236443764598838,0.09769663490870636,0.2881993336534648,0.04453999609042944,0.07567261502200265
357,1.080868221930037,0.6930278428705297,0,0,-0.5871503983331006,0.9057095675825585,0.10703439343534785,0.28260545164481626,-0.18270823848152248,-0.28398702138855303
358,1.107161134289691,0.7679543929854896,0,0,-0.7009688746915966,0.8522242987705311,0.14451821737011084,0.17240979414359658,-0.36515283104693685,-0.5877323703971205
359,1.134595399216747,0.8647527827029825,0,0,-0.7358392938273398,0.7895571965133984,0.18358446798149153,-0.18523418070644304,-0.5518414509090888,-0.6539307706768122
360,1.1615587440809265,0.9802096494523275,0,0,-0.7450647708399146,0.798198304823281,0.18653392677505065,-0.445712175449813,-0.6473113833706435,-0.637470629308274
361,1.1862558332084019,1.1090206421375544,0,0,-0.7864910296771761,0.8887698760886134,0.1758319387628759,-0.5920759262797574,-0.8934367034231799,-0.7024561019240608
362,1.2068694146948324,1.2441746782498886,0,0,-0.7905138116424941,1.0652820906036833,0.16083189050985605,-0.8203028614682466,-0.9671823532539716,-0.6311637898412725
363,1.2217146065572648,1.3774714799692291,0,0,-0.704391317618299,1.1671809372272812,0.11147516397644007,-1.0926734063734924,-0.4284162609305099,-0.5723875133843209
364,1.2293614962869601,1.500110634838763,0,0,-0.44971540286766143,1.0606925846283677,0.033834668641480194,-1.2718577992879763,0.1522529537935147,-0.6213806059731019
365,1.228714247392599,1.6033261807764498,0,0,-0.3572407119388346,1.0022935173615761,0.07306041779438738,-1.3384738683693518,0.16459674179371442,-0.6516867282829075
366,1.2190570748210343,1.679067714682892,0,0,-0.30125031481768777,1.0917483421764866,0.05732783252789319,-1.2173149623242727,-0.26981465389316617,-0.6957099171321465
367,1.2000913288912918,1.7207293875307226,0,0,-0.3033110786602171,1.217234720929553,-0.006133008104631176,-0.8830962528705669,-0.8706456940028101,-0.7347351035007021
368,1.1719801372857668,1.723896228593829,0,0,-0.3282397245722854,1.2291133672702315,-0.008823783990190135,-0.42197144153334043,-1.5255687073333244,-0.9074892363999977
369,1.135394482394277,1.687019870812646,0,0,-0.3560716555628965,1.1571298356212751,0.05988106117889224,-0.032863938700000546,-1.9368678748799995,-0.99476789369
370,1.0915380155153163,1.611875408409382,0,0,-0.4442698385059226,0.9386463814426458,0.20615670888693377,0.054357660358037165,-1.931788537611764,-0.9122164174031417
371,1.0421305328282842,1.5036278050665288,0,0,-0.5888130717647435,0.7616647709257138,0.2818337700469496,0.05344887367466988,-1.7416611331332525,-0.7407408731572623
372,0.989346457681901,1.370386775009666,0,0,-0.6551383947983762,0.6808024184370248,0.255627204336463,0.04648950562313738,-1.333092066726303,-0.506601046630891
373,0.935719808725156,1.222252782471864,0,0,-0.6121600292110905,0.6519956303271914,0.1864608952916346,-0.08079793497891678,-0.865050575517158,-0.4160406373207456
374,0.8840314888943026,1.0700067627615135,0,0,-0.5156406916379412,0.6855404961344713,0.11280022525488727,-0.2604506312810266,-0.5288195382145692,-0.3497620543374691
375,0.837189582256422,0.9237074915425271,0,0,-0.400367785237187,0.7151680971011553,0.08700347109918385,-0.30702955327623954,-0.4471609029834694,-0.3003175961362276
376,0.7981045742277871,0.7914895022138063,0,0,-0.2883645339814919,0.7342858252175526,0.089626209247756,-0.16210068471136965,-0.41388497112080963,-0.23767832362229782
377,0.7695529309961566,0.6787982704156947,0,0,-0.22126191752762875,0.7624971773751265,0.12492503444004648,0.1361873998739198,-0.30836310418310703,-0.021145063551691358
378,0.7540160649607737,0.588186990712398,0,0,-0.2156411856487755,0.8215153798687913,0.1754297355989624,0.37889544688505433,-0.03783253285288395,0.27854889815962136
379,0.7534800515021601,0.5196666204570016,0,0,-0.2624656559452291,0.8146903240229004,0.21292090154819932,0.5088555912301401,0.11984517820777715,0.38876252492643304
380,0.7691892292591435,0.47147659939015985,0,0,-0.34187382060481497,0.7043312284452856,0.23672703684111043,0.5156153954110134,0.24217303669393597,0.5857441406025555
381,0.8013676805371459,0.44105346931094247,0,0,-0.3977580852910697,0.5799404254563224,0.24859887526957275,0.4189021128886951,0.40555103594196673,0.660062916587267
382,0.8489533931257395,0.42594413001332526,0,0,-0.4029844188298629,0.5170308504154884,0.23277333804176195,0.37956630035073546,0.22640659658657358,0.36267385727071094
383,0.9094179542702553,0.42445155077956037,0,0,-0.4146712358825612,0.516794666699667,0.24567811673334394,0.08680503294246333,-0.41338007340709665,0.20075031834070622
384,0.978753156450466,0.4358964247245771,0,0,-0.4375610520825964,0.609915002487652,0.3179744469928573,-0.016506390728328074,-0.6341156156575586,0.13486749959897829
385,1.051684434370868,0.4604894514162803,0,0,-0.48068762439580237,0.7689380724613668,0.42143401149355425,0.10397615286932156,-0.22105412680747827,0.07038856372695003
386,1.12212265430616,0.498900042618134,0,0,-0.6273614260074425,0.8787496479017347,0.5266387449679888,-0.23629114872202178,-0.1765259481227682,0.011596579474093345
387,1.1838067466229538,0.55166165177421,0,0,-0.6262887154793725,0.9257107291259045,0.6752777669650283,-0.6477321528568591,-0.2136302021302015,0.006175053333267188
388,1.2310420960705244,0.618569306797673,0,0,-0.6133097320020952,0.9345497782788109,0.6473343612123886,-0.23858695834897087,0.22735400895188707,0.1262870290437218
389,1.259419479575306,0.6982078399384811,0,0,-0.5953213807303781,0.8777696370027694,0.5260470416937911,0.13644086480237175,0.30134068459486124,0.4422522475296436
390,1.2664066466981065,0.78771281359217,0,0,-0.5379359456395602,0.9221180425998934,0.5749253675505649,-0.07050241159829616,0.34229068302295446,0.5402875706034803
391,1.2517243267607314,0.8828196481448898,0,0,-0.6548289260392943,1.3487733303822484,0.5891282075640624,-0.0934592871341157,0.560444389004568,0.5553561810331809
392,1.2174365094538135,0.9782015628960364,0,0,-0.7402718078288327,1.4745054907109718,0.1981220370603342,0.1488782576681855,0.907384774006745,0.4469676896130203
393,1.1677073328554861,1.0680384494879154,0,0,-0.46764543522266555,1.1979675580336553,0.05000109956273477,0.4145328264978995,1.0947603510306196,0.16969473847308222
394,1.108226016119728,1.146710506222555,0,0,-0.19106004617533662,0.8229808643159406,0.07097947397187054,0.5342839343731319,1.1356869964607053,0.1473649125362974
395,1.0453826456508784,1.2094865842674378,0,0,-0.18860796950603162,0.6662174999522416,0.03899774495404867,0.7108188136129797,1.0613096588840518,0.2766102682667196
396,0.9853574067698299,1.2530830051095854,0,0,-0.3373863384071481,0.6648964258637291,-0.04111927344508423,0.7289496208884494,1.1984993027640698,0.05766079552536526
397,0.9333145340010935,1.2759990011877171,0,0,-0.5285131174857381,0.6661207680690455,-0.04319496562254339,0.41763038031026517,1.313291049403341,-0.09281993187748588
398,0.8928512303993531,1.278579788058163,0,0,-0.5394962035518628,0.6268753254220312,0.00499202815672396,-0.002933656146758583,1.328019655971194,-0.04716297719643655
399,0.8657674389070771,1.2628085004910634,0,0,-0.5269765742294155,0.7214226509827791,0.033370235968211585,-0.2402999066293041,1.2236195891112887,0.11869004095916835
400,0.852137580210506,1.2318762573044024,0,0,-0.49897720171606924,0.8796740109999002,0.0558089151359936,-0.16226963505956543,1.124501283637806,0.1590229310166783
401,0.850608493299954,1.189617055782017,0,0,-0.4102167839117421,0.832583065115185,0.08878235345039413,0.1382976534947328,1.0779962770792668,0.09846057971886066
402,0.8588263915185824,1.139913195885704,0,0,-0.3712835667774332,0.7575951896958164,0.11751761185647788,0.2113396397320191,1.1311082987192147,0.20617388822462124
403,0.8739043095454345,1.0861752615907065,0,0,-0.3770460986391707,0.7396032606349344,0.11977176681334784,0.11524799989216677,0.9577234151357716,0.38775122692093505
404,0.8928664379950675,1.03098419871709,0,0,-0.4356320739089456,0.7882605166040827,0.08052422792069328,0.07452829685483883,0.6894561450179251,0.3735216578315403
405,0.9130297624222964,0.9759597888598642,0,0,-0.5213150954377126,0.8380392320678552,0.02922598793028971,0.14630222,0.58459806,0.4364632
406,0.9322970029214046,0.9218894853145272,0,0,-0.5685596779917573,0.7986153847894145,0.028958770163715723,0.16126445732278288,0.5470299824170822,0.5140376706915232
407,0.9493416298512317,0.8691052800365675,0,0,-0.5707106956128027,0.7644304196114107,0.08513656389634225,0.1762549421220487,0.568454652381893,0.6561748185433146
408,0.9636745780426612,0.8180320616905788,0,0,-0.5754403532418585,0.7739259322652748,0.14184499840193562,0.20406555491756478,0.6415289541827919,0.8194278354976675
409,0.9755961567610592,0.7697662237778425,0,0,-0.5738023771461538,0.7641391670697857,0.14921035321061715,0.11394230919928162,0.6621748968693557,0.89305196162954
410,0.9860511807042902,0.7265080695662476,0,0,-0.5854799496521578,0.7593694836529674,0.14500930666923864,-0.10120386341500005,0.590636900833166,0.8784106280896643
411,0.9964153102695302,0.6916897046352201,0,0,-0.5752413845644219,0.7804600276535484,0.14855381124225572,-0.14815921814288605,0.48354049694216583,0.8268433241144691
412,1.0082443619996349,0.6697148633305134,0,0,-0.5459606491374808,0.8224144158997418,0.15367199211726817,-0.004080459157621266,0.340130610994054,0.5818681260197944
413,1.0230171161775699,0.665338097971154,0,0,-0.4988386523913175,0.8624223589757793,0.16372650571032984,0.11212451522247191,0.13179667761992195,0.31434258027287576
414,1.0418978799376932,0.6828206005543851,0,0,-0.502380718295218,0.8898198667140788,0.11069255257152498,0.27753652367245657,-0.051697807535407536,0.05599024923458673
415,1.0655395929955591,0.7250669493936509,0,0,-0.6172143502518834,0.8867510012482286,0.12002866443361916,0.37997203016706227,-0.1765721340692074,-0.19735248840691452
416,1.0939429930462965,0.7929434969385196,0,0,-0.7051798774732636,0.811737774708168,0.15739032959570157,0.41153200776656546,-0.464532066296755,-0.4636125960158389
417,1.1263833108154557,0.8849091667568115,0,0,-0.7895116017978243,0.7203469863082526,0.19909444149651806,0.33370865219550583,-0.7250980990304059,-0.5970700267236252
418,1.1614133221562093,0.9969906516426218,0,0,-0.8347087852487621,0.6747823411066619,0.22941560218397158,0.13160327588118723,-0.9058076211242205,-0.5895333900780176
419,1.1969483790492257,1.1230534483729826,0,0,-0.8244153876012298,0.7217115275465259,0.26816133076359544,-0.2700677999599665,-0.8512840714000061,-0.580612779119998
420,1.2304314440544493,1.2552834173464231,0,0,-0.8255231993066496,0.8934624399366353,0.2635720398418358,-0.576662667656035,-1.0858930342579816,-0.6311295313711127
421,1.2590622257294881,1.3847947903274502,0,0,-0.8073509329700229,1.1019171025763639,0.20725584867438537,-0.7621889560529476,-1.1961305384585315,-0.6198625001206659
422,1.280058616238843,1.5023000590061653,0,0,-0.7054353951973489,1.2098637811975115,0.09951957945652991,-0.9946193284606138,-0.624331874375513,-0.6162852335083526
423,1.2909110334263538,1.59880159719377,0,0,-0.5155692500871089,1.1587416244463498,0.029351311412748434,-1.257487411425671,0.01729860368491351,-0.7297894363801795
424,1.289599149157651,1.6662861365436887,0,0,-0.3851352613140573,1.0996694535625182,0.02801077387794588,-1.4830041886581864,0.24919030138099973,-0.7266882781782555
425,1.2747618058294414,1.6984099029721915,0,0,-0.3193788835328824,1.163961697671096,0.04543078520579443,-1.48118528440604,-0.13109485057627038,-0.7266983434803344
426,1.2458286177613445,1.6911473023238635,0,0,-0.29137245801416545,1.2329101484902902,-0.06826547615452383,-1.1652000303727301,-0.6994327187470121,-0.7334214487946059
427,1.2031222976327258,1.6433469714959463,0,0,-0.3009946857962614,1.2558070419394058,-0.08904236650692933,-0.7365604398802467,-1.2647786123353215,-0.8805896988263443
428,1.1479270265038521,1.557109181538646,0,0,-0.32538787336605013,1.1202877072409414,0.07405541428847086,-0.44583314962068,-1.531953598793111,-1.0365530563793177
429,1.0825056368641668,1.4378786182875205,0,0,-0.3582917639071948,0.9784731384352466,0.2150675752119258,-0.3402887447374648,-1.4874840118684345,-0.989040706550422
430,1.0100481391149463,1.2941512641602015,0,0,-0.45695401905524285,0.8485346058641768,0.24844197343631097,-0.20362494366640393,-1.3520311967356713,-0.7550138083598763
431,0.934543476117969,1.136741770755633,0,0,-0.5528434115420467,0.7311994735742217,0.23107417854348392,-0.0892799636470119,-1.0735672226892425,-0.5110021510557766
432,0.86057557948834,0.977649694314763,0,0,-0.5822415798728953,0.6548885362652475,0.20967227216369722,-0.17170873154645724,-0.7254765505694204,-0.35155630894704837
433,0.7930490243332867,0.8286711696799834,0,0,-0.5620222060137715,0.6159652171120829,0.1718067471041428,-0.23095699934813196,-0.48486216673056426,-0.332038546232088
434,0.7368522081371218,0.6999851048418377,0,0,-0.4730860160888412,0.5784405103367367,0.15670920962485874,-0.1255085543742432,-0.31773189583633527,-0.23664228609506222
435,0.6964725545827837,0.5989702956898834,0,0,-0.3664601671959751,0.5423038586311868,0.1262674302665317,0.012766799467555294,-0.1637745570931886,-0.11156286456034063
436,0.6755898490005519,0.5294758917154695,0,0,-0.27921913587359337,0.5430554701010756,0.14072067330376545,0.10871720905097985,0.0005802173665169852,0.007617352919406472
437,0.6766857099953797,0.4916817899349028,0,0,-0.2510147992240978,0.6050226350355816,0.20078950398756712,0.2032395074157963,0.1641758417392155,0.2350459603328721
438,0.7007131408142421,0.4825634121622788,0,0,-0.2808301777153517,0.6338878933883795,0.22528959998936526,0.29264949123505807,0.23566255888446128,0.5820426432669275
439,0.7468684123586128,0.49684197878861847,0,0,-0.32175450351846474,0.5537788674666821,0.2658904301540771,0.39303667772308987,0.26320248553821973,0.7596259833333332
440,0.8125020439363789,0.5281959597785899,0,0,-0.35857441362241504,0.5055892053566364,0.3132758231419733,0.4146954703703712,0.0394884017484932,0.6063048175678525
441,0.8931991994511232,0.5704701190633672,0,0,-0.39448599752401475,0.5918654662841448,0.3391795818439577,0.2508986832306304,-0.4869887627605794,0.3497770005440915
442,0.9830487292889046,0.6186545067377305,0,0,-0.4274043991997012,0.7294720468507607,0.38117593137523265,0.13261681761563218,-0.7639092259968103,0.0875575339413814
443,1.0750985092467653,0.6694886496716917,0,0,-0.5007375576669502,0.8793084896882579,0.44844750449233284,0.3729797301318339,-0.7308501487415182,-0.2805738307990396
444,1.1619639118887306,0.7216368490484845,0,0,-0.6576605829264361,0.8720703808130207,0.548394097655954,0.36424939913285653,-0.5934292665947205,-0.14987127311027623
445,1.236526605287418,0.7754584869277117,0,0,-0.7196957074914739,0.8512805845462121,0.6878303654256942,-0.19352675157996013,-0.854148980516167,-0.06463322000232996
446,1.292644346372607,0.8324608092746154,0,0,-0.7473654265508564,0.8169497437374297,0.6917204758336049,0.23057154405285923,0.1931172158990694,0.38423070474568877
447,1.325793440269319,0.8945686084891636,0,0,-0.752651911105402,0.7197595342836041,0.610355890418053,0.32008573503312615,0.5247501128689013,0.6682178821341122
448,1.333577572143048,0.9633660854219342,0,0,-0.6926509265041302,0.7836234778353108,0.5960673742164099,-0.0840163371014048,0.4615310696901411,0.7254584242253528
449,1.316046257619171,1.0394551050056853,0,0,-0.7022183772963924,1.2099040118450655,0.6711651013557869,-0.22459981711594848,0.5315894813419683,0.652325411814792
450,1.2757644889697142,1.1220381279893887,0,0,-0.7534140179519954,1.64518947063918,0.24750325212056332,-0.04171674410127428,0.7053347747017695,0.554809574179338
451,1.2175734691877946,1.2087858403087952,0,0,-0.44205359947953354,1.478835915043683,0.04130691011207915,0.24821128532909992,1.0627962782262963,0.25697864756411903
452,1.1480109914657324,1.2959946077046514,0,0,-0.11932093283359936,0.9872150262691111,0.1130487790291778,0.3282892518949634,1.388982919223985,0.16602893927689583
453,1.0744380004937573,1.3789805681326934,0,0,-0.07853695382446894,0.6620886586137437,0.10957062132222718,0.6249217860934674,1.465809272902581,0.2678436330377753
454,1.0040191966991214,1.4526098682086745,0,0,-0.2141304035793833,0.6195014208992219,0.0517979847775897,0.7846431625098503,1.45079838071316,0.10757419950748412
455,0.9427700378134707,1.5118504561321633,0,0,-0.415716404061286,0.6598725052759945,-0.006475448702152196,0.5881464747693471,1.3833987373445613,-0.08271098195748325
456,0.894867912875497,1.5522586581903652,0,0,-0.4735640224595215,0.6029989716258115,-0.03162904133861801,0.16405213478261907,1.3352352117508803,-0.043174030642776626
457,0.862342091070757,1.570365186387048,0,0,-0.46661086272826974,0.6363404705385115,-0.012568214314972022,-0.21664722330663713,1.4012494902204495,0.29598858850905
458,0.8451507473991249,1.563965934923744,0,0,-0.5319575754415348,0.893625396418128,0.07478556076700156,-0.22559918644229207,1.4968370945512892,0.46668050201923245
459,0.8415652667397141,1.5323294915406462,0,0,-0.5174106820476799,0.8740931725062132,0.14532902391626296,0.14043811949057283,1.5930889025270751,0.36499371518251106
460,0.8487327802267477,1.4763117393866128,0,0,-0.4666987632611175,0.7917118625237335,0.17868757366883506,0.18433819348924715,1.6644903702585367,0.46561276214525055
461,0.8632825363508936,1.398346773030819,0,0,-0.36626892861489796,0.7773467810078175,0.16310093140167992,-0.04878957383938758,1.420966927498483,0.5207640681434005
462,0.8818721937460807,1.3022889829263167,0,0,-0.29979966142642767,0.8271848990742421,0.06437889727794222,-0.1536470906474101,1.1495808967131433,0.4670395687290831
463,0.9016156874986654,1.193117788545289,0,0,-0.308784572584484,0.864673164837536,-0.04102684994834805,-0.08251649877284407,0.869410326358701,0.4205850041353684
464,0.9203729740585356,1.0765633605188605,0,0,-0.3799825486646093,0.817540941261249,-0.025510967431566046,-0.015586241662259269,0.658602641185894,0.44772934489984106
465,0.936904259743512,0.9587367836888105,0,0,-0.4900099805748849,0.7814247176807391,0.07494905382237803,0.06442796270845846,0.646285872465507,0.5634411161607685
466,0.9509004114502188,0.8458305740771654,0,0,-0.5972233746695027,0.7729500347553278,0.13354288524141916,0.08155937740725669,0.621889619040318,0.705207002520167
467,0.9629036803114243,0.7439019168603241,0,0,-0.6568727954280345,0.7182613710007005,0.14855965540145435,0.028164499457296415,0.49999782120246866,0.8719534888512841
468,0.974133564286935,0.6586933489930245,0,0,-0.6853502719648441,0.6929404092007583,0.17907187818426443,0.03301485495334489,0.32157451589713637,0.8298107623803905
469,0.9862350913137812,0.5954203472817674,0,0,-0.6875185464258564,0.7363969724951346,0.18190791752239624,0.19542747257805554,0.21445087034428062,0.6311186822418067
470,1.000972767661025,0.5584788740134043,0,0,-0.5974127169587183,0.7646890369653665,0.19314413636398564,0.23847740981839863,0.0782046497565344,0.3631997233167019
471,1.01990200143303,0.5510840410980532,0,0,-0.5509391271402856,0.79076418203944,0.18224880854194808,0.22086284589353275,-0.04488795888779428,0.19636493729070945
472,1.0440580144509422,0.5749082267824164,0,0,-0.5746038115965362,0.798376477053873,0.16744384388558686,0.3431928478859513,-0.10684151791376836,-0.06898783601529464
473,1.0737062549597065,0.6298091493442851,0,0,-0.6296612702346119,0.783788371186747,0.18761077672621085,0.3091256455314056,-0.27799217401794646,-0.4587873279441681
474,1.1081948289021855,0.7137140875154511,0,0,-0.6807995018438715,0.7637804460776308,0.15230755621518058,0.23647008213572607,-0.39793114762475235,-0.7191828744511021
475,1.145937464156205,0.8226736654602097,0,0,-0.7403631045103545,0.7701868012099342,0.17449638124064992,-0.16820108187979868,-0.4477598713426946,-0.764818761894399
476,1.184536391764719,0.9510513266629342,0,0,-0.7612601521135858,0.8169862445433507,0.19379910597273128,-0.6160556320015599,-0.3657680541531866,-0.6603520588540244
477,1.2210306942704576,1.0917973041002225,0,0,-0.7688078888766962,0.9618889256958598,0.22586137052066604,-0.8038718285031846,-0.6764135016719731,-0.6258788202428346
478,1.2522307754527822,1.2367690242947587,0,0,-0.7516148099488575,1.2009865730254365,0.19255728294679794,-0.9852079595841111,-0.6362216991496725,-0.43221181352892285
479,1.275080582958825,1.3770882790467867,0,0,-0.6122338819330302,1.2718218545988011,0.09170811655841712,-1.1581599772277242,-0.10095455457821166,-0.39491348329703013
480,1.2869859278869509,1.5035538695323152,0,0,-0.42317567319197724,1.1741522707573409,0.035365627057555124,-1.2653939437686326,0.3909317729338073,-0.5173917293182254
481,1.2860653206695747,1.6071452625577554,0,0,-0.34337683825898563,1.1206233358484672,0.062198302091267046,-1.325883,0.3585779,-0.5516113
482,1.2713111217752997,1.6796487768479962,0,0,-0.28824210896589353,1.149922141777181,0.0616566913498442,-1.2132988214456348,-0.17261468402331895,-0.5900593087514948
483,1.2426736233470843,1.7144085100379265,0,0,-0.31634784209312955,1.2308240163342867,-0.021891540219581028,-0.8844574580436811,-0.9717041780317015,-0.6492900593104869
484,1.2010841329305029,1.7071505784447825,0,0,-0.4066691690481123,1.24301643529549,-0.0277916926886715,-0.4876912776277118,-1.569687136285333,-0.7421537813684671
485,1.1484196884105744,1.6567574788890387,0,0,-0.4459701938897052,1.116459510327198,0.13135239484099945,-0.004163516825243631,-2.053389136012133,-0.8575213894617142
486,1.0873999462454529,1.5658010591645615,0,0,-0.5020262404840498,0.9344056907643805,0.2562519921159763,0.22098769238704166,-2.08319858030127,-0.77143176946465
487,1.0214097388870602,1.4406206371623456,0,0,-0.6087967142543299,0.75196306804141,0.3182233100497935,0.26361150619385254,-1.8498072515957176,-0.5356318677107765
488,0.9542570418933307,1.2907983092585442,0,0,-0.6359122479820385,0.6344737170780895,0.2542071770589395,0.11507468713675202,-1.3108139485743109,-0.3062404238955838
489,0.8898939357094037,1.1280360625991415,0,0,-0.5753162711453612,0.5708030775457948,0.16613659205005343,-0.12247580609241572,-0.6512567101174997,-0.22383228939255065
490,0.8321378260877441,0.9646230830401582,0,0,-0.5018390324909119,0.5785421024583067,0.09048603929206986,-0.3461110175445571,-0.22682289982176101,-0.18210208070298553
491,0.7844286792324335,0.8118148207586489,0,0,-0.36222787529857847,0.6195707683069586,0.05097432918031087,-0.45489294751744974,-0.0583229547637059,-0.18996971089332013
492,0.7496463318850343,0.6784709932568337,0,0,-0.25699028129351514,0.6694527366564152,0.05842663739518631,-0.4145920973258793,-0.09056507339453276,-0.1821918643643976
493,0.7299927217648561,0.5702186114833749,0,0,-0.196680536887619,0.7426000270840136,0.0991631884381056,-0.17306075362362455,-0.05757664982482581,-0.13589885745745814
494,0.7269222159940107,0.48926547729888514,0,0,-0.16993149270791863,0.8329650807409664,0.16012420719187181,0.05656480212604737,0.23377548829531203,0.08334643870347659
495,0.7410873065309105,0.4348401979168953,0,0,-0.19557204112590051,0.8372896192731554,0.20823320102164516,0.17279738196361882,0.5397543946213235,0.2838968734704505
496,0.7722662439841514,0.40410453198738144,0,0,-0.25151053746977947,0.7575136332899897,0.254523207819218,0.22023746152121682,0.6188329105684546,0.5490030439391478
497,0.8192590015451381,0.3932909986746949,0,0,-0.3312589568534863,0.6490034625816336,0.27618944604086093,0.1847878220271592,0.589777896563678,0.603828217346988
498,0.8797732991801617,0.39878861657831477,0,0,-0.39204140306618424,0.5672792702966214,0.25717222190602496,0.1870124586389943,0.05875399612660747,0.36359298626267583
499,0.9503573689755249,0.41794825046547085,0,0,-0.4326122857615142,0.556214988312016,0.2711839656429666,-0.060433776295114795,-0.31418711400963917,0.22728595809141253
500,1.0264516771571106,0.44948411281556144,0,0,-0.47689604540648506,0.6746679367687265,0.34262467489499204,0.20431502453927733,-0.493576244334938,0.16127534383613265
501,1.1026168114899646,0.4934576893039826,0,0,-0.5598190072258423,0.8136038979521956,0.4503213361037471,0.36102795802876003,-0.32506157337328073,-0.10384507435588917
502,1.17295280145736,0.5509062864973878,0,0,-0.6562706257818032,0.8771457082149202,0.5217296693719065,-0.2977705953030895,-0.7215521041780897,-0.30967528942158506
503,1.2316732036829336,0.6232205362083818,0,0,-0.6922941201343418,0.9069206478146129,0.7109177968337718,-0.02198694710665696,-0.12254270194528381,0.10101009395054843
504,1.2737562381727543,0.711402044824,0,0,-0.736946791285551,0.7782090996230118,0.6559438172327572,0.3366997587043452,0.17258138461386408,0.5504348725301471
505,1.2955775112112653,0.8153483893535264,0,0,-0.7527632466567465,0.6367675880101885,0.5915971292236397,0.33476709803810467,-0.011896431875237236,0.8347442139418279
506,1.2954308561265162,0.9333066091068599,0,0,-0.6914392088458304,0.8884544111144022,0.6685687395033406,0.10214801716294122,0.043910822155999694,0.6841028582142207
507,1.2738507381105864,1.0616052673100491,0,0,-0.7439905334641805,1.5072100189146949,0.4259800880610556,-0.0020532333825296354,0.5444194750498669,0.3221717176106854
508,1.2336539489830334,1.1947291569844887,0,0,-0.5691038914152748,1.7057701299359718,-0.00685914324016764,0.11152782138656313,1.1462308546218771,-0.038274044200848095
509,1.179636723574919,1.3257432033393504,0,0,-0.21069909435188738,1.1817206479001692,0.04017786393621725,0.10520403163120483,1.504955439604369,-0.18558626046830526
510,1.1179241962611002,1.447001548579236,0,0,-0.15509470512104576,0.7416577743672466,0.10521039679047517,0.21308968674400225,1.5708541716764166,0.21537356019972742
511,1.05507063413428,1.5510119701019711,0,0,-0.27163911119270057,0.617702744328849,0.04623554012546919,0.3666708165601292,1.5797986276867777,0.3534139848341961
512,0.997101133433549,1.631296016875173,0,0,-0.4423169576747132,0.6923367098429312,-0.10250392982493775,0.18449895824496051,1.7106515534246638,0.014893615165754137
513,0.948710062039538,1.6831022944239267,0,0,-0.3518314352708187,0.6436784952912893,-0.058717545368239636,-0.3113723372099669,1.6817263459253304,-0.10747960325532128
514,0.9127757587088002,1.7038752931671033,0,0,-0.26820343364837007,0.7093982952694323,-0.010078275066457374,-0.6809916398238166,1.6570082220220241,0.016660905998390284
515,0.8902506609670445,1.6934303871568235,0,0,-0.3928169403417329,0.9546989565537054,0.013970757502480608,-0.7415040054382517,1.5959401589641447,0.3416738387848518
516,0.8803860178269379,1.6538263074649608,0,0,-0.5031561578859662,1.0180714514891873,0.0665340617635442,-0.36843095724839603,1.657191444289139,0.4294237446206073
517,0.881179783225247,1.5889617838028796,0,0,-0.49475785038908054,0.8778868553583544,0.14730268655540615,-0.13875435887544668,1.617100234529949,0.49275436024394975
518,0.889910771723023,1.503959054264836,0,0,-0.44080233029308613,0.7917298731018133,0.12400615685891593,-0.23159143212547215,1.4062494040174076,0.5393408076786053
519,0.9036432549624631,1.404435410030482,0,0,-0.3776293286108141,0.7815504880805964,0.06343915894603935,-0.2566044337385043,1.0661473828868437,0.47743514471811244
520,0.919635033441496,1.2957984658652506,0,0,-0.3784541220936859,0.813786573375942,-0.025971017176958877,-0.10503475307415497,0.7775995745157944,0.5070217940544856
521,0.9356290187909877,1.1827157407736346,0,0,-0.44285336395165203,0.8065746247330056,-0.03156138653778492,0.08715928363465376,0.6142470689069305,0.5465589216633664
522,0.9500346447140533,1.0688848750261315,0,0,-0.5344274029554,0.7647013257348333,0.07211212571176163,0.18561898258600307,0.5564677658362992,0.6501674999644137
523,0.9620113554443516,0.9571583744279475,0,0,-0.6479296743210221,0.7488135024200681,0.16340655677948077,0.25498872504486153,0.6190498379860369,0.7473177748953079
524,0.9714625987157268,0.8499712563036838,0,0,-0.7153204824306947,0.7283709955325218,0.19842963055817642,0.25839842984884626,0.6948538544152749,0.83351004900557
525,0.9789453994784092,0.7499186531074836,0,0,-0.6966831392471987,0.7187985303552646,0.19348673687896253,0.3197938150295429,0.5204127611299789,0.9159849959527316
526,0.9855038679753056,0.6602741503362454,0,0,-0.6079822440561886,0.7291848407795474,0.20379417897704882,0.3808170380007912,0.24675926538916454,0.8464399331331475
527,0.9924460232705117,0.5852512878954571,0,0,-0.5375510570180103,0.743926544791962,0.19246318534987397,0.5236768666646796,0.14696785592614722,0.5622290710422901
528,1.001097215664634,0.5298848209528171,0,0,-0.49511689193067177,0.7487793858440634,0.17163094065635914,0.4674080803834474,0.11485191617557987,0.4108836035116015
529,1.0125715093640537,0.49951698407292505,0,0,-0.5186216449390003,0.7681284013123614,0.17505087847515696,0.2542063316576612,0.11911872,0.3875884767207205
530,1.0275979395310797,0.498982538615607,0,0,-0.6571082792732551,0.8097170141457521,0.1312994610573961,0.1160532168338567,0.16063951264172976,0.31209984163385096
531,1.0464218711869089,0.5316676709780288,0,0,-0.6977796252639836,0.8049095540340412,0.16039679652878044,0.08155051,0.09712757,0.07360926
532,1.0687803871840125,0.5986555015840763,0,0,-0.662944086704825,0.8356938134212749,0.1570610835366783,0.014197765328228798,-0.11331544671546508,-0.22236186146546472
533,1.0939347279744511,0.6981562010338352,0,0,-0.6617479665003532,0.8860328137263298,0.14406066632834774,-0.1580364914601669,-0.2511900851155452,-0.4276839651872556
534,1.1207376186392266,0.825352658253981,0,0,-0.6757114914232821,0.8975655910989795,0.1768620210355408,-0.3775418860152857,-0.4141726099459248,-0.5641443113182903
535,1.1477168837336134,0.972690285245617,0,0,-0.7058161637505523,0.8805193094643837,0.203291505759314,-0.6304613681104007,-0.588199754837432,-0.674884540148371
536,1.1731638688379797,1.1305358345089003,0,0,-0.7185983319486471,0.9126125313952664,0.2248368711021297,-0.8254640034623243,-0.9451064750509178,-0.7299077971588585
537,1.1952222664200585,1.2880611309046117,0,0,-0.6634672665036593,1.0407489019522178,0.2192992962195548,-0.9407797233124995,-0.8283265744354862,-0.7137790045766129
538,1.2119792318943072,1.4341936390054542,0,0,-0.5280687979751072,1.0982906315439223,0.12260392309920748,-1.1540416815524464,-0.32048160041475915,-0.7549760510803892
539,1.2215671638353667,1.558512408898022,0,0,-0.3538042860664876,1.0090978230928693,0.055854877467660276,-1.31973730023895,-0.0705835188904808,-0.8304719082238152
540,1.2222907123104343,1.6520287732995493,0,0,-0.3433547470337121,0.987717228939578,0.09621165568174728,-1.2393964729745843,-0.20293577967234824,-0.7818469108419396
541,1.2127933506046038,1.707842442442293,0,0,-0.4049003062582017,1.1264480354751911,0.02240628562877149,-1.1247897995768634,-0.6285269125529065,-0.7617463854301832
542,1.1922624151475156,1.7216825285216717,0,0,-0.4402904516641771,1.2543814575321663,-0.037806510523152384,-0.8058278394198815,-1.1333235999599993,-0.7545948816463298
543,1.1606418659639774,1.6923248976633742,0,0,-0.4375168516825793,1.2784049814516922,0.018671993871246136,-0.45646559366516914,-1.6403528013574558,-0.8270078864253368
544,1.1187956629794347,1.621834026073232,0,0,-0.43094263313757564,1.1542223012654245,0.13959664412047404,-0.2606214962267296,-1.7712521258562055,-0.8997727204065648
545,1.068563225041619,1.5155369417475864,0,0,-0.4921735159150999,0.8678399595615023,0.2504695377761846,-0.16829772727362852,-1.660006934357041,-0.8521272253219694
546,1.012677256322269,1.3816343911640117,0,0,-0.5622166473316987,0.7095164528625835,0.2716291120245172,-0.17224238671556033,-1.4674932697522165,-0.6617834083448871
547,0.9545565825167406,1.2304107562792306,0,0,-0.5757097387382357,0.6453817847876565,0.21519012932354992,-0.18473478690721645,-0.9731429893814443,-0.5661587407216495
548,0.8980182590316578,1.073105850525062,0,0,-0.5176204603354203,0.6502390170895733,0.16534227731991935,-0.3240855410237591,-0.5791492581263278,-0.5217009953641104
549,0.8469609951093221,0.9206160160524602,0,0,-0.4091860794656127,0.7071671054657837,0.1519557156492209,-0.4061386933597759,-0.41416663,-0.4115662711820602
550,0.80505971891539,0.7822541280027755,0,0,-0.30127835602955355,0.7674643690264975,0.14303939477009786,-0.2908778275546559,-0.36404473165009693,-0.2362946392147029
551,0.7754915309706953,0.6647966365453137,0,0,-0.25088117551804834,0.7648452066997737,0.10312691064976161,0.03389261234397203,-0.27162117323954665,-0.051798154041011436
552,0.7606977565702471,0.571987086661112,0,0,-0.23477549730928424,0.7503144689823,0.12115341267545994,0.28670564412484795,-0.11775881783485474,0.1284383356775917
553,0.7621811803216086,0.5045691149414209,0,0,-0.23863699520789006,0.7352179004973012,0.17451808545203937,0.40175290532673635,0.06190242509435012,0.26389440203960973
554,0.7803420688233095,0.46080796637231564,0,0,-0.2847896663504874,0.6992059333613878,0.22836034124411328,0.4275571911507908,0.2813326574603205,0.4474401294702449
555,0.8143674469093107,0.4373525439995198,0,0,-0.3457871625424484,0.6286407373887996,0.25362733525398024,0.31433806767300504,0.38206777041683637,0.646274386847431
556,0.8621995499942097,0.4302213610567838,0,0,-0.4016425641594528,0.5439769972321598,0.2786273604935531,0.22330090951248402,0.2851242012167995,0.4958303303686045
557,0.920614799343901,0.4356898582517411,0,0,-0.4507382680212763,0.5454312846327011,0.3110898185458315,0.11320110199204358,-0.4087181585606549,0.31420113399999533
558,0.9854370723257261,0.450911720804405,0,0,-0.49549077977996536,0.6730310500387906,0.3941606572321246,-0.04125766049052767,-0.6856481021380649,0.13810928524739538
559,1.0518845703897042,0.47419553691249516,0,0,-0.5354715650597837,0.8827464365808892,0.5201264199903154,0.06805482013745265,-0.3945703493397464,-0.06676435028162751
560,1.1150133726000533,0.5049479422848223,0,0,-0.5953507927845186,0.9484911188715496,0.5661189306721003,0.21440971924170563,0.17137195642575376,-0.3243787184360203
561,1.1701886460164301,0.5433648246452373,0,0,-0.5979932414559396,0.9509472679097479,0.6925519278107406,-0.06817863574313057,-0.030594788730929023,-0.24826729541731432
562,1.2135046449415734,0.5899915004050339,0,0,-0.635471248719354,0.8850253780233855,0.7234400896499407,0.3096281363743399,-0.0394408078512993,0.14407306333607164
563,1.2420944954214221,0.6452719145798287,0,0,-0.6967369051142371,0.7329673297594147,0.6114890953770787,0.5662674222862919,-0.1893316518951611,0.7103461209878996
564,1.2543109084327662,0.7091686003778718,0,0,-0.6898196042107801,0.570169918099986,0.5110960218658332,0.3078490088416503,-0.033033329836478866,0.8580617948937033
565,1.2497977896241368,0.7808851129377039,0,0,-0.5703866860342018,0.652958413608005,0.5285079575052305,0.05127690969637783,0.13630929458594862,0.6764303248817196
566,1.2294872005331885,0.8586960804699297,0,0,-0.5375402552975287,1.1445806992761338,0.46251037112603993,-0.04320459963784029,0.5351798939442037,0.22721255686323716
567,1.1955362847985853,0.9398969819768311,0,0,-0.5256391017835784,1.4599963710455692,0.20963474446474709,0.111030412723135,0.883379922366911,-0.14251058215713475
568,1.1511807120506776,1.0208994383899928,0,0,-0.36251099953122146,1.343006683521663,0.09263666971777969,0.3322462987867898,0.9466325581381373,-0.23789954307507288
569,1.1004620144080237,1.0974878071721785,0,0,-0.32043347455108895,0.9689841270820186,0.047894840261195434,0.5386731082989803,0.8585960382429456,0.10179078908385213
570,1.0478128824720794,1.1652194678949526,0,0,-0.49073884103400633,0.8130849755262227,-0.054808877911199566,0.6297815699760498,0.9679564223608118,0.24889980568349243
571,0.9975450440983616,1.219915832016762,0,0,-0.5470285556241232,0.6397467695125031,-0.0819232645554736,0.4664295637444881,1.1703897276531883,0.10203431580496286
572,0.9533376419086437,1.258167952914607,0,0,-0.49128778762662156,0.5697316885123932,-0.015182734744714118,0.1956133241555755,1.3033966576900224,0.015077484841434044
573,0.9178375886936904,1.2777709040110423,0,0,-0.40938864159928967,0.6294648984625913,0.05945132638222738,-0.21121449876974208,1.420491141962875,0.04851354282227315
574,0.8924540167524965,1.2780044865738491,0,0,-0.3850289025076566,0.7837602354365619,0.06471028415769606,-0.2600207893571276,1.3219565785714216,0.27451849012501023
575,0.8773732090605815,1.2596963673976977,0,0,-0.4136814995901523,0.9220407088213086,0.08325176852023602,0.1118847955870777,1.368969217809299,0.3546182312903863
576,0.8717605830793145,1.22503812979166,0,0,-0.42604360235169575,0.9057099133645187,0.12690243061789339,0.24435098692000068,1.3567580893600037,0.4153825156959992
577,0.8740745182791936,1.1771727544194244,0,0,-0.4188191695856284,0.8274275073446188,0.1586235500106608,0.1522299272201738,1.1180354858958648,0.38459400921689285
578,0.8824075190657282,1.1196289967859,0,0,-0.38141412977387074,0.7857448186465447,0.13880480251265495,0.15246926433419117,0.7731178080390455,0.23074672911618743
579,0.8947908921520704,1.0557327652877504,0,0,-0.37575548059705505,0.7844806765309323,0.052752701100342754,0.28520910292624957,0.5174825090345727,0.2101019968478942
580,0.9094321587351991,0.988154990606913,0,0,-0.4433071104248061,0.7596301579054698,0.03503107533857319,0.4285584046831756,0.4333917495340215,0.38401776792162584
581,0.9248808975129047,0.918733554018777,0,0,-0.5564201374451284,0.7221404917277289,0.1116835835172535,0.42172230670377797,0.4248662526520874,0.5636346859642138
582,0.9401303703353656,0.8486281285040425,0,0,-0.6657682913581481,0.6811476791491906,0.183636244809052,0.31501989374900263,0.45900943218427537,0.7209760282049302
583,0.95466229297123,0.7787590132056719,0,0,-0.6730002701212707,0.6542671370750417,0.19344860258892416,0.2090104224091089,0.4932215138793448,0.7743296630942869
584,0.968438410395072,0.7103883455146904,0,0,-0.6340868976915278,0.7220457978329416,0.17396213053835302,0.1914762756559194,0.4514318768455837,0.8439384791147596
585,0.9818411038243882,0.6456569632935878,0,0,-0.5752166338103488,0.7765953461912206,0.16617154637446654,0.20130102824588905,0.3704797344518401,0.7647618620555985
586,0.9955672936337369,0.5879012270150206,0,0,-0.5517856184328525,0.8260375589193533,0.14654456704091787,0.20676421118232427,0.3668360601910833,0.6523750709574032
587,1.010483428430332,0.5416311098604212,0,0,-0.5618063246470592,0.8623635255758979,0.1364358689306098,0.18600920405968355,0.34698319507510506,0.5512596537352297
588,1.0274528055453882,0.5121343465745912,0,0,-0.5718152777352693,0.9006182702977539,0.12554040969076893,0.16461496153476268,0.34904634504107446,0.4469668324423979
589,1.047150522968914,0.5047603579782094,0,0,-0.5444792675717569,0.861547413502843,0.1104145052780635,0.1582422838461533,0.30648049830769575,0.300893437846159
590,1.0698873779745317,0.5240147760971449,0,0,-0.5216325421385254,0.8423154875749362,0.11591457132929602,0.16981074641641677,0.22146647954956003,0.1667035310110249
591,1.0954707082705717,0.5726476280158271,0,0,-0.5792178254362921,0.8459737907543904,0.08391020053771282,0.11566084703865662,0.07765573334555287,-0.06441158773041832
592,1.1231323157472033,0.6509332332212872,0,0,-0.686386115877908,0.822512406263099,0.11351734876895168,-0.011933171955367496,-0.10921963623988139,-0.2835662917991565
593,1.151545910943075,0.7563062923908921,0,0,-0.7409908573210054,0.8298579854717643,0.19280535264817927,-0.11157959755621193,-0.3912656909940797,-0.47437590492899273
594,1.1789390092002132,0.8834358901520893,0,0,-0.7246711716043072,0.8726019199323277,0.23177908020537977,-0.39235920685714004,-0.6732208120300748,-0.6494811000601489
595,1.2032826902046947,1.0247089617559966,0,0,-0.7472015747910166,0.9611555318509905,0.22837325837618871,-0.5807294708837405,-0.8874694861802852,-0.721989835135506
596,1.2225241429700855,1.1709983462379912,0,0,-0.7551121919179585,1.0988339102909361,0.21309631619993755,-0.7903937821974302,-1.0024677373543966,-0.623778454793685
597,1.234816981354474,1.3125459997164233,0,0,-0.6976279869072951,1.1496475221506837,0.14675612450258943,-1.0457593515282917,-0.606190103096061,-0.5635622299349231
598,1.2387075748587502,1.4398098538384374,0,0,-0.5643213504441508,1.0920345565355287,0.04773666778904489,-1.3216776795490395,0.033712489691437746,-0.658542059236546
599,1.2332539597898386,1.544181538172838,0,0,-0.37809307989430757,1.0001234951721505,0.06891795440920338,-1.439211952372371,0.2470600135455491,-0.6927238904304301
600,1.2180803453325704,1.618546872978053,0,0,-0.2945616425384526,1.0933578358007074,0.04719516660045504,-1.3462674865013764,-0.02309550261019527,-0.6261183888980714
601,1.1933887687999243,1.6577071637463314,0,0,-0.26652641244074005,1.2228706382955772,-0.01950956025454638,-1.009375613789326,-0.5735562711071319,-0.6081482300079655
602,1.159947661044627,1.6586974598997954,0,0,-0.2857221708504631,1.2312092146004128,-0.032761697365362843,-0.5822091502780005,-1.1960321656076232,-0.6929036021366161
603,1.1190601274011402,1.6210234327291964,0,0,-0.30638664986358044,1.1337422513211683,0.045349667548140446,-0.17355471573423237,-1.6221431695564283,-0.8574258956815946
604,1.072501527639236,1.5467936885568596,0,0,-0.35429072186119054,0.9837256891085171,0.14527490276037258,-0.047674757773808495,-1.7446318059523809,-0.8531169333333317
605,1.0224195738859536,1.440674100878094,0,0,-0.45482147585781185,0.8061809546096916,0.2300909210369665,0.021995645066731923,-1.6143955059862656,-0.6775787542688977
606,0.9712059207747747,1.3095775758055677,0,0,-0.5645644292438179,0.69158195381354,0.2605523521156432,0.030213874499999693,-1.406677255742295,-0.4831452056862739
607,0.9213611218235674,1.162051900548638,0,0,-0.5964541177132272,0.6353143210259474,0.21615505582858682,-0.0845382157054258,-0.9583762617410356,-0.37845424679607675
608,0.8753749480117761,1.007422694672271,0,0,-0.5444288991104526,0.6382000528291447,0.17507465435542244,-0.2314719813706211,-0.5725714326703354,-0.34648691098857765
609,0.8356328456098471,0.8548400334759755,0,0,-0.4748458455165796,0.6671736075710817,0.14569644373733912,-0.3020688078143179,-0.385793002807294,-0.33262383696009507
610,0.8043444113158461,0.7124205965471756,0,0,-0.3796456467521811,0.7081230152603183,0.15038381129542974,-0.19433672250000494,-0.38084867911504394,-0.287543254123091
611,0.7834775966361127,0.5866547109373055,0,0,-0.3201848947890696,0.7550021736061773,0.16010670383784964,0.040299305148211964,-0.3328542930157061,-0.17858955760890366
612,0.7746759552130126,0.4821734781333787,0,0,-0.27254206043862717,0.8177883827270518,0.20832912724708258,0.3144798093599204,-0.041411731577267796,0.06411295482233331
613,0.7791377050123144,0.401874844719275,0,0,-0.288320236135898,0.7990113830278144,0.2393993183556594,0.42026579708815187,0.28531182789789117,0.24255347086159312
614,0.7974474016767379,0.3473160100577811,0,0,-0.3349585304030705,0.7011776864587703,0.25195272378520234,0.2799182964012779,0.3729322672611465,0.4540226655413968
615,0.8293744207494747,0.3192147356553504,0,0,-0.38083397078131853,0.5865110969983078,0.25483924536781494,0.15268079598457085,0.40102253075736455,0.5295908465453785
616,0.8736815033511203,0.3178843659174853,0,0,-0.38778963215918455,0.5352909949951169,0.24800647099320214,0.0676535674588924,0.12060298680284633,0.3507391489265679
617,0.928008138699602,0.3434666441020616,0,0,-0.3852968310977011,0.5832537684688754,0.29095303894084623,-0.1893455073824041,-0.2591642951348224,0.1672147757252443
618,0.9888932941281402,0.3959072367901987,0,0,-0.41777992262665337,0.7494637752939679,0.3933961138003651,-0.0022169624280894344,-0.4132035119727751,0.0908468317072379
619,1.0519748055763367,0.4747053733136122,0,0,-0.47697171630172086,0.8809030795826773,0.4481003382266172,0.1401876500444167,-0.24101691643246945,-0.22504883376538704
620,1.1123581362967707,0.5785299547631623,0,0,-0.5547960704354096,0.8984660131386525,0.4710915256681793,0.13766575977518236,0.015975132386616932,-0.38915834903101293
621,1.1651046321000889,0.7048198041021216,0,0,-0.6117315234183722,0.9001346813597825,0.6158797929254899,-0.5392764323547435,-0.5695358186577152,-0.36508412097795
622,1.2057655830804712,0.8494813732439574,0,0,-0.674666602212705,0.82848772388025,0.6240924905576185,0.2372501699663059,0.1416931420879523,0.34205077112121834
623,1.2308875179769918,1.0067741053414665,0,0,-0.7308599294900827,0.7092394406026066,0.5807970103141364,0.7097434678931879,0.2721085672462958,0.8629037048367865
624,1.238428005062038,1.1694409525255771,0,0,-0.7048240539481222,0.6337469014321147,0.5819886089126142,0.23589478995071209,0.26247495615765915,0.93778047211823
625,1.2280358908974423,1.32910380519087,0,0,-0.6376706028254903,0.9034393481017086,0.657251285020586,-0.05848864169581429,0.7008473369418162,0.9037551255931784
626,1.201154631205207,1.4769023557166077,0,0,-0.7212095737560634,1.5054470673554667,0.28893213072811647,-0.21239506217190823,1.2065349987176843,0.5547308948707738
627,1.160906062737908,1.6043105386727772,0,0,-0.30927613272080295,1.4063155587017293,-0.0723378954696749,-0.19993284896860086,1.7398563466812407,0.08784653292130316
628,1.111727087060364,1.7040181040504174,0,0,-0.11749352655170338,0.9048013924373426,0.0573799620209463,-0.06958640207847962,1.9846252395674853,0.25606690380859887
629,1.058783218976687,1.7707264492296577,0,0,-0.1909940166087474,0.7863764260779402,0.0412622124505892,0.31807544832766577,1.8998520722411352,0.6987618989385165
630,1.0072564020974593,1.8017001879851133,0,0,-0.3683841177779763,0.8008550717057629,-0.01879387360778722,0.5924876013020289,1.8888908437167151,0.325108098271838
631,0.9616547388611455,1.7969562219259902,0,0,-0.4225348129008703,0.6889112359806672,-0.052188922964062516,0.2558038557990783,1.9185202263883419,0.10183627276469259
632,0.9252867855944511,1.7590532311607898,0,0,-0.3517130543628924,0.5779314914362421,-0.0404864579188532,-0.20580619034799855,1.6778006766752653,0.16214074839134368
633,0.8999906313027657,1.6925389114571499,0,0,-0.38547713672805506,0.7576063804501262,-0.01248822211526712,-0.2032979795147601,1.4253041868011025,0.3866520209524828
634,0.8861360260777319,1.603188717398811,0,0,-0.5441035107736814,1.043652989633663,0.028035285916680062,0.25117603055734083,1.230622631369424,0.2908365256050902
635,0.882850039213363,1.49720507213084,0,0,-0.5282273431857709,0.9225739071857557,0.09718163813928989,0.4290856286393203,1.3723723046539162,0.35283442938276643
636,0.8883733669936663,1.3805313795257588,0,0,-0.45414681690778985,0.7029256340016098,0.15831002526239188,0.1751745719852794,1.2646800723205363,0.4988277607357351
637,0.9004512904610616,1.258382784571289,0,0,-0.4203352210929621,0.6603177397948784,0.13336408165241714,-0.10141387818853748,1.0259294116636681,0.566270879972039
638,0.9166944333314498,1.135033192953303,0,0,-0.4476481794135897,0.7782833031125954,0.04077739097263117,-0.14065929840040356,0.884064165610004,0.5345038011400001
639,0.9348806276083369,1.0138482561031281,0,0,-0.49555522505305893,0.8993191024666115,-0.007717517367736739,0.00843566629309073,0.7734369133598087,0.5399982999205719
640,0.9531860501965488,0.8975192530450623,0,0,-0.5225114825204114,0.8630622516471657,0.04219535271191788,0.15402159858602482,0.6400961137071859,0.6186156426076546
641,0.9703338213428154,0.7884239428374938,0,0,-0.5486351514981892,0.8331525418188733,0.18298264986869106,0.1595170296195985,0.5679607418183585,0.6981549102569262
642,0.9856493441809011,0.689015270294446,0,0,-0.6171300216013627,0.7568964158532142,0.17970262108409085,0.13152876584897583,0.441566424476619,0.766372682321215
643,0.9990235112378194,0.6021268521174986,0,0,-0.6240517173349529,0.7066771832372881,0.13837439326397907,0.0996721770594298,0.29059432364142623,0.7424251663307507
644,1.0108023724396076,0.5310976590897782,0,0,-0.6046988659372154,0.7203517567729814,0.17821492863971147,0.2184541752722183,0.048968026309252524,0.5842476449336853
645,1.0216345422035296,0.4796607438572232,0,0,-0.5855003545761608,0.7830586483145519,0.1973854963996496,0.26513562007374847,-0.11636295298087691,0.3685307457285162
646,1.032309342438071,0.45160180302209596,0,0,-0.5913252575243715,0.809536624040812,0.16285051791347793,0.19199233205751656,-0.31117502339233727,0.285140501489675
647,1.0436101641218611,0.4502532023208409,0,0,-0.6592088879619366,0.7943867124905485,0.14358698660197144,0.14780806651491388,-0.2336262668409589,0.30665035232803245
648,1.0561943499875666,0.4779308466695702,0,0,-0.7345401204677374,0.7945088340732576,0.13019261542308516,0.04752745010511268,-0.09250839399960463,0.18689381752833104
649,1.0704994327625588,0.535437231582143,0,0,-0.7515555509741237,0.809351409175619,0.1366669299661432,-0.04390353038940659,-0.14899181052767602,-0.10119938989486457
650,1.0866700173420887,0.6217406041979301,0,0,-0.6872908328313907,0.8447532322231369,0.16289099873894614,-0.05972841211093503,-0.45290004923596183,-0.3381738642885499
651,1.1045013426334946,0.7338942147407537,0,0,-0.6473251380271359,0.8651891713003746,0.17973276649633416,-0.1775677050109843,-0.6436305046372108,-0.5027977774735113
652,1.1234029133020387,0.8671889802849451,0,0,-0.5948774404336358,0.839615921732386,0.19199560587906864,-0.3794963313753413,-0.8101172395560772,-0.6134494991438706
653,1.1423935389993145,1.0154655661924368,0,0,-0.5993748141701619,0.8705176152590218,0.20408782144003318,-0.4489434564077705,-0.9664985259547086,-0.6929821194174794
654,1.1601411669229462,1.1714820795695693,0,0,-0.6512858010560209,0.9979210311945022,0.21094491358960515,-0.60405944732626,-0.9878223197075886,-0.6842094237031828
655,1.1750538068881848,1.3272560709122123,0,0,-0.5358582641184398,1.1190021650427349,0.09889070605346995,-0.8148065771151128,-0.626630418918187,-0.6852654371567252
656,1.1854157991292837,1.4743603159576155,0,0,-0.39757698122210083,1.0762814193708197,0.03122133001177776,-1.0423577727434603,-0.15176627983769933,-0.7896630747030843
657,1.1895554956517223,1.6042181414219585,0,0,-0.3201951052430618,1.0342888966763248,-0.0021112579723372425,-1.1148182467797279,-0.0932240428003324,-0.7974411869573935
658,1.1860296832417507,1.7084818544561862,0,0,-0.31017924531166813,1.1289867179274862,-0.01876150990920587,-1.0625492691135674,-0.44429659498618046,-0.7200409178670328
659,1.1738102001486905,1.7795672933965088,0,0,-0.3361549083918886,1.2126019591834414,-0.0804220549356807,-0.830916944576125,-1.1249522299186239,-0.7302767873337314
660,1.1524519756593687,1.8113589908427357,0,0,-0.36789823884970396,1.1968207313109385,-0.03575802461228588,-0.40382576006778886,-1.604916269617213,-0.7897274711941761
661,1.1222132329144963,1.8000116894312266,0,0,-0.3812041215219764,1.1219575543233178,0.08248873719994679,0.010563147990598803,-1.969776766195541,-0.907203580777392
662,1.0840998561117952,1.7446869069397826,0,0,-0.4016253014582532,0.9857783168907582,0.1873202987305641,0.1441091197681436,-2.0424316716187203,-0.8861922523400535
663,1.0398223840788312,1.6480182859777284,0,0,-0.47633514367790614,0.8165119771389361,0.2513334533569408,0.19327116287374663,-1.9533555712224462,-0.7117959650060138
664,0.9916779414166521,1.5161281658979375,0,0,-0.5702549197173572,0.7055169874137964,0.20904196801328936,0.21137491359435132,-1.526704577356227,-0.5800372614550987
665,0.9423868921850207,1.3581209418922677,0,0,-0.5985750269855648,0.6443399533305044,0.15493622772628143,0.02306279134426672,-1.0462573248825848,-0.5775654128012521
666,0.8949163873727878,1.1851191909376078,0,0,-0.5561846594505935,0.6644407662830899,0.13168052198482047,-0.23102860849780163,-0.6598832177786669,-0.593143550523372
667,0.8523112555739992,1.009029092710631,0,0,-0.4824806456490985,0.720357651411426,0.12554010930364454,-0.30757246058414456,-0.4654416747268045,-0.5888565010530505
668,0.8175347619322841,0.8412777542773531,0,0,-0.38892429124021144,0.7597130450906401,0.1123520162608171,-0.19892558667068314,-0.38274955181508474,-0.5006694623265181
669,0.7933068272552194,0.6917477765069889,0,0,-0.30718558933286466,0.7782135270191227,0.12302289929248768,0.05206870892246909,-0.2014305834768886,-0.28021568701383803
670,0.781921684437755,0.568065371023534,0,0,-0.2401515621573064,0.8235665862723381,0.1692938515660105,0.2956356469920443,0.0727671894243231,0.027224877117551442
671,0.7850329404917383,0.4753043819127701,0,0,-0.2099721510178617,0.8241942979139038,0.2002055131022396,0.3742077673032634,0.3027729660930119,0.4202102243879366
672,0.8034108579598136,0.4160683260122618,0,0,-0.2646802414925168,0.710019995781214,0.2296102865177287,0.4031700863319385,0.37842761210201187,0.6758892947280288
673,0.836701261227439,0.39082828098077155,0,0,-0.3124267661850044,0.6203643759419247,0.2371795625278617,0.2884390547482787,0.28402339686081474,0.5977060236920092
674,0.8832407887964013,0.3983593717219127,0,0,-0.3425214664519227,0.5667211786537313,0.2559854074752023,-0.057880241041658426,-0.07701434030668507,0.22200958868478482
675,0.9399974873023884,0.4361518293742947,0,0,-0.38397818715649445,0.5804824629999508,0.32671802052957316,0.03318466755945071,-0.22821845093806103,0.05588857314279913
676,1.0026972394121714,0.5007485836226386,0,0,-0.4742463497072641,0.6787811495081566,0.40358488865144276,0.004204971192061806,-0.33321621760315984,-0.1503005476190555
677,1.0661620256847595,0.5880235475349476,0,0,-0.6050518470884882,0.8088624493209492,0.4607169922167249,0.03883513828400918,0.025548455107396974,-0.5449508627684984
678,1.1248354856016898,0.6934261573300656,0,0,-0.6902098084731361,0.869771493731435,0.5207930148044692,-0.7256843250883289,-0.1248019234133447,-0.6814818431930934
679,1.1734238588382178,0.812190304198058,0,0,-0.6490282185307681,0.8441514239654009,0.6259703551782161,-0.08379741594275052,0.9918995136260734,0.07373785576796137
680,1.207553722418374,0.9394813133133305,0,0,-0.6658068152711067,0.7378502870116472,0.6200161669552013,0.34782057541708994,0.6721602227857808,0.6308683906083065
681,1.2243466420119484,1.0704648237143688,0,0,-0.6942050569778928,0.6634079758683835,0.5729097003447124,0.2266391465184861,0.2892251777571286,0.8155250959587734
682,1.2228240622988422,1.200323272858577,0,0,-0.6746405535059822,1.0376887866163056,0.6649658755885504,0.06205239055181462,0.32126100905315025,0.8605821953492139
683,1.2040689253548373,1.3242861008650237,0,0,-0.7930420719987572,1.6352447571383812,0.2184295617928881,-0.011932462964248458,0.9064732137895946,0.49016415135851965
684,1.171085405922788,1.4377429414510337,0,0,-0.388924899543974,1.4076562298631723,0.0038258395047580545,0.09158666433012182,1.433859976995579,0.035309384750311715
685,1.1283381275562652,1.536463991262046,0,0,-0.12856944478253007,0.7135804636531078,0.15549097927131386,0.23623209480127327,1.802797896884357,0.18077798168563028
686,1.0810329068858446,1.6168812827560914,0,0,-0.20380055314338796,0.573551304179199,0.10765632305980859,0.38455075559081914,1.780947483592812,0.594972436942115
687,1.0342928170422778,1.676332153320239,0,0,-0.45178378284337817,0.70227137917135,0.019637612564189808,0.31667964150665856,1.8070925386603063,0.30632311612403046
688,0.9924243156126534,1.7131670244877941,0,0,-0.6312650020206158,0.7933336051596924,-0.03502031059927055,-0.11656241777531967,1.7067827644173046,0.10893657897477109
689,0.9584271366920714,1.7266789675711147,0,0,-0.4946437257121386,0.6926826411135039,-0.017618778503561323,-0.5354127773136009,1.582757577633426,0.12705691750549356
690,0.933810082829253,1.7168902641130943,0,0,-0.3664753654233151,0.7884949056373431,0.00029966507367792884,-0.4878140329540728,1.394031710330231,0.3463104736105715
691,0.9186875293123538,1.684291315706228,0,0,-0.4623015598900826,1.0415635589714551,0.0630458382886567,-0.08123776032950315,1.3893745692031167,0.45406813216297504
692,0.9120767231231469,1.629646149597399,0,0,-0.47221621973366273,0.970678633486559,0.11999122395201728,0.2787999880949558,1.4331221020178047,0.4869768725756661
693,0.9122950749617601,1.5539545231928935,0,0,-0.44697505831083095,0.7680404312575068,0.16383383535376814,0.04873444578600505,1.287503195462647,0.7588862868278228
694,0.9173658223558122,1.4586072353019293,0,0,-0.4362991692865208,0.6870514392751161,0.10108584346108815,-0.19323594037220396,1.1088210856068075,0.8375634205345474
695,0.9253714249291424,1.3457097516673486,0,0,-0.4734121570344635,0.7781014357364802,4.197697632389407e-05,-0.08936028212321448,0.9913002511872283,0.8163000918337879
696,0.9347269585743573,1.2184966917592832,0,0,-0.5055824216397747,0.8785711568228045,-0.02773712193758283,0.08310423464738392,0.8745976922246439,0.871907273209191
697,0.9443626065078489,1.0817222373193698,0,0,-0.5139096510498227,0.8719064540608295,0.04448549556666992,0.30922454494633916,0.7951053584956296,0.9803130550039716
698,0.9538066648021092,0.9418900105335233,0,0,-0.5605765303619987,0.8414860184942394,0.173384320662392,0.5114792144473141,0.6761940714320017,1.0412331827126078
699,0.9631637151077902,0.8071876221741937,0,0,-0.5595978487008711,0.7587419763763149,0.18072831539879003,0.44457515928642327,0.4199599884061224,0.9851872228742857
700,0.9729964404435012,0.687030331078284,0,0,-0.551558832385468,0.6884582776995276,0.1734484817641589,0.24906682676469663,0.1906797883823443,0.8082510644117563
701,0.9841394507088793,0.5912021960351826,0,0,-0.570823982031954,0.6933792735135654,0.18897921159695075,0.23598898100081006,0.16265162499596833,0.43401335523004075
702,0.9974876443199905,0.528695617052257,0,0,-0.5899011275825466,0.7272522367758812,0.19077390801437655,0.04372304527160106,0.04231337402530218,0.20794415423591509
703,1.0138015936736924,0.5064529200520717,0,0,-0.6063428552698671,0.7414681656527435,0.16396728064093052,-0.14051890664704322,0.006947336635074974,0.15159344406535152
704,1.0335585947651629,0.5282657474123437,0,0,-0.6886416996657388,0.8118968090005898,0.10984030441079615,-0.04320154005037887,0.0012525076488447417,-0.006751402714001572
705,1.0568580669346914,0.5940677045769789,0,0,-0.7187826061970787,0.8676249153601862,0.13260875809861591,-0.02017068939574723,-0.19551180811359106,-0.2984392981798158
706,1.083373530230025,0.6997684646434468,0,0,-0.5825767602371976,0.8812304245057649,0.18062044495532326,-0.15240380384723065,-0.4848875747984551,-0.5478297333131749
707,1.1123370504008812,0.8376514486221444,0,0,-0.6010650977410313,0.9020413653953161,0.19533801099014672,-0.3731049339028358,-0.6472786079171672,-0.6037532682377549
708,1.1425461791085367,0.9972333721435845,0,0,-0.6988692202458483,0.857780241879212,0.23475076567885994,-0.6449365120896728,-0.7216374969655732,-0.608703724027222
709,1.1723919392599915,1.1664013822622108,0,0,-0.7185421710217785,0.8910829960518267,0.2566281141508892,-0.8665782612997364,-0.9914217743291315,-0.6471504727574482
710,1.199912224112986,1.332621330587318,0,0,-0.7025978961167338,1.0267531012685103,0.23297908362756525,-1.0269486798813712,-0.884108462665093,-0.6636154862000786
711,1.222876604974626,1.4840431359538164,0,0,-0.5660655327375339,1.095318548404263,0.11935489010004455,-1.2035224667664766,-0.5009149543113531,-0.7196888678143785
712,1.2389098726517978,1.6103955483417203,0,0,-0.35661183305366173,1.0073732234922674,0.06879375073255602,-1.330468868533969,-0.2042528742550662,-0.8100269883313467
713,1.2456646257125137,1.703636891335021,0,0,-0.3173338334422522,1.0279936501583242,0.05751920158384684,-1.2888195810917695,-0.20695308131330345,-0.8147018873496864
714,1.2410516141973027,1.7583844482444186,0,0,-0.3999282017120755,1.197378623403108,0.006138103882459942,-1.2291541417643552,-0.4890106850784814,-0.8690088394079077
715,1.223520589705564,1.77216552881219,0,0,-0.4492280568444382,1.2855376009776756,-0.037965029036859624,-1.0116249344785775,-1.0075668453285525,-0.8933861041832462
716,1.192355297138949,1.7455162217286637,0,0,-0.44896520000848716,1.2652661031375811,0.017937118405452247,-0.5867100307393767,-1.5326553515587884,-0.9147433552358145
717,1.1479219123995847,1.6819138143499552,0,0,-0.4210321285697307,1.1267434168432826,0.10210519285882144,-0.21242629770192123,-1.756390253264538,-0.9039082674101994
718,1.0918102220329293,1.5874923052874652,0,0,-0.4478413997452933,0.956652119627799,0.19117310852129943,-0.05721487447231447,-1.7396288019968353,-0.7821633301897937
719,1.0268327148461194,1.470486623769907,0,0,-0.5076455788425573,0.8052765259274354,0.24103328792657863,0.11015726257732016,-1.4962609721649458,-0.6797607510309275
720,0.9568814728085505,1.34039588051327,0,0,-0.5544322487988766,0.7170504590649743,0.22167803343836315,0.10393122512175329,-1.0273509974051713,-0.6908227580838348
721,0.8866672593447207,1.2069377695993442,0,0,-0.5533448272506548,0.6658530069025035,0.1880189353000389,-0.08670760118265453,-0.5996212065448868,-0.7440200923390556
722,0.8213725940862049,1.078949249803362,0,0,-0.4729909149896086,0.6825808100637394,0.1662029410175757,-0.12159089797609327,-0.5717601650199212,-0.6518672252748944
723,0.7662465900279878,0.9634333507975601,0,0,-0.3693709271650158,0.6882959167441666,0.1354894999066718,0.03131628566413626,-0.5968299698962908,-0.3042241722776319
724,0.7261638051998284,0.8649384658817151,0,0,-0.3204370685390932,0.6727545588997343,0.11877358660568704,0.23322604463249821,-0.4140065650290258,0.10512662907567122
725,0.7051688632801159,0.7853902467789903,0,0,-0.2992853416444193,0.6650568174576875,0.15392841572412594,0.4557398644090059,-0.16405451997807893,0.3765458882878168
726,0.7060344566557448,0.7243956756974084,0,0,-0.2818586429855276,0.6496891764052903,0.20853733709106206,0.605146707534788,0.1434583023757376,0.5865362566600358
727,0.7298708333039867,0.6799267789281195,0,0,-0.2724104401473234,0.5999544711619612,0.24327353487209213,0.7057912099214111,0.4021134471316208,0.7671690269155143
728,0.7758371207622826,0.6491989131696525,0,0,-0.27950719771352595,0.5464543778010166,0.26326534903097604,0.5762594077164008,0.547723514520985,0.6050354092990454
729,0.8410142134326825,0.6295215751907673,0,0,-0.30400262819202606,0.5330755627885825,0.25166666029809504,0.0419322186741065,-0.29064610814698116,0.3730399706309864
730,0.9204978239574219,0.6189342388316692,0,0,-0.3534005666004011,0.5815776244483772,0.24450226691648932,-0.23312828276231196,-0.85258424809422,0.178193578843682
731,1.0077502130026652,0.6165229166551938,0,0,-0.4260802910066166,0.7279574265021721,0.30066720406822955,-0.06212725214979838,-0.646196082763565,-0.3708836225252978
732,1.0952067594263786,0.6224027118473529,0,0,-0.5141570373387447,0.967643495929596,0.3980793029195488,0.09807183789660578,-0.09836015122334185,-0.5003239373717357
733,1.1750767217844262,0.6374224471684805,0,0,-0.5734629682865302,1.0635617667136255,0.6425033836135046,-0.12325126791576521,-0.20761772408789744,-0.40204465530133565
