id,ASVM,GSVM,walking_nonwalking,normal_abnormal,ax,ay,az,gx,gy,gz
1,1.0094870361600816,0.02651540404017575,0,0,-0.15332030815823958,0.9736328919661658,-0.21875001147180742,-0.027488936,0.0033597588,0.01160644
2,1.0100648751908885,0.018686125823450736,0,0,-0.15419829293450094,0.973437780389887,-0.21943288772772998,-0.03479820829243354,0.0033971102787730034,0.014077508608179957
3,1.0105937117479713,0.01387396396937735,0,0,-0.15507627771076232,0.9732426688136084,-0.22011576398365257,-0.04133189475318471,0.0166086281504777,0.01893122889808917
4,1.0110142887808975,0.014352758977070832,0,0,-0.15595426248702368,0.9730475572373297,-0.22079864023957513,-0.031778659722277725,0.013487855395604403,0.01924420781838162
5,1.0112678936114625,0.021923658127628025,0,0,-0.15683224726328504,0.972852445661051,-0.22148151649549772,-0.03419650436463222,0.0018321178145539903,0.02107628395774648
6,1.0112977298648393,0.03770653572043465,0,0,-0.15771023203954643,0.9726573340847724,-0.22216439275142028,-0.029929105894075405,0.0009475540199281853,0.012854490949730698
7,1.0110517264681353,0.06196477461317166,0,0,-0.1585882168158078,0.9724622225084937,-0.22284726900734284,-0.029001515073617187,-0.0015308093311977727,0.007637030909868683
8,1.0104866984520808,0.09399277382000104,0,0,-0.15946620159206917,0.9722671109322151,-0.22353014526326542,-0.03391660304325854,0.0002986411123792198,0.010937846191227006
9,1.0095733036100496,0.1320991851209913,0,0,-0.16034418636833053,0.9720719993559364,-0.22421302151918798,-0.03601253564093359,0.016762602701974882,0.015567193644524243
10,1.0083008220207892,0.17371435122425435,0,0,-0.1612221711445919,0.9718768877796576,-0.22489589777511057,-0.047341202214643927,-0.020153957724854555,0.034817420619458375
11,1.0066805423003677,0.2156355070982367,0,0,-0.16210015592085328,0.971681776203379,-0.22557877403103313,0.0493848716057675,-0.12273820007756892,0.0728937016809637
12,1.0047465991885043,0.2543978689804571,0,0,-0.14753261889505573,0.9726450749348668,-0.21207107050911472,-0.05429222736824323,-0.21484149473370429,0.09828593125397456
13,1.002553560147871,0.28672737788416974,0,0,-0.13280118295170223,0.9736206660445574,-0.19841278478642085,-0.30492880725085203,-0.2723662801884901,0.13857453174253057
14,1.0001708484196636,0.31000051396965345,0,0,-0.11806974700834873,0.974596257154248,-0.18475449906372696,-0.40766529102820565,-0.24560632225645126,0.1770765016963393
15,0.9976749593696341,0.32262136412732245,0,0,-0.10333831106499522,0.9755718482639385,-0.17109621334103306,-0.3387080811889345,-0.13560867432607412,0.24007273658034142
16,0.9951410336237007,0.32423705750090837,0,0,-0.08860687512164174,0.9765474393736291,-0.15743792761833922,-0.26910758599358336,-0.0019752984352517976,0.21168440863645482
17,0.9926354832543082,0.31574972379759886,0,0,-0.07387543917828823,0.9775230304833196,-0.14377964189564532,-0.16947095833432602,0.27376251568790944,0.0912689296763947
18,0.9902110404480868,0.29913215819199174,0,0,-0.059144003234934725,0.9784986215930102,-0.13012135617295142,-0.0319927264645746,0.17810128065916697,-0.10234410370041455
19,0.9879049702536455,0.2770960531031318,0,0,-0.04441256729158126,0.9794742127027007,-0.11646307045025757,0.10045217785720012,0.07574128670677897,-0.23178475748094662
20,0.9857404501085639,0.25268398391238767,0,0,-0.029681131348227745,0.9804498038123912,-0.10280478472756367,0.10352207705469843,0.05773949591685034,-0.20862859422159888
21,0.9837304414344624,0.22885912295929106,0,0,-0.014949695404874236,0.9814253949220818,-0.08914649900486978,0.09101659312750601,0.02015867546712109,-0.10568887502004813
22,0.9818829098998584,0.2081568432113997,0,0,-0.02961954477108609,0.9778217621018193,-0.09764006532413985,0.10842018029892386,0.06503998539178954,-0.02810637468154644
23,0.980206095211291,0.19244640770282315,0,0,-0.04490320280921937,0.9741225291290708,-0.10659609438064457,0.11493625947271635,0.09387031679752147,-0.003970624
24,0.9787127039361683,0.18283067764729652,0,0,-0.060186860847352655,0.9704232961563225,-0.11555212343714928,0.10632907308108107,0.06331700924324321,-0.04068142555855864
25,0.9774222960327441,0.17968718995111968,0,0,-0.0754705188854859,0.9667240631835741,-0.12450815249365398,0.10875812315789475,0.04057833263157894,-0.12473707296052629
26,0.9763615848931347,0.18282775962938347,0,0,-0.09075417692361917,0.9630248302108256,-0.13346418155015868,0.1270195640388855,0.0354221037989577,-0.19724483033874518
27,0.9755627362245328,0.19173138585914318,0,0,-0.10603783496175247,0.9593255972380773,-0.1424202106066634,0.13142150988073933,0.0280764883225999,-0.22179460076923074
28,0.9750599906454475,0.20579215326012246,0,0,-0.12132149299988575,0.9556263642653289,-0.15137623966316813,0.17688599332860908,0.005376331915367452,-0.18884566889046364
29,0.9748850719430754,0.22452360147550499,0,0,-0.13660515103801904,0.9519271312925804,-0.16033226871967282,0.1971866435833501,-0.05064961053046451,-0.1884857099115222
30,0.9750619173618179,0.24767357940415619,0,0,-0.15188880907615224,0.948227898319832,-0.1692882977761775,0.17741467551908244,-0.13765964118054153,-0.22781089137037744
31,0.9756013096389128,0.27522486685333974,0,0,-0.16717246711428552,0.9445286653470837,-0.1782443268326822,0.1915628406121495,-0.07813708649509327,-0.24335579673831778
32,0.9764960211253283,0.3072818030924806,0,0,-0.18185358599663767,0.9421143648049978,-0.18037711720764035,0.14922066589353603,0.06905215556654005,-0.2595666211406844
33,0.9777171027076162,0.3438681656992509,0,0,-0.19650158715558425,0.9397706887798837,-0.1821348777953756,0.1469131,0.14062909907407417,-0.2606471437037036
34,0.9792119533992744,0.38468329954999614,0,0,-0.2111495883145308,0.9374270127547696,-0.18389263838311087,0.20447159288862182,0.13286625909455127,-0.21761486274839742
35,0.9809047634048682,0.42887782199832675,0,0,-0.22579758947347733,0.9350833367296555,-0.18565039897084612,0.2249731924616306,0.12888806480566076,-0.1947443825553121
36,0.9826997971840362,0.47491313417288505,0,0,-0.24044559063242388,0.9327396607045414,-0.1874081595585814,0.2619408655404325,0.10959455848358694,-0.2204049799199361
37,0.9844877407169925,0.5205580404500599,0,0,-0.25509359179137037,0.9303959846794273,-0.18916592014631664,0.3254477052486519,0.11413444220491314,-0.27805182263630923
38,0.9861549664097871,0.5630510464745482,0,0,-0.2697415929503169,0.9280523086543132,-0.1909236807340519,0.3140491339445015,0.23358444913669082,-0.3688337919547791
39,0.9875950902345445,0.5994223510256312,0,0,-0.28438959410926345,0.9257086326291991,-0.19268144132178716,0.19590415787514986,0.437826712276911,-0.39639579697078836
40,0.988721669512677,0.6269335467299125,0,0,-0.29903759526821,0.923364956604085,-0.1944392019095224,0.10136931931597916,0.49239791939126953,-0.38004239729875855
41,0.9894804216447614,0.6435649134797914,0,0,-0.31368559642715654,0.9210212805789709,-0.19619696249725765,0.017364673421188557,0.547057473385013,-0.348744867751938
42,0.9898590791583259,0.6484649290939972,0,0,-0.3133399636639815,0.9208057046721854,-0.19573247610874966,-0.05346885348576654,0.700966755801437,-0.31590793664673034
43,0.9898930801506314,0.6422739422883689,0,0,-0.31216521902077354,0.9207078075815673,-0.1951451048093561,-0.14434275784615372,0.7517589804615386,-0.28349316123076956
44,0.9896657826707652,0.6272432736551911,0,0,-0.3109904743775656,0.9206099104909493,-0.19455773350996255,-0.17672995730044125,0.7028990755314881,-0.22281536281989567
45,0.9893026841880049,0.6070952190058572,0,0,-0.30981572973435767,0.9205120134003313,-0.193970362210569,-0.20681580135535535,0.6754441906746746,-0.1522116021921922
46,0.9889600119375109,0.5866105838714463,0,0,-0.30864098509114973,0.9204141163097134,-0.19338299091117545,-0.15196838825365053,0.5725586203040606,-0.13533525417483494
47,0.9888088498059727,0.5709828554391554,0,0,-0.30746624044794185,0.9203162192190953,-0.19279561961178188,-0.10374222936374544,0.49460392340936365,-0.15973540148859547
48,0.9890166164745355,0.5650290616411909,0,0,-0.3062914958047339,0.9202183221284773,-0.19220824831238834,-0.036636981187361264,0.4602486139042061,-0.19614386726101843
49,0.9897282045514421,0.5723836406484513,0,0,-0.305116751161526,0.9201204250378593,-0.19162087701299477,0.04616684615511012,0.4083341744488979,-0.19876759624649296
50,0.9910494087156035,0.5948155116047248,0,0,-0.30394200651831804,0.9200225279472413,-0.19103350571360123,0.1529744628332338,0.2675432819485953,-0.2152040297011357
51,0.9930353285079427,0.6317979761593887,0,0,-0.3027672618751101,0.9199246308566232,-0.19044613441420766,0.22706124571599784,0.256567243163571,-0.18363417530856793
52,0.9956860872342214,0.6804264360458575,0,0,-0.30074648566862844,0.9236136773505665,-0.20112639096790758,0.24492673628900813,0.47384110830848686,-0.21609008304313249
53,0.9989513312785725,0.7357221236876287,0,0,-0.2987013381825463,0.9274118127543531,-0.21213122939391876,0.24272475111111114,0.7285835391364629,-0.14381303230540696
54,1.0027435864146783,0.7912898818121652,0,0,-0.29665619069646415,0.9312099481581398,-0.22313606781992995,0.24208728055633394,0.8246013533119873,-0.054583137584550495
55,1.006958929774454,0.84023308038679,0,0,-0.294611043210382,0.9350080835619264,-0.23414090624594114,0.28268145261022953,0.8644192544601218,0.029033216893396413
56,1.0115020198577336,0.876188527401961,0,0,-0.2925658957242999,0.938806218965713,-0.24514574467195233,0.29174617229999983,0.8957361616000001,0.05528941265999998
57,1.0163116434958326,0.8943356131803017,0,0,-0.2905207482382178,0.9426043543694996,-0.2561505830979635,0.2901206034378722,0.8887864693926162,0.04130069959825319
58,1.0213826864227395,0.8922488408590302,0,0,-0.28847560075213563,0.9464024897732862,-0.2671554215239747,0.27284439851111547,0.890910805364063,0.02238964981582686
59,1.0267807518561576,0.8704880884057371,0,0,-0.2864304532660535,0.9502006251770728,-0.2781602599499858,0.24870663138297883,0.9622264925531911,0.024766036265957487
60,1.0326464378777813,0.8328479441381412,0,0,-0.28438530577997134,0.9539987605808594,-0.28916509837599697,0.2149155621524038,0.9334544443247557,0.04018489298324355
61,1.0391874441381133,0.7862156263051089,0,0,-0.2823401582938892,0.957796895984646,-0.30016993680200815,0.190603407937112,0.8864570130382539,0.1027262302723806
62,1.0466581141333509,0.7400207028629128,0,0,-0.29634955421120884,0.9661698684806128,-0.28647483912877275,0.1749685912126015,0.8400799802991878,0.17515959209431323
63,1.0553276219224048,0.7053026532331164,0,0,-0.31130323504150326,0.974811920547198,-0.27132695787746197,0.18306408105707384,0.7232959242966241,0.2909582179260447
64,1.0654396735056906,0.6934730905790162,0,0,-0.3262569158717977,0.9834539726137832,-0.25617907662615125,0.21221978027287314,0.6445510471910113,0.3475519038523274
65,1.0771682171927843,0.7149028995349945,0,0,-0.34121059670209214,0.9920960246803684,-0.24103119537484052,0.22815689279951837,0.4572716035761586,0.396749992384106
66,1.0905751231195342,0.7775130914737194,0,0,-0.35616427753238655,1.0007380767469536,-0.22588331412352977,0.1771973589723557,0.3015326679927884,0.4828452231410257
67,1.1055768784867095,0.8855817200747294,0,0,-0.371117958362681,1.009380128813539,-0.21073543287221905,0.03107204791408243,0.19776880754521917,0.5100827300258398
68,1.121927691414606,1.038984530680569,0,0,-0.38607163919297544,1.0180221808801242,-0.1955875516209083,-0.14078952479204446,-0.08788782236437839,0.5219291081735988
69,1.1392255349379787,1.2330500276302065,0,0,-0.40102532002326985,1.0266642329467093,-0.18043967036959757,-0.3464932792596963,-0.3893674842734054,0.4414398576733253
70,1.1569450899023372,1.4591202438802018,0,0,-0.4159790008535643,1.0353062850132946,-0.16529178911828682,-0.8420641763543961,-0.7619131530178025,0.40029821932329296
71,1.1744967937435216,1.7057686311855715,0,0,-0.43093268168385873,1.0439483370798797,-0.1501439078669761,-1.3543994580325294,-1.343108722927413,0.3354566061047196
72,1.191303967312074,1.9604609423586246,0,0,-0.4990739315084082,1.072881895716079,-0.08272308374330241,-1.784472353213368,-1.7204603874035993,0.2729358458097686
73,1.206880687775281,2.211304924463294,0,0,-0.5840037913106959,1.1672203836576005,0.009083404306502509,-2.211768261140713,-1.8223575987763965,0.23232169198342234
74,1.2208842882111366,2.4484795171399103,0,0,-0.5965902584525475,1.2003003918907802,0.04643143763725653,-2.6145760355780934,-1.7075108936308316,0.15814235017038536
75,1.2331140015459847,2.664998541193214,0,0,-0.5591829900060731,1.178345036230616,0.05925430304480204,-2.8026665694881894,-1.609524681200787,0.09832375364960617
76,1.2434380242336087,2.856637604040374,0,0,-0.5170523014228359,1.1464707268890146,0.07096809618162982,-2.828290657027464,-0.9690108713651002,-0.06076357326817495
77,1.2516561622278324,3.021089474466033,0,0,-0.4636249971346302,1.0960342154269385,0.05299322504850331,-2.7103992855837973,-0.28809391305004045,0.03942658356751336
78,1.2573356803746745,3.156646737425749,0,0,-0.38643143064487706,1.0525643255259174,-0.03312971647538113,-1.7761325875824836,-0.8172808160967805,0.02164558941711661
79,1.2596798365774535,3.2608678125151473,0,0,-0.28608865373362213,1.053941843304973,-0.15486958857421437,-1.6858586168370426,-1.8166189315093264,-0.09981769763078821
80,1.257489993511232,3.3296987548782004,0,0,-0.16102993824137093,1.1114095743922232,-0.23733898560755232,-2.0983758272149413,-2.1833273719507362,-0.10369334484306679
81,1.2492592915543328,3.357377873900744,0,0,-0.032038478620523836,1.229700114952989,-0.3163249206695389,-2.232528217678893,-2.209484625616359,0.1175825612194849
82,1.23339515228555,3.3371954961902204,0,0,0.06481345253948727,1.34052602047698,-0.43622066736930687,-1.8068709091302602,-3.0376342529712774,0.3101246855568673
83,1.208525654960611,3.2629194800569197,0,0,0.07130406013625537,1.2793124094058999,-0.275337590528219,-1.4452681025201246,-3.3395997918795937,0.02095992728631166
84,1.1738206955344428,3.1305162233593706,0,0,-0.008938472689662885,1.1430286303912955,-0.20383102812088147,-1.383818752987267,-3.345178890812929,-0.0633837552869731
85,1.1292631233833441,2.939732582131523,0,0,-0.2015277864575848,1.051193593498994,-0.07689409497278946,-1.2713312187765005,-3.299629399454876,-0.013724488155057335
86,1.075829674455735,2.6951513798525104,0,0,-0.37414119036264004,0.9855771409828651,-0.03348256652197666,-0.9520132560569852,-3.0194951940625634,-0.14173236335724154
87,1.0155664492744898,2.406468385611485,0,0,-0.44046713398152393,0.9392300063543764,-0.009028218865504341,-0.5576628619022267,-2.5202692066824346,-0.4289310841001393
88,0.9515548468370613,2.0879269389556465,0,0,-0.49002515527123336,0.8831623592290724,-0.14425051250882792,-0.11353520038175752,-1.7348691768736209,-0.6724055557203124
89,0.8877633506596728,1.7570417358868355,0,0,-0.4395898624263485,0.8276547537405567,-0.2005507243465669,0.2774009113036031,-0.9383424481989674,-0.8866091068267586
90,0.8287801557048063,1.4328924491936867,0,0,-0.30953315428954736,0.7853575512590308,-0.2042531408046956,0.4112109846953649,-0.20255800561461454,-0.8504428886133515
91,0.7794302886348475,1.1343266165352703,0,0,-0.14280035198522154,0.7596463385653625,-0.2154180029274054,0.43105506233193663,0.1873084902453634,-0.7524405647715936
92,0.7442988611398392,0.8783675266300306,0,0,0.01267211664818702,0.736260175529492,-0.23240884456567967,0.3799882314490161,0.3240137371377455,-0.6491552587656524
93,0.727203630286019,0.6790062938027247,0,0,0.17877412773992743,0.6767551534585344,-0.2405122564229085,0.4111466885424941,0.06331067752521721,-0.401041700309769
94,0.730679204870848,0.5464215862332779,0,0,0.2737171084862054,0.5852105564232807,-0.2025658132298097,0.40562181967308447,-0.538247859787409,-0.1640820697613305
95,0.755548784495939,0.48656231742062817,0,0,0.2823579012288365,0.5220754379097232,-0.1194118920517283,0.29417006918832433,-0.9876108270291896,-0.05800582116913256
96,0.8006641931021701,0.5009731141641263,0,0,0.2357241077203442,0.5232932489089805,0.021547576070501263,0.3548606531838577,-0.7229322944170343,-0.1148296582959644
97,0.8628849941394091,0.586750305555573,0,0,0.17442595097299632,0.6490169958814852,0.1653242297827463,0.5403322477362192,-0.2097344983858299,-0.09146744649606318
98,0.9373355820509444,0.7365856617882721,0,0,0.11182874711937389,0.8262959987043212,0.2920443725963058,0.5014453648066304,-0.07210343654242242,-0.14442304116022076
99,1.0179252603589486,0.9389572964513022,0,0,0.028991431158453446,0.9845305733044444,0.43685577385817875,0.29149200982561707,-0.39227978839446653,-0.15305204450992202
100,1.0980532969304728,1.1786074602040038,0,0,-0.08928637991858498,1.1921647679658562,0.6757314557531746,0.4523926115107908,-0.36699644772182327,-0.08011563898481223
101,1.1713716107175292,1.4374551581104738,0,0,-0.13905676195009203,1.228907696403298,0.7187464064247511,0.6262094799753647,0.2762727595284131,-0.049104137524195186
102,1.2324642536770292,1.6960079499408414,0,0,-0.08180867741834098,1.1610025405287616,0.6849012176325298,0.3414452877402951,1.874749566738176,-0.0484038935537139
103,1.2773343887040074,1.9351801387914345,0,0,0.06531741101707764,1.1063971606094958,0.5612103084517382,0.17507252366533704,3.311607650597608,0.1140760415139432
104,1.3036541326900812,2.138256068141942,0,0,0.20012776180967304,1.076067640938657,0.36192544365824314,0.476020192206758,1.9169196881511068,-0.10905267961192561
105,1.31080078694968,2.2926485187142047,0,0,0.22879034211786867,1.1078527486508225,0.1836934586985433,0.626664127774349,1.6306233329009712,-0.26571399640724896
106,1.2997437612576486,2.3911402453251016,0,0,0.18501928714042856,1.1518948369332138,-0.008597965958738978,1.7160523214999126,2.1627730008224026,-0.6948223354611363
107,1.2728457543929814,2.432407791242255,0,0,0.08004661056293212,1.2718140910809266,-0.273689553223354,2.372101889452134,2.285321212263599,-0.967576291284851
108,1.2336080047257276,2.4207278828728396,0,0,-0.01731030946034616,1.4931477375714177,-0.4625045854808408,1.8938472980914425,2.5878153835188886,-0.5721339191153004
109,1.1863484388766892,2.364861556753407,0,0,0.044903095034806904,1.5146860372219926,-0.20537861258980222,1.494406356937219,1.7836511443422487,-0.0009710095463746214
110,1.1357853557418702,2.2762642274601133,0,0,-0.013202210673014926,1.142711679721996,-0.0753763995766398,0.8364049247540569,0.7112050898213097,0.31448522493475295
111,1.0865284367352888,2.1669740217806597,0,0,-0.19188650293374027,0.5986122541437369,-0.4006095444576575,0.7402388740392793,0.43949185711079963,-0.26220511891165493
112,1.0425419150524096,2.0476688167080135,0,0,-0.38469762092989296,0.25122684758948305,-0.4852560908060304,1.3870219319778925,0.898055709332816,-0.7826078713857098
113,1.0066970825616606,1.9263380993389259,0,0,-0.5158475452150453,0.4043793948498245,-0.43767716745416674,1.0587388581771553,1.6313708262970998,-0.6796170925626357
114,0.9805277045993873,1.8077955962958425,0,0,-0.5507599900859491,0.8336369551393358,-0.3170576217363359,0.662598175605532,1.7089576023068027,-0.5079802472779683
115,0.964236466418938,1.6939900330715172,0,0,-0.5021472929514742,1.1410421536912574,-0.15807350528539094,0.6262985811144278,1.75178996720398,-0.2727583911582083
116,0.9569132739126174,1.5848859568535827,0,0,-0.34329317951883437,1.0806205310066597,-0.07877440954530664,0.46085480454180006,1.6873924090233114,-0.006866832273412032
117,0.9568700950795236,1.4796241642380334,0,0,-0.2073619254315487,0.8852053521606684,-0.11598693040294958,0.42324217400113806,1.538081830278885,0.08309766587364806
118,0.9619975578513613,1.3776937939468357,0,0,-0.13822120278177039,0.8485030638230877,-0.18618873570695132,0.6166514208270203,1.4428777198019824,0.03216257106581349
119,0.9700888478924748,1.2799062736942928,0,0,-0.14199714181075768,0.8567265058623592,-0.2010661236976957,0.7742993618470703,1.1134995645481638,-0.0003014289352095662
120,0.979117708051194,1.1890279472739433,0,0,-0.19649470636674507,0.9366319935485293,-0.2094526132990538,0.8334669688462307,0.8516751590181965,0.03322863871625669
121,0.9874731167655274,1.1099923323485514,0,0,-0.2553124257113722,1.010116019598139,-0.12079974847925735,0.915032612342203,0.8135793991862752,0.09403214052562062
122,0.9941454521662707,1.049668420980008,0,0,-0.31769297174287847,0.9999804234661347,-0.06333013506454017,0.8748444007448062,0.7448826691493536,0.2102173826617009
123,0.9988461745380849,1.0162061302392134,0,0,-0.38448653732357513,0.9466378532082312,-0.1293478923709415,0.7209980755768841,0.8968495427994414,0.33741754585083006
124,1.0020403962378346,1.018019646826338,0,0,-0.44256626935949817,0.8980749317255422,-0.18940195761509093,0.5011141666003964,1.0893627282306166,0.4084168529821079
125,1.0048816107100287,1.0625149984458822,0,0,-0.4759057546165254,0.8870798255629724,-0.21961996584356724,0.23441025659200285,0.9557582856200025,0.4772504977659995
126,1.0090539293118028,1.1547260829618866,0,0,-0.47579965775996264,0.8954647184259078,-0.1825779543169766,-0.08330194815558857,0.7813646425150163,0.49144635970764916
127,1.0165425917985267,1.2960854097915986,0,0,-0.36621054643562184,0.8898995627668688,-0.10563589373784373,-0.3981813273519004,0.6341162367320522,0.39098034894468553
128,1.0293650253042927,1.4835963728501413,0,0,-0.23416543565466208,0.9172609068854931,-0.045108229277193115,-0.6578772530181071,0.6507539923138838,0.18589446579476984
129,1.049300391237836,1.7096594746053284,0,0,-0.1356483125983587,0.9694356878512821,-0.061903170406226844,-0.8653530536059482,0.2919538304089214,0.08491707860966542
130,1.0776522631424423,1.9627120524024129,0,0,-0.10808444391282838,1.0421776045744169,-0.05837865689648188,-1.346567972888366,-0.24073808666863727,0.25484391884229274
131,1.1150650573794767,2.2286688091642617,0,0,-0.2738085892748632,1.1171565616725427,-0.08299235697198035,-2.1584296269756402,-0.5727536805109933,0.5286178725371367
132,1.1613941220383752,2.4929260054183557,0,0,-0.5425999783753345,1.1537950655346922,-0.07326537485864291,-2.9446240907490684,-1.3634266404263593,0.4763977684686107
133,1.215611919527248,2.742477538582636,0,0,-0.7009705790725594,1.1713039886398873,0.023365912679077352,-3.300832694211898,-2.7731379559183047,0.02177135758581312
134,1.2757296038818415,2.967579454883193,0,0,-0.6596984379841827,1.1861890317391912,0.24108834334213836,-2.8964177671751195,-3.15348407729794,-0.47285573441759066
135,1.3387307592019893,3.1624773958928643,0,0,-0.5031491828392186,1.1675002191758415,0.41548407669873566,-2.4578767157978496,-2.0114188500596804,-0.5855308993712692
136,1.4005488640351058,3.3249942637230148,0,0,-0.36556166297621623,1.0697092998794275,0.3463321511746151,-2.659382745811266,-0.5219626987443418,-0.5965576769079863
137,1.456157307720692,3.4551649771324624,0,0,-0.3402897384807183,0.9340305530311097,0.12746300481453487,-2.6910502558700737,-0.11013780771911287,-0.5185981350208669
138,1.499856484698412,3.5534297615280206,0,0,-0.4155439028324508,1.097129250780564,0.01458769971084071,-1.084241124770072,-2.0063626267293313,-0.5468583873150754
139,1.5258132834919196,3.619018605529762,0,0,-0.5285885163240878,1.4779134668932106,-0.24872555109163544,-1.0833130120688417,-2.8855388003955733,-0.4424947795806919
140,1.5288295982046234,3.64905102947973,0,0,-0.5429870523216269,1.670493057369383,-0.6299833034444725,-1.9069131150208667,-2.8419038606596474,-0.16487668911583345
141,1.5052173275617928,3.6386117192988467,0,0,-0.40169542614608467,1.6314430509159226,-0.7226302627384869,-1.6782882489599982,-2.956479279359998,0.020691227200004176
142,1.4535897033550527,3.5817571077101475,0,0,-0.16979049186212672,1.5202152468487107,-0.4869925223665224,-1.594072807078589,-3.445242378524263,0.24048815221355638
143,1.3753804596138772,3.4731560216542445,0,0,0.010199578024861829,1.4600795002374194,-0.18705119259444025,-1.1692015569595342,-4.313485431391912,0.07461631330701546
144,1.2749679651505557,3.3099224039098845,0,0,0.05239761393031191,1.3767804132448254,-0.019051400016270946,-0.8436795580756168,-3.5800276037207475,-0.44701112421283995
145,1.1593731787078267,3.0931806372911934,0,0,0.010301791797661207,1.191936682056772,0.0014633160561653292,-0.5697285782195112,-3.2686813859403197,-0.4304542023052295
146,1.0375823755202092,2.829008744573773,0,0,-0.13320998515756363,0.911244248186583,0.01832447853534675,-0.2341256753265217,-2.9664806921874995,-0.31328606053685903
147,0.919602891005468,2.5285864565796845,0,0,-0.30049596728601036,0.6863075856161811,-0.12448999598234206,0.22658454113393414,-2.3394789115369483,-0.6289887138601311
148,0.8153899602500293,2.2075598504998313,0,0,-0.42379281993946455,0.5582826138477627,-0.2668679754393827,0.7464890193993531,-1.661936530113633,-0.9143031129301962
149,0.7337841691691036,1.884764640499447,0,0,-0.45845776069790406,0.4840771217378619,-0.425071104103593,1.1893192338313323,-0.9541806649184268,-1.08743145565166
150,0.681576500131451,1.580511223511327,0,0,-0.2811932403068701,0.5219485192701474,-0.35873130530810077,1.2709425518354724,-0.15424145158779673,-1.1640961002653698
151,0.6627865542765398,1.3146435914219963,0,0,-0.09804898509692768,0.5347915846488507,-0.3185633453524069,0.6712664141851038,0.5923115142857187,-1.0414410391951692
152,0.6782162021654501,1.1045727195443569,0,0,0.08123229956416328,0.4702830376964587,-0.3112982283631237,0.07222466850415384,0.4378842088227107,-0.6031313093351756
153,0.7253297547258927,0.9634771580065389,0,0,0.2057280904334323,0.4464990475852065,-0.2792035151604322,0.5334339667106062,-0.34569669783005447,-0.29358145239302375
154,0.7985018774396349,0.8988565257952498,0,0,0.22269565188441962,0.45975342112001555,-0.2236400318799147,0.8573407090470457,-0.8126162119722572,-0.11642988750703534
155,0.8896507452539075,0.9115989182469304,0,0,0.16390385716059408,0.5349964483577577,-0.12234396701854895,0.7548789067090624,-0.8040485291434822,0.04712354140123177
156,0.9892264021638175,0.9956824760833308,0,0,0.09896988543662494,0.7921128061157353,0.21131737817687907,0.5146005143562341,-0.18043799419302395,0.17581656822889474
157,1.0874517368603789,1.138599428369697,0,0,0.1005252631220954,1.2616355427376298,0.6295737661272371,0.17186670782258,0.012524552581281595,0.2597354987393887
158,1.175628999828736,1.322568795305736,0,0,0.2006406851866844,1.6000796779847617,0.8219156450087144,0.19603492591877958,-0.15943522324487422,0.17107382525532672
159,1.247262528821419,1.5265405926038371,0,0,0.2448733968294549,1.5063496580570568,0.8309393190919403,0.848442533898148,0.3823451682835502,-0.040774796711453544
160,1.2987533610572843,1.7288330913550118,0,0,0.1774263179793879,1.303063821011219,0.7785543021163357,1.2003503236182913,2.190223087634201,-0.3288746677137184
161,1.32951573279746,1.9100010875830629,0,0,0.04457342961273523,1.1969813733514016,0.5398052499059909,1.467752358760001,4.180315498200007,0.02352093858500295
162,1.3415213606366034,2.05532836979027,0,0,0.008737479041582934,1.117043284670454,0.33903602535498917,1.0239749085584493,3.6087633300334803,0.835502219936906
163,1.3384318068196381,2.156342070290406,0,0,0.08311178390276139,0.9742044967989058,0.2756532264682921,0.33781523263847607,0.4312896076712266,-0.09616179805241541
164,1.324575556348821,2.2110348939646873,0,0,0.13778318422499125,0.8335592717743072,0.1399505655012837,1.4091969143585883,-0.5692562173009058,-0.8625012062142098
165,1.3040401608301329,2.2229140056957823,0,0,0.043851254269168444,0.6959505405842128,-0.3363889460267974,1.9203496563881823,-0.6601301716141663,-1.2085812216396008
166,1.2800839135563773,2.1993127236755536,0,0,-0.06521630367542683,1.0441429381374319,-0.585299321646277,1.5403724875935783,-0.5053253665240589,-1.1806600697326197
167,1.2549457656454797,2.149471209296288,0,0,-0.13942495233173377,1.6420900417260085,-0.3565139286202374,0.8984575115038171,0.28471075473076424,-0.8445964298805549
168,1.2299858767234002,2.0827941641658447,0,0,-0.37784038433566286,1.8328819607682136,0.28401687573659246,1.3653924083299307,0.5666910299877501,-0.9905688866067782
169,1.2059826014117716,2.0075499108354395,0,0,-0.6730728761100065,1.1579523412930088,-0.06977325004554295,1.5766074526273883,0.9579951350238789,-1.285852095023884
170,1.1833984038039809,1.9301252507503235,0,0,-0.8251956902450823,0.4877181713722338,-0.3797587704120492,1.220904205450904,1.4373842395591174,-1.0653406088977968
171,1.1625082969604017,1.8548063933700862,0,0,-0.891788690494854,0.17127198084655929,-0.42596838076427535,1.0019689313452047,1.7261467483587212,-0.7431727411499668
172,1.1433991246887207,1.7839624334443955,0,0,-0.8290497265213218,0.35921629230089364,-0.36842656679932884,0.9763359938988725,1.0652990261596345,-0.25340262887171433
173,1.1259233848686558,1.718493579652145,0,0,-0.612072842288223,0.7343331926992662,-0.2068994759010907,0.697516456106361,1.2602405731126798,0.2673618987244307
174,1.1096982443607994,1.6584395459978638,0,0,-0.28572793315248163,0.999105852330107,-0.13105799139915617,0.6393956002791071,1.6856973995215327,0.35995130125598057
175,1.0941980819793133,1.6036657463685509,0,0,0.08165641830915026,1.1450547838311744,-0.1978288402394415,0.7711852291772152,1.5977161581091772,0.19552726948971508
176,1.078931966499145,1.5545340694563348,0,0,0.3676756154876048,1.1721481950069024,-0.2667546225861666,0.9266433484535274,1.3246081578926254,-0.08929205144511457
177,1.0636532285940212,1.5124474718117253,0,0,0.4922165914431578,1.0767076418638875,-0.187138756353844,0.9632828291501977,1.1459795213833985,-0.13526331715612694
178,1.0485329415658466,1.4801645975756004,0,0,0.261088579140608,0.9748324677274375,-0.22194780657152358,1.088147410655409,1.1700862087253727,-0.19449611382388435
179,1.0342455321468291,1.4618122026264846,0,0,-0.12030532095728776,0.8873249185210924,-0.28079350375382434,1.0811226103971268,1.2686244709838352,-0.1398521197066462
180,1.021949282080111,1.4625622277473946,0,0,-0.42075912470953086,0.8871392258547971,-0.2823137303217074,0.965445592566023,1.2663173794245173,-0.0732789050118252
181,1.013174824970836,1.4879817997755969,0,0,-0.670086282647163,0.8427092822292542,-0.22993937083609614,0.7366233018086773,1.5164640723271756,0.11665052479542071
182,1.009647674638902,1.5431153496285142,0,0,-0.6742230424827091,0.8034882843695466,-0.23302508280017165,0.1845017636218572,1.4176809280414837,0.42863416953330746
183,1.0130718663753047,1.631419614406579,0,0,-0.4691814721501856,0.7698435217899037,-0.25094145234817955,-0.4148434024698695,1.5504022127445176,0.521950785279588
184,1.0249042817437182,1.7537333443305148,0,0,-0.30588939193043174,0.8171621338896906,-0.16913911555715075,-0.5044418197170369,1.5073333164865408,0.19569707634702402
185,1.046155755712822,1.9075076819320713,0,0,-0.14485482886602455,0.921954056230252,-0.06060837434627264,-0.469052554492417,1.0188109371684138,-0.13335703535589322
186,1.0772544100282515,2.086531935208265,0,0,-0.005749170738589899,1.0604080514959564,-0.12337626118575673,-0.8842368219495462,0.7308066414220166,-0.07460500049816449
187,1.1179888334355188,2.2813363814960557,0,0,-0.0063978581296352775,1.1713767312470251,-0.13150149368187009,-1.7567673679075075,0.32963327037036716,0.09681903976142227
188,1.1675185003621613,2.480312371769859,0,0,-0.2926890926934241,1.2250480356048348,-0.09324275306221595,-2.7123890193728792,-0.5387339527960874,0.13080970757739152
189,1.2244127356695809,2.6713716093124398,0,0,-0.6042236931623318,1.2286944670730815,-0.05411672487174563,-2.9373649148911127,-2.1720717108299104,-0.12613054724544173
190,1.286672688992635,2.843750061795667,0,0,-0.7168060892493866,1.1964779437496182,0.019724835243611426,-2.984415842238982,-2.6699578120682763,-0.27972339938467466
191,1.3517078837843017,2.989463112183104,0,0,-0.6609239690191583,1.1812102827028148,0.20677945825382715,-2.7536842539154796,-1.9369570440616712,-0.05245917123052113
192,1.4162741071897174,3.104007952178794,0,0,-0.5370142554559592,1.196329136394841,0.3637870780343834,-3.001268158626023,-0.9239486254650537,0.08513424691856782
193,1.476419714462671,3.186154200322799,0,0,-0.47205903510096625,1.1673030442584351,0.25441522480235773,-3.474546595947557,-0.13787351305125273,0.2963737763766387
194,1.5275163835229975,3.2369523469635735,0,0,-0.46181084813164214,1.1640196752002832,0.05964338001899706,-2.9514693197102084,-0.2146245567606175,0.2897520623183789
195,1.5644528550635621,3.2583152364879533,0,0,-0.5060382759415989,1.3637212187716792,-0.09301431841264192,-1.7678973584935334,-1.0229744399764569,0.41585304412318624
196,1.5820388523689644,3.25164000856646,0,0,-0.39617998518752706,1.4507440947351558,-0.4750322303813802,-2.0173914005610003,-1.0626237774794647,0.3513565724043283
197,1.575607869548044,3.2169181555558604,0,0,-0.18184500378389767,1.440245945041353,-0.6857801936463236,-2.349388038037899,-1.5930597303197804,0.2655068540544808
198,1.5417425973748327,3.1526213135397043,0,0,0.039909779541040004,1.5159941221073654,-0.5600218406919917,-1.9667971360304441,-2.515076330162223,0.14413165179851903
199,1.47899882940708,3.0563874936012905,0,0,0.20047986100736548,1.5745242467338367,-0.20398761372356705,-1.8970389144744748,-3.1350486026426423,0.06634015520720786
200,1.3884854121004535,2.9262679685861914,0,0,0.47028574949341184,1.7307196155542164,0.25105430198597467,-1.3686555109515266,-2.9482469974865353,-0.34560333164572066
201,1.274170843149632,2.762136541755167,0,0,0.10579264595658963,1.2931094646113084,-0.0866826432502505,-1.1877256066640336,-3.124959492448739,-0.2701956764392719
202,1.142829884473773,2.5668546963675056,0,0,-0.12616831280594992,1.0313883002572362,-0.1506697590439383,-0.6629762023511209,-2.9433894276128347,-0.27531229771580634
203,1.003608368767364,2.3469008345388978,0,0,-0.41608766757487115,0.8234368227101081,-0.19677472989629963,-0.027422627529231233,-2.2231963667594514,-0.4031971779403566
204,0.8672495846692361,2.1123476687991563,0,0,-0.5879941219311638,0.7254218596297933,-0.2827880367296393,0.5039062192349615,-1.3968387371083961,-0.601070458644589
205,0.7450671237253371,1.8762411943361583,0,0,-0.578936008814246,0.6255848470831842,-0.3418044643758818,1.000027967605029,-0.5778682521799547,-0.8675656594067355
206,0.647764717351657,1.6535358329599985,0,0,-0.34921681774626256,0.5079742424711533,-0.3002435691451171,1.4852153689968228,0.26219412457969576,-1.214497763674752
207,0.5842140823212744,1.4597438386206787,0,0,-0.16864786177366467,0.3955026159655871,-0.3043578223572209,1.244613064015905,1.0983854988071569,-1.3384057
208,0.5603235277106422,1.3093991018422073,0,0,-0.030740194658522745,0.26644449645573376,-0.3024370992225229,0.39931345455085776,1.327734726968743,-1.003321356964788
209,0.5781560071148633,1.2144016419690666,0,0,0.0748837981447894,0.1594737878710686,-0.2476882199916713,0.8041300426519783,0.5220471301648725,-0.15786510131306145
210,0.6354634834490922,1.1823583360722243,0,0,0.1376418210429853,0.12194466806792056,-0.1913938088742025,1.1911038079343088,-0.04128761129798031,-0.108818315247329
211,0.7257763047875645,1.2151442403728918,0,0,0.16847443549992763,0.20097748960089734,-0.09596711431456585,0.6933032714886824,-0.3370814831196142,0.04822781624343767
212,0.8391139597313768,1.3080001955220864,0,0,0.13552229409718777,0.4243633524360059,0.13368771321357698,0.08508284567011139,-0.34531593674862054,0.08652705331086506
213,0.9632692701807121,1.4494928364011743,0,0,0.0492870143417814,0.8932538966864363,0.5619458177575957,0.22675833739437037,0.16287001178733,0.19136299518310096
214,1.0854778283187696,1.6225640104539507,0,0,0.03548391892937888,1.6311116365649792,0.9409324751967898,0.5703873680256529,0.5293905265985143,0.25488852568450665
215,1.1941582433195066,1.8066800765100774,0,0,0.09664084652900336,1.8644159127815847,0.9916672914842544,0.6328277109782394,1.5781344597125626,0.06278972857895244
216,1.2803584940871575,1.980784174860491,0,0,0.13457245693211256,1.3984559412447453,0.7447958862099087,0.7057793966680086,4.051901991972496,0.07989139423759115
217,1.338618370050804,2.1264533909567893,0,0,0.1436774007876194,1.0971717142837114,0.3926260996590848,0.4953131357452431,4.277366070189203,0.13578887884412902
218,1.3671424228543072,2.2305265519570767,0,0,0.2042226793149709,0.9960816841360948,0.15389731899777895,0.17351760319839576,1.6149116148048652,-0.35602974223061123
219,1.3673846922506552,2.2866153657857335,0,0,0.22530897693248358,1.024077855356297,0.12857006692267378,1.381513842471729,0.625968090378892,-0.4289255552866487
220,1.3432768904669776,2.2952829259697944,0,0,0.0987267791431668,0.994519343985273,-0.044048868287084514,1.8147806758230989,1.414309463276851,-0.6273164987336818
221,1.3003451161076693,2.2630438203668177,0,0,-0.13942604399042433,1.184784935177334,-0.4953886019401408,1.2295556171194415,2.372974123012407,-0.3377854684338665
222,1.2448850436168397,2.200528012056624,0,0,-0.30469772396625494,1.4756230899876248,-0.47627406341204914,1.0293285556349048,2.497252363758097,0.07181265777638224
223,1.1832630764072891,2.120180698536274,0,0,-0.4022034397046438,1.4020502373391417,-0.00608354893818836,0.8401350312499883,1.396891733894197,0.20609579663461097
224,1.1213392108437386,2.033876261352586,0,0,-0.4130207867795392,0.876439741745258,-0.2711349450068143,0.6968802463784138,0.48619314975320416,-0.2298177664666954
225,1.063996677316382,1.9508557677206662,0,0,-0.41009247058457243,0.4195502839057707,-0.5323232060245725,1.308536069101821,0.18144416736525887,-0.5103724405868316
226,1.0147989941003976,1.8763830519068907,0,0,-0.4255585513202806,0.38090934900460993,-0.433306895937209,1.2570693737176912,0.5011868789264493,-0.5397096413677935
227,0.9758270314547047,1.8113805116734334,0,0,-0.4618902242417387,0.7120243643682019,-0.273322778408476,1.127528705555554,1.045025443167855,-0.5374628385933814
228,0.9477351012480608,1.7530729544345742,0,0,-0.48006121329186685,0.9882128104468599,-0.13220304659108978,1.077415221316677,1.6944925929605346,-0.29864405553639056
229,0.9300079362394137,1.6964277897401399,0,0,-0.4825475594099525,1.0982364334248755,-0.06736343988859338,0.9187159756885239,1.9291031088171233,0.11406870703785918
230,0.9213394615063419,1.6360159881108538,0,0,-0.3981568979318568,0.9266785563232917,-0.09482618129874519,0.86814032,1.8091537910000002,0.30239357889999985
231,0.9200303770246233,1.5678663673279556,0,0,-0.3123206061797431,0.8237354869739741,-0.1961516181140139,1.0290963718917865,1.507239913029632,0.4545858241495944
232,0.9243249334722893,1.4909391285107965,0,0,-0.26465482210935254,0.7664073601160905,-0.2398851639014944,1.0984699150891104,1.021123252158408,0.5590816617584172
233,0.9326543560540825,1.4079661133542585,0,0,-0.2188838531742096,0.799262097920908,-0.2905598882197103,1.1851620832992227,0.8025505663323771,0.5252136931559553
234,0.9437920358280625,1.3255454795699408,0,0,-0.1581944928773154,0.9003311603095939,-0.2530745368040256,1.2913511081346425,0.6575758708415133,0.5046886478260865
235,0.9569376397019628,1.2535006137338656,0,0,-0.15437181932149174,0.9874778198386177,-0.2047603522603593,1.2203103330194414,0.609913925513923,0.4667145232418361
236,0.9717404272458672,1.2036079163254982,0,0,-0.21169363089003265,1.028021497793109,-0.1921040559630865,1.0850374156739766,0.672667024075238,0.43095105799372996
237,0.988263523631613,1.1878764063300775,0,0,-0.2819698426641623,0.9793737650400247,-0.1554547725994706,0.6332495003798525,0.7357908637345062,0.43090069421031546
238,1.0068935264177687,1.2166330187542138,0,0,-0.37177217765772663,0.8422017909317725,-0.11399404525221317,-0.16041348538797434,0.820972086656999,0.48740668977519946
239,1.0282143222127467,1.2967228754946862,0,0,-0.4423134518357437,0.7536404988525648,-0.08991311164491428,-0.6584967789410332,0.592055383261135,0.48013403543922983
240,1.0528791511802158,1.4301522366367305,0,0,-0.47361512954821366,0.7566066534637188,-0.06390273449670518,-0.6575604260112355,0.19287555910112186,0.2966368606741562
241,1.0815152263242622,1.6134631334706575,0,0,-0.47546242435131475,0.9348136535417255,-0.06661082679236034,-0.7070673745354876,-0.10546748553894988,-0.02033515074495106
242,1.114672623882622,1.8380203957933068,0,0,-0.37997399517239816,1.2052757174868953,-0.04097219470369924,-1.2368441068263694,-0.42109319358883096,-0.028158937764464483
243,1.1527919866531116,2.0912098080371826,0,0,-0.34806595366296056,1.3133885850686173,-0.012659481593565234,-2.237295914031593,-0.6444325915019732,0.24930776098616172
244,1.1961358919506537,2.358310847186939,0,0,-0.4915552801876413,1.2733563339052463,0.0029044936350475776,-3.014988308009529,-1.0861919946867826,0.3171703450991228
245,1.2446285294087547,2.6245869341683608,0,0,-0.7134438120082119,1.2014651102221583,0.024120829749484533,-3.3363838340035117,-2.332922066308818,-0.008043913696473424
246,1.2975844132764154,2.877034103566998,0,0,-0.7481093778010707,1.0758801514488414,0.16890228508772814,-2.973394130599551,-2.8463398298375773,-0.5105854299859719
247,1.3533670398074678,3.105326682145818,0,0,-0.5149574429208096,1.0546918914138337,0.3282929652602625,-2.5987124390553635,-1.35586757491563,-0.6458177946794973
248,1.40907975951915,3.3017908642397504,0,0,-0.26655836716082604,1.0298566315851267,0.3210479932889695,-2.472848283151514,-0.3459217549575688,-0.8048501082020253
249,1.460429326726827,3.4606109031025816,0,0,-0.22038495071542782,0.9438752553274807,0.12053460532162445,-2.1539599393884896,-0.011153601858513612,-1.1419572354316543
250,1.5018966186446774,3.576755789857558,0,0,-0.3092865046512415,1.056124541083771,-0.0731384246978455,-1.8037652017592916,-1.3898927804878247,-0.9997874898840439
251,1.5272865830331384,3.6451774612471586,0,0,-0.4709656939108295,1.4898039730064638,-0.34501015667913193,-0.7977126504182531,-3.3191300348208808,-0.6446113331278841
252,1.5306180840390016,3.6606660605925727,0,0,-0.48593395389538824,1.8237500421365467,-0.7178836379419649,-1.901664799351182,-3.1602216164766093,-0.3766131961954344
253,1.5071916525557987,3.6184559338339364,0,0,-0.24721109169232647,1.770140057243439,-0.6916759789046,-2.188910154698119,-2.730271277089163,0.03841160398240938
254,1.4545971671308824,3.5153942759903236,0,0,0.005422785246532311,1.4402668358235768,-0.4151546811552937,-1.825253134196573,-3.7173669771434725,0.41529304298216124
255,1.3734338282869547,3.351305657934561,0,0,0.09725007745829777,1.3864533791835973,-0.1164170322119981,-1.4628013726951663,-3.8820134627304683,0.3185529273165874
256,1.2675980393078312,3.13013769574444,0,0,0.14322981711316216,1.4464468223300415,0.19311338985808024,-1.0651616150150107,-3.3656421036036006,-0.18803765713714124
257,1.1440984366886553,2.8605469219967246,0,0,-0.0042899520885882995,1.1903670249486165,-0.114068344346712,-0.6451075417382639,-2.9847874095904126,-0.25993170353646355
258,1.0124396539974008,2.5557516442194954,0,0,-0.1322965096506569,0.8799520272605007,-0.19715272229405045,-0.1753123165395444,-2.4198662188716904,-0.3176945301171981
259,0.8836708215144172,2.2326834032396867,0,0,-0.27816846559559205,0.6451224371918374,-0.21962664362883888,0.2768218141747987,-1.6399659260601174,-0.6048672096754947
260,0.769228088431051,1.9106350997506358,0,0,-0.3812135040935297,0.5186805097553067,-0.40127484706489974,0.6480464736416003,-0.6736678232796508,-0.8653021690970536
261,0.679711463914753,1.609674736464853,0,0,-0.3242305099569682,0.49286094321917095,-0.42282941088414305,1.093299612181524,0.057315304890916206,-1.0103325241042977
262,0.623724768552644,1.3490553812229693,0,0,-0.1493703059511948,0.5343048994667812,-0.34867039823501467,1.332134194732673,0.7914404194693081,-1.131843393148515
263,0.6068864332852718,1.145742065971247,0,0,0.0445265245358581,0.5125018740635054,-0.2787127542326916,0.5405252424644893,1.2854424855481117,-0.9224557300275948
264,0.6311047557664994,1.0130744670591356,0,0,0.14758333713411498,0.4164626672794779,-0.26241459289754326,0.2275543196482614,0.8959774826390219,-0.3301516691137721
265,0.6942072567468001,0.9595640616365226,0,0,0.17837122397147162,0.3689425422463557,-0.23850802077470318,0.6380174900255283,-0.4149221617376889,0.05433978050913181
266,0.7900078108857383,0.9878919343307299,0,0,0.1575777932205111,0.3763934527799433,-0.16818485914074488,0.4845735587253962,-0.773672903728374,0.17439735084907396
267,0.90886953100201,1.0942640951866944,0,0,0.0990220328158114,0.4609639115567319,-0.024071659700981827,0.31519141712366117,-0.5940980080525806,0.24825331118208369
268,1.0387618808784918,1.2683254597932903,0,0,0.011402338107153591,0.7695226314637457,0.40285720608255726,0.457689033593657,-0.10677920803452938,0.31596947116442514
269,1.1667141123351517,1.4938047020744385,0,0,-0.0050108915631697625,1.371246841526547,0.8195783979689327,0.5845721705271637,0.4244209408999924,0.33303200310282494
270,1.2804529240805704,1.749961075132141,0,0,0.11413988437617051,1.7898070750591646,1.0608360397312964,0.6664410116092888,1.4976523655724419,0.28242222065652617
271,1.369928463923969,2.0137402554449997,0,0,0.158775712132546,1.634356894142923,0.8523155180247286,0.051636943177341244,2.939674891232987,0.10187987504003178
272,1.4284370473233752,2.262357991659502,0,0,0.15890370442949203,1.2856020748121477,0.5361752785764965,-0.16978138086783595,2.4598933894904578,-0.4783285678562775
273,1.4531599375910003,2.475896228514499,0,0,0.1498329338688258,1.0882257471423575,0.2807872841859702,0.7455395836720633,2.0477659132995956,-0.6881298249493926
274,1.4451042691766862,2.6394789604889906,0,0,0.11126656142701724,1.1749149174824767,0.18487316572801438,2.0217192773002197,2.234009970883768,-0.9977374680266298
275,1.4085662435151147,2.744679815615269,0,0,0.03975424042041636,1.4226356665166027,0.1003044098700431,2.059000076456755,2.8780281710207385,-0.6371322646773329
276,1.3502829190754781,2.789940161597223,0,0,-0.1240240225401398,1.6331184488414654,-0.14667224553872582,1.4315648134835903,2.951052862593912,-0.062224923254846964
277,1.2784135296703962,2.7799225098490337,0,0,-0.22925957527263546,1.4764099256788303,-0.1826479400072408,1.55930800072029,2.7152131985594194,0.12606228016806792
278,1.2014550873268581,2.7239081880380027,0,0,-0.20691656254688062,0.917806645395792,-0.3989538850028257,1.1597472783894087,2.1993698281345604,0.16730235633027474
279,1.1271962188253966,2.633561265843725,0,0,-0.18503120868730602,0.3220899579582272,-0.6119851170789217,0.7037000114159762,1.3311227712397016,-0.12678060145006936
280,1.0618411608688192,2.52055439982293,0,0,-0.27241131955676723,0.3589674977594925,-0.4330893626107926,1.1030274523857428,0.9589625317133071,-0.5190079083974216
281,1.0094451656133232,2.394600544787272,0,0,-0.4322444330089868,0.6946510453319511,-0.2715714876710007,1.2030352555288442,1.4423155456730865,-0.5486931962740372
282,0.9717534160261637,2.2623135382989825,0,0,-0.4885266920718199,0.9799468223001011,-0.23443959208966722,0.9677255539266991,1.8981189177607765,-0.27263939394280695
283,0.9484351393326993,2.1270677858380496,0,0,-0.48726944909263564,1.09624426645017,-0.1797534222848644,0.88018012401501,2.148535871144459,-0.0803275182889331
284,0.9376023981158527,1.989747099416854,0,0,-0.44263115706132605,1.074986647588829,-0.1372382635062211,0.7873893058781916,2.1243613207465604,0.07452280232377305
285,0.9364506235628891,1.8500689076500052,0,0,-0.34302378059979033,0.9222593181980987,-0.08710441902598742,0.7253223724368447,2.053433018422075,0.11482984966964643
286,0.941872212574838,1.7080874883917179,0,0,-0.28557477251223723,0.8487722441987234,-0.17262835175256813,0.7403151523751472,1.981262437023199,0.14887054140582054
287,0.9509523263230666,1.5655053169960922,0,0,-0.252815474544177,0.8164823620287694,-0.2630760603016534,0.6708002955174458,1.671591974807808,0.223587334175044
288,0.9613177583714572,1.4265177550538402,0,0,-0.24896725934906414,0.8307456588186918,-0.3040414454649827,0.6612246647231278,1.304729444258946,0.2684410605700333
289,0.9713474859841312,1.2980449436687285,0,0,-0.2489167900980009,0.9295776857313444,-0.28050661019025663,0.8674983770306939,0.9079634527548242,0.33629966074576867
290,0.9802632192901912,1.1893316555463311,0,0,-0.28510318120091843,0.9896714737356526,-0.1781723211975765,1.0653717235856615,0.6001659885537761,0.3847611364382482
291,0.9881130251309127,1.1109950107866091,0,0,-0.35505114302030477,0.981530104191651,-0.13704845446532316,1.0331411600318796,0.4974489637975688,0.4844920239509852
292,0.9956571825236173,1.0736640628135778,0,0,-0.42281546567642925,0.9151861311853687,-0.10567851196236354,0.789455631679236,0.6646655106232638,0.5679157891226679
293,1.0041716908428626,1.08639724353913,0,0,-0.4673842310074366,0.8325706079202861,-0.06941102347726709,0.3201662166133693,0.8876096709797503,0.5974902321923092
294,1.0151993788975195,1.155100844831759,0,0,-0.4712976319367148,0.8033288882333641,-0.08884578047205478,-0.2538479178533456,0.849628313483141,0.4836548115198088
295,1.0302918263692658,1.2812072870064484,0,0,-0.38966348031854153,0.8003785953011925,-0.13686786862175623,-0.485053742050554,0.37576675003034343,0.32803982086147854
296,1.0507869625052058,1.460888784571243,0,0,-0.31770257346377095,0.9228049275997938,-0.09302925350256482,-0.6280205134373807,0.01614919141564148,0.17923174190438143
297,1.0776522632227645,1.6850481840610705,0,0,-0.29830902090934813,1.0759809807916416,-0.0587687468412959,-0.891235595289637,-0.1481242947103627,-0.0024800712563238115
298,1.111395568932733,1.9402123708674277,0,0,-0.3133847567358764,1.1762883333585366,-0.048367667637242304,-1.4954717722143895,-0.5243575777997198,0.03764790856925311
299,1.152016653521999,2.2102489324264845,0,0,-0.3899132859046913,1.2031744091644876,-0.03540994765211647,-2.510528671978337,-0.9621124000300596,0.22654284149127893
300,1.1989577532692715,2.478578327951402,0,0,-0.5156812272786034,1.1911849506721177,0.003869720241197053,-3.049521207741685,-1.974256524428425,0.027050205108296754
301,1.2510193258891211,2.7303558439695688,0,0,-0.6394254857480927,1.1572287867961695,0.04459345236024651,-3.098698988476052,-2.9314904526127545,-0.2768408945817638
302,1.3062359888768833,2.9540562864234223,0,0,-0.6537364224603501,1.1295200048095524,0.12246398031293675,-2.5712377759144354,-2.270870040655561,-0.38491469688186825
303,1.361745928889106,3.1420647360260165,0,0,-0.5102328039982503,1.1472449751508473,0.2400293194642044,-2.7685535005181303,-1.3892151809485926,-0.20400982676365156
304,1.4137217890635818,3.2902114254074277,0,0,-0.34701385146106484,1.1321038356264355,0.2161228025284748,-2.8837427837623695,-0.47334278476433883,-0.3757416392792141
305,1.457449503403592,3.3965497509472913,0,0,-0.317737580949421,1.0546532694490478,0.03680609855590571,-2.3415590334119627,-0.07430501138064534,-0.48925531348271306
306,1.4876319171363108,3.4599154081903616,0,0,-0.3661537187607179,1.2047371872816872,-0.07138769396430363,-0.9223689513029588,-2.10232633859161,-0.2904398178038554
307,1.498948264096437,3.4788412858308093,0,0,-0.36166197538782513,1.4803402699308001,-0.4506648893967268,-1.8285182715415151,-1.9677194992094844,-0.1561328129249003
308,1.4868237613055744,3.4512387423024578,0,0,-0.25273388774934863,1.616313247910409,-0.6913484062476098,-2.3017311918493424,-2.2560137147269854,0.041469567666403945
309,1.4482819362852721,3.3749535474908616,0,0,0.027709644143295666,1.5441669982918524,-0.4035195508296914,-2.0809113293196755,-3.4172343317279186,0.4441635609271614
310,1.3827035250043491,3.248971912188986,0,0,0.08932015549865399,1.5254964448831516,-0.08654960134260142,-1.7744845354896255,-4.187572446409529,0.3524761428427477
311,1.2923222171670752,3.074817352140566,0,0,0.0503207271230779,1.5206410915554947,0.11456725380409749,-1.333412137273275,-3.24125885062787,-0.1807680099900305
312,1.1823406395410718,2.857637514906542,0,0,-0.026282441501974396,1.2724095760783465,-0.11304787397469168,-1.0265076602018006,-2.8162131698430626,-0.24949326580717587
313,1.0606243999085798,2.6066334734177112,0,0,-0.13947014704109567,0.9902955363703275,-0.18401342292674733,-0.7470388580773764,-2.545138201914635,-0.1734886539648987
314,0.937006577917493,2.334735138553195,0,0,-0.30034324150431946,0.7503297748581601,-0.21861087416815242,-0.19769475224409394,-2.085260915708661,-0.31398835517126017
315,0.8222954589837547,2.057649345708096,0,0,-0.4415085882711058,0.5877909714206384,-0.2843528378429846,0.3533414249999995,-1.3102822155555562,-0.6760173892222219
316,0.7271132563379775,1.792527564646401,0,0,-0.5054831677790972,0.44203255628438554,-0.45960498411848494,0.9142275539347877,-0.46096290721738375,-0.9255259032608715
317,0.6607010620286452,1.5565089189448424,0,0,-0.27776390023109043,0.3915373657267614,-0.4224020598069269,1.3841316234824366,0.3147692376357988,-1.0993460734824325
318,0.6298174290770027,1.3653190434073204,0,0,-0.014107952496179257,0.39742633504495906,-0.3963432737550157,0.7110248816490118,1.2269300760255983,-1.0274039792675649
319,0.6378499500241683,1.2320000814774976,0,0,0.1789224202377577,0.3850647731254791,-0.3459461878716097,0.5525375526032883,1.2915785413156846,-0.527689552450864
320,0.6842541329973096,1.1657798999975204,0,0,0.25011380781890286,0.3384774727760995,-0.2988982555986297,1.0979082370793254,0.4601189528405506,0.0701963969198711
321,0.7644225918624448,1.1710993834720245,0,0,0.2452110578839023,0.3274695699924416,-0.21129974746716473,0.8608471621073606,-0.8198974177884771,0.10779495939102751
322,0.8700585546779692,1.24688687159473,0,0,0.2072426527589929,0.3755537598101335,-0.06627529405977034,0.26338354594336616,-0.9580497840845672,0.22660151670921366
323,0.9900719579382705,1.3862434641853545,0,0,0.13924381318954915,0.5859716089218994,0.3368941267400328,0.189616399010772,-0.2054792719385402,0.28435170825688094
324,1.1119283055994473,1.5767296722202058,0,0,0.014423599474618557,1.1066878012895984,0.7135629400246329,0.206195985526787,0.5593295607727633,0.20749525517426626
325,1.2232679270896174,1.8013838826893656,0,0,0.06330651486245249,1.708902699847705,1.0343590067039985,0.3079259199471641,1.5913655105872975,0.02755038250965117
326,1.3135130266138575,2.0404398534983827,0,0,0.19065085936583714,1.7271179871123308,1.0749955726577338,0.019242255,3.5494325,-0.053450707
327,1.3751513068372345,2.2734900065656243,0,0,0.17859722948654946,1.2461730725977949,0.6071031987006459,0.03234378152724001,3.2138825912157807,-0.3874162501158007
328,1.40446647023935,2.481686321585287,0,0,0.1658616974113643,1.0775386592171097,0.2832561141741846,0.17767092522315434,1.771035889778836,-0.6060193775552898
329,1.4016481674228116,2.649590182375156,0,0,0.10519773936544519,1.0918697567032307,0.19134020957733375,1.727173557792758,1.012528129469936,-0.6669334583366348
330,1.3703691358416465,2.766447202374676,0,0,-0.01323755867572732,1.2917352620265996,0.0843890824844199,2.0226880646628467,2.0083210243029317,-0.5093310826043159
331,1.3169901258470758,2.826823283751424,0,0,-0.2590672493713067,1.5917341003897139,-0.17204402977190356,1.6112955251334746,3.1682105673324257,0.05920120068776752
332,1.2495412178361198,2.8305944541841863,0,0,-0.34440430382992115,1.5175977318372917,-0.34459806253591774,2.0234425391166067,3.3736008917827274,0.3011444133346617
333,1.1765904112682104,2.7822905648445913,0,0,-0.2116235395454797,1.0325298234633138,-0.36986141158700736,2.0215384490211905,2.283672336459993,0.558328841721049
334,1.1061060309787065,2.6898701613419087,0,0,-0.06640257065243532,0.5420005283649663,-0.46468178615415723,0.884954405039057,-0.35516664102943307,0.25553208939315275
335,1.0444559081451699,2.5631727013134324,0,0,-0.13399356885963437,0.2726616654826255,-0.3779464734779664,1.808031891524728,-0.5235142567301242,-0.2570018225085103
336,0.9957167967407002,2.4124381024371617,0,0,-0.3589212369419687,0.4311293771253175,-0.28783570953678717,1.7899613284197917,0.9434794143080248,-0.47239697142799797
337,0.9614365936694489,2.247264017498286,0,0,-0.48550918858897824,0.7659273122766944,-0.34068665546078586,1.2675113479640716,1.550015188742516,-0.600688699976048
338,0.9408870261582635,2.076175873697216,0,0,-0.48978004109880924,1.0349986832625027,-0.30626450026712093,1.025861611980539,2.3794256104601663,-0.4723635370687208
339,0.9317086334440974,1.90673654044216,0,0,-0.4878281943008916,1.216343826098715,-0.18364942686915162,0.8408767094042128,2.1061842101705124,-0.16637837398395258
340,0.9307494347565743,1.7459563568553862,0,0,-0.5086812887590612,1.0743592499501669,-0.11884016595545167,0.8992148874782638,1.572252753201565,0.17446287508301248
341,0.9348776542730913,1.6007300274841707,0,0,-0.4434809596273846,0.8435663728826542,-0.14820888615954111,1.0532088295835798,1.0942888217090985,0.4294489518788236
342,0.9416047462846295,1.4780907339040499,0,0,-0.32232520777324564,0.7302987649385393,-0.2049633270293034,1.2007357183073608,0.8222467738725593,0.5700279234760334
343,0.9494469163460223,1.3851659106765886,0,0,-0.2555744764318205,0.8219188857311028,-0.26292772835817135,1.1257463450673524,1.0548113742274188,0.6426094465530902
344,0.9580322301308358,1.3287955601295875,0,0,-0.1489841831100047,1.0220217885222518,-0.11498671233356894,0.8800944501179329,1.4384498266368455,0.5007240868239111
345,0.9679999551675914,1.3148327150183985,0,0,-0.11101052240867268,1.0532984357301864,-0.015188689146327936,0.77666014954955,1.2082970009009024,0.2857033167567574
346,0.9807465260018701,1.3472144743192478,0,0,-0.14312134587321243,0.9502698441735454,-0.004060826474763919,0.3229599802653586,1.0085513955367909,0.2406705838238845
347,0.9980727159367518,1.4269814318587195,0,0,-0.23039932399165589,0.8360448695600841,-0.08992916846907742,-0.2901462510284664,1.011076112638451,0.34397711865703745
348,1.0217927730624685,1.5515045185277692,0,0,-0.34829203794721453,0.7815422892958275,-0.16238309549854735,-0.683480485328035,0.52740562190854,0.38386624886679865
349,1.053371012520576,1.7142026261435654,0,0,-0.4854367097996794,0.821266540797486,-0.12533572066613613,-0.7810046241456995,-0.0613834646578969,0.20080318579797707
350,1.0936399756854345,1.9049671249912976,0,0,-0.4844612357058288,1.029846473741356,0.005362794771888067,-1.1303700398698344,-0.3711899279325435,-0.13629271531269468
351,1.142623862221879,2.1113447702236647,0,0,-0.3347359996655084,1.1860874108876354,0.08681651367488229,-2.257146641646512,-0.6113922848264761,-0.20344523672719833
352,1.1994551634025838,2.320295817909472,0,0,-0.2969406427185922,1.2489074666828972,0.04424348426469689,-3.008816700000021,-1.0751228000000501,-0.24495697000001487
353,1.2623503650873429,2.5201114552620765,0,0,-0.4727444577368782,1.2562724389717224,0.03489385270916807,-3.143370886660078,-2.4369620540513854,-0.4654793
354,1.3286124570948026,2.7019529087345346,0,0,-0.7144219793172345,1.2197389203834201,0.09524352915354635,-2.666037559251138,-2.1768529433578747,-0.3863324230352455
355,1.3946504831386037,2.8605509466323995,0,0,-0.7929102679073098,1.1314210279358217,0.24434470626659874,-2.6399921992788395,-1.088490530288471,-0.09661527410817711
356,1.4560386428480363,2.9938708831727956,0,0,-0.6369059874197708,1.1018578540105337,0.31074376989992575,-2.920863614188649,-0.8209237056554717,-0.19088433956795103
357,1.507667120804674,3.10189164295699,0,0,-0.4801750380276839,1.0624694234511922,0.06679535682918973,-2.4787589225972853,-0.4310854477720255,-0.5766964271207361
358,1.544049371707822,3.18492543207887,0,0,-0.3453282662497177,1.1480733963354717,-0.005801274121694845,-2.2241874220686664,-0.7883576520728158,-0.4693063764356683
359,1.5598297051602976,3.2420311979005274,0,0,-0.2181253800483913,1.5224566168855207,-0.20086698068074108,-1.054263625759974,-2.1147301556399976,-0.4275441460800007
360,1.5504737121808834,3.2700374040357265,0,0,-0.12515536990461248,1.7782110943769083,-0.6743738888911218,-1.7505671821321456,-1.5238582451786822,-0.4403950488979834
361,1.5130410229573676,3.263512529096799,0,0,0.04028998096377116,1.7209204437912784,-0.5901205459350186,-2.1688175034194828,-2.145214185805172,-0.1781234466640143
362,1.4468783015183544,3.2157490800159816,0,0,0.09643116255887865,1.4792817267551464,-0.39169808102747283,-1.5763935905376292,-3.188995804301083,-0.07925549167742006
363,1.354068002537211,3.120529344692737,0,0,0.004838080287999733,1.4295900940702768,-0.021473919425102975,-1.2731041055847847,-3.7947335552003323,-0.30600930794819636
364,1.239524784808065,2.9742113695927848,0,0,-0.07724161580480277,1.320984924608001,-0.08182865295819357,-1.045831598790324,-3.1718147417741935,-0.6457692660080638
365,1.110711554846861,2.777590335975295,0,0,-0.14907123458987806,1.0555094558152658,-0.2874275576089657,-0.5793577934620615,-3.1905082374079234,-0.6706560355902808
366,0.9770160038832573,2.537071426803325,0,0,-0.17390238517226067,0.8544915749982774,-0.2348187845353218,-0.024355197280001593,-2.9234513440000045,-0.5748883406999998
367,0.8488732989739846,2.264883446152981,0,0,-0.2579590042126763,0.7179865051056983,-0.1841541669185757,0.4832982458631278,-2.0352155347869716,-0.6386603399959622
368,0.7367425991150093,1.978287519293484,0,0,-0.3563758340895343,0.5894908258218943,-0.2703688428415153,0.9278588351337886,-1.2473449294945602,-0.6544453545292361
369,0.6500479670891455,1.6979266028196143,0,0,-0.373017978775009,0.5068070606735167,-0.37140620648220446,1.3912079040213423,-0.6245430860894472,-0.8168122482047624
370,0.5961849754260001,1.4455817114423057,0,0,-0.2128530503779994,0.452507601247654,-0.3318054914876892,1.625371588339223,0.22326638758833617,-0.9994300702296816
371,0.5796844360183073,1.2416478755124074,0,0,-0.03893537503383661,0.38618286665403834,-0.3512227309804241,0.4388866062806722,0.7790039379784086,-0.7066688799803745
372,0.6016223011898709,1.1026530015989633,0,0,0.08258532633003593,0.27814996424816163,-0.3582604556176429,0.16372569070196885,0.2188939816299709,-0.06431091901724374
373,0.6593660167728967,1.0391510106946042,0,0,0.15585880661107235,0.2345311830834431,-0.2878333980776732,0.638766397437024,-0.2914770118672622,0.09281268447780931
374,0.7467384586069902,1.0543122586907618,0,0,0.1576942597606724,0.2781841677485158,-0.184770690980781,0.10600880355240355,-0.8886989991184032,0.19427296553796622
375,0.8546455503353447,1.1434661334407097,0,0,0.1301931324716415,0.42789406929637075,-0.04650083102610286,0.07319092618643128,-0.6837510787044196,0.2180101588265876
376,0.9721427012514752,1.2947162797621632,0,0,0.0848378495978258,0.8115896762173159,0.4221223851086489,0.29001487835200374,0.13765480725760834,0.18193815678400083
377,1.0878109542525074,1.4905811017712152,0,0,0.03690094202196194,1.5313539898576467,1.0232238934325613,0.5444182678967242,0.7808898402581959,0.22936496730287986
378,1.19120430715443,1.7104297293030095,0,0,0.06975450422099479,1.79780843561797,1.0882552481452445,0.4306249847967507,2.838151564227621,0.19358618327642257
379,1.2740732415319276,1.933294119114483,0,0,0.12167119673341498,1.3523316308309903,0.6920257827270707,0.4116585852983586,3.8785592720864948,0.40793176567080597
380,1.3311225215574645,2.140505240539483,0,0,0.17951615865392745,0.9331011080729235,0.27934085543278653,-0.04557682892109843,2.2963098765690426,-0.055900011655706315
381,1.3602191688943392,2.317637377001571,0,0,0.20715619985155023,0.8410010868938599,0.053507119953144285,0.9167783150750047,1.17460098902919,-0.3247614132754659
382,1.3621438288299361,2.4554777544282853,0,0,0.16099777451197234,1.0200768335370418,-0.014643677647352695,1.9377401937302223,1.242096628916142,-0.809516967806568
383,1.3400723001897386,2.5500351141107425,0,0,0.00651445974610495,1.3607590831005467,-0.1807767152770378,1.5839404133858146,2.1219771748819074,-0.7288552750314854
384,1.298948757693248,2.601788768091463,0,0,-0.18885753693002966,1.7474002646697133,-0.3430698199216764,1.2602458517528212,2.760899770370367,-0.20272559352149247
385,1.24482149277479,2.614425851806975,0,0,-0.27684967568537433,1.589976298761016,-0.11018739030117967,1.3590798287029602,2.679110052081675,0.06147180025319775
386,1.184143987054721,2.59331745170004,0,0,-0.3431613485260464,0.9104740055154091,-0.45502551888671394,0.9829210141693054,1.5602555167726218,0.22367343008345725
387,1.1230517381659537,2.544023171191154,0,0,-0.3817658778142452,0.4036017710658079,-0.5488647273139833,1.0931763449643022,-0.019752843390946833,-0.23804415742267512
388,1.0666906721258962,2.4711568613277586,0,0,-0.3981901529632884,0.26736584332854413,-0.28360456501587056,1.9836706462572715,0.30065222589807394,-0.4667074346658641
389,1.0187279494989223,2.3778972961077174,0,0,-0.4591123957497953,0.5738975210400723,-0.18579720743161657,1.4374827508379866,1.7707162149441396,-0.42022411013966415
390,0.9811610283852313,2.266240134341643,0,0,-0.5010915839570906,0.9324629929470305,-0.24465718931985486,1.0166402570786441,2.735684625337092,-0.2794258702640405
391,0.9544526081347392,2.137833186525301,0,0,-0.4852974892485136,1.2043382600042651,-0.2403628622548038,0.8052226074077644,2.641472590795547,-0.037391611715990376
392,0.9379088644885293,1.9950528218065355,0,0,-0.3584858987839447,1.170089815498092,-0.13684293935844824,0.7548359358365168,2.116340126430995,0.11491486483029027
393,0.930151225238492,1.841951679964627,0,0,-0.20202682842572597,0.9700619473751428,-0.11112544139041285,0.870404528814229,1.5823111901185738,0.248152537517787
394,0.9295403955015171,1.6848156976169297,0,0,-0.1129890485537966,0.8041415566042008,-0.21366573181202267,0.8636186279183189,1.3384087879064235,0.2874182765206186
395,0.9344767485731391,1.5322224434816376,0,0,-0.10113909030005819,0.7549025746954696,-0.354531697192686,1.0042950955722434,1.1501453087369133,0.31258223264281326
396,0.9435744874062109,1.3946118047073794,0,0,-0.1646757703437615,0.787927095255183,-0.3169868176918372,1.179216658036785,0.7879496360495809,0.3802152077289083
397,0.9557484175197782,1.2834388636434744,0,0,-0.26017045690526247,0.887223917863809,-0.144407249600951,1.1929191744149146,0.8539267871479572,0.4262619364855217
398,0.9702541680826481,1.2100012558506827,0,0,-0.3692049674542562,0.969791313777153,-0.057682718047719975,0.9625663457701484,0.9571956945849966,0.46028965137071026
399,0.9867027353764211,1.1840561010786375,0,0,-0.4720225578131398,0.9359707550641009,-0.07919417122266238,0.5983954757863221,0.905011566566627,0.4343096167166864
400,1.0050507046169024,1.2123846698270933,0,0,-0.4669429185761559,0.8793352611219827,-0.13769227271801485,-0.0664370988400295,0.9751995166740031,0.4602544108500021
401,1.0255614097232704,1.2975193525447875,0,0,-0.4224763890074378,0.8512277237000109,-0.1316483534197675,-0.48657830115454337,0.7766539387692839,0.4584502069573055
402,1.0487387267476866,1.4368897226244155,0,0,-0.3872066522069398,0.8696295853907773,-0.11645455519502905,-0.6331443761695311,0.16552470115157417,0.325822238936439
403,1.0752431048481195,1.622639639641826,0,0,-0.3461412933891937,0.9905376417563383,-0.02900724123997316,-0.6445559563331354,0.05646550726183377,-0.009407837270224775
404,1.1057975995616036,1.84228804049515,0,0,-0.28682050093415523,1.1285074452929247,0.0716462525103448,-1.2730325984536002,-0.11191404677636563,-0.07219230764472782
405,1.141078623701153,2.080237974088712,0,0,-0.28389152753819813,1.207483225863544,0.07379759369415698,-2.417019449930205,-0.3049687236699365,0.19501376604471193
406,1.1815717576245814,2.319901934649964,0,0,-0.4333295115589155,1.2262022807254311,0.021745869684272983,-3.0220159323435607,-1.0129896481267255,0.12693640917517407
407,1.2273707442717374,2.5459845350038757,0,0,-0.6359421252946483,1.2073356839989846,0.02626230158535916,-3.087615225633903,-2.4345954170959487,-0.3886157002555887
408,1.2779152602590347,2.7463596778657697,0,0,-0.7145818073549458,1.1228356117363025,0.11180134973334585,-2.7384582834394857,-2.240000385987254,-0.6892228378184725
409,1.3316979501472994,2.913076863706701,0,0,-0.554169099746555,1.076830090157732,0.26461246120337745,-2.546625654385963,-1.0587287568922594,-0.6951196910609846
410,1.3860129189919466,3.0423099147861348,0,0,-0.3436800412524755,1.0772609415315677,0.2698266212769243,-2.6243046454431953,-0.20128981879523264,-0.8877525269475708
411,1.4368496123742727,3.13340376831242,0,0,-0.28958233385062054,1.0283889459660729,0.08764526999560317,-2.422811159356166,0.13731487651028185,-0.91690247158149
412,1.4790382466702994,3.187436291960839,0,0,-0.33457841072811295,1.0896667619773108,-0.0013100422928760107,-1.6144820241104534,-1.4630806798171991,-0.8200796493291871
413,1.5067112979383395,3.2058043363617665,0,0,-0.41135108252164065,1.4353639200505024,-0.2075826188106692,-1.1986363583546624,-2.393079703798463,-0.4752481007518136
414,1.5140620989260507,3.1892651413473563,0,0,-0.3592071155706664,1.6862861263961713,-0.5449827578757711,-2.062846006893823,-2.251691761767035,-0.1295278794294755
415,1.4962827983777798,3.137672188605412,0,0,-0.20712444739066013,1.66716959169019,-0.6695853700696388,-1.9379126018322508,-1.8678928655944647,0.01973733914494962
416,1.450493410988831,3.0504131566459862,0,0,-0.0021484352448923453,1.4869359788361878,-0.48347744796195474,-1.741883122324649,-2.551900768817637,0.32326622264128313
417,1.3764652668004485,2.9273510594693786,0,0,0.1530661149044192,1.475166990267616,-0.14736258112719486,-1.4376581470065257,-3.8455581426792946,0.4273485784706614
418,1.276994273120545,2.7699318986998773,0,0,0.1640473535548063,1.4243233753019853,-0.0474761822691975,-1.1335823931795408,-3.042207974543639,-0.017414316032493576
419,1.1578601891856355,2.5820889028716714,0,0,0.08822545285263761,1.1716487045887822,-0.05829922871283179,-0.7950552159519018,-2.6407594476953897,-0.2417710308016035
420,1.0273855333953372,2.3706655351522037,0,0,-0.023634123077083895,0.9308877827714878,-0.10849675238351268,-0.36096510800443454,-2.3264945364226177,-0.22811568812614172
421,0.8956671791477715,2.1452629522007833,0,0,-0.12134792221297591,0.7483010517953653,-0.11532801958749139,0.11898917307767214,-1.756024839959753,-0.35982483392756776
422,0.7735901687789344,1.9176024198030954,0,0,-0.25285878753134994,0.6398183364885951,-0.20725112769745585,0.6638306495602622,-1.051172539676197,-0.5719741079552262
423,0.6717430153396867,1.7005959189349733,0,0,-0.3897858387940005,0.5657880405319903,-0.37512393284067064,1.123047201487867,-0.3641445706734488,-0.7398876680031338
424,0.5993404271066303,1.5073115246322173,0,0,-0.31136041330996894,0.5240751239107516,-0.30961614965545176,1.7788832655602147,0.22060871383526512,-0.9142308018316637
425,0.5632393270361267,1.349934253393509,0,0,-0.1385499141225568,0.504500369090342,-0.2575887051860457,1.8652198364391446,0.7565728036216279,-0.803819442434686
426,0.5671259488513252,1.2387309438368739,0,0,0.029632368888874334,0.43317220735346484,-0.2396822955492753,1.0728739272562124,0.7711175002779883,-0.4033558332111081
427,0.6109604154910082,1.1810104435794004,0,0,0.11955399883043479,0.3497497130944816,-0.2312101855302755,0.7504881132937696,0.4959947756360076,-0.009190410285465585
428,0.6907772576299918,1.1801522540961538,0,0,0.12433713488629668,0.32029476893220943,-0.1617277314538541,0.34155965487385287,-0.18203304409486942,0.05396726181695419
429,0.7989348072791528,1.2348924047011618,0,0,0.10765102851997736,0.3439536267256775,-0.053821933314176826,-0.3072179875881443,-1.1452379757612237,0.3069257562900663
430,0.9248659471457569,1.3391053556202956,0,0,0.07943379959859623,0.4815922600304902,0.14742868498676653,-0.10988251774749384,-0.8491367787296186,0.3212663175573355
431,1.056299016065243,1.482260842329996,0,0,0.0803209974840739,0.9266696433333684,0.6415123973829611,0.14853948195149982,0.05564069570665307,0.25135853682239406
432,1.180798491505594,1.6505907940166678,0,0,-0.060640775953548345,1.5546530681953805,1.0888660580448075,0.4540191868685039,1.4591693164892243,0.3188184120719599
433,1.2873561384310914,1.8288150676391661,0,0,-0.05421358465726236,1.876725087509955,1.1039798573558737,0.32040446815475776,3.9838284706548537,0.5630852479464384
434,1.367707684827929,2.0020905281109154,0,0,0.12360742751557674,1.6293654711696997,0.8630545873723585,0.02146024555499863,2.6540733229999964,0.07319423824239839
435,1.4171125649542369,2.157755627447134,0,0,0.24014148080839742,0.9034281707564256,0.23906999621155872,0.11194816198917276,0.9464237954176924,-0.47980671725992236
436,1.434506233778717,2.286526347588413,0,0,0.19040741365479874,0.7793897459082392,0.0748945497699868,1.933796562622517,0.40136422726168536,-1.061901019556304
437,1.4221269982241502,2.3830081390395934,0,0,0.10044386642825195,1.0884547805732525,-0.04911435307311762,2.0440473804218056,1.740153899283726,-0.9579520730202936
438,1.3848219890200117,2.445561632355025,0,0,-0.13020836727011412,1.6727544865850108,-0.3497602652179239,1.2528769887459796,2.563553084405153,-0.06682124862941163
439,1.3292103058267917,2.475620850866852,0,0,-0.3437418471586231,1.8832533591691616,-0.2052158688859557,1.423652224669604,2.883075834601519,0.33701721080496755
440,1.2627896094006248,2.476588988224349,0,0,-0.4762687672843988,1.2475249831920128,-0.2521664594282292,1.2016949828903214,1.7441833379173857,0.35845873060567285
441,1.1930189444451416,2.4525193217781722,0,0,-0.45389132836585194,0.4698559957348065,-0.6090640177616976,0.9030792460963792,0.005889513931931879,-0.18007037446987706
442,1.126440620499542,2.4069042796186464,0,0,-0.4037668806939562,0.14179398906049095,-0.4966347211162816,1.7697549194184636,-0.012887604664910589,-0.4378678494326956
443,1.0679709681847869,2.3419328032281737,0,0,-0.329474855179464,0.36343206101031406,-0.2661302492836712,1.2699286273723247,1.3651984055175281,-0.47037436733711585
444,1.0205107138796539,2.2584523059538175,0,0,-0.35632099904478487,0.8040287752025481,-0.31461288770913465,1.052596349563839,2.277866054242656,-0.39602547979778197
445,0.9849597154543857,2.1566221385083604,0,0,-0.4147278364862772,1.183140826272659,-0.3097978318255757,0.9444272259545089,2.585779039784728,-0.1918455480442734
446,0.960597866930383,2.0370007643459833,0,0,-0.3482729163991666,1.2743179141919434,-0.20582214878032318,0.8103072077168494,2.4587340291525384,-0.0029792927014147884
447,0.9456848927984953,1.9016870835391821,0,0,-0.19399933823796886,1.0552440055036258,-0.07586120493097934,0.8832756168433513,1.953596149841781,0.1764429182990469
448,0.938094335271554,1.7551689907481671,0,0,-0.09024139346894688,0.9253188276501354,-0.207385546745451,0.9176567324657539,1.5492183295413997,0.25506262474091634
449,0.9358374561414595,1.604669429639766,0,0,-0.07262976576082782,0.8358576602536831,-0.291321003170272,0.8762656770691134,1.0180797076578356,0.32188788598549634
450,0.9374095978084899,1.45993851430841,0,0,-0.16118172644238948,0.8093869247218074,-0.3867401467820411,1.0664805031878233,0.8736034098436505,0.3814498663918805
451,0.9419561175917452,1.3325530317279333,0,0,-0.2483915648101301,0.8730578554761813,-0.2698540280376216,1.2241761164079819,0.71869291381173,0.42242495611771635
452,0.9492864248896061,1.2348320961515193,0,0,-0.36353842964687955,0.9604749628218591,-0.09955793935657518,1.1427774150286762,0.8116315667747632,0.46789197711291214
453,0.9597712992455942,1.178485761932912,0,0,-0.40359070130480124,0.8923564214395734,-0.0462972841967712,0.9555992662130111,0.9297386751479315,0.40878813153846055
454,0.9741587066722978,1.1731249721748533,0,0,-0.4091522528906491,0.8135397585595826,-0.015287561314561972,0.45409717904824415,1.027323387457427,0.3595768153476237
455,0.9933475345630111,1.2248011599232682,0,0,-0.4022981122696308,0.7929839859452863,-0.08277057881831507,-0.10928171625357473,0.9722657383326528,0.4017780355333058
456,1.018164696556353,1.3348019698723625,0,0,-0.3990460732288072,0.815811983484893,-0.11491362648300722,-0.46077522724386083,0.44545683633992555,0.4703387522057043
457,1.0491887939574756,1.498969753088144,0,0,-0.3936300872291714,0.8974022490097852,-0.09645526853418321,-0.5344457214354073,-0.050457760942590996,0.3536164465550168
458,1.086646084072532,1.7077888309283589,0,0,-0.34939938512891083,1.0505555580087635,-0.03037015017244367,-0.7512472745422007,-0.1009281981711338,0.002462145953286339
459,1.1303753467324846,1.9473731851198666,0,0,-0.26844411575037863,1.1912281727632905,0.023378138544759487,-1.708444790146223,-0.3838095704145846,-0.03278968670458406
460,1.1798292625302902,2.201274843724081,0,0,-0.25389095526720645,1.264581373980752,0.042663893452953815,-2.6843200739157274,-0.6278681540623244,0.06471906237813196
461,1.2340644135546495,2.4527742954443448,0,0,-0.42521567677915745,1.286055566096006,0.04325504309369417,-3.1070489879780387,-1.770729590096185,-0.24941518997647566
462,1.2916780189970676,2.687111418011377,0,0,-0.684108249505045,1.270900173529427,0.06741334933706312,-3.0096691435820686,-2.9232069958208875,-0.5130092129552398
463,1.3506770393388015,2.893080767993257,0,0,-0.7721695741288324,1.1807862009645655,0.16639418610304016,-2.566243584719459,-2.048961166693214,-0.6107655763111856
464,1.4083079338329194,3.0635975308781127,0,0,-0.5814342477374519,1.108290311692163,0.30964646020623104,-2.762399233453012,-1.2159621791861583,-0.43253608269299143
465,1.4609220174751996,3.1951818550547575,0,0,-0.36679109197368676,1.0733738506920225,0.2218478103040896,-2.73419204417228,-0.30747590798109725,-0.6330690148202164
466,1.5039847610659736,3.286668888309738,0,0,-0.2834037722617823,1.0078696444917243,0.05596757063888623,-2.3787093,0.16890424,-0.63316184
467,1.5323350960449815,3.3376872133413538,0,0,-0.3147761944934459,1.1967281626236068,-0.03458028853451894,-1.0387098974562563,-1.5332130172695033,-0.3115115553974509
468,1.5407464083430222,3.347484699091485,0,0,-0.3380426078820024,1.605984800860329,-0.6647842323585468,-1.4287185049225448,-2.3552296463278988,-0.1818036552620111
469,1.5247421380282358,3.314518884014255,0,0,-0.17519999367904962,1.6851241299892437,-0.6923456419970949,-2.2350894743822627,-2.443900611444959,-0.0104010710263127
470,1.4815153674639734,3.236928679186844,0,0,0.0009038335155137385,1.5721484128063503,-0.4500823211256026,-2.335364752329001,-2.743719909910905,0.43370867709418803
471,1.4107443467625427,3.1136766864969374,0,0,0.11805390587075838,1.528197074769841,-0.14941031659319476,-1.8285798461848948,-3.8315994243843288,0.6288572659790029
472,1.3151082763355224,2.945926793920218,0,0,0.18569929998236082,1.617958280757897,0.01884125712915768,-1.3472495465811305,-3.048973885101288,0.11746686653902742
473,1.200372513559691,2.7381820248383724,0,0,0.12945430611133035,1.3670863984635253,-0.05142401263020332,-0.9495542749501396,-2.7191025580574393,-0.2048596521001197
474,1.0749980959503165,2.498841688975926,0,0,0.01593275380707599,1.0388040393098559,-0.17813255549326093,-0.6143287541299556,-2.4160827598854415,-0.25864913698005226
475,0.9493179280755883,2.240054584955167,0,0,-0.15651345629821378,0.7637015849937266,-0.20108471972939637,-0.0425292345587551,-2.105289545366809,-0.37069457604624145
476,0.8343991485889194,1.9769397116238452,0,0,-0.3292788682567287,0.5658516635516525,-0.1863635862071115,0.47433686,-1.4514158,-0.6224717
477,0.7407610404195882,1.7263564873550574,0,0,-0.4876307343543918,0.39416033720197485,-0.36524264694578623,0.9514682280451616,-0.6577470768173307,-0.8635222147838778
478,0.6771278458849892,1.5054288972144607,0,0,-0.41632361084712116,0.3420994162060584,-0.35267152458208184,1.4604472157280977,0.3055779594168063,-1.0799394849758757
479,0.6493728083332072,1.3299902639005403,0,0,-0.08447464395470647,0.47568116125302745,-0.2997933018481562,0.6329451755748066,1.1553707351410292,-1.0041716988286102
480,0.6597743342018686,1.2130617096497587,0,0,0.09681635197704196,0.5258444506129594,-0.2592077609217351,0.35273158587884296,1.1726522139497657,-0.47334121147864144
481,0.7066727478353648,1.1634561735280935,0,0,0.17683520662428379,0.4753795803176253,-0.2300773896949504,0.8246583366987749,0.6899387125737759,0.2551333367499007
482,0.7845871491502983,1.1846314517734242,0,0,0.1949254269232786,0.401732058410821,-0.1476056599681808,0.6087966210226735,-0.5732553784091547,0.27275480340910035
483,0.8848166255501421,1.273972044372977,0,0,0.19850436676679628,0.41855828619905433,0.022971382550205796,0.25063663465445435,-0.7358009121608939,0.2892931187572154
484,0.996495658296401,1.42270718714635,0,0,0.16664151061610583,0.6696001619073428,0.47178905513889413,0.33650467393036104,-0.14371982391632873,0.22781935676806042
485,1.1079911788274903,1.6166280695989044,0,0,0.09237845281068943,1.2311193069172497,0.8400886022939136,0.4339612451610932,0.5411743470321984,0.19702757244947106
486,1.2084287176940554,1.8376295592731142,0,0,0.1245807256307098,1.7576037208742818,1.0736446218421698,0.507146794891049,1.9634862962424549,0.02886677116168564
487,1.2890603763673323,2.0658814172794333,0,0,0.20682863817044547,1.6364066557227777,0.9738363580608327,0.640881163264533,4.154303425880113,0.16639531653297268
488,1.3441972785082266,2.2822065312819464,0,0,0.16070127323571742,1.2025113098009221,0.6170280362835238,0.1647429130358281,3.4635640159886734,-0.20741682181015636
489,1.3715495684057761,2.470148785385208,0,0,0.14510841603334448,0.8981529702875921,0.32446675352716736,0.3880324270057309,1.2272021690320998,-0.4624896099586029
490,1.3720012001082786,2.6173458320848173,0,0,0.09846183412710677,0.8268213229125689,0.2053856146130782,2.210812476078431,-0.03506768077451019,-0.5431957763313725
491,1.3489975558298442,2.716102899199414,0,0,-0.05546890308060904,1.0587767040755525,0.11780478084221863,2.3394730695859827,1.2705611241242192,-0.3749292404936249
492,1.3077659561449058,2.763291080983671,0,0,-0.3180193862118525,1.4768959221535818,-0.23385589137689436,1.9569119653714517,2.7950796625327246,0.3018674807006293
493,1.254524109639952,2.7597573824382273,0,0,-0.4291595952653421,1.7014030677928516,-0.4061032803259484,2.0001814256131376,2.8732618934731184,0.748299151562497
494,1.1957309079190155,2.7094117031530915,0,0,-0.40909536694099485,1.3410155321153938,-0.2754538782524997,0.9211483219644377,0.8246075383678262,0.7734617554811172
495,1.1373813973611009,2.618171656593211,0,0,-0.1523759430177732,0.6330029159350666,-0.41123349901533507,1.4345994360578507,-0.9865383783854426,-0.02955905054291596
496,1.0843753324921381,2.4930014001409386,0,0,-0.15611696167647773,0.4002548312155904,-0.39313549271522147,2.395389881515277,-0.26948390924238724,-0.6404216919634972
497,1.0400528127621158,2.3412720530013473,0,0,-0.2315956032586498,0.4435730187910734,-0.38525945113416044,1.5870841126774462,1.2002405212381666,-0.8099923353430599
498,1.0060122765815305,2.170541891488622,0,0,-0.3550692406550119,0.8185375354272375,-0.39931974936495096,1.2962841821428543,2.208430618367353,-0.7308394579591817
499,0.9822644095773653,1.988671934844859,0,0,-0.5040605741434141,1.2978942620984435,-0.34467318592054774,1.0309822308118788,2.2064677929504892,-0.40962105885543976
500,0.9676627471589473,1.8040699759397896,0,0,-0.6047412231594792,1.1476264433396177,-0.10171025100051921,0.9147216964835215,1.6722657848351314,0.020225681428595786
501,0.9604626512993963,1.6258466114075238,0,0,-0.5280720595604903,0.8487458896655716,-0.019169921927128075,0.9874642634525006,1.0924936078128082,0.3976936462582877
502,0.9588484262156985,1.4637445638222844,0,0,-0.3182735009078581,0.7428574283490175,-0.17603477404575266,1.0297583539623365,0.7097330964299969,0.5587873507159591
503,0.9613260327541812,1.32780281436215,0,0,-0.18134967030117788,0.8241206758985318,-0.34156648960947744,1.045196001961569,0.6427981451961648,0.5693594130664513
504,0.9669529470260628,1.2277845062973298,0,0,-0.0902962683170997,0.9653544448495487,-0.29826494875880794,0.9705054557598698,0.9129659969305991,0.4765597970003974
505,0.9754207745926975,1.1724205945338964,0,0,-0.04804157354854302,1.0650143861886316,-0.15268400261130288,0.880908694690193,1.109894428393826,0.3577442817726057
506,0.9870154363335223,1.168528405816191,0,0,-0.09221034949630358,1.0366155224108258,0.035899531605024945,0.7904645290947017,1.035722,0.20676479222751648
507,1.0024782740137337,1.2200899318186882,0,0,-0.18940896400958251,0.9300886829234305,0.09014758085488188,0.0700082703342789,1.0531091974974993,0.3010225442682793
508,1.022798615868475,1.3274278802975321,0,0,-0.27011473341722675,0.83950184706375,-0.022137949794025544,-0.5661328844928987,0.7937332558431683,0.44156270983196644
509,1.0489818513967681,1.4866751289072968,0,0,-0.38057503369094814,0.7814748502368121,-0.16625467800686441,-0.6982178971119134,0.05826706293143006,0.44657337400722147
510,1.0818410201681214,1.689753786557314,0,0,-0.4617536265678474,0.9345374464475997,-0.16235462290020974,-0.6020043227301969,-0.12212374111780973,0.18780311379776404
511,1.1218427038863195,1.9250236192601626,0,0,-0.34562921433669613,1.1540835505899143,-0.023166636137080365,-1.3403579889498956,-0.4029278555133273,-0.06527078266241507
512,1.169004119331227,2.178605455870826,0,0,-0.2499911739310472,1.2974319217909183,0.05371976509305971,-2.6267492558923364,-0.42259830461874304,0.1127250816993556
513,1.2228067530150317,2.4361562099525,0,0,-0.3534815295489653,1.3231052677540567,0.045487686176913976,-3.219244029188869,-1.4826580920663137,-0.10242759361753109
514,1.2820830362462192,2.684655783005714,0,0,-0.6223093061915539,1.3091423207006012,0.09881260479245375,-3.0919078471007433,-2.8811067100732255,-0.5772130800296759
515,1.3448548241226939,2.913688166381967,0,0,-0.7908227401853585,1.1544458441495409,0.18683386448949718,-2.4644858733106836,-2.3474284350060173,-0.7950129293002843
516,1.4081490824023426,3.115840349133034,0,0,-0.6165389445612206,1.010976462753021,0.38745812071594793,-2.4353531461843474,-1.4704119908820403,-0.612515585242811
517,1.467869920588205,3.286164762866547,0,0,-0.4054319621701439,1.0010821920337365,0.2652559180201277,-2.433321329809214,-0.9420582321542037,-0.8524367668124095
518,1.518842972450529,3.4210061990477385,0,0,-0.33576191672181693,0.9803831141552366,0.009345244852176348,-2.15117976909236,-0.40685529139144044,-1.0030602177129118
519,1.5551420325095466,3.516718815747682,0,0,-0.4149360070651125,1.2281367446399545,0.06850196185674925,-1.2841019246057772,-2.3414095721607415,-0.7947116170977994
520,1.5707434176824928,3.568810495971459,0,0,-0.4855193976547361,1.6725674766352956,-0.4608986196089459,-0.904921179470078,-2.7340626362259157,-0.5912553893418567
521,1.5604438403448317,3.5718733251500163,0,0,-0.3253765217960866,1.8014696889548047,-0.7454310804470429,-1.9838949066786082,-2.686248309242691,-0.2869380072987242
522,1.5208689960066393,3.520377004049984,0,0,-0.08830320453576768,1.6278184792136219,-0.5750841007496911,-2.369640437430384,-2.8690280011932936,0.35717294834922514
523,1.4513475802898108,3.410116558471293,0,0,0.009001535076756665,1.4485514081095572,-0.2977366412417432,-1.817333265533709,-3.88960784680976,0.5470096770602322
524,1.3544513610131121,3.2399021397489345,0,0,0.07524829350972496,1.5400670429600887,-0.029906612057133356,-1.472528335039105,-3.5593149372264894,0.1912547595383903
525,1.2360804398479586,3.013014385017904,0,0,0.03735182626698825,1.45153256331607,-0.1134189593075744,-1.0961473245649607,-3.0251845715095156,-0.16385020348360513
526,1.1050612128662305,2.7380347631394297,0,0,0.026362726939008947,1.1375660106162462,-0.2734419739426434,-0.6990748854213233,-2.869206162522094,-0.2880344889668058
527,0.9723015748449392,2.4288475175570094,0,0,0.012149974687590498,0.8507636386031495,-0.2802255230852281,-0.07163793417332322,-2.3946011286647213,-0.4792913554460804
528,0.8496135558779941,2.103813591250148,0,0,-0.09688386299124649,0.6292002234291296,-0.2118119720985491,0.5244908369894731,-1.5991261045933478,-0.6766676722012366
529,0.7483640968737434,1.784269471952804,0,0,-0.3654411996619472,0.36873301121125784,-0.455799062882427,0.9678313486267415,-0.8013862754890289,-0.8150656996007967
530,0.6781370889568382,1.4925796634367652,0,0,-0.31597862107138774,0.3458252599844615,-0.4080807256760455,1.4651396249402038,0.0545882255789736,-0.9577745905502416
531,0.6455789886482601,1.2499781741626033,0,0,-0.14032070918161843,0.4092555978176606,-0.3469546108554351,1.1882484315528377,0.8144693886636513,-0.9430824849242263
532,0.6535676355411909,1.0744064928742887,0,0,-0.006313437057271393,0.46527139053053057,-0.32999260024542076,0.08938031898645735,0.8307395740540132,-0.492051968243207
533,0.700805399948011,0.9785424859814744,0,0,0.08630283568773503,0.46639639993225845,-0.32608756567219993,0.5313124532830631,0.060673540757631005,0.008646568323345448
534,0.7819002079597132,0.9682392701561976,0,0,0.13772220074713504,0.4334042389836749,-0.2675787950050478,0.6724003616656246,-0.3859806208683713,0.0693045677003549
535,0.8879571998747381,1.0416227706568872,0,0,0.15059307001739905,0.4422279318136189,-0.1513732803712307,0.06916978095365603,-0.5480359707220334,0.15909693754173748
536,1.0076498133550795,1.1890770311162655,0,0,0.1634234949335013,0.6313664860305301,0.20578183294966926,0.0055396061815043765,0.10282743515497118,0.08062749850529469
537,1.1286617270998793,1.394250433081456,0,0,0.09639792324437205,1.169497588908262,0.8255466915069177,0.2112328141261509,0.7525668117047513,0.15512500020308742
538,1.2392931090879227,1.6360448080119285,0,0,0.02047073080281757,1.7483547642443262,1.198576311303579,0.5082894396770357,1.4934998656843717,0.2819805360920561
539,1.3299403351426136,1.8913204761185116,0,0,0.03620281510016787,1.765535212763616,1.0705306112490676,0.6035940451325011,3.5874505726638986,0.5364993780753198
540,1.3941491413554266,2.1378258972750155,0,0,0.12270998032604219,1.3608767579097272,0.7569489671703398,0.5404732461722717,3.4066665966507848,0.489163143540693
541,1.4290479136404188,2.356759719675094,0,0,0.20439694049512191,0.9683080913423385,0.32285981025781296,-0.008241191834985452,2.0204588370206347,-0.12905028319093384
542,1.4351580590256892,2.534487396963801,0,0,0.2706947519026999,0.8347514673737999,0.06311127678888506,1.6714545592391408,0.992979540277781,-0.7248735292874449
543,1.4157539648693591,2.6632152257192563,0,0,0.2511011085547693,1.0557924574348896,-0.10555003129228861,2.116092808941969,1.5807412289379896,-1.0826890643110896
544,1.3760151123984072,2.740701372188255,0,0,-0.00020961617058114993,1.4725470148324726,-0.3564733991667843,1.5170361967108261,2.5817027821499607,-0.48938907884883126
545,1.3221629917910183,2.7692305153305083,0,0,-0.24548835262808932,1.7446329813667056,-0.25216031304856995,1.5396079472267565,3.0261274708401342,0.22847568015498665
546,1.260670874601821,2.7541221269633334,0,0,-0.473949132962091,1.3258285898234312,-0.20903102989485817,1.153369414124415,1.9452844611529554,0.5542718617175152
547,1.1975626707573488,2.702077710381931,0,0,-0.5399652904327126,0.6714314694002741,-0.49931032274294457,1.1054594983709503,-0.308983250950342,-0.024932114500882147
548,1.137819211798521,2.6197212999500574,0,0,-0.5319417661906398,0.270016702899532,-0.45098458299834976,2.2874653956877524,-0.32049918304055636,-0.35043580256737045
549,1.0849556244333898,2.51267371124947,0,0,-0.471292520100202,0.4084134524079567,-0.33357593053575446,1.7035066792178999,1.175587363259308,-0.40655556533743764
550,1.040855321631113,2.385355449183419,0,0,-0.41377175731177585,0.8250065653300237,-0.36540750287154294,1.3286536370582391,2.172550461204375,-0.34370928433168146
551,1.0059041832798694,2.2414722310059036,0,0,-0.3788892677386417,1.1865799156316934,-0.319767548617334,1.1147576634905656,2.623744842783019,-0.18944141320754673
552,0.979380485559894,2.084917115195587,0,0,-0.3037115177377741,1.235065257188756,-0.18634302439697928,0.8608505557542819,2.4143225635042844,0.04874143429977879
553,0.9599780718751675,1.9207203485406872,0,0,-0.23321691045945755,0.9711350657265851,-0.1820840473198909,0.7508671590537367,2.109337707593448,0.2509676702540957
554,0.9463187680115231,1.7557132152710837,0,0,-0.1828802256066799,0.8206486203345138,-0.2939159858805138,0.7654429943307095,1.4790139392125907,0.5596905874173257
555,0.937347300889091,1.5987025249661797,0,0,-0.19497981253619687,0.8059826059264569,-0.43101138686090834,1.0897710381021217,0.8241797597726038,0.659069863593135
556,0.9325615070861484,1.4601060279900615,0,0,-0.21051418658850374,0.9205421138249061,-0.38573820210916376,1.2497229972529622,0.5576417812845834,0.5189841776264893
557,0.9320756110811345,1.351115519746148,0,0,-0.21687432987635952,0.9718776543209835,-0.1078605068180341,1.1963766817466472,0.9790322068450336,0.37688440039338234
558,0.9365368168656615,1.2825155348198227,0,0,-0.24242437800205133,0.9047195362338105,0.05023834736193279,1.0514747787545773,1.044990164835164,0.25084297223443136
559,0.9469290638231473,1.263314751562687,0,0,-0.28670916562110776,0.8376522100103606,0.024601001404267075,0.6088448277810691,0.9304438172838584,0.2789849838256063
560,0.9643126817831134,1.2993776965265107,0,0,-0.3446737325134709,0.7740181932061214,-0.07146058541671717,-0.24302507398542925,1.0149471503414822,0.4616717930517588
561,0.9895602950029045,1.3922839806675504,0,0,-0.4220759972580958,0.7424157039442804,-0.10435544195673092,-0.6748595772327118,0.6572501278030356,0.5867379545217956
562,1.0231469344638033,1.538667212550348,0,0,-0.509601705034348,0.7878754344867144,-0.1344999233222469,-0.5523701160160143,-0.02146381120241612,0.2898162884564495
563,1.0650309905234967,1.7302607844402056,0,0,-0.4588939566549574,0.9622792341958173,-0.051320484946847406,-0.7154118031475172,-0.06763294718937392,-0.10103949626484303
564,1.1146276235098693,1.9547738856658716,0,0,-0.2576830063196082,1.1640007923636566,0.08128289217538831,-1.6860305019105195,-0.17092832223753565,-0.18314189172937684
565,1.1708404816131703,2.197527302385145,0,0,-0.1420568109869609,1.3293256313417818,0.10145165330703822,-2.8868409940107793,-0.4240455490357335,0.0007737951928130352
566,1.232096063835889,2.4435308743577555,0,0,-0.4058132055674337,1.3499670825454884,-0.008238305200361567,-3.2470833525525533,-1.6698170284085834,-0.34939967224026597
567,1.2963288767009762,2.679485410251873,0,0,-0.7136608117620781,1.2457440545842544,0.06281955315657643,-3.042228955227785,-2.5288805396347636,-0.7536942755769591
568,1.3608972812761424,2.8951637998052404,0,0,-0.7589338169845321,1.1098030961077914,0.18511675776884934,-2.570225057660004,-1.8913239912400188,-0.7866863378800014
569,1.4224614495501784,3.0838188387333205,0,0,-0.48684010912893727,1.0821077183285426,0.31034244440282055,-2.6635796192485355,-0.9235381511352602,-0.7096888543902001
570,1.4769073951345932,3.2416063506683463,0,0,-0.28628293919488773,1.0500600492098573,0.14675159338037883,-2.5094779969134526,-0.2876501310580928,-0.7726282005850323
571,1.5194292305716102,3.3663477583984247,0,0,-0.2919473610714487,1.083939572095762,0.00475409191460938,-2.395157937785144,-0.12383706466957634,-0.6847685558198308
572,1.5448628261389745,3.4561466200286337,0,0,-0.4077351166256877,1.3833152222563831,-0.03743608728620051,-1.061832783439477,-2.8032540564331385,-0.40311930417834185
573,1.5482916764240993,3.5083662528565482,0,0,-0.3845035396325123,1.6838229915143355,-0.5343637194891213,-1.5556995162832385,-2.503987737107434,-0.3582506478095616
574,1.5258424596118871,3.5193097477216346,0,0,-0.18692939088995927,1.745818601080365,-0.708813360637303,-2.2497838406484787,-2.170011240688019,-0.10570843161723781
575,1.4755006356554201,3.4847024037801377,0,0,0.053871747102638055,1.578259144595655,-0.49736318401127877,-1.9935366979332325,-2.749712656975344,0.2148797999284546
576,1.3977497565465782,3.400835141218955,0,0,0.15121770651182959,1.4387940695925554,-0.2292925171999576,-1.6127632400236145,-4.049039623848879,0.06944030712278794
577,1.2958810916379244,3.26603921365058,0,0,0.15356075611580292,1.4886437315216836,0.03539254280790792,-1.302400576050433,-3.5049227579031745,-0.31168426192475474
578,1.1759033341155025,3.0820734809271535,0,0,-0.0106090819236848,1.1615594354806562,-0.14618542807156706,-0.9413768192330343,-3.2207632417016088,-0.5339890174715561
579,1.046067196884299,2.855045917673637,0,0,-0.11629183345871733,0.9210035166036268,-0.19729976958764703,-0.4683262997698269,-3.07906502087575,-0.6040146314867647
580,0.9160850332218649,2.5956406795498665,0,0,-0.25792515596983323,0.7166755483896186,-0.17790542178896973,0.1476233537051029,-2.448254538111384,-0.7084065906368566
581,0.7961640504123566,2.318610514253332,0,0,-0.36390735337425933,0.5737076422262616,-0.22387797732286885,0.6813342534318209,-1.494328350137936,-0.8622618354964485
582,0.6959801723599202,2.0416480547095257,0,0,-0.44858956244880466,0.5081791390128851,-0.3834532641528462,1.2362255813559537,-0.7444376827118511,-0.9981693644067845
583,0.623702453852021,1.783826380067487,0,0,-0.32715865432006935,0.47095078879352065,-0.35252097034184804,1.8908506213202134,0.07589030320418237,-1.0982762165231652
584,0.5851514961563997,1.5637966318479186,0,0,-0.13452280473071582,0.47124088395022784,-0.3224850288337994,1.987740390474322,0.8611693813816145,-0.9775252459555225
585,0.5831582632412877,1.3978931897913385,0,0,0.013147579836211577,0.42692283878883264,-0.3307591023002782,0.8005954469637735,0.9417576704735234,-0.5103392239554235
586,0.6171880392366358,1.2982962415853172,0,0,0.11190155571913708,0.327780035988281,-0.3117070838806572,0.2608762210883865,-0.31067186424235316,-0.007584131564938153
587,0.6832978636467655,1.2714642967944323,0,0,0.1791223500858993,0.2700405027983657,-0.22893798078992933,0.07679382665199376,-1.1344835483200093,0.14522098646800138
588,0.7744871814053341,1.3171160688490346,0,0,0.19985015991439806,0.3087704665515009,-0.1313435196819964,-0.24312516714715926,-1.0547914075285747,0.19571773053201708
589,0.8814648156833071,1.4280294968907292,0,0,0.18624484630329546,0.47479480844884603,0.03588200704058425,-0.08640844452204477,-0.14998087663731385,0.029546205552543746
590,0.99378149436358,1.5908131265606658,0,0,0.1380088952669391,0.9446573804685284,0.5260006945588519,0.4178762383824577,0.5238564311547806,0.10169964557932745
591,1.10117225868557,1.7876166088562502,0,0,0.07048896703802664,1.6700868528564914,1.167500620351018,0.7372144446259956,2.24830697304755,0.20485795216109706
592,1.1948529196032933,1.998509363118137,0,0,-0.01806582243019003,1.8012807025181303,1.0887116742583358,0.6877594505194038,4.228117362975318,0.4281355967640152
593,1.2684837722389486,2.2040361550449274,0,0,0.001222764447475594,1.210105707793396,0.6617699922981893,0.06832336162241154,3.335804304335737,0.09669697840281898
594,1.318603453420082,2.3873935086141405,0,0,0.10279292543774605,0.730720001311748,0.2171970628064214,0.5646727489417468,0.4894108624395555,-0.4871512260217935
595,1.344522364317051,2.5358491663339526,0,0,0.1519017236155811,0.736523447166763,0.05212787860653784,2.051016110627677,0.21713533258075687,-0.8032305026869971
596,1.3478427821185357,2.641338042149587,0,0,0.06036750799665443,1.0224572727062884,-0.15673986282353025,1.897974633824076,1.595404798082221,-0.5610008046745033
597,1.3318354465859483,2.7003848538158546,0,0,-0.09665613751843276,1.4302339682840977,-0.43804158259680653,1.5036904054277627,3.1012662715698296,0.05644772116079717
598,1.300833899354723,2.7135273842657486,0,0,-0.3052424709412685,1.8054844335468143,-0.41805396953219787,1.5023812174432563,3.6277644888889147,0.33417338536439195
599,1.2596874771547242,2.6843592695774756,0,0,-0.4174480264670328,1.486036994829326,-0.23836190261295856,0.9043927128351054,1.3668256914283343,0.17155042189007053
600,1.2132423618838073,2.6183315637786353,0,0,-0.3272889297837865,0.8036461015223065,-0.45591962052396623,1.745900768901371,-0.5592482245204378,-0.15113523264677292
601,1.1658408038205121,2.5215570040711786,0,0,-0.2507640761356077,0.31492956102792996,-0.4841303212662476,1.7999565885187603,0.40522569146932064,-0.4194289533016035
602,1.1209014263691206,2.399923318287374,0,0,-0.2843959032471661,0.4557434375052332,-0.5294955560184035,1.2953746628778766,1.479419059653352,-0.4465443466263606
603,1.080685780191009,2.2587376432872084,0,0,-0.3838134507561176,0.9081297990260075,-0.48114425530571425,1.2176131055544437,2.194151832490581,-0.41592547399959306
604,1.0463177915487627,2.1029214507893093,0,0,-0.4669924836662403,1.3359378508391673,-0.2493681359839172,0.9382569909709663,2.3716167318918933,-0.11386730396596174
605,1.018027933953671,1.9375726460971832,0,0,-0.4229918154639408,1.1524131373629865,-0.052375311551262196,0.6434499741451796,2.2615637156568744,0.09939733866465993
606,0.9955138184358496,1.7686082464254593,0,0,-0.3279599743894438,0.8933710699163719,-0.21226399521145786,0.557974667402675,1.8493263870632888,0.3600236435496094
607,0.9782941503234754,1.6032218326510315,0,0,-0.22753614327019758,0.796714818452988,-0.38745027198257664,0.8387383051937853,1.0738567575054048,0.5395187522034238
608,0.9659754492312133,1.4499925777909937,0,0,-0.21229390578995566,0.8549947829906427,-0.43207443759914793,1.2013415229614999,0.4048769569871674,0.5408148590878584
609,0.9584050624094164,1.3185972444977294,0,0,-0.20071684201265533,0.9788917066805825,-0.20543550311225361,1.161254799310341,0.8825633551724265,0.3922091688275836
610,0.9557164059193484,1.2191531315606616,0,0,-0.21221791385184968,0.9853824798447262,0.002433907741892307,0.9567816998795249,1.1913944460240924,0.2841428658674736
611,0.9582836528930837,1.1612569765277252,0,0,-0.23553625396106423,0.9215056507763059,0.022183924101889255,0.7873131431174486,1.071405230432355,0.28438296457228035
612,0.9666097821483528,1.1528165852325623,0,0,-0.2679042171413743,0.8673767133014102,-0.0698254947705164,0.3195005868900955,0.8882695552206507,0.37775899716486244
613,0.9811817671991437,1.1988257123142667,0,0,-0.34393269257208475,0.8020550462451054,-0.12653754187952665,-0.2229022563324306,0.9220971577938843,0.5258776921405928
614,1.002333989852756,1.3002981823785345,0,0,-0.4616028496814146,0.7595323076670686,-0.17855965506300478,-0.5465540284351784,0.6322220644059388,0.4860931094970991
615,1.0301565250928446,1.4536174511705524,0,0,-0.44088793155805656,0.8425937144193859,-0.12652347001976966,-0.5144419407746982,0.09312532280235576,0.1977125786877238
616,1.0644654476428683,1.6505380194449903,0,0,-0.2703224059903611,1.0667747590906271,-0.013504564418009212,-0.7701352883886452,0.12309416516587746,-0.26636595970774496
617,1.104822969924367,1.8789737473045183,0,0,-0.14900641863020833,1.2298282155507327,0.07115168829065444,-1.5664098282828292,0.06853180200202012,-0.2768321525717171
618,1.1505679309636552,2.124521191864176,0,0,-0.21055417341524257,1.2784714358449023,0.030401123822217904,-2.679407351225318,-0.09301029115260928,-0.10428548877864433
619,1.2008058410704796,2.372430772068843,0,0,-0.45209890254497687,1.2296655737198827,-0.04501168653526917,-3.124110490498281,-1.3173845701835538,-0.2800667246257724
620,1.254321160943745,2.609547123448531,0,0,-0.6781586394857476,1.1508737702265772,-0.014143651399472296,-3.098754133162938,-2.3978224576160425,-0.5365228270496956
621,1.309410538883775,2.825699799971967,0,0,-0.6901256344836473,1.080179128216799,0.10518910168100537,-2.6355709726735013,-1.7752238166797791,-0.4985347978548845
622,1.3636818151277676,3.0141847262253423,0,0,-0.4753856200482863,1.1102222161019497,0.23869953423638066,-2.827990153036908,-0.8261663708614799,-0.4152611698828923
623,1.4139030325356143,3.171280980138738,0,0,-0.2871611688718685,1.1171831577171227,0.1524451521590401,-2.811611529122969,-0.029403407661907202,-0.5478823371767898
624,1.4560027219584946,3.295066859580127,0,0,-0.24529937499462492,1.084893177430779,0.04406605697348312,-2.579772872896071,0.7361948613353226,-0.5901334858553742
625,1.4853051660885719,3.384008710857457,0,0,-0.26051194452377036,1.298854534398116,0.06030139396561007,-1.6368670433597092,-1.5792073366891493,-0.4710207066585288
626,1.4970282075110386,3.4358379836257877,0,0,-0.20398180152878964,1.5969100184135683,-0.3699053114612428,-1.53261044830709,-2.2472920717519673,-0.4895899816515746
627,1.4869888319644844,3.4471145083486303,0,0,-0.034179838309195944,1.6926387648134655,-0.5881465450986555,-1.8501985014209594,-2.517675069982242,-0.4070874440319702
628,1.4523848645639688,3.413641154507379,0,0,0.12340183645296023,1.530378864062116,-0.36430568220203347,-1.7543037652027689,-2.91696044551929,-0.06542240027893044
629,1.39248573970614,3.331616691687798,0,0,0.10940125996420354,1.4199015645679103,-0.17930294520135417,-1.5413755782739798,-3.789921364212478,-0.01795969753108376
630,1.309085121188374,3.1991781912359207,0,0,0.10437763294523639,1.4675484754844865,-0.012256132365806624,-1.299498825583237,-3.7599234793198937,-0.23961160174377027
631,1.2066246198252168,3.0178698842394254,0,0,-0.10079063856872153,1.2874626857472735,-0.09548918682787888,-1.0613283486673266,-3.2990523408687156,-0.4303738668410654
632,1.09196138555107,2.7936166212591687,0,0,-0.24034445484228084,1.0315985572688524,-0.1517383356552996,-0.759011872005559,-2.9040150859530343,-0.4664010893593313
633,0.9738067093900588,2.5369503820794725,0,0,-0.34518179704290824,0.8481391512481103,-0.17639864511286998,-0.22248012351804092,-2.40161361516843,-0.487415079581423
634,0.86190456899942,2.2624602205921676,0,0,-0.3763216791943354,0.7122226475937165,-0.19525372888312867,0.30799934850448457,-1.5902747807207536,-0.7029066809008927
635,0.7660456263853416,1.9876203295706256,0,0,-0.37762046684219164,0.6268639064779136,-0.30662348831499,0.8063381107454362,-0.7228957973037342,-0.8972101402894509
636,0.6950217926510156,1.731236757606854,0,0,-0.29798870947023465,0.5925377498889556,-0.39099142628063394,1.396903048225973,0.061478289015675244,-1.1299069991873187
637,0.6556250962558365,1.5117288814689847,0,0,-0.13143213100113554,0.529265493017523,-0.36749210101329444,1.9480026389776688,0.8990631355032476,-1.2593089461661338
638,0.6517931936838179,1.3453742278000371,0,0,0.013921212483694836,0.4615031499067158,-0.34602832069686285,1.512429450029993,1.0127390554110733,-0.7047833649409783
639,0.6840078762056636,1.2445876703247807,0,0,0.11083942764011606,0.3530279623193935,-0.3321534705829992,0.7065840144137157,0.15897662428183257,-0.05712325939998297
640,0.7490559066040162,1.2163492871290387,0,0,0.15704728681854974,0.28771349541860336,-0.2724331483690223,0.38820486999994164,-0.3793473200000498,0.1554652000000037
641,0.8402480677793877,1.2610102514674286,0,0,0.17902349523081146,0.30910219326146526,-0.11581919226400537,-0.16829190925839896,-0.8865342897129416,0.23981721306220852
642,0.9481458598890743,1.371782449361847,0,0,0.1741856830088532,0.48142257903419866,0.08886561735875434,-0.17788021023115613,-0.9011094890070357,0.2447468175276384
643,1.0617558266512643,1.5351732604169037,0,0,0.18982215479457293,0.9638055943283032,0.591607069542156,0.2599327985288622,-0.22814852149712217,0.06456533229861311
644,1.1700259896857355,1.7324688256432978,0,0,0.08326289881378246,1.6388218678675786,1.1494754576449306,0.8325344717086599,0.3644384372968505,0.20647246
645,1.2633553547824377,1.942140538426379,0,0,-0.1233658890801777,1.8855561443544673,1.1485699482321303,0.809615215549083,2.6656099907850375,0.23496599011845376
646,1.3347740777595698,2.14278802491531,0,0,-0.10833902084909465,1.6130010546630627,0.8938456013930077,0.7817584715795749,4.395249251425172,0.4242109754433893
647,1.380527752278064,2.316017199920501,0,0,0.037332444720710185,1.0741378846628074,0.4572062627583888,0.10501499241722302,3.3972717059009647,0.10541627168739899
648,1.3999959241549402,2.448623080361172,0,0,0.18526723274090334,0.71442556142968,0.12918635498166572,0.49179917766508374,1.1295967473082766,-0.3855733731906762
649,1.3951001807755523,2.53367491944761,0,0,0.2156406431592573,0.7616919232258363,-0.015915506191205298,1.8228932972995195,0.7963018313829895,-0.8615110474304492
650,1.3694925941114893,2.5704605936753784,0,0,0.08715820642114874,0.9687500063732359,-0.25341797147854656,1.6326124805449032,1.9852350436684272,-0.8818907325019255
651,1.3277996542353439,2.5635107020999484,0,0,-0.08585838674112657,1.432461060303005,-0.5523020168994004,1.272951091048084,3.1370015447394652,-0.25543474856166704
652,1.2750627726369772,2.5209963626372076,0,0,-0.20777552860473245,1.7872727979426704,-0.25190938220141973,0.8827806856901077,2.743908088196216,0.19483181598061464
653,1.2163596770855807,2.452782269245041,0,0,-0.31732571766241613,1.5493394616496659,-0.14091560781124357,0.8065294595952875,1.1474524135443551,-0.06185846176057804
654,1.1565052332498245,2.368445015013159,0,0,-0.343253401967311,0.8580384702036411,-0.47406608933907723,1.5484812731722086,0.683074655921444,-0.2454866273413904
655,1.0997502685454512,2.2756250918335583,0,0,-0.32792634691182515,0.3998738888290866,-0.5533147170018025,1.3627594793952704,0.8041458758510222,-0.20371420254505423
656,1.049481915253425,2.179062283628589,0,0,-0.3674593413063297,0.3535800697753594,-0.5272874134927843,1.24581648388944,1.2416207791312708,-0.21991305787956553
657,1.0079989882698306,2.080510259371832,0,0,-0.4423030834074243,0.6866066643215899,-0.47619595424499805,1.1525976419278492,1.8530200023654844,-0.16972552785925069
658,0.9764373264496653,1.9794879017595812,0,0,-0.5787297119688923,1.12864934139893,-0.0647247435957974,0.9868404486274096,2.2055223455739035,-0.07153977549234079
659,0.9548628870699153,1.8746042423557945,0,0,-0.42962664605084117,0.9999548897626506,-0.029056190881603685,0.7563559200791986,2.205886809465342,0.006084338737034034
660,0.942488433538852,1.7650698926177601,0,0,-0.2431922855893051,0.8478952075922797,-0.19338112439732735,0.6929978903436024,1.9504046734004703,0.1846185831437627
661,0.9379478051221057,1.652006991034619,0,0,-0.18747620737026996,0.7687454380155326,-0.2646008573789536,0.8800065160367636,1.6159239258489644,0.3427361768837452
662,0.9395807274207011,1.5392669108857036,0,0,-0.23391792871020606,0.785392632887598,-0.2316193146625278,1.0529155193427067,1.1327874068303185,0.4877354528786415
663,0.9457081260535634,1.4336054089919739,0,0,-0.2722371877391073,0.9195023155796453,-0.1497357324401194,1.0183360142970619,1.0207655649523435,0.5759706028077822
664,0.9548852374674835,1.3441981227769524,0,0,-0.28882373966748415,1.0182938166793927,-0.10904967844202537,0.9631131885474213,1.0323866443377356,0.5690698886754716
665,0.966108132056145,1.2815823614032673,0,0,-0.2832394555664263,1.0461270340714632,-0.12474562917563232,0.8452124590566332,0.9768163848623809,0.4008475435480532
666,0.9789384436803378,1.2561867547199745,0,0,-0.2810567506843766,1.0109147623721606,-0.1558566123705015,0.5708903963704719,1.0483670128718807,0.31280061873264486
667,0.9935180781530432,1.2766695861421036,0,0,-0.3008614783852678,0.9266989018185986,-0.08971714151423832,-0.05640509625496316,1.1694717047393384,0.3987922843917918
668,1.0104715684915766,1.3483328263249095,0,0,-0.3402518820670925,0.8461366447489704,-0.05270569733401055,-0.5098530413071154,0.9008640917741153,0.5045066770624599
669,1.0307253197136717,1.4719041898866816,0,0,-0.40222016233133345,0.8147179936002326,-0.07287843057022114,-0.5348253746487365,0.228401736232481,0.3639155481232554
670,1.055292786894491,1.6429680937261055,0,0,-0.4270142275731189,0.8723642209721084,-0.06821615891012947,-0.6864447977942822,0.007343183364947556,0.14580994177259662
671,1.085072009823983,1.8522532743992557,0,0,-0.35606233123160397,1.0311489821224318,-0.013620073118420962,-1.2011400674669905,-0.022615213968787407,0.06446461828931557
672,1.1206790443935268,2.0868247197990297,0,0,-0.2525734300220326,1.1912246966608508,-0.003974198187695702,-2.1937081666000995,-0.22435020884539095,0.21432950163803755
673,1.1623111756577338,2.331988596662357,0,0,-0.3419758822120264,1.2507635205975522,-0.04684538047548428,-2.961572475348183,-1.0666885036211555,0.15576255013927964
674,1.2096146951438422,2.5734724591839186,0,0,-0.5313792586606774,1.2194415803341543,0.01110475034909534,-3.150467169956136,-2.4258403756579185,-0.3208763907675541
675,1.261535437269331,2.7993043338539407,0,0,-0.593048945948221,1.1604317650022418,0.12916388124249778,-2.8272732592995578,-2.759038106311826,-0.5397564895211716
676,1.3161567128140503,3.0008758410190723,0,0,-0.5027754617758411,1.1488730726412466,0.23783152364653945,-2.533253973551933,-1.9646411645984756,-0.5247053632691931
677,1.3705676890835827,3.1729415191641004,0,0,-0.3696932667662712,1.1247738603265864,0.21303188551697488,-2.7451226395762562,-0.529352947813291,-0.4692047151549061
678,1.420837926650544,3.312679474090821,0,0,-0.3710543529274683,1.047175981809797,0.04932104393245115,-2.660648266101691,0.7127592995773347,-0.47466532165901937
679,1.4621825826888135,3.418262107045821,0,0,-0.4511145550517981,1.093377430488637,-0.005936483832836117,-1.8670426756308263,-0.5045358453423489,-0.38751735130021964
680,1.4893749859435492,3.487533194130226,0,0,-0.41932035621408154,1.3565246991626472,-0.19131146794203638,-1.0915648781392537,-2.1497888263836473,-0.3688323520928394
681,1.4973985967462693,3.5173131786915275,0,0,-0.2762976334876236,1.5727818930091118,-0.5291275431843033,-1.8016003858959122,-2.8039640944775672,-0.21651817251489547
682,1.4822478059648263,3.5035938540507554,0,0,-0.07832334450123174,1.6444299168647905,-0.6205861017827092,-1.784235552418854,-3.461866677085461,0.13827579174998808
683,1.441721450465085,3.4425393705168976,0,0,0.10108446798295743,1.5767292389747096,-0.4244658712545857,-1.556208931636507,-3.8413573226884097,0.18565930392324423
684,1.3760356643108553,3.331923116277393,0,0,0.19920147813647412,1.4876385151541154,-0.1465707578189015,-1.2275674634708877,-3.821155689805833,-0.09866659883615299
685,1.2881202522063584,3.172510203905815,0,0,0.13327769576056633,1.3866545407775668,-0.009847526529320109,-0.9879792796359332,-3.492538610302067,-0.5040297329625856
686,1.1835347198769475,2.9689636266072608,0,0,-0.06081297173036609,1.178624201359703,-0.0008997281894164102,-0.7527288310778818,-3.0260242797993584,-0.5674852090086542
687,1.0700168694214849,2.730045505684882,0,0,-0.28097107526533593,0.9458961212268627,0.023291273523574917,-0.37741043417779596,-2.609532318961431,-0.6580612260031534
688,0.9567371055138137,2.46811031482195,0,0,-0.4957405464739576,0.727723427193756,-0.11139988498767468,0.09897968925620255,-1.9226506821608462,-0.8247999759927451
689,0.8533658093251328,2.198066872483122,0,0,-0.5710394208578277,0.5424695025874057,-0.3102252954052658,0.5428575068850394,-0.9488880526607935,-1.0178986559887417
690,0.7690690969003199,1.9360727799335788,0,0,-0.43849160703496637,0.5088703821612413,-0.3899255277154063,1.013576790437545,-0.1272077632547879,-1.1529690370223726
691,0.7115380702960992,1.698202052943367,0,0,-0.21017788644416793,0.5379860595493346,-0.3996405570633276,1.582197450138616,0.6439737111485172,-1.2864822
692,0.6861411249641091,1.499216885769578,0,0,-0.009620191018214014,0.5556104505653505,-0.38607664260918595,1.883302787444683,1.158495116498989,-1.165811997907455
693,0.6952774323392252,1.3514514947406124,0,0,0.12951112975902332,0.5449124851072549,-0.37321423617305716,1.0048288949043522,0.9243431308766229,-0.6686566907419074
694,0.7380035560072755,1.263773160065155,0,0,0.20290184237146483,0.4959646537974859,-0.34166778297869144,0.14678047067749816,-0.26037993315308183,-0.1250094496883223
695,0.8099994356709176,1.2406541863042777,0,0,0.2444962470475909,0.44461582340764044,-0.24248491731112293,-0.007070406330551547,-1.187490166318579,0.13118450253264807
696,0.9039267289307404,1.2814949829587612,0,0,0.28421049508926843,0.4426338701525953,-0.09684151528964106,-0.14960125855081677,-1.5983818949288393,0.32920395464422164
697,1.0102004169235936,1.3803818486680253,0,0,0.2600623246810835,0.5618533048360299,0.10858547594327522,-0.03257832505658196,-0.8471353106516133,0.23368413886851946
698,1.1181314270758491,1.5264228074592958,0,0,0.19261522841835302,0.9551137227233298,0.525240064955412,0.31909965662162176,-0.12335823897694728,0.07495785292965018
699,1.2173023938241372,1.704723088837853,0,0,0.041894891770385294,1.5735094649032335,1.0686031641857767,0.8277605093904136,0.8403827805975861,-0.06856450642714257
700,1.2989368789365814,1.8979471944632054,0,0,-0.09836412487908865,1.85324114958355,1.1927972503459616,0.7043782184945754,3.1355455037737436,-0.05292616557907587
701,1.356971691273307,2.0882534236437267,0,0,-0.161217262239035,1.4728497280427317,1.0155719606707874,0.44823205612457606,3.8875439625347568,0.07814622541182767
702,1.3885988216350682,2.2592451593058906,0,0,-0.16683358096614226,0.9516906494772635,0.5492546834473899,0.029037654497006276,1.0000808426442116,-0.3252074006262296
703,1.3942077524154624,2.397584742826182,0,0,-0.0753234723717579,0.6923335298446784,0.2027171348482085,1.6314735625050674,-0.37590103964270377,-0.6598363187276806
704,1.3768502224569552,2.494073461243014,0,0,-0.06067350953216297,0.8551868103698499,0.030424968960904887,2.150417032697325,1.1726003524142512,-0.5677024027174012
705,1.3414582207187769,2.544165216485861,0,0,-0.1903465188862606,1.4118314008353157,-0.33086756519607236,1.8444884522663372,2.772958689931859,-0.0449032512554889
706,1.2940207830605102,2.5479235254520227,0,0,-0.2959142363661996,1.811174268625281,-0.37545572496751606,1.460006841824782,3.6422536663908,0.40345245503633803
707,1.2408150775160536,2.5094066552004994,0,0,-0.23178804518634116,1.578421623806594,-0.09482069691777499,1.003678455143334,2.0879808386743997,0.394212293372866
708,1.1876970383784922,2.4355195601820494,0,0,-0.062306652007008564,0.9014470031633447,-0.4349703807830733,1.0935507834838272,0.5614985284738971,-0.023980115870960567
709,1.13945578832263,2.3345383147726992,0,0,-0.0022055243939795486,0.398008917974033,-0.5649322256108706,1.7862889958530606,0.30145730803318765,-0.47124308696683553
710,1.0993025379566628,2.2146696609581467,0,0,-0.06093228839033592,0.22603558848840674,-0.5352116267273231,1.237644753821407,0.9234425359412477,-0.7454481580852687
711,1.0686150420800218,2.083015253317367,0,0,-0.25775758654037434,0.5654009399401206,-0.5288358726249044,1.1545353,1.3896530168674954,-0.5906030122389482
712,1.0470279729688847,1.9451538398288537,0,0,-0.4752127815452104,1.1815950635444201,-0.432799712318764,1.0436318605828987,1.773172722653276,-0.2945703179979647
713,1.0328543019600078,1.8053366123144727,0,0,-0.6267037901754704,1.3609707014246433,-0.22554709246871724,0.6331848227353994,1.8288037845450933,0.16154510317640033
714,1.0237093035268514,1.667116447151609,0,0,-0.5823021799976104,1.0024381976157934,-0.03230524954445301,0.4492413362001968,1.9888846132679103,0.4035565367124602
715,1.0171579617078943,1.5341463376122375,0,0,-0.4012235553904717,0.8269525813000124,-0.24045449393016452,0.6308678923401677,1.543990860291693,0.5412663354916173
716,1.0112394573379255,1.4108843748519906,0,0,-0.24607915095749705,0.8591363008208184,-0.3715159481710183,1.0629325713603934,0.767172710978488,0.5775615789558423
717,1.0047999724488454,1.3030073468886147,0,0,-0.13404868765387648,0.9708510991910626,-0.3155221792695615,1.0713441846199925,0.7728943571314474,0.40682931673250255
718,0.9976309952807842,1.2174260338282883,0,0,-0.0402705791083542,1.0338877620164038,-0.0549192092161731,0.8489750154304565,1.0540070094459861,0.17439319957553567
719,0.9904403444146751,1.161879448222198,0,0,-0.12424374239947926,0.9796712996163929,0.0004575475864773371,0.8483311836945493,1.1725762456957631,0.08458968285193418
720,0.9846894837938348,1.1441511577615449,0,0,-0.26908417664470774,0.9491178924069406,-0.12044496407261215,0.789902560836999,1.0279577356828011,0.21918827920705997
721,0.9823327469650314,1.1710101433561966,0,0,-0.3851955890204572,0.9089909468280878,-0.18671216224806753,0.4647863381039762,0.7452594323640703,0.48751227090817906
722,0.9854988472479912,1.2470433168769575,0,0,-0.4892951790996419,0.7997673576936793,-0.20415321257225594,-0.16527329998308277,0.7550770705795653,0.7126609518621817
723,0.9961603717757684,1.3736064230042826,0,0,-0.5000450265625656,0.700402327760603,-0.10335362728623648,-0.5723235216030448,0.5452107309923742,0.6617236733527558
724,1.0158388348777727,1.5481456388186956,0,0,-0.3465995350191626,0.8108113928637927,-0.05093621740371792,-0.7469679700315459,0.06114517675670269,0.3864513959956619
725,1.0453861447232042,1.7641074970312045,0,0,-0.15744868150535615,1.00466070345281,0.013205925394450849,-0.9348298200313907,-0.1929678832718744,0.06129525943506578
726,1.0848633726872772,2.011547029432417,0,0,-0.03365768454632382,1.1720141683345018,0.08002221497413183,-1.7392451461206284,-0.24611839539579689,-0.08117674611962328
727,1.1335076009955258,2.2783660976030076,0,0,-0.12480410835601163,1.262086618423342,0.05334308717007786,-2.8179594774717582,-0.582453589568056,-0.027080017450961433
728,1.1897514443237174,2.5519007484882987,0,0,-0.3833577059434462,1.2388253918928414,0.007865782886297759,-3.222880014761356,-1.8041943985159068,-0.24481067792822614
729,1.2512538191462796,2.820411440981038,0,0,-0.6342669020702887,1.1521048704618269,0.033064657293218544,-3.1940542560892844,-2.762432723898743,-0.5510681995375817
730,1.3149199958628603,3.0740161187491473,0,0,-0.7210167789489048,1.111695120380971,0.12176797824537917,-2.604333416265176,-2.2961261285884884,-0.5956970011925142
731,1.3769247662825106,3.304793872240623,0,0,-0.6052405021259137,1.1095603581580804,0.22996271752364036,-2.7524923916782122,-0.9760529393897777,-0.47691205969487377
732,1.4327882050808654,3.506119060823231,0,0,-0.4448524694609357,1.0844359417570535,0.17810396906563433,-2.7200644215391043,0.08949241349747826,-0.5894473462596863
