id,ASVM,GSVM,walking_nonwalking,normal_abnormal,ax,ay,az,gx,gy,gz
1,0.9754,2.9214,0,0,0.0841827392578125,1.0364837646484375,0.165283203125,-2.2671046257019043,2.2978861331939697,1.0202831029891968
2,0.967,2.4753,0,0,0.0977630615234375,0.9778289794921875,0.1989898681640625,-2.035569906234741,1.5749902725219727,1.341915488243103
3,0.9652,2.0841,0,0,0.033935546875,0.8659515380859375,0.2215728759765625,-1.7350643873214722,0.914911150932312,1.226194143295288
4,0.9672,1.75,0,0,-0.002838134765625,0.80511474609375,0.161834716796875,-1.4196680784225464,0.1801503300666809,0.7497541308403015
5,0.9707,1.4742,0,0,-0.007415771484375,0.7917327880859375,-0.072601318359375,-0.9249991774559021,-0.49443477392196655,0.3181356191635132
6,0.9738,1.256,0,0,-0.1642303466796875,0.794830322265625,-0.782440185546875,0.41033533215522766,-0.23856569826602936,-0.2640044689178467
7,0.9751,1.0925,0,0,0.10479736328125,0.980224609375,0.0257720947265625,-0.2662958800792694,-0.31964272260665894,-0.06427139788866043
8,0.974,0.9785,0,0,0.1568603515625,1.089935302734375,0.1861114501953125,-1.0595985651016235,-0.4053725302219391,0.19426001608371735
9,0.971,0.9064,0,0,0.1537017822265625,0.9989471435546875,0.10235595703125,-1.2229763269424438,-0.3102950155735016,0.2203584760427475
10,0.9668,0.8667,0,0,0.1615142822265625,0.9365386962890625,0.010040283203125,-1.0363496541976929,-0.12478454411029816,0.11348821222782135
11,0.9631,0.8496,0,0,0.1703948974609375,0.9236907958984375,-0.181884765625,-0.8481888175010681,0.3072457015514374,0.0772513747215271
12,0.9618,0.8453,0,0,0.0439910888671875,0.94354248046875,-0.184234619140625,-0.6785222887992859,0.456857293844223,0.18595841526985168
13,0.9648,0.8456,0,0,-0.0526123046875,0.975189208984375,-0.026397705078125,-0.674776017665863,0.08373138308525085,0.20255976915359497
14,0.9738,0.8444,0,0,-0.029052734375,0.94677734375,0.0670013427734375,-0.6921776533126831,-0.20270571112632751,0.1602405309677124
15,0.9898,0.8386,0,0,-0.0080413818359375,0.86065673828125,0.095703125,-0.8007984161376953,-0.347139835357666,0.13129623234272003
16,1.0131,0.8286,0,0,-0.037078857421875,0.850372314453125,0.0525054931640625,-0.8624708652496338,-0.2429354190826416,0.013684120960533619
17,1.0431,0.8182,0,0,-0.0386505126953125,0.9842071533203125,-0.0142059326171875,-0.8592633008956909,0.10952223092317581,-0.05844999477267265
18,1.0785,0.8149,0,0,-0.0016021728515625,1.15234375,-0.1054534912109375,-0.8550190329551697,0.733950674533844,-0.06187188997864723
19,1.1175,0.8284,0,0,0.0521392822265625,1.236175537109375,-0.15020751953125,-0.7341607809066772,1.3403348922729492,-0.11166287958621979
20,1.1578,0.8703,0,0,0.1218414306640625,1.1855316162109375,-0.1021575927734375,-0.4404202699661255,1.27393639087677,-0.24915336072444916
21,1.1973,0.9514,0,0,0.2374420166015625,1.1559906005859375,-0.09088134765625,-0.09923071414232254,0.80747389793396,-0.37802186608314514
22,1.2338,1.0807,0,0,0.3050079345703125,1.2128753662109375,-0.1805877685546875,0.03522137179970741,0.32802554965019226,-0.24937281012535095
23,1.2659,1.2625,0,0,0.2944793701171875,1.3836517333984375,-0.220001220703125,0.3635430634021759,0.1951543092727661,0.08390075713396072
24,1.2919,1.4953,0,0,0.24755859375,1.4301300048828125,-0.17352294921875,0.8188128471374512,0.14980892837047577,0.3056134581565857
25,1.3108,1.7711,0,0,0.1298980712890625,1.22900390625,0.0126800537109375,1.188438057899475,-0.42866745591163635,0.3443683087825775
26,1.3215,2.0756,0,0,-0.01800537109375,1.0818634033203125,0.01593017578125,1.5905097723007202,-1.350348949432373,0.13056440651416779
27,1.3228,2.3899,0,0,-0.120849609375,0.988983154296875,-0.1197509765625,2.419844627380371,-1.692350149154663,-0.12151125073432922
28,1.3136,2.6921,0,0,0.0798797607421875,1.1132049560546875,0.1672515869140625,2.6141061782836914,-1.3546805381774902,0.2606009542942047
29,1.2928,2.9607,0,0,0.023529052734375,1.2688446044921875,0.31011962890625,2.252781867980957,-0.0871191918849945,0.7291237115859985
30,1.2596,3.1768,0,0,-0.1868133544921875,1.504486083984375,0.1790771484375,2.0775351524353027,2.06294584274292,0.5723375678062439
31,1.2139,3.3263,0,0,-0.440216064453125,1.62164306640625,-0.1931915283203125,2.7970988750457764,3.9417338371276855,-0.1432010978460312
32,1.1566,3.4017,0,0,-0.3116302490234375,1.2495574951171875,-0.0688629150390625,3.267528533935547,3.355522871017456,-0.46115243434906006
33,1.0899,3.4028,0,0,-0.1906890869140625,0.9500274658203125,-0.0316009521484375,3.2271196842193604,1.6476953029632568,-0.30724063515663147
34,1.0167,3.3356,0,0,-0.2314910888671875,0.7369537353515625,0.183624267578125,2.483297824859619,-0.5803725719451904,-0.44393908977508545
35,0.941,3.2116,0,0,-0.0775604248046875,0.67486572265625,0.07122802734375,1.587432861328125,-2.0612952709198,-0.4546295702457428
36,0.867,3.045,0,0,0.1846923828125,0.748199462890625,-0.29638671875,1.6099565029144287,-1.7443749904632568,0.1037016287446022
37,0.7994,2.8511,0,0,0.1380615234375,0.8495941162109375,-0.1633758544921875,1.6700984239578247,-1.2624592781066895,0.5040807127952576
38,0.7424,2.6441,0,0,0.06170654296875,0.9022369384765625,-0.0634002685546875,1.3612641096115112,-2.0350472927093506,0.3849239945411682
39,0.7004,2.4366,0,0,-0.0049591064453125,0.8425445556640625,-0.0285186767578125,1.1331279277801514,-2.6656992435455322,0.15967221558094025
40,0.6769,2.2386,0,0,-0.2314605712890625,0.670257568359375,0.01947021484375,1.0314127206802368,-2.55002760887146,-0.251049280166626
41,0.6746,2.0577,0,0,-0.4162139892578125,0.5089263916015625,0.0114593505859375,1.0488367080688477,-2.0914409160614014,-0.785811185836792
42,0.6953,1.8993,0,0,-0.4657745361328125,0.4426422119140625,-0.1241455078125,1.183457612991333,-1.1896241903305054,-1.1497873067855835
43,0.7391,1.7666,0,0,-0.4038848876953125,0.43310546875,-0.3288421630859375,1.2548562288284302,-0.4081195890903473,-1.0848485231399536
44,0.8045,1.6608,0,0,-0.3541717529296875,0.4558563232421875,-0.4930267333984375,0.7110549211502075,-0.17302930355072021,-0.617388129234314
45,0.888,1.5814,0,0,-0.345947265625,0.4547119140625,-0.609954833984375,-0.46730515360832214,0.02203499525785446,-0.20051419734954834
46,0.9847,1.5265,0,0,-0.307220458984375,0.5058135986328125,-0.62579345703125,-1.582885980606079,0.6034530997276306,-0.101007841527462
47,1.0876,1.4936,0,0,0.0445709228515625,0.677093505859375,-0.57794189453125,-2.0478076934814453,0.9963766932487488,0.24586649239063263
48,1.189,1.4804,0,0,0.350677490234375,0.987640380859375,-0.50726318359375,-1.9637808799743652,0.3258500099182129,1.0507832765579224
49,1.2811,1.485,0,0,0.288909912109375,1.237091064453125,-0.4341278076171875,-1.640505313873291,-0.25932398438453674,1.4437323808670044
50,1.3562,1.5068,0,0,0.180145263671875,1.3115692138671875,-0.583831787109375,-0.9852686524391174,-0.27397242188453674,1.0779048204421997
51,1.4084,1.5452,0,0,-0.063995361328125,1.1985015869140625,-0.8962249755859375,-0.21073700487613678,-0.5697004795074463,0.029641781002283096
52,1.4336,1.6001,0,0,-0.3368072509765625,1.12640380859375,-0.9951934814453125,0.133351668715477,-0.7447521686553955,-0.5623317956924438
53,1.4305,1.6699,0,0,-0.5435943603515625,1.2312469482421875,-0.6591339111328125,-0.5997840762138367,-1.1883671283721924,-0.8671119213104248
54,1.4009,1.7519,0,0,-0.643402099609375,1.4071502685546875,-0.3163909912109375,-1.4802312850952148,-1.2313053607940674,-1.120099425315857
55,1.3488,1.8413,0,0,-0.697509765625,1.433929443359375,0.048065185546875,-1.986276388168335,0.27166905999183655,-1.259055256843567
56,1.2808,1.9313,0,0,-0.6573944091796875,1.2528839111328125,0.341522216796875,-1.9565826654434204,1.1799601316452026,-0.8632586002349854
57,1.2045,2.0137,0,0,-0.5218505859375,0.9816436767578125,0.023651123046875,-0.9536822438240051,-0.37509211897850037,-0.06817665696144104
58,1.128,2.0789,0,0,-0.1740875244140625,0.7661590576171875,0.0493316650390625,-0.22816765308380127,-1.035742163658142,0.3580412268638611
59,1.0582,2.1167,0,0,0.0579681396484375,0.72869873046875,0.101654052734375,-0.443148136138916,0.5617709159851074,0.6254545450210571
60,1.0004,2.1182,0,0,0.070281982421875,0.767303466796875,0.176025390625,-1.215800404548645,2.077176094055176,0.6166917085647583
61,0.9576,2.0769,0,0,0.0499725341796875,0.8172149658203125,0.23089599609375,-1.9119778871536255,2.620077133178711,0.5935989022254944
62,0.9302,1.9906,0,0,0.0958709716796875,0.8771514892578125,0.1898040771484375,-2.188236951828003,2.5549402236938477,0.7144624590873718
63,0.9163,1.8621,0,0,0.1515655517578125,0.955413818359375,0.1616973876953125,-2.014814615249634,1.749280571937561,0.9785622954368591
64,0.9127,1.7,0,0,0.2473297119140625,1.02587890625,-0.3259735107421875,-0.957282543182373,0.782206654548645,1.1349340677261353
65,0.9152,1.5172,0,0,-0.0365753173828125,0.9823455810546875,-0.299468994140625,0.1607593148946762,-0.06848984211683273,0.3848416805267334
66,0.9197,1.329,0,0,-0.108245849609375,0.980560302734375,-0.1900634765625,-0.06113392859697342,-0.5861518979072571,-0.2645088732242584
67,0.9228,1.151,0,0,-0.0242462158203125,1.0011138916015625,-0.08282470703125,-0.6552202105522156,-0.6574058532714844,-0.0524568147957325
68,0.9224,0.9966,0,0,-0.0324859619140625,1.010772705078125,0.0336456298828125,-0.8983135223388672,-0.3117152750492096,0.19042932987213135
69,0.9178,0.8758,0,0,0.0316925048828125,0.9623870849609375,0.1619415283203125,-0.8021395802497864,0.21873527765274048,0.291694700717926
70,0.9099,0.7937,0,0,0.0437774658203125,0.88690185546875,0.1679229736328125,-0.5504090785980225,0.3701953589916229,0.22799402475357056
71,0.9005,0.7503,0,0,0.02630615234375,0.7895355224609375,0.1182403564453125,-0.39735162258148193,0.28495317697525024,0.14671966433525085
72,0.8925,0.7414,0,0,0.008636474609375,0.7872161865234375,0.08892822265625,-0.48135170340538025,0.01363138947635889,0.18292374908924103
73,0.8887,0.7591,0,0,-0.087860107421875,0.8363494873046875,-0.0772552490234375,-0.7336667776107788,-0.26563194394111633,0.24836507439613342
74,0.8922,0.7931,0,0,-0.1584014892578125,0.911102294921875,-0.1598052978515625,-0.9587856531143188,-0.30965080857276917,0.21320894360542297
75,0.9051,0.8331,0,0,-0.07244873046875,0.9358978271484375,-0.06585693359375,-1.0133663415908813,-0.02990943007171154,0.22176355123519897
76,0.9289,0.8696,0,0,-0.0311279296875,0.9490966796875,0.0570831298828125,-0.976108968257904,0.07128962874412537,0.2550530731678009
77,0.9637,0.896,0,0,-0.0694122314453125,0.9044189453125,0.0366668701171875,-0.9313287138938904,0.07458342611789703,0.12059778720140457
78,1.0085,0.9095,0,0,-0.0536651611328125,0.856048583984375,-0.121429443359375,-0.884434700012207,0.33617720007896423,-0.018063955008983612
79,1.061,0.9113,0,0,0.0289306640625,0.9289398193359375,-0.0777435302734375,-0.7382684350013733,0.7294504642486572,-0.030723556876182556
80,1.118,0.907,0,0,0.0847930908203125,1.076690673828125,0.023651123046875,-0.6921060085296631,0.8483179807662964,-0.006164951715618372
81,1.1757,0.9057,0,0,0.1430816650390625,1.22845458984375,0.05023193359375,-0.777947723865509,0.761897087097168,0.028070250526070595
82,1.2301,0.919,0,0,0.218841552734375,1.2834320068359375,-0.1331024169921875,-0.8238233327865601,1.0037600994110107,-0.13583053648471832
83,1.2776,0.959,0,0,0.3890838623046875,1.269134521484375,-0.2101287841796875,-0.4051320552825928,1.171129584312439,-0.2581194341182709
84,1.3153,1.037,0,0,0.4993896484375,1.3106231689453125,-0.077789306640625,-0.059005796909332275,0.5679025650024414,-0.13859516382217407
85,1.3414,1.1608,0,0,0.4796600341796875,1.4750518798828125,-0.0457763671875,-0.04273388162255287,-0.32473015785217285,0.020362796261906624
86,1.3553,1.3336,0,0,0.3925018310546875,1.4448699951171875,-0.1201629638671875,0.08173933625221252,-0.7139612436294556,0.2591245174407959
87,1.3574,1.5528,0,0,0.1790313720703125,1.301849365234375,-0.0529327392578125,0.5892400741577148,-1.090272307395935,0.3605664372444153
88,1.3489,1.8096,0,0,0.0992584228515625,1.244049072265625,0.0706024169921875,1.0257409811019897,-1.6365768909454346,0.32011276483535767
89,1.3313,2.0898,0,0,-0.0161590576171875,1.08233642578125,0.1556549072265625,1.216691255569458,-2.216442108154297,0.22411885857582092
90,1.3061,2.3756,0,0,-0.1810760498046875,1.033050537109375,0.0403289794921875,1.7746384143829346,-2.1933016777038574,-0.11879242956638336
91,1.2747,2.6466,0,0,-0.1534271240234375,0.9876708984375,0.38433837890625,1.7939345836639404,-1.4934165477752686,-0.13021233677864075
92,1.2377,2.8825,0,0,-0.3689727783203125,1.1961669921875,0.4158782958984375,1.8258250951766968,0.2126544713973999,-0.26484179496765137
93,1.1959,3.0651,0,0,-0.6119842529296875,1.385650634765625,0.23431396484375,2.2974746227264404,2.098721742630005,-0.6174530982971191
94,1.1499,3.18,0,0,-0.66949462890625,1.2853546142578125,0.0404052734375,3.1131086349487305,2.376518487930298,-0.8773475289344788
95,1.1005,3.2183,0,0,-0.6595916748046875,1.036163330078125,0.113494873046875,3.3936233520507812,2.0340583324432373,-0.9561805725097656
96,1.0486,3.1779,0,0,-0.4495086669921875,0.762420654296875,0.119873046875,3.11334490776062,1.7186528444290161,-0.5345853567123413
97,0.9957,3.0634,0,0,-0.3535003662109375,0.6204376220703125,-0.005340576171875,2.937382221221924,0.9496467709541321,-0.25001969933509827
98,0.9432,2.8854,0,0,-0.1446075439453125,0.628692626953125,0.2161407470703125,2.0521721839904785,-1.4566066265106201,-0.0946253091096878
99,0.893,2.6592,0,0,0.0213775634765625,0.797882080078125,-0.1146392822265625,1.2906885147094727,-2.2879443168640137,-0.019772639498114586
100,0.8466,2.4028,0,0,0.215179443359375,1.005767822265625,-0.3564605712890625,1.523329496383667,-1.1869785785675049,0.2987472712993622
101,0.8063,2.1349,0,0,0.1498870849609375,1.0512542724609375,-0.150726318359375,1.2719347476959229,-0.7896578907966614,0.30116304755210876
102,0.7741,1.8728,0,0,0.072479248046875,0.918304443359375,-0.085052490234375,0.9464696049690247,-1.6086128950119019,0.11138404905796051
103,0.7525,1.6313,0,0,-0.10723876953125,0.7191162109375,-0.145751953125,0.9658520817756653,-1.7179250717163086,-0.11784940212965012
104,0.7439,1.4216,0,0,-0.2281341552734375,0.60516357421875,-0.092315673828125,0.972974419593811,-1.3788396120071411,-0.2999478280544281
105,0.7503,1.2507,0,0,-0.33587646484375,0.5644073486328125,-0.159576416015625,0.8470417857170105,-0.9620538949966431,-0.3038778603076935
106,0.7731,1.1216,0,0,-0.345611572265625,0.561676025390625,-0.29095458984375,0.5304896831512451,-0.5729386210441589,-0.10106217116117477
107,0.8125,1.0335,0,0,-0.3880615234375,0.551513671875,-0.4709930419921875,0.01932016760110855,-0.037694115191698074,-0.006100503262132406
108,0.8675,0.9822,0,0,-0.30657958984375,0.557525634765625,-0.5913848876953125,-0.6139355897903442,0.647133469581604,-0.0766763985157013
109,0.9355,0.9617,0,0,-0.23089599609375,0.614166259765625,-0.5659027099609375,-1.2510795593261719,0.8012239933013916,-0.18429607152938843
110,1.0125,0.9652,0,0,-0.1502685546875,0.705352783203125,-0.517578125,-1.48494553565979,0.4589462876319885,-0.18177512288093567
111,1.0933,0.9861,0,0,-0.1296234130859375,0.85760498046875,-0.5087127685546875,-1.3719141483306885,-0.1330059915781021,-0.11585629731416702
112,1.1719,1.0194,0,0,-0.064056396484375,1.0162506103515625,-0.498870849609375,-1.0777647495269775,-0.7392216324806213,0.016143815591931343
113,1.242,1.0621,0,0,0.0767059326171875,1.0686492919921875,-0.56884765625,-0.6415663957595825,-1.0719127655029297,0.3508424460887909
114,1.2979,1.1128,0,0,0.04034423828125,1.1083526611328125,-0.71942138671875,-0.06980491429567337,-0.4289100766181946,0.4371698796749115
115,1.335,1.1717,0,0,-0.187652587890625,1.2177276611328125,-0.7947845458984375,0.3269525468349457,0.015016499906778336,0.1991674304008484
116,1.3505,1.2395,0,0,-0.3944244384765625,1.212066650390625,-0.9912109375,0.3663252592086792,-0.749052107334137,0.09613878279924393
117,1.3436,1.3171,0,0,-0.55364990234375,1.132171630859375,-0.8090972900390625,-0.29462337493896484,-1.6695772409439087,-0.020302075892686844
118,1.316,1.405,0,0,-0.57177734375,1.128631591796875,-0.3281707763671875,-1.1883187294006348,-1.0301157236099243,-0.30551064014434814
119,1.2715,1.503,0,0,-0.453338623046875,1.1686859130859375,0.2347412109375,-2.235896348953247,0.699353814125061,-0.3541775047779083
120,1.2152,1.6097,0,0,-0.4909515380859375,1.1903533935546875,0.3253173828125,-2.4432477951049805,1.0165640115737915,-0.2321767807006836
121,1.1535,1.7223,0,0,-0.5433502197265625,1.014739990234375,-0.0364837646484375,-1.0912331342697144,-0.16969449818134308,-0.02420094422996044
122,1.0923,1.8358,0,0,-0.2200775146484375,0.811553955078125,0.153289794921875,-0.1502656638622284,-0.18042756617069244,0.02022271417081356
123,1.0373,1.9432,0,0,-0.0691986083984375,0.730316162109375,0.3306427001953125,-0.54991614818573,0.48930656909942627,0.005087436642497778
124,0.9923,2.0354,0,0,0.004425048828125,0.744781494140625,0.3142547607421875,-1.3066767454147339,1.2507107257843018,0.0301459189504385
125,0.9597,2.1024,0,0,0.0123443603515625,0.8455352783203125,0.201751708984375,-1.5482252836227417,2.2128655910491943,0.16705796122550964
126,0.9399,2.1352,0,0,-0.0055084228515625,0.989898681640625,0.1526336669921875,-1.3901090621948242,2.801434278488159,0.3779403865337372
127,0.9316,2.1275,0,0,0.0660400390625,1.089813232421875,0.1575469970703125,-1.0100736618041992,2.717780590057373,0.7338614463806152
128,0.9325,2.0772,0,0,0.1696929931640625,1.0470123291015625,0.2024078369140625,-0.6906708478927612,1.9710023403167725,1.1586135625839233
129,0.9395,1.9873,0,0,0.17803955078125,0.892578125,0.2847900390625,-0.8257138729095459,0.8431048393249512,1.3580493927001953
130,0.9496,1.8655,0,0,0.094940185546875,0.8726959228515625,0.2371368408203125,-1.271994709968567,-0.35351893305778503,1.0817866325378418
131,0.9598,1.7235,0,0,0.073883056640625,0.8306732177734375,0.1510772705078125,-1.589176893234253,-0.9380140900611877,0.450695276260376
132,0.9682,1.5749,0,0,0.0112762451171875,0.86968994140625,-0.005279541015625,-1.6437523365020752,-1.0231797695159912,0.043593548238277435
133,0.9735,1.4335,0,0,-0.10540771484375,1.01007080078125,-0.88665771484375,-0.586377739906311,0.778337836265564,-0.059068646281957626
134,0.9756,1.3111,0,0,0.0723114013671875,1.046630859375,-0.093017578125,-0.34224310517311096,0.8271706104278564,0.19224055111408234
135,0.9756,1.2162,0,0,0.0789642333984375,1.0068206787109375,0.1427764892578125,-0.5418723225593567,0.17162714898586273,0.25579050183296204
136,0.975,1.1521,0,0,0.06939697265625,0.96600341796875,0.14691162109375,-0.5379329919815063,-0.3524232804775238,0.16144081950187683
137,0.976,1.1176,0,0,0.046600341796875,0.8446197509765625,0.126129150390625,-0.5937768220901489,-0.7328779697418213,0.21617864072322845
138,0.9806,1.1067,0,0,-0.04205322265625,0.8173828125,0.1278076171875,-0.8237112164497375,-0.8985734581947327,0.17751246690750122
139,0.9905,1.1109,0,0,-0.136199951171875,0.848663330078125,0.127410888671875,-1.1236960887908936,-0.7012225389480591,0.0177004337310791
140,1.0063,1.1202,0,0,-0.2393798828125,0.88922119140625,0.0706939697265625,-1.3129585981369019,-0.4104873836040497,-0.2697151005268097
141,1.0283,1.126,0,0,-0.251708984375,0.9682769775390625,-0.0359954833984375,-1.2923215627670288,-0.004118045791983604,-0.4353829026222229
142,1.0555,1.1223,0,0,-0.1773223876953125,1.09649658203125,-0.1035614013671875,-1.0840964317321777,0.349531888961792,-0.3452652394771576
143,1.0864,1.1071,0,0,-0.02294921875,1.1629638671875,-0.0836181640625,-0.8601576089859009,0.5719796419143677,-0.25173449516296387
144,1.1193,1.0835,0,0,0.1038970947265625,1.163330078125,-0.135498046875,-0.6006290912628174,1.227103352546692,-0.19213056564331055
145,1.1523,1.0594,0,0,0.20135498046875,1.2244415283203125,-0.1334686279296875,-0.3990805447101593,1.7682286500930786,-0.14515133202075958
146,1.1838,1.0462,0,0,0.2981414794921875,1.2107391357421875,-0.0795135498046875,-0.2810031771659851,1.6154154539108276,-0.029350431635975838
147,1.2125,1.0578,0,0,0.2863922119140625,1.1667633056640625,-0.0242462158203125,-0.1505357176065445,1.0583897829055786,-0.02286403626203537
148,1.2373,1.1077,0,0,0.28961181640625,1.12042236328125,-0.082733154296875,0.03827974572777748,0.290275514125824,-0.16135427355766296
149,1.2577,1.2068,0,0,0.3170623779296875,1.1486968994140625,-0.1097869873046875,0.3521852195262909,-0.17982222139835358,-0.09383674710988998
150,1.2731,1.3611,0,0,0.3674468994140625,1.3065338134765625,0.02813720703125,0.638302206993103,-0.6770463585853577,0.15130296349525452
151,1.2833,1.57,0,0,0.2598724365234375,1.2900848388671875,0.0742645263671875,0.8268877863883972,-1.0153354406356812,0.38587018847465515
152,1.2878,1.8257,0,0,0.1482696533203125,1.2337493896484375,0.13177490234375,1.0722153186798096,-1.3085486888885498,0.4834417700767517
153,1.2864,2.1138,0,0,0.0580902099609375,1.12945556640625,0.20635986328125,1.1820347309112549,-1.8048794269561768,0.44271722435951233
154,1.2786,2.4147,0,0,-0.073028564453125,1.102264404296875,0.2009429931640625,1.3372375965118408,-1.998906135559082,0.23956544697284698
155,1.264,2.7053,0,0,-0.3320159912109375,1.1098785400390625,0.025360107421875,1.9789459705352783,-1.664993405342102,-0.31991833448410034
156,1.2421,2.9625,0,0,-0.4192047119140625,1.315460205078125,0.2664947509765625,2.504067897796631,-0.2994961738586426,-0.8680397868156433
157,1.2131,3.1648,0,0,-0.4778900146484375,1.4122772216796875,0.42437744140625,2.3500888347625732,1.7108479738235474,-1.1177289485931396
158,1.1774,3.2958,0,0,-0.5603179931640625,1.24005126953125,0.0855712890625,2.737715482711792,2.8453547954559326,-1.040724754333496
159,1.136,3.3457,0,0,-0.5269012451171875,1.016326904296875,-0.0485992431640625,3.2874205112457275,3.003798723220825,-0.6563147306442261
160,1.0902,3.3124,0,0,-0.2600250244140625,0.792938232421875,-0.01226806640625,3.3533644676208496,2.2195990085601807,0.13384701311588287
161,1.0417,3.2016,0,0,-0.4184722900390625,0.727569580078125,-0.03094482421875,3.134629726409912,1.088634729385376,0.1725427508354187
162,0.9921,3.0256,0,0,-0.3267669677734375,0.698974609375,0.351287841796875,1.8858264684677124,-1.3744659423828125,-0.2953599989414215
163,0.9432,2.8011,0,0,-0.1094512939453125,0.7159271240234375,0.0615234375,0.7699877619743347,-2.32179856300354,-0.3163265287876129
164,0.8964,2.547,0,0,0.165435791015625,0.997406005859375,-0.5900421142578125,1.3979324102401733,-1.0658096075057983,0.37087899446487427
165,0.8534,2.2817,0,0,0.0591888427734375,1.0452880859375,-0.1754302978515625,1.501288652420044,-0.04686390981078148,0.5229729413986206
166,0.8161,2.0212,0,0,0.0821685791015625,0.992889404296875,-0.00811767578125,1.061205506324768,-1.2753857374191284,0.4521602690219879
167,0.7866,1.7785,0,0,0.026336669921875,0.8458404541015625,-0.0650482177734375,0.829953670501709,-1.980384111404419,0.38063761591911316
168,0.7672,1.5628,0,0,-0.1791534423828125,0.6731109619140625,-0.0816192626953125,0.9965940117835999,-1.7532737255096436,0.07024513185024261
169,0.7602,1.38,0,0,-0.260040283203125,0.6082916259765625,-0.113861083984375,1.1038190126419067,-1.2622307538986206,-0.06354408711194992
170,0.7673,1.2332,0,0,-0.3465423583984375,0.5592193603515625,-0.2601165771484375,1.1124529838562012,-0.7972055673599243,-0.06613694131374359
171,0.7896,1.1235,0,0,-0.378021240234375,0.5166015625,-0.3742218017578125,0.6346744298934937,-0.8284966349601746,0.04417305439710617
172,0.8272,1.0503,0,0,-0.3754119873046875,0.509307861328125,-0.5112152099609375,-0.24931955337524414,-0.3980480432510376,0.058032941073179245
173,0.8787,1.0124,0,0,-0.294830322265625,0.560791015625,-0.5780487060546875,-1.0364549160003662,0.32789158821105957,-0.04243480786681175
174,0.9417,1.0078,0,0,-0.198944091796875,0.6609954833984375,-0.5434417724609375,-1.2307947874069214,0.17763710021972656,-0.13266296684741974
175,1.0125,1.0344,0,0,0.0055999755859375,0.8094940185546875,-0.4243927001953125,-1.1968791484832764,-0.4845248758792877,0.06887307018041611
176,1.0867,1.0901,0,0,0.0607452392578125,0.9598236083984375,-0.3128662109375,-1.3017395734786987,-0.5391867756843567,0.2761421203613281
177,1.1595,1.1729,0,0,0.0117645263671875,1.0538482666015625,-0.406768798828125,-1.3551580905914307,-0.26438823342323303,0.3315526247024536
178,1.2257,1.2805,0,0,-0.071929931640625,1.1760711669921875,-0.7386322021484375,-1.1304383277893066,-0.3351103365421295,0.23697499930858612
179,1.2813,1.4098,0,0,-0.0718536376953125,1.2767791748046875,-1.07421875,-0.2628718316555023,-0.48514777421951294,0.22641663253307343
180,1.3227,1.5566,0,0,-0.125885009765625,1.173980712890625,-0.9071044921875,0.45771244168281555,-0.8522278070449829,0.3423650562763214
181,1.3476,1.7154,0,0,-0.2837677001953125,0.92193603515625,-0.5298614501953125,0.054253119975328445,-1.722913384437561,0.39885658025741577
182,1.3553,1.8794,0,0,-0.432586669921875,0.838531494140625,-0.1187286376953125,-1.0457749366760254,-1.2586346864700317,0.20010459423065186
183,1.3459,2.0409,0,0,-0.447021484375,0.9611053466796875,0.4737091064453125,-2.6179351806640625,0.40371498465538025,-0.07663432508707047
184,1.321,2.192,0,0,-0.59283447265625,1.1930694580078125,0.5336456298828125,-3.51444673538208,1.339233160018921,-0.3564193546772003
185,1.2831,2.3249,0,0,-0.8966064453125,1.476837158203125,-0.384246826171875,-1.657836675643921,0.6919068098068237,-0.4356726408004761
186,1.2358,2.4326,0,0,-0.6065673828125,1.3555450439453125,-0.7696075439453125,1.6886571645736694,-0.9328294396400452,-0.25534868240356445
187,1.1832,2.5083,0,0,-0.0889739990234375,0.9326324462890625,-0.147857666015625,2.0579118728637695,-1.310776710510254,-0.029565082862973213
188,1.1296,2.5463,0,0,-0.0129852294921875,0.77197265625,0.4612884521484375,-0.38964176177978516,-0.39946243166923523,-0.122873455286026
189,1.0791,2.5419,0,0,0.035400390625,0.8025970458984375,0.430755615234375,-2.081484794616699,1.2359107732772827,-0.041799113154411316
190,1.035,2.4921,0,0,0.0329437255859375,0.851837158203125,0.220489501953125,-2.48416805267334,2.415609359741211,0.3083389103412628
191,0.9992,2.3971,0,0,0.0260772705078125,0.9251708984375,0.13897705078125,-2.0269615650177,2.616835832595825,0.7284533977508545
192,0.9725,2.2606,0,0,0.069580078125,0.9641876220703125,0.1497344970703125,-1.283515214920044,2.235504627227783,1.1262153387069702
193,0.9542,2.0902,0,0,0.144439697265625,0.944427490234375,0.221649169921875,-0.8406294584274292,1.9257371425628662,1.419797420501709
194,0.943,1.8975,0,0,0.0704803466796875,0.9294891357421875,0.263946533203125,-0.8791491389274597,1.3927730321884155,1.2994683980941772
195,0.9368,1.6962,0,0,-0.0628204345703125,0.95526123046875,0.1636199951171875,-0.9857698678970337,0.7815448045730591,0.6287976503372192
196,0.9336,1.5005,0,0,-0.0459136962890625,0.8834991455078125,-0.3939361572265625,-0.5876871943473816,-0.1982872486114502,0.10723404586315155
197,0.9317,1.3231,0,0,-0.047637939453125,0.8778076171875,-0.4803619384765625,0.27335190773010254,-0.6516486406326294,-0.11318434774875641
198,0.9302,1.1737,0,0,0.092926025390625,1.0712890625,0.138092041015625,-0.5167344808578491,-0.7738216519355774,0.17832259833812714
199,0.929,1.0573,0,0,0.1282501220703125,1.08892822265625,0.20501708984375,-1.0705721378326416,-0.5043526291847229,0.33394336700439453
200,0.9288,0.9747,0,0,0.0607452392578125,0.9105682373046875,0.115997314453125,-1.049552321434021,-0.2834644615650177,0.2233920693397522
201,0.9309,0.9222,0,0,0.0128326416015625,0.803253173828125,0.0569610595703125,-0.8167198896408081,0.055749814957380295,0.06419230252504349
202,0.9367,0.8928,0,0,0.0062255859375,0.7859649658203125,0.0174102783203125,-0.7288403511047363,0.21097348630428314,0.034083135426044464
203,0.9477,0.8777,0,0,-0.0305938720703125,0.8513336181640625,-0.0312042236328125,-0.8282023668289185,0.10578395426273346,0.002986735198646784
204,0.9646,0.8679,0,0,-0.0305938720703125,0.9413299560546875,-0.008941650390625,-0.9879981279373169,-0.08898952603340149,-0.0005635248962789774
205,0.9877,0.8557,0,0,-0.03955078125,0.9756011962890625,0.0199432373046875,-1.0253854990005493,-0.0522909015417099,-0.027938423678278923
206,1.0162,0.8363,0,0,-0.0328216552734375,1.0013275146484375,1.52587890625e-05,-0.9858103394508362,0.057980213314294815,-0.09205775707960129
207,1.0488,0.8088,0,0,-0.0260009765625,1.0358123779296875,-0.0857696533203125,-0.8994832038879395,0.2100009024143219,-0.1030435636639595
208,1.0837,0.7766,0,0,-0.028167724609375,1.0742034912109375,-0.1497039794921875,-0.7026654481887817,0.7501823902130127,-0.11193026602268219
209,1.1187,0.7477,0,0,0.042724609375,1.1417083740234375,-0.0894622802734375,-0.492834210395813,1.1229671239852905,-0.20824721455574036
210,1.1518,0.733,0,0,0.1229705810546875,1.2164764404296875,-0.0107269287109375,-0.3424380421638489,1.1090058088302612,-0.3212616443634033
211,1.1812,0.7455,0,0,0.20159912109375,1.2439727783203125,0.0277252197265625,-0.27782896161079407,0.6487971544265747,-0.3483651578426361
212,1.2056,0.7977,0,0,0.1750335693359375,1.17572021484375,-0.0716552734375,-0.17675372958183289,0.26796966791152954,-0.16041123867034912
213,1.2242,0.8996,0,0,0.1082916259765625,1.24298095703125,-0.1468505859375,0.09067770838737488,0.26317837834358215,0.07346808910369873
214,1.2369,1.0563,0,0,0.1653289794921875,1.3416595458984375,-0.1471405029296875,0.4111265540122986,0.3691426217556,0.2671310305595398
215,1.2438,1.2669,0,0,0.1788482666015625,1.25732421875,-0.0367279052734375,0.7323482632637024,0.287136971950531,0.3720846176147461
216,1.2455,1.5235,0,0,0.1357269287109375,1.1391754150390625,0.0670013427734375,1.041939616203308,-0.35315194725990295,0.2800652086734772
217,1.2422,1.8124,0,0,0.08349609375,1.1183319091796875,0.1099853515625,1.3605352640151978,-1.2774690389633179,0.10269095748662949
218,1.2342,2.1144,0,0,-0.040863037109375,1.059722900390625,-0.0244598388671875,1.8882834911346436,-1.464239239692688,0.010187922976911068
219,1.2213,2.408,0,0,-0.019561767578125,1.1049957275390625,0.0411224365234375,2.499884605407715,-0.8881580829620361,0.1208004504442215
220,1.2031,2.6715,0,0,-0.1120758056640625,1.204254150390625,0.2902374267578125,2.2327513694763184,-0.18225662410259247,0.18986687064170837
221,1.1791,2.8853,0,0,-0.2560272216796875,1.2232818603515625,0.2425689697265625,1.933396339416504,1.5030971765518188,-0.06850342452526093
222,1.1488,3.0347,0,0,-0.465057373046875,1.26702880859375,-0.0151214599609375,2.1394317150115967,3.543339490890503,-0.415836364030838
223,1.1122,3.1114,0,0,-0.5587158203125,1.1284332275390625,-0.1900177001953125,3.1322028636932373,3.302175283432007,-0.8110294938087463
224,1.0697,3.1141,0,0,-0.37347412109375,0.99072265625,0.0295562744140625,3.204833984375,1.9832472801208496,-0.6290255784988403
225,1.0225,3.0482,0,0,-0.2531280517578125,0.86297607421875,-0.00457763671875,2.5681424140930176,0.7349621653556824,-0.1341375708580017
226,0.972,2.9244,0,0,-0.2624664306640625,0.7365570068359375,0.062225341796875,1.8914047479629517,-0.8022064566612244,-0.07332667708396912
227,0.9204,2.7567,0,0,-0.0619354248046875,0.7875823974609375,-0.0289154052734375,1.2213773727416992,-1.6343843936920166,0.09602054208517075
228,0.8702,2.5596,0,0,0.129119873046875,0.9198760986328125,-0.1608734130859375,0.963778555393219,-1.4785315990447998,0.4380929172039032
229,0.8241,2.3469,0,0,0.107269287109375,0.9722137451171875,-0.1566619873046875,0.9966030716896057,-1.1693543195724487,0.6354441046714783
230,0.7851,2.1302,0,0,0.0477752685546875,0.9111785888671875,-0.071319580078125,0.9680702090263367,-1.8291198015213013,0.527806282043457
231,0.7563,1.9187,0,0,0.0457000732421875,0.794830322265625,-0.0221099853515625,0.8349776864051819,-2.5191431045532227,0.4642252027988434
232,0.7406,1.7195,0,0,-0.1558074951171875,0.700958251953125,-0.0862579345703125,0.8956223726272583,-2.4029386043548584,0.22483576834201813
233,0.7406,1.5382,0,0,-0.3385009765625,0.6620635986328125,-0.134552001953125,1.077201008796692,-1.7803239822387695,-0.16946998238563538
234,0.7579,1.3791,0,0,-0.40545654296875,0.6036834716796875,-0.1605377197265625,1.0028271675109863,-0.9243611097335815,-0.30870696902275085
235,0.7933,1.2457,0,0,-0.4297943115234375,0.5025634765625,-0.245086669921875,0.5078051686286926,-0.44651728868484497,-0.20108065009117126
236,0.8458,1.1406,0,0,-0.36785888671875,0.47613525390625,-0.339691162109375,-0.2299887239933014,-0.24130769073963165,-0.10835923254489899
237,0.9131,1.0648,0,0,-0.3440093994140625,0.5643463134765625,-0.5084228515625,-0.7920350432395935,0.2991741895675659,-0.17667223513126373
238,0.9912,1.0184,0,0,-0.215301513671875,0.7047882080078125,-0.574371337890625,-1.121659755706787,0.6032723188400269,-0.23844505846500397
239,1.0751,1.0002,0,0,-0.0806427001953125,0.86444091796875,-0.5728302001953125,-1.240013837814331,0.02190876007080078,-0.08711439371109009
240,1.1588,1.0083,0,0,0.048492431640625,1.038543701171875,-0.5900421142578125,-1.0547995567321777,-0.7612552642822266,0.1787702739238739
241,1.2362,1.0403,0,0,0.2311859130859375,1.152679443359375,-0.6983489990234375,-0.681340217590332,-0.7725923657417297,0.6240521669387817
242,1.3015,1.0936,0,0,0.226104736328125,1.1739044189453125,-0.68023681640625,-0.8197222948074341,0.14548476040363312,0.700923502445221
243,1.3501,1.1658,0,0,0.059539794921875,1.1090240478515625,-0.82257080078125,-0.826904296875,0.5527516007423401,0.4249297082424164
244,1.3788,1.254,0,0,-0.1450653076171875,1.0635528564453125,-0.8790740966796875,-0.2544221580028534,-0.17791247367858887,0.25993064045906067
245,1.3859,1.3555,0,0,-0.3195343017578125,1.15728759765625,-0.5521392822265625,-0.362413614988327,-1.3263274431228638,0.0758122056722641
246,1.372,1.4672,0,0,-0.48602294921875,1.2479248046875,-0.06781005859375,-1.2639466524124146,-1.3543881177902222,-0.29710304737091064
247,1.3394,1.5858,0,0,-0.5474853515625,1.2589569091796875,0.4283447265625,-2.3342323303222656,0.10065523535013199,-0.5160444378852844
248,1.2918,1.7079,0,0,-0.75067138671875,1.320953369140625,0.4238739013671875,-2.3406081199645996,1.0593516826629639,-0.7060447335243225
249,1.2344,1.8292,0,0,-0.9517974853515625,1.15167236328125,-0.3421630859375,-0.11461766064167023,0.3400808870792389,-0.65542072057724
250,1.1728,1.9449,0,0,-0.45697021484375,0.752044677734375,-0.15643310546875,1.3037867546081543,-0.8150644302368164,-0.2538330852985382
251,1.1126,2.049,0,0,-0.2144927978515625,0.7205352783203125,0.1066436767578125,0.4149532616138458,-0.13850222527980804,-0.348707914352417
252,1.0584,2.1343,0,0,-0.077606201171875,0.8228607177734375,0.4088287353515625,-1.1836602687835693,1.0765846967697144,-0.37836727499961853
253,1.0136,2.1937,0,0,0.0577850341796875,0.8874053955078125,0.23333740234375,-1.8712395429611206,2.373209238052368,0.042284075170755386
254,0.9801,2.2209,0,0,0.032257080078125,0.9279022216796875,0.1347808837890625,-1.8145655393600464,2.7553369998931885,0.4654558300971985
255,0.9577,2.2116,0,0,0.1031646728515625,0.9895172119140625,0.139190673828125,-1.4372315406799316,2.3905370235443115,0.8860776424407959
256,0.9454,2.1649,0,0,0.14361572265625,1.0108642578125,0.228668212890625,-1.0844199657440186,1.6293059587478638,1.2295210361480713
257,0.9409,2.083,0,0,0.221435546875,0.9579925537109375,0.2943572998046875,-1.115155816078186,0.7254999279975891,1.3659344911575317
258,0.9415,1.9714,0,0,0.13897705078125,0.9096527099609375,0.2127532958984375,-1.2365381717681885,0.12595073878765106,1.1382718086242676
259,0.9447,1.8377,0,0,0.0666046142578125,0.933868408203125,0.1313018798828125,-1.3055076599121094,-0.14432655274868011,0.486298531293869
260,0.9483,1.6904,0,0,0.07904052734375,0.890869140625,-0.4730072021484375,-1.0234251022338867,0.8180535435676575,0.08082800358533859
261,0.951,1.5381,0,0,-0.0216827392578125,0.932373046875,-0.4787139892578125,-0.3131733536720276,2.2072229385375977,-0.02220091037452221
262,0.9522,1.3882,0,0,0.03582763671875,0.9832763671875,0.009124755859375,-0.7826838493347168,0.6010634899139404,0.08382565528154373
263,0.9524,1.2465,0,0,0.0766143798828125,0.956695556640625,0.0604248046875,-0.8837734460830688,-0.5888200998306274,0.08513619750738144
264,0.9527,1.1168,0,0,0.0837860107421875,0.90576171875,0.0414581298828125,-0.6846520900726318,-0.8712169528007507,-0.07152531296014786
265,0.9546,1.0011,0,0,0.085601806640625,0.9162750244140625,-0.039215087890625,-0.696286141872406,-0.5991260409355164,-0.017829863354563713
266,0.9596,0.8997,0,0,-0.0323028564453125,0.9702606201171875,-0.1272735595703125,-0.8591040968894958,-0.10092847794294357,0.004546282347291708
267,0.9693,0.812,0,0,-0.06890869140625,0.9586334228515625,-0.0830230712890625,-0.8882124423980713,0.06404289603233337,-0.042635876685380936
268,0.9844,0.737,0,0,-0.039398193359375,0.9103546142578125,-0.0274200439453125,-0.7612946629524231,-0.14335370063781738,-0.1000581607222557
269,1.0053,0.6745,0,0,-0.0416107177734375,0.8544921875,0.00128173828125,-0.6135523915290833,-0.44775938987731934,-0.20225803554058075
270,1.0314,0.625,0,0,-0.062744140625,0.8987274169921875,-0.03155517578125,-0.45092588663101196,-0.35945165157318115,-0.34649643301963806
271,1.0613,0.5908,0,0,-0.031402587890625,1.085418701171875,-0.005584716796875,-0.3690430223941803,0.02911793813109398,-0.31939423084259033
272,1.0933,0.576,0,0,-0.00555419921875,1.2300872802734375,0.0215606689453125,-0.527214527130127,0.5777459144592285,-0.19748644530773163
273,1.1255,0.5861,0,0,0.0310516357421875,1.2364654541015625,0.0335845947265625,-0.6457491517066956,0.9948051571846008,-0.18212638795375824
274,1.156,0.6273,0,0,0.1492919921875,1.171661376953125,0.0221405029296875,-0.47884514927864075,0.7389025688171387,-0.24518844485282898
275,1.1833,0.7057,0,0,0.17572021484375,1.1438446044921875,-0.14263916015625,-0.22572952508926392,0.43657732009887695,-0.2027437835931778
276,1.2062,0.826,0,0,0.1572723388671875,1.216339111328125,-0.227691650390625,0.03684643283486366,0.585785984992981,-0.09209077805280685
277,1.2243,0.9898,0,0,0.2065277099609375,1.32305908203125,-0.09832763671875,0.324459046125412,0.5135954022407532,0.1015750914812088
278,1.2375,1.1949,0,0,0.2140350341796875,1.2889404296875,-0.0177459716796875,0.4995565414428711,0.14619769155979156,0.24051113426685333
279,1.2457,1.4347,0,0,0.1483917236328125,1.21661376953125,-0.0150604248046875,0.8507079482078552,-0.40707215666770935,0.25341230630874634
280,1.2491,1.6979,0,0,0.0215911865234375,1.1193084716796875,-0.036224365234375,1.4086854457855225,-0.9715816378593445,0.14774897694587708
281,1.2474,1.9699,0,0,0.039794921875,0.9874267578125,0.062286376953125,1.9238544702529907,-1.1023457050323486,0.2945791780948639
282,1.2402,2.234,0,0,-0.0545654296875,1.0043182373046875,0.1143341064453125,2.2424561977386475,-0.9062721133232117,0.3721221685409546
283,1.2264,2.4734,0,0,-0.17449951171875,1.188995361328125,0.215606689453125,2.2508411407470703,-0.4372071623802185,0.22103650867938995
284,1.2053,2.6731,0,0,-0.3109588623046875,1.3698272705078125,0.2017974853515625,2.1271467208862305,1.018983244895935,-0.12085238844156265
285,1.1758,2.8215,0,0,-0.482269287109375,1.415374755859375,-0.0007171630859375,2.3597474098205566,2.9847710132598877,-0.5102616548538208
286,1.1377,2.9116,0,0,-0.419158935546875,1.18646240234375,-0.0546722412109375,2.8136000633239746,2.639564037322998,-0.5182200074195862
287,1.0913,2.9418,0,0,-0.2740020751953125,1.0075836181640625,-0.0468597412109375,2.912317991256714,1.1236001253128052,-0.16909874975681305
288,1.0378,2.915,0,0,-0.2995758056640625,0.8433685302734375,0.0207977294921875,2.5524168014526367,-0.09180688858032227,-0.08986224234104156
289,0.979,2.8383,0,0,-0.2435455322265625,0.756927490234375,-0.0002593994140625,1.9442335367202759,-1.4488121271133423,-0.2989611327648163
290,0.9175,2.721,0,0,-0.0708160400390625,0.7990570068359375,-0.186553955078125,1.7296794652938843,-1.2986140251159668,-0.2033906728029251
291,0.8564,2.5734,0,0,0.044708251953125,0.868194580078125,-0.170623779296875,1.7217930555343628,-0.9416463375091553,0.12239595502614975
292,0.7992,2.4055,0,0,0.0787353515625,0.96356201171875,-0.0933074951171875,1.416487693786621,-1.4431164264678955,0.3811018168926239
293,0.7496,2.2263,0,0,0.0354461669921875,0.907318115234375,-0.1525726318359375,1.2942134141921997,-1.9757925271987915,0.4318254292011261
294,0.7116,2.0438,0,0,-0.047027587890625,0.7305908203125,-0.025787353515625,1.0544991493225098,-2.213789463043213,0.3122444450855255
295,0.6888,1.8647,0,0,-0.1376495361328125,0.6201019287109375,-0.0283203125,0.8591823577880859,-2.4261152744293213,0.16855545341968536
296,0.6844,1.6953,0,0,-0.284759521484375,0.575653076171875,-0.1334686279296875,0.8925496339797974,-2.049156427383423,-0.02767184190452099
297,0.7006,1.541,0,0,-0.38348388671875,0.57562255859375,-0.2458648681640625,0.864853024482727,-1.1509039402008057,-0.09616222232580185
298,0.7385,1.4065,0,0,-0.415313720703125,0.52099609375,-0.325958251953125,0.3899688124656677,-0.37407639622688293,0.0691886618733406
299,0.7972,1.2955,0,0,-0.44805908203125,0.4516754150390625,-0.3848724365234375,-0.43088507652282715,0.19812214374542236,0.006918093655258417
300,0.8743,1.2103,0,0,-0.3580780029296875,0.475799560546875,-0.432403564453125,-1.1529899835586548,0.6621920466423035,-0.16773094236850739
301,0.9653,1.1524,0,0,-0.2708740234375,0.5787200927734375,-0.4976806640625,-1.4346719980239868,0.9585462212562561,-0.22812211513519287
302,1.0642,1.1218,0,0,-0.1112823486328125,0.7343597412109375,-0.4676361083984375,-1.4199594259262085,0.745604932308197,-0.11229724436998367
303,1.1639,1.1182,0,0,0.019744873046875,0.9473724365234375,-0.514404296875,-1.212146282196045,0.18293866515159607,0.023387348279356956
304,1.2568,1.1405,0,0,0.180877685546875,1.1915435791015625,-0.6793975830078125,-0.7211089134216309,-0.654371440410614,0.2779671847820282
305,1.3357,1.1869,0,0,0.36383056640625,1.32073974609375,-0.8938751220703125,-0.16070738434791565,-1.435101866722107,0.6198453903198242
306,1.3947,1.2552,0,0,0.2411651611328125,1.2643585205078125,-0.9204254150390625,-0.1017836183309555,-0.4095081388950348,0.46939411759376526
307,1.4296,1.3419,0,0,-0.130279541015625,1.146453857421875,-0.9084625244140625,-0.13149836659431458,0.25290337204933167,0.1468552201986313
308,1.4387,1.443,0,0,-0.3658905029296875,0.98883056640625,-0.9502716064453125,0.00185089698061347,-1.1254327297210693,0.15267956256866455
309,1.4227,1.5538,0,0,-0.555755615234375,1.0894622802734375,-0.350616455078125,-0.7630289196968079,-2.2052204608917236,6.471481174230576e-05
310,1.3843,1.6692,0,0,-0.5321807861328125,1.2086181640625,0.3594970703125,-2.2010655403137207,-0.7842391729354858,-0.14654868841171265
311,1.3285,1.7847,0,0,-0.5994110107421875,1.318267822265625,0.599609375,-2.9969053268432617,1.2588871717453003,-0.34143882989883423
312,1.2614,1.8956,0,0,-0.7432861328125,1.2867889404296875,-0.0279083251953125,-1.6640818119049072,1.0545278787612915,-0.3591136932373047
313,1.1897,1.9978,0,0,-0.628326416015625,0.953704833984375,-0.324310302734375,0.4542013108730316,-0.3273507058620453,-0.21194981038570404
314,1.12,2.0863,0,0,-0.20538330078125,0.676300048828125,-0.290985107421875,1.3190146684646606,-0.6555357575416565,-0.050626158714294434
315,1.0579,2.1557,0,0,-0.133056640625,0.7598114013671875,0.07525634765625,0.2743447422981262,0.2905290424823761,-0.28373318910598755
316,1.0074,2.1996,0,0,-0.0714569091796875,0.8519744873046875,0.4059600830078125,-1.4970219135284424,1.3069795370101929,-0.3665021061897278
317,0.9708,2.2123,0,0,0.0042266845703125,0.945831298828125,0.238616943359375,-2.1564621925354004,2.2953579425811768,0.10589500516653061
318,0.9481,2.1895,0,0,0.001739501953125,0.980621337890625,0.14508056640625,-1.9839186668395996,2.60829496383667,0.5806724429130554
319,0.9379,2.1303,0,0,0.0650787353515625,0.952850341796875,0.1411590576171875,-1.515419602394104,2.2724497318267822,1.0374181270599365
320,0.9374,2.0377,0,0,0.1546173095703125,0.8784027099609375,0.211669921875,-1.153917908668518,1.454683542251587,1.4766391515731812
321,0.943,1.9189,0,0,0.1454010009765625,0.87774658203125,0.2794036865234375,-1.179801344871521,0.5153980851173401,1.595496654510498
322,0.9514,1.7845,0,0,0.0427093505859375,0.9641876220703125,0.18646240234375,-1.3073654174804688,-0.3433038294315338,1.1036163568496704
323,0.9593,1.6467,0,0,-0.073211669921875,1.0103912353515625,-0.5213623046875,-0.8031318783760071,-0.27730777859687805,0.0850488469004631
324,0.9649,1.5175,0,0,-0.0059661865234375,0.9374542236328125,-0.6062469482421875,0.457753986120224,1.1978259086608887,-0.33590635657310486
325,0.9672,1.4064,0,0,0.1443939208984375,1.0470733642578125,0.260223388671875,-0.5819931030273438,-0.16565313935279846,0.12960167229175568
326,0.9667,1.3195,0,0,0.126953125,0.9984130859375,0.2591094970703125,-1.1467292308807373,-0.9372116327285767,0.2873691916465759
327,0.9647,1.2584,0,0,0.05426025390625,0.8433074951171875,0.1405487060546875,-1.0647046566009521,-0.8773155808448792,0.16268904507160187
328,0.9631,1.2203,0,0,0.0108489990234375,0.761749267578125,0.0964508056640625,-0.8168452978134155,-0.526079535484314,0.03580620139837265
329,0.9642,1.199,0,0,-0.0082855224609375,0.795196533203125,0.132781982421875,-0.8053945302963257,-0.17608581483364105,-0.02323714643716812
330,0.9697,1.1859,0,0,-0.065643310546875,0.9195098876953125,0.15435791015625,-0.9999600052833557,-0.11418037116527557,-0.1217099204659462
331,0.9811,1.1722,0,0,-0.0863189697265625,0.972137451171875,0.150787353515625,-1.2716377973556519,-0.30419638752937317,-0.13553333282470703
332,0.9989,1.1508,0,0,-0.136566162109375,0.997344970703125,0.1080322265625,-1.540152668952942,-0.2572139501571655,-0.15984240174293518
333,1.023,1.1176,0,0,-0.178619384765625,1.0518341064453125,-0.1684112548828125,-1.7231330871582031,0.00029827404068782926,-0.18978910148143768
334,1.0527,1.0736,0,0,-0.1634979248046875,1.04376220703125,-0.4243927001953125,-1.1420689821243286,0.6461231112480164,-0.3328242897987366
335,1.0866,1.0245,0,0,-0.0245361328125,1.0835723876953125,-0.1776123046875,-0.1834433227777481,1.2009490728378296,-0.45772600173950195
336,1.1233,0.981,0,0,0.132659912109375,1.0921783447265625,0.0316619873046875,0.15750493109226227,1.267730712890625,-0.3506757318973541
337,1.1608,0.9568,0,0,0.1944732666015625,1.13690185546875,0.0740814208984375,-0.17467646300792694,1.2062289714813232,-0.3084036409854889
338,1.1974,0.967,0,0,0.2880706787109375,1.132415771484375,0.0397796630859375,-0.38761937618255615,0.8790375590324402,-0.18427211046218872
339,1.2311,1.0248,0,0,0.290985107421875,1.1025543212890625,-0.04730224609375,-0.25554123520851135,0.48660826683044434,0.0702560544013977
340,1.2602,1.1395,0,0,0.2462615966796875,1.29620361328125,-0.1600341796875,-0.044504083693027496,0.19331645965576172,0.2396882176399231
341,1.2833,1.314,0,0,0.2332000732421875,1.3891448974609375,-0.1137542724609375,0.29331204295158386,-0.13158439099788666,0.38283979892730713
342,1.299,1.5435,0,0,0.1788330078125,1.338897705078125,0.060699462890625,0.7727212309837341,-0.7885279059410095,0.39806827902793884
343,1.3066,1.8158,0,0,0.125823974609375,1.2539520263671875,0.1000213623046875,1.1061186790466309,-1.4443025588989258,0.39270520210266113
344,1.3053,2.1121,0,0,-0.012451171875,1.188934326171875,0.1008148193359375,1.3999910354614258,-1.7272295951843262,0.305335134267807
345,1.2949,2.4095,0,0,-0.20343017578125,1.1349945068359375,-0.0279541015625,2.031475067138672,-1.0970159769058228,-0.06875136494636536
346,1.2753,2.6839,0,0,-0.142059326171875,1.1817779541015625,0.1676025390625,2.4541702270507812,-0.4789982736110687,-0.06496674567461014
347,1.2467,2.9127,0,0,-0.3470458984375,1.3290557861328125,0.2547760009765625,2.391833782196045,1.4026672840118408,-0.1727486103773117
348,1.2098,3.0784,0,0,-0.666839599609375,1.33050537109375,0.0496368408203125,2.56857967376709,3.5518791675567627,-0.8212605714797974
349,1.1655,3.1703,0,0,-0.592254638671875,1.0767669677734375,-0.049102783203125,3.0990829467773438,3.362539052963257,-1.0095332860946655
350,1.1151,3.1857,0,0,-0.420806884765625,0.9119873046875,0.069122314453125,3.092472553253174,2.044877052307129,-0.6200768351554871
351,1.0602,3.1298,0,0,-0.2277984619140625,0.810394287109375,-0.021759033203125,2.7411248683929443,0.5334647297859192,0.07377754896879196
352,1.0027,3.0137,0,0,-0.27362060546875,0.7866363525390625,0.104217529296875,2.237515449523926,-1.0646612644195557,0.04331125319004059
353,0.9444,2.8522,0,0,-0.0067138671875,0.85772705078125,-0.0534820556640625,1.6225191354751587,-1.6432439088821411,0.051775578409433365
354,0.8876,2.6614,0,0,0.14544677734375,0.9228668212890625,-0.1992034912109375,1.4641807079315186,-0.17302636802196503,0.3280050456523895
355,0.8347,2.4555,0,0,0.1858673095703125,0.98345947265625,-0.1402587890625,1.2635791301727295,0.21969960629940033,0.6186770796775818
356,0.7884,2.2465,0,0,0.1178436279296875,1.0231475830078125,-0.1462860107421875,1.1590343713760376,-1.3941280841827393,0.6867072582244873
357,0.7518,2.0428,0,0,0.0889129638671875,0.8650054931640625,-0.0517120361328125,1.0383260250091553,-2.2662057876586914,0.6125656366348267
358,0.7283,1.8503,0,0,-0.016510009765625,0.7147674560546875,0.0016937255859375,0.8273298740386963,-2.6136891841888428,0.5219507813453674
359,0.7209,1.6733,0,0,-0.1999359130859375,0.6060791015625,-0.0107269287109375,0.6559687852859497,-2.6702725887298584,0.23092003166675568
360,0.7321,1.5155,0,0,-0.3225860595703125,0.567535400390625,-0.050048828125,0.6306173801422119,-1.9317002296447754,-0.061828747391700745
361,0.7633,1.3805,0,0,-0.4294891357421875,0.5253753662109375,-0.1396942138671875,0.4720383882522583,-0.8888076543807983,-0.12901178002357483
362,0.8143,1.272,0,0,-0.488250732421875,0.430084228515625,-0.26513671875,0.011207913048565388,-0.21061769127845764,-0.05557830631732941
363,0.8833,1.1932,0,0,-0.46527099609375,0.425750732421875,-0.39300537109375,-0.6754266619682312,0.011210576631128788,0.006807305850088596
364,0.9667,1.1469,0,0,-0.4710540771484375,0.5938568115234375,-0.527130126953125,-1.3420038223266602,0.5683457255363464,-0.20179010927677155
365,1.0592,1.1346,0,0,-0.35955810546875,0.782257080078125,-0.650177001953125,-1.448317289352417,0.85978102684021,-0.4172840416431427
366,1.1548,1.1564,0,0,-0.1542205810546875,0.9442596435546875,-0.6309814453125,-1.1466072797775269,0.02323608100414276,-0.2839062809944153
367,1.2467,1.2111,0,0,0.1721954345703125,1.0858306884765625,-0.643951416015625,-0.7543616890907288,-0.8384389877319336,0.16009512543678284
368,1.3282,1.296,0,0,0.3940582275390625,1.1559295654296875,-0.731353759765625,-0.3964996635913849,-0.7592996954917908,0.7669376730918884
369,1.3939,1.4069,0,0,0.3320159912109375,1.29608154296875,-0.7329559326171875,-0.6611699461936951,0.5400067567825317,0.8544209003448486
370,1.4392,1.5384,0,0,0.139617919921875,1.255950927734375,-0.8107147216796875,-0.8398086428642273,1.0510090589523315,0.3771941661834717
371,1.4617,1.6839,0,0,0.1090087890625,1.087890625,-1.1235198974609375,0.3724382817745209,-1.0564059019088745,0.32716748118400574
372,1.4609,1.8361,0,0,-0.13446044921875,1.1510467529296875,-0.480377197265625,0.20972420275211334,-2.285449266433716,0.10389737039804459
373,1.4381,1.9877,0,0,-0.3686065673828125,1.109710693359375,0.36785888671875,-1.6638692617416382,-0.974993109703064,-0.260498970746994
374,1.3966,2.132,0,0,-0.5846405029296875,1.2227935791015625,0.7988433837890625,-3.2418277263641357,0.46577221155166626,-0.6845519542694092
375,1.3409,2.263,0,0,-0.9492645263671875,1.44818115234375,0.3225250244140625,-2.7360317707061768,1.095964789390564,-0.9540846347808838
376,1.2766,2.3756,0,0,-0.89923095703125,1.1575469970703125,-0.5700836181640625,0.45405083894729614,-0.25743526220321655,-0.36324000358581543
377,1.2095,2.4654,0,0,-0.4315948486328125,0.7958526611328125,-0.2821807861328125,2.2093822956085205,-1.5403558015823364,0.047637827694416046
378,1.1452,2.5284,0,0,-0.213623046875,0.6696014404296875,-0.12286376953125,1.7549091577529907,-0.7824900150299072,-0.2819738984107971
379,1.088,2.5609,0,0,-0.0676422119140625,0.752349853515625,0.439666748046875,-0.49216708540916443,1.0794875621795654,-0.5892981290817261
380,1.0408,2.5602,0,0,0.0464630126953125,0.80126953125,0.29119873046875,-1.8108643293380737,2.4965617656707764,-0.12794145941734314
381,1.0046,2.5246,0,0,0.05474853515625,0.9854888916015625,0.2345123291015625,-2.3430628776550293,2.4076340198516846,0.5292729139328003
382,0.9789,2.4548,0,0,0.0659942626953125,1.1227569580078125,0.24969482421875,-2.386730194091797,1.7265750169754028,1.1098263263702393
383,0.962,2.3543,0,0,0.1491241455078125,1.108489990234375,0.2484893798828125,-2.0872700214385986,1.1727125644683838,1.5786616802215576
384,0.9515,2.2291,0,0,0.111114501953125,0.951995849609375,0.1851806640625,-1.6952128410339355,0.980135440826416,1.6327433586120605
385,0.9451,2.0873,0,0,0.0359344482421875,0.838348388671875,0.0600433349609375,-1.1506397724151611,0.8304202556610107,1.2140851020812988
386,0.9406,1.9379,0,0,-0.1886444091796875,0.7296142578125,-0.789581298828125,0.5771533250808716,1.2275992631912231,0.2561172544956207
387,0.9369,1.7892,0,0,0.083099365234375,0.97320556640625,-0.228302001953125,0.6515615582466125,0.7411023378372192,-0.11460088193416595
388,0.9337,1.6476,0,0,0.039459228515625,1.0394287109375,0.1512908935546875,-0.8754351139068604,-0.6680744886398315,0.019764916971325874
389,0.9315,1.5168,0,0,0.09844970703125,1.0413818359375,0.1988677978515625,-1.5565543174743652,-1.0569812059402466,0.08725687116384506
390,0.9315,1.3977,0,0,0.0396575927734375,0.88897705078125,0.1124114990234375,-1.4257876873016357,-0.9191213250160217,0.03302905708551407
391,0.9354,1.2887,0,0,-0.0077972412109375,0.76251220703125,0.051025390625,-1.053289771080017,-0.4376537799835205,-0.06387485563755035
392,0.9445,1.1866,0,0,0.001556396484375,0.7058868408203125,0.0452117919921875,-0.8174570202827454,0.05242539197206497,-0.05327094346284866
393,0.9599,1.0883,0,0,-0.067840576171875,0.83642578125,0.0281829833984375,-0.9912810325622559,0.23192350566387177,-0.09371211379766464
394,0.9819,0.9914,0,0,-0.081207275390625,1.027252197265625,-0.067230224609375,-1.366665244102478,0.010012686252593994,-0.16605821251869202
395,1.0098,0.8961,0,0,-0.0817413330078125,1.0605010986328125,-0.163360595703125,-1.2998732328414917,0.1755092442035675,-0.1855381727218628
396,1.0425,0.8053,0,0,-0.0436859130859375,1.053436279296875,-0.130035400390625,-0.7982247471809387,0.5673659443855286,-0.25470367074012756
397,1.0783,0.7256,0,0,0.02392578125,1.0856170654296875,-0.04541015625,-0.4645706117153168,0.6711235046386719,-0.33139923214912415
398,1.1153,0.6666,0,0,0.1201324462890625,1.1729888916015625,-0.0625457763671875,-0.46627822518348694,0.798512876033783,-0.4003133177757263
399,1.1515,0.6397,0,0,0.224090576171875,1.1802215576171875,-0.075592041015625,-0.4382393956184387,0.7908022403717041,-0.37260979413986206
400,1.1853,0.6566,0,0,0.2774200439453125,1.180419921875,-0.063568115234375,-0.2884163558483124,0.6246388554573059,-0.2501770853996277
401,1.2151,0.7273,0,0,0.25927734375,1.1407928466796875,-0.08538818359375,-0.006473612040281296,0.4181272089481354,-0.05077529698610306
402,1.24,0.8577,0,0,0.2056121826171875,1.2237396240234375,-0.0593414306640625,0.17034590244293213,0.08140191435813904,0.17153073847293854
403,1.2592,1.0483,0,0,0.168670654296875,1.37353515625,-0.12158203125,0.13360732793807983,0.042812712490558624,0.40722450613975525
404,1.2723,1.2928,0,0,0.061370849609375,1.301422119140625,-0.1635284423828125,0.5240485668182373,0.23134054243564606,0.3740769326686859
405,1.2789,1.5781,0,0,0.0090789794921875,1.189666748046875,-0.0850067138671875,1.1743568181991577,-0.10601591318845749,0.32130345702171326
406,1.2785,1.8856,0,0,-0.0777130126953125,1.075347900390625,0.0055389404296875,1.7880338430404663,-0.7897945046424866,0.20088490843772888
407,1.2708,2.1931,0,0,-0.139862060546875,1.1009979248046875,0.052001953125,2.3150439262390137,-0.8549535274505615,0.145380899310112
408,1.2552,2.4775,0,0,-0.0706634521484375,1.2106781005859375,0.0984649658203125,2.6280934810638428,-0.8907067179679871,0.3151089549064636
409,1.231,2.7179,0,0,-0.13665771484375,1.2875213623046875,0.1878814697265625,2.4741272926330566,0.2822154462337494,0.4882053732872009
410,1.198,2.8977,0,0,-0.365234375,1.3917083740234375,0.09527587890625,2.299257516860962,2.6663691997528076,0.10588861256837845
411,1.1565,3.0071,0,0,-0.4500579833984375,1.2865142822265625,-0.09954833984375,2.649704933166504,3.5181846618652344,-0.375192791223526
412,1.1072,3.0436,0,0,-0.314910888671875,1.061614990234375,-0.0473480224609375,2.760104179382324,2.321345329284668,-0.39962783455848694
413,1.0517,3.0116,0,0,-0.1707305908203125,0.8842620849609375,-0.083526611328125,2.673197031021118,0.8604156970977783,-0.14480085670948029
414,0.992,2.9213,0,0,-0.152587890625,0.81689453125,0.095367431640625,2.05753755569458,-1.059513807296753,-0.12923601269721985
415,0.9306,2.7864,0,0,-0.017608642578125,0.8171844482421875,-0.064422607421875,1.5441540479660034,-1.9126242399215698,-0.05281554535031319
416,0.8707,2.6215,0,0,0.054779052734375,0.844268798828125,-0.1606597900390625,1.4842931032180786,-0.8429765105247498,0.16496045887470245
417,0.8152,2.4403,0,0,0.0332183837890625,0.8558197021484375,-0.033660888671875,1.2984228134155273,-0.42187774181365967,0.23548762500286102
418,0.7676,2.2539,0,0,0.0145263671875,0.9214324951171875,-0.01788330078125,1.1052848100662231,-1.5273101329803467,0.2477426826953888
419,0.7312,2.0707,0,0,0.0184326171875,0.8902587890625,-0.0630340576171875,1.1991132497787476,-2.3814175128936768,0.3124484419822693
420,0.7092,1.8966,0,0,-0.055145263671875,0.8055267333984375,0.0047149658203125,1.1342272758483887,-2.396415948867798,0.32701432704925537
421,0.7044,1.7357,0,0,-0.2124786376953125,0.6399383544921875,-0.0258636474609375,1.0413066148757935,-2.2033841609954834,0.21592670679092407
422,0.7189,1.5916,0,0,-0.3595428466796875,0.55230712890625,-0.071136474609375,0.8165632486343384,-2.030280590057373,0.044911812990903854
423,0.7534,1.4675,0,0,-0.4036102294921875,0.5050811767578125,-0.1492919921875,0.451778382062912,-1.3508540391921997,0.02774880640208721
424,0.8074,1.3662,0,0,-0.4211578369140625,0.43597412109375,-0.2470245361328125,-0.06390973925590515,-0.4239802956581116,0.04659173637628555
425,0.8783,1.2904,0,0,-0.3878326416015625,0.4112091064453125,-0.40863037109375,-0.5692467093467712,0.10012100636959076,-0.04531848058104515
426,0.9622,1.242,0,0,-0.3413543701171875,0.5876007080078125,-0.5377655029296875,-1.128232479095459,0.587576150894165,-0.1810142546892166
427,1.0535,1.2217,0,0,-0.2379302978515625,0.8321685791015625,-0.6813812255859375,-1.451838731765747,0.8930806517601013,-0.2471376210451126
428,1.1457,1.2294,0,0,-0.1329345703125,1.0389251708984375,-0.73681640625,-1.3557404279708862,0.05217798426747322,-0.18863676488399506
429,1.2321,1.2641,0,0,0.079620361328125,1.1020355224609375,-0.763336181640625,-0.9366670250892639,-1.0864392518997192,0.01395736075937748
430,1.3063,1.3237,0,0,0.3225860595703125,1.1148529052734375,-0.7085418701171875,-0.6656054258346558,-1.1891123056411743,0.5200421214103699
431,1.363,1.4057,0,0,0.304840087890625,1.1264801025390625,-0.6622467041015625,-0.956602156162262,0.5821313261985779,0.6769579648971558
432,1.3981,1.5063,0,0,0.0898590087890625,1.014801025390625,-0.8156890869140625,-0.843936562538147,1.2919238805770874,0.38513702154159546
433,1.4097,1.6208,0,0,-0.13787841796875,1.085540771484375,-0.864837646484375,-0.16869181394577026,-0.5995928645133972,0.10679941624403
434,1.3979,1.7439,0,0,-0.26123046875,1.3588104248046875,-0.270477294921875,-0.7879635691642761,-1.6437983512878418,-0.12595047056674957
435,1.3647,1.8691,0,0,-0.40924072265625,1.3883056640625,0.3700714111328125,-2.354205846786499,-0.07034633308649063,-0.2570352554321289
436,1.3142,1.9897,0,0,-0.7786102294921875,1.477294921875,0.3187255859375,-2.4911067485809326,0.7809914350509644,-0.7892048954963684
437,1.2519,2.0988,0,0,-0.8585968017578125,1.2829742431640625,-0.499603271484375,0.1889110654592514,-0.9087403416633606,-0.7825691103935242
438,1.184,2.1902,0,0,-0.3912353515625,0.725830078125,-0.23297119140625,1.9383543729782104,-2.136859893798828,-0.25287753343582153
439,1.1169,2.258,0,0,-0.1291656494140625,0.5386810302734375,-0.03668212890625,1.1203806400299072,-1.121726393699646,-0.5744408965110779
440,1.056,2.2978,0,0,-0.014923095703125,0.776092529296875,0.3810882568359375,-0.6800307035446167,0.7638987302780151,-0.5786899924278259
441,1.0055,2.3063,0,0,0.0328826904296875,0.90557861328125,0.214324951171875,-1.6022732257843018,2.2588067054748535,-0.07474081963300705
442,0.9676,2.2824,0,0,-0.0204925537109375,1.031097412109375,0.1546173095703125,-1.8277384042739868,2.552123546600342,0.3757922649383545
443,0.9428,2.2275,0,0,0.0606536865234375,1.085205078125,0.198486328125,-1.6909661293029785,1.8124414682388306,0.8697665929794312
444,0.9302,2.1451,0,0,0.13018798828125,1.011505126953125,0.2864990234375,-1.5482124090194702,0.645937979221344,1.3866530656814575
445,0.9276,2.0413,0,0,0.031585693359375,0.903167724609375,0.2544097900390625,-1.5609620809555054,-0.01726820319890976,1.2851059436798096
446,0.9323,1.9236,0,0,0.03070068359375,0.8486328125,0.20697021484375,-1.6079362630844116,-0.4540119767189026,0.9045666456222534
447,0.9414,1.8,0,0,-0.0137786865234375,0.82110595703125,0.11431884765625,-1.5339136123657227,-0.5729056000709534,0.45868048071861267
448,0.9521,1.6778,0,0,-0.06866455078125,0.8776397705078125,0.1026611328125,-1.468718409538269,-0.30372554063796997,0.3114934265613556
449,0.9623,1.5627,0,0,-0.2926025390625,0.954437255859375,-0.6744842529296875,-0.9216441512107849,0.32771769165992737,0.125655397772789
450,0.9709,1.4581,0,0,-0.133087158203125,0.972747802734375,-0.584564208984375,-0.24041473865509033,1.267120599746704,0.09212087094783783
451,0.9775,1.3647,0,0,0.058013916015625,0.971160888671875,-0.0528411865234375,-0.4705504775047302,1.3942478895187378,0.13087359070777893
452,0.9827,1.2812,0,0,0.0953369140625,1.0462799072265625,0.129608154296875,-0.6415371298789978,1.222534418106079,0.20578378438949585
453,0.9878,1.2043,0,0,0.1054840087890625,0.9599151611328125,0.128448486328125,-0.5441860556602478,0.5629584193229675,0.2680799067020416
454,0.9945,1.1307,0,0,0.080474853515625,0.83782958984375,0.1497955322265625,-0.6356752514839172,-0.20113018155097961,0.10215459764003754
455,1.0044,1.0578,0,0,0.01153564453125,0.7794342041015625,0.1242218017578125,-0.9830257296562195,-0.8079274296760559,-0.0649837926030159
456,1.0187,0.9855,0,0,-0.0816192626953125,0.8907928466796875,-0.0035247802734375,-1.4757275581359863,-0.8802003264427185,-0.12124679982662201
457,1.038,0.9168,0,0,-0.10284423828125,1.045654296875,-0.1713104248046875,-1.5067020654678345,-0.32516637444496155,-0.16127410531044006
458,1.0624,0.8584,0,0,-0.0650177001953125,1.130645751953125,-0.173828125,-0.8576287031173706,0.38994458317756653,-0.25110891461372375
459,1.0912,0.8204,0,0,0.0221405029296875,1.1734619140625,-0.114593505859375,-0.3322437107563019,1.0188183784484863,-0.22164610028266907
460,1.1235,0.8152,0,0,0.1103363037109375,1.19842529296875,-0.01910400390625,-0.34061962366104126,1.1679103374481201,-0.12714436650276184
461,1.1579,0.8552,0,0,0.148284912109375,1.1830291748046875,-0.0275115966796875,-0.29890015721321106,0.8227260708808899,-0.13877412676811218
462,1.193,0.9511,0,0,0.1547393798828125,1.103546142578125,-0.12567138671875,0.018682874739170074,0.5309629440307617,-0.16609762609004974
463,1.227,1.1088,0,0,0.2292938232421875,1.23199462890625,-0.1165771484375,0.2311602532863617,0.23441383242607117,0.054018229246139526
464,1.2583,1.328,0,0,0.2300567626953125,1.4116058349609375,-0.132232666015625,0.467357337474823,0.13103391230106354,0.33967846632003784
465,1.2849,1.6007,0,0,0.127471923828125,1.2822418212890625,-0.0596160888671875,0.920287013053894,-0.03305568918585777,0.3855476975440979
466,1.305,1.9119,0,0,0.03533935546875,1.10577392578125,0.0175628662109375,1.4022799730300903,-0.5936422944068909,0.3263107240200043
467,1.3164,2.2402,0,0,-0.141082763671875,0.964141845703125,-0.16082763671875,2.3156588077545166,-0.5142430663108826,0.1415691077709198
468,1.3168,2.5611,0,0,0.01629638671875,1.151214599609375,0.1260528564453125,2.814305543899536,-0.6627537608146667,0.2664993405342102
469,1.3046,2.8493,0,0,0.0717620849609375,1.3172607421875,0.2509613037109375,2.726236343383789,-0.27187731862068176,0.9384260773658752
470,1.2783,3.0827,0,0,-0.227294921875,1.5413665771484375,0.148223876953125,2.507465124130249,1.5924062728881836,0.7131985425949097
471,1.2377,3.2444,0,0,-0.4342498779296875,1.6039581298828125,-0.1338348388671875,2.6988584995269775,3.944730281829834,-0.03407061845064163
472,1.1837,3.3255,0,0,-0.3413543701171875,1.2848052978515625,-0.1054229736328125,3.096101760864258,3.649977922439575,-0.49826785922050476
473,1.1185,3.3251,0,0,-0.139373779296875,0.9635772705078125,-0.0363311767578125,2.8942909240722656,1.3653331995010376,-0.2715210020542145
474,1.0456,3.2502,0,0,-0.0996856689453125,0.801666259765625,0.145294189453125,2.1340489387512207,-1.2307807207107544,-0.08075103908777237
475,0.9692,3.1134,0,0,-0.0236358642578125,0.829925537109375,-0.124298095703125,1.6712563037872314,-2.5883870124816895,-0.09407269954681396
476,0.8939,2.9306,0,0,0.01934814453125,0.82818603515625,-0.2097625732421875,1.7959506511688232,-1.453485131263733,-0.023144999518990517
477,0.8243,2.7184,0,0,0.0027923583984375,0.793121337890625,-0.0337677001953125,1.5307788848876953,-0.3056456744670868,-0.011695537716150284
478,0.7648,2.4924,0,0,-0.046478271484375,0.81280517578125,0.0023345947265625,1.2635527849197388,-0.9176986813545227,-0.08991337567567825
479,0.7192,2.2653,0,0,0.0424957275390625,0.813323974609375,0.0283050537109375,1.1026943922042847,-2.2339048385620117,0.09404394030570984
480,0.6904,2.0471,0,0,-0.0200958251953125,0.7972412109375,-0.0111083984375,1.1454106569290161,-2.665140151977539,0.2834109365940094
481,0.6805,1.8452,0,0,-0.16107177734375,0.6556854248046875,0.0359344482421875,1.067775011062622,-2.346209764480591,0.1783367097377777
482,0.6908,1.6654,0,0,-0.303924560546875,0.547149658203125,-3.0517578125e-05,0.8556592464447021,-2.085369110107422,-0.05932031571865082
483,0.721,1.5121,0,0,-0.424224853515625,0.5013275146484375,-0.1360626220703125,0.5251204967498779,-1.417779564857483,-0.22845208644866943
484,0.7699,1.3893,0,0,-0.4656219482421875,0.4739532470703125,-0.304351806640625,0.07460925728082657,-0.5268433094024658,-0.1482483297586441
485,0.835,1.2998,0,0,-0.4261627197265625,0.4285736083984375,-0.4662933349609375,-0.5904585123062134,0.19237451255321503,0.03946937993168831
486,0.9127,1.2459,0,0,-0.3886871337890625,0.5056610107421875,-0.5571441650390625,-1.3367880582809448,0.7460057735443115,-0.1385994255542755
487,0.9986,1.229,0,0,-0.25616455078125,0.713836669921875,-0.64239501953125,-1.5185682773590088,1.1279547214508057,-0.27036598324775696
488,1.0875,1.2494,0,0,-0.132904052734375,0.95721435546875,-0.69140625,-1.2047797441482544,0.7357320785522461,-0.21787694096565247
489,1.1744,1.3065,0,0,-0.0487060546875,1.07501220703125,-0.6744537353515625,-0.8636248111724854,-0.3277192711830139,-0.1741185337305069
490,1.2543,1.398,0,0,0.1558685302734375,1.1023101806640625,-0.6574249267578125,-0.7253726124763489,-1.497106909751892,0.0777355432510376
491,1.3226,1.5206,0,0,0.294708251953125,1.109771728515625,-0.66387939453125,-0.897888720035553,-1.422631025314331,0.5620867609977722
492,1.3759,1.6687,0,0,0.25128173828125,1.148712158203125,-0.6956634521484375,-1.0441950559616089,0.36579370498657227,0.6771925687789917
493,1.4114,1.8349,0,0,0.1460418701171875,1.055328369140625,-0.9434661865234375,-0.3849998712539673,1.0201057195663452,0.528476893901825
494,1.4276,2.01,0,0,-0.0321807861328125,0.9127960205078125,-0.9442901611328125,0.42021432518959045,-0.7623567581176758,0.43657997250556946
495,1.4243,2.1834,0,0,-0.3411407470703125,1.0850372314453125,-0.144775390625,-0.9339383840560913,-2.2613131999969482,-0.04483165219426155
496,1.4022,2.3444,0,0,-0.530426025390625,1.1625213623046875,0.5433197021484375,-3.188389539718628,-0.8230538964271545,-0.5518139004707336
497,1.3636,2.4826,0,0,-0.6263580322265625,1.3603363037109375,0.6004638671875,-3.8220319747924805,0.7665291428565979,-0.7824907898902893
498,1.3117,2.5894,0,0,-1.0763092041015625,1.54522705078125,-0.198638916015625,-1.4767353534698486,1.1351779699325562,-0.7402389645576477
499,1.2511,2.6586,0,0,-0.7505645751953125,1.1097412109375,-0.3237762451171875,1.703044056892395,-1.0342506170272827,-0.4854399263858795
500,1.1866,2.6862,0,0,-0.30322265625,0.78057861328125,-0.2362823486328125,2.594198703765869,-1.4381873607635498,-0.39618754386901855
501,1.1234,2.6708,0,0,-0.0373382568359375,0.7259674072265625,0.247894287109375,0.9017711281776428,0.07758799940347672,-0.6965348720550537
502,1.066,2.6133,0,0,0.1113128662109375,0.9275054931640625,0.451995849609375,-1.181970238685608,2.0826525688171387,-0.39213982224464417
503,1.0179,2.517,0,0,0.076812744140625,0.92852783203125,0.2263946533203125,-2.019242525100708,2.858616590499878,0.15587028861045837
504,0.9811,2.3876,0,0,0.1134033203125,0.9582672119140625,0.138336181640625,-2.0165414810180664,2.4956743717193604,0.7255241870880127
505,0.9562,2.2334,0,0,0.166168212890625,0.9701995849609375,0.203826904296875,-1.6816834211349487,1.2981810569763184,1.384366512298584
506,0.9422,2.0643,0,0,0.065093994140625,0.878082275390625,0.21307373046875,-1.403257131576538,0.2764585018157959,1.4828814268112183
507,0.9372,1.8915,0,0,-0.0188751220703125,0.8403167724609375,0.221832275390625,-1.2514095306396484,-0.19010522961616516,1.0168853998184204
508,0.9386,1.7257,0,0,-0.028411865234375,0.8711395263671875,0.175445556640625,-1.1932916641235352,-0.3948400020599365,0.3978504240512848
509,0.9435,1.576,0,0,-0.0255279541015625,0.9136962890625,0.1325836181640625,-1.333182454109192,-0.4819703698158264,0.05838341638445854
510,0.9494,1.4485,0,0,-0.03594970703125,1.018463134765625,-0.5784759521484375,-1.0083580017089844,0.12603916227817535,0.10343078523874283
511,0.9547,1.3458,0,0,-0.0433807373046875,0.973846435546875,-0.8079681396484375,-0.02527366578578949,1.5921708345413208,0.10281213372945786
512,0.9586,1.2669,0,0,0.04754638671875,0.928619384765625,-0.0788421630859375,-0.5754180550575256,0.6417861580848694,0.11616122722625732
513,0.9615,1.2074,0,0,0.12322998046875,0.9652252197265625,0.118865966796875,-0.8272113800048828,-0.2269604504108429,0.1326155662536621
514,0.9646,1.1608,0,0,0.104705810546875,0.9177703857421875,0.095306396484375,-0.629575788974762,-0.8166053295135498,0.07497677206993103
515,0.9699,1.1199,0,0,0.084747314453125,0.85308837890625,0.105255126953125,-0.6487151384353638,-1.0134457349777222,-0.06264633685350418
516,0.9792,1.0785,0,0,0.071258544921875,0.8674468994140625,0.12493896484375,-1.014008641242981,-1.2078125476837158,-0.015211976133286953
517,0.9941,1.0329,0,0,-0.0401458740234375,0.9060211181640625,0.0088653564453125,-1.3291075229644775,-1.2041994333267212,0.06598274409770966
518,1.0156,0.9832,0,0,-0.1373748779296875,0.93634033203125,-0.165191650390625,-1.2843928337097168,-0.6913406252861023,-0.021690381690859795
519,1.0437,0.9336,0,0,-0.1429443359375,0.986480712890625,-0.1783905029296875,-0.7988657355308533,-0.1337391585111618,-0.12514540553092957
520,1.0779,0.8918,0,0,-0.069061279296875,1.096588134765625,-0.0152130126953125,-0.4233954846858978,0.10144859552383423,-0.10112501680850983
521,1.1165,0.8686,0,0,-0.056732177734375,1.1550140380859375,0.0023345947265625,-0.5421285033226013,0.494812935590744,-0.1524856835603714
522,1.1575,0.8757,0,0,0.1121673583984375,1.2022247314453125,-0.0396270751953125,-0.6324538588523865,1.0933088064193726,-0.18657414615154266
523,1.1987,0.9241,0,0,0.205413818359375,1.2599029541015625,-0.069091796875,-0.41937702894210815,1.179553747177124,-0.1552596241235733
524,1.2374,1.0223,0,0,0.196319580078125,1.1843414306640625,-0.175537109375,0.025225995108485222,0.854766845703125,-0.04712224006652832
525,1.2714,1.1746,0,0,0.19696044921875,1.296295166015625,-0.177276611328125,0.4456357955932617,0.5111929774284363,0.11633939296007156
526,1.2985,1.3792,0,0,0.208251953125,1.4091644287109375,-0.11456298828125,0.6542273759841919,0.2978740334510803,0.3547026813030243
527,1.317,1.6285,0,0,0.0578460693359375,1.2690277099609375,-0.0014495849609375,0.9773348569869995,-0.18695150315761566,0.4179389178752899
528,1.3254,1.9085,0,0,-0.0341796875,1.1614837646484375,0.0019378662109375,1.4312916994094849,-0.8007696270942688,0.32961413264274597
529,1.3224,2.2003,0,0,-0.14398193359375,1.10223388671875,-0.035369873046875,2.189943552017212,-0.5562669634819031,0.23512835800647736
530,1.3074,2.4822,0,0,-0.0162506103515625,1.199249267578125,0.2132415771484375,2.4815192222595215,-0.5437690019607544,0.36245197057724
531,1.2801,2.7322,0,0,-0.12799072265625,1.2851104736328125,0.273681640625,2.320946216583252,0.3256702423095703,0.502702534198761
532,1.241,2.9308,0,0,-0.41949462890625,1.4690704345703125,0.1466217041015625,2.3212108612060547,2.3840622901916504,-0.008384429849684238
533,1.1913,3.0633,0,0,-0.563385009765625,1.4273681640625,-0.06524658203125,2.8262083530426025,3.453751564025879,-0.7667496204376221
534,1.1331,3.1216,0,0,-0.395751953125,1.1121978759765625,-0.0575408935546875,3.0828840732574463,2.6353940963745117,-0.8341292142868042
535,1.069,3.1052,0,0,-0.1852874755859375,0.857757568359375,-0.0503082275390625,2.91444730758667,1.206154227256775,-0.38770005106925964
536,1.0024,3.0201,0,0,-0.1393280029296875,0.7368927001953125,0.024383544921875,2.4499638080596924,-0.3997998535633087,-0.09234537929296494
537,0.9366,2.8776,0,0,-0.0787506103515625,0.7383880615234375,0.053466796875,1.5335941314697266,-2.0336644649505615,-0.12168009579181671
538,0.8747,2.6921,0,0,0.040679931640625,0.8200225830078125,-0.327362060546875,1.5823928117752075,-1.742112636566162,0.02256709337234497
539,0.8196,2.4788,0,0,0.037994384765625,0.821502685546875,-0.08648681640625,1.3620470762252808,-0.5866166353225708,0.020141754299402237
540,0.774,2.2519,0,0,0.053253173828125,0.8904266357421875,-0.09735107421875,1.0445263385772705,-0.708914041519165,0.07936566323041916
541,0.7398,2.0233,0,0,0.045318603515625,0.88836669921875,0.0179443359375,0.694793164730072,-1.8983709812164307,0.22698335349559784
542,0.7192,1.8025,0,0,-0.0089569091796875,0.7940673828125,0.0596466064453125,0.4394095838069916,-2.7479851245880127,0.37354961037635803
543,0.7136,1.5968,0,0,-0.1462249755859375,0.6969757080078125,0.0529022216796875,0.35402944684028625,-2.547964096069336,0.30127274990081787
544,0.7243,1.4121,0,0,-0.31732177734375,0.6209564208984375,-0.013916015625,0.4257611632347107,-1.8283964395523071,0.045577071607112885
545,0.7517,1.2528,0,0,-0.416015625,0.5946044921875,-0.0906982421875,0.5141118168830872,-0.8804876804351807,-0.10833952575922012
546,0.7957,1.1224,0,0,-0.4683074951171875,0.55303955078125,-0.23394775390625,0.35582682490348816,-0.18757815659046173,0.011061705648899078
547,0.855,1.0235,0,0,-0.48736572265625,0.5218658447265625,-0.3954925537109375,-0.14588983356952667,0.08464857190847397,0.15097247064113617
548,0.9273,0.9574,0,0,-0.4323272705078125,0.54803466796875,-0.5201873779296875,-0.9362614154815674,0.5926353335380554,0.08739536255598068
549,1.0091,0.9243,0,0,-0.3112335205078125,0.70550537109375,-0.6035919189453125,-1.2851555347442627,0.9708330035209656,-0.0850595012307167
550,1.0957,0.9231,0,0,-0.198089599609375,0.8741607666015625,-0.5888214111328125,-1.1268231868743896,0.6214129328727722,-0.1734309047460556
551,1.182,0.9522,0,0,-0.052215576171875,0.9700775146484375,-0.561004638671875,-0.7809232473373413,-0.18158364295959473,-0.12749484181404114
552,1.2622,1.0089,0,0,0.087921142578125,0.9995574951171875,-0.6101531982421875,-0.4496196210384369,-0.8231114745140076,0.12773212790489197
553,1.3306,1.0898,0,0,0.1894989013671875,1.0979766845703125,-0.737396240234375,-0.37074771523475647,-0.933072566986084,0.36423468589782715
554,1.3824,1.1906,0,0,0.213409423828125,1.206268310546875,-0.8222198486328125,-0.6892274022102356,0.18955475091934204,0.4485543668270111
555,1.4139,1.3065,0,0,0.1131439208984375,1.1472930908203125,-0.9451446533203125,-0.5247119665145874,0.9491881728172302,0.38761404156684875
556,1.4228,1.4317,0,0,-0.057281494140625,1.123443603515625,-1.1140899658203125,0.3150191903114319,-0.40418556332588196,0.35418176651000977
557,1.4091,1.5606,0,0,-0.198638916015625,1.1984710693359375,-0.4555511474609375,-0.2784856855869293,-1.7243379354476929,0.04734408110380173
558,1.3747,1.6878,0,0,-0.368560791015625,1.2296295166015625,0.3239593505859375,-2.0826570987701416,-1.5959405899047852,-0.3472825884819031
559,1.3234,1.8088,0,0,-0.6341094970703125,1.340850830078125,0.6330108642578125,-3.175199031829834,0.05992671847343445,-0.60564786195755
560,1.2605,1.9201,0,0,-0.8705902099609375,1.403076171875,0.1479949951171875,-1.9912266731262207,1.025957465171814,-0.46428006887435913
561,1.192,2.0188,0,0,-0.7648773193359375,0.9022979736328125,-0.173919677734375,0.4749675989151001,-0.07202146202325821,-0.014602112583816051
562,1.1244,2.1027,0,0,-0.3616790771484375,0.584625244140625,-0.176513671875,1.5268176794052124,-0.7802311182022095,-0.022368155419826508
563,1.0633,2.1688,0,0,-0.19488525390625,0.5736846923828125,0.0914306640625,0.7565007209777832,0.14131104946136475,-0.4356156587600708
564,1.0127,2.2141,0,0,-0.0957489013671875,0.7770538330078125,0.41058349609375,-1.0933610200881958,1.299336314201355,-0.6923379898071289
565,0.9751,2.2353,0,0,0.0041046142578125,0.9014434814453125,0.21356201171875,-1.9864145517349243,2.399724006652832,-0.28983020782470703
566,0.9509,2.2299,0,0,0.025543212890625,1.045867919921875,0.126312255859375,-2.0828230381011963,2.448410749435425,0.35483452677726746
567,0.9389,2.1972,0,0,0.0703125,1.1116485595703125,0.1304931640625,-1.7472312450408936,1.9128154516220093,0.9642661809921265
568,0.9369,2.1389,0,0,0.1633758544921875,1.0389404296875,0.2412261962890625,-1.369929552078247,0.8179603815078735,1.5036052465438843
569,0.9417,2.0593,0,0,0.07684326171875,0.9350128173828125,0.289764404296875,-1.4182398319244385,-0.2823147773742676,1.487918496131897
570,0.9504,1.9647,0,0,-0.0169219970703125,0.8839111328125,0.181549072265625,-1.4092676639556885,-0.5906004309654236,0.8747530579566956
571,0.9601,1.8624,0,0,-0.0460968017578125,0.8568878173828125,0.06756591796875,-1.2431704998016357,-0.8129581212997437,0.20782829821109772
572,0.9689,1.7597,0,0,0.0241241455078125,0.90179443359375,0.0235748291015625,-1.094697117805481,-0.47969362139701843,-0.026668895035982132
573,0.9756,1.6625,0,0,-0.1633148193359375,0.9931488037109375,-0.8703155517578125,0.29088643193244934,1.9118760824203491,-0.09011311829090118
574,0.9799,1.5747,0,0,-0.0184478759765625,1.0061798095703125,-0.1218719482421875,-0.13117799162864685,1.9378728866577148,0.18150295317173004
575,0.9825,1.4978,0,0,0.0252685546875,0.924163818359375,0.0265045166015625,-0.8861138224601746,0.9751182794570923,0.09744905680418015
576,0.9847,1.4307,0,0,0.0789031982421875,0.95648193359375,0.0669403076171875,-0.9951484799385071,0.1470344513654709,-0.010750648565590382
577,0.988,1.37,0,0,0.1318511962890625,0.9085845947265625,0.0723419189453125,-0.741945207118988,-0.4930400550365448,-0.036256540566682816
578,0.9942,1.3111,0,0,0.1141357421875,0.9113311767578125,0.1163330078125,-0.7050958871841431,-0.7840298414230347,-0.117670439183712
579,1.0044,1.2493,0,0,0.069915771484375,0.9276885986328125,0.117401123046875,-0.9146376252174377,-1.0310622453689575,-0.15848524868488312
580,1.0194,1.181,0,0,-0.0121002197265625,0.946380615234375,0.09326171875,-1.1921110153198242,-1.134946584701538,-0.05404698848724365
581,1.0392,1.1054,0,0,-0.170745849609375,0.9584808349609375,-0.0884246826171875,-1.4302096366882324,-0.675971269607544,-0.08869444578886032
582,1.0632,1.0253,0,0,-0.2029266357421875,1.0274810791015625,-0.251220703125,-1.2714823484420776,0.29857337474823,-0.13648566603660583
583,1.0905,0.9478,0,0,-0.1642913818359375,1.111358642578125,-0.1822967529296875,-0.6579195857048035,0.9417853951454163,-0.23580586910247803
584,1.1196,0.8833,0,0,-0.0949859619140625,1.2175750732421875,-0.0373687744140625,-0.32698026299476624,1.192644715309143,-0.313959538936615
585,1.1492,0.8451,0,0,0.091339111328125,1.2245330810546875,-0.0492095947265625,-0.283926784992218,0.9888975024223328,-0.2682993710041046
586,1.178,0.8469,0,0,0.275604248046875,1.2143096923828125,-0.086212158203125,-0.014129667542874813,0.799778163433075,-0.04850655049085617
587,1.2051,0.9008,0,0,0.2808685302734375,1.1578826904296875,-0.023468017578125,0.3836773633956909,0.38088610768318176,0.08096808940172195
588,1.2295,1.0146,0,0,0.22515869140625,1.1937103271484375,-0.0903472900390625,0.49274125695228577,0.026500049978494644,0.12080205231904984
589,1.2505,1.1905,0,0,0.2066192626953125,1.2681732177734375,-0.085357666015625,0.4694543182849884,-0.03111184574663639,0.27344006299972534
590,1.2674,1.4234,0,0,0.0721282958984375,1.2213134765625,-0.0022125244140625,0.678954005241394,-0.2778547704219818,0.4085789620876312
591,1.2792,1.7008,0,0,-0.014801025390625,1.185577392578125,-0.0055084228515625,1.0933139324188232,-0.7639176249504089,0.33738628029823303
592,1.2847,2.0044,0,0,-0.103912353515625,1.11956787109375,-0.07733154296875,1.891255259513855,-0.8747038245201111,0.2000153809785843
593,1.2825,2.3115,0,0,-0.11749267578125,1.104156494140625,0.1352081298828125,2.4539828300476074,-0.4931103587150574,0.17163939774036407
594,1.2712,2.5982,0,0,-0.0579833984375,1.196929931640625,0.2430267333984375,2.5943145751953125,-0.2960055470466614,0.38806891441345215
595,1.2497,2.8424,0,0,-0.3331451416015625,1.3607940673828125,0.21380615234375,2.5568935871124268,1.0671390295028687,0.09360265731811523
596,1.2173,3.0262,0,0,-0.6515045166015625,1.4643096923828125,0.0542449951171875,2.664271116256714,2.9665367603302,-0.904975175857544
597,1.1743,3.1382,0,0,-0.5063018798828125,1.2238006591796875,-0.0452728271484375,3.0210559368133545,3.131669044494629,-1.249499797821045
598,1.1217,3.1745,0,0,-0.251953125,1.0193023681640625,0.0311431884765625,2.964143991470337,2.0042340755462646,-0.7188338041305542
599,1.0617,3.1386,0,0,-0.1646270751953125,0.8491668701171875,-0.03033447265625,2.681330442428589,0.5909397006034851,-0.09228891879320145
600,0.997,3.0396,0,0,-0.0989227294921875,0.79949951171875,0.12103271484375,1.8993643522262573,-1.524745225906372,0.08187329769134521
601,0.9312,2.8904,0,0,0.092071533203125,0.851837158203125,-0.200775146484375,1.6111218929290771,-1.9863567352294922,0.31260398030281067
602,0.8678,2.7052,0,0,0.1403045654296875,0.87200927734375,-0.189910888671875,1.4456887245178223,-0.6754783391952515,0.45262473821640015
603,0.8105,2.4979,0,0,0.1101837158203125,0.88055419921875,-0.1089019775390625,1.1844781637191772,-0.5343989729881287,0.45261648297309875
604,0.7631,2.28,0,0,0.118499755859375,0.886077880859375,-0.0119781494140625,0.8868677616119385,-2.0080926418304443,0.4621569812297821
605,0.729,2.0614,0,0,0.0107574462890625,0.7865142822265625,-0.0001678466796875,0.7130523324012756,-2.732189178466797,0.4668358862400055
606,0.7111,1.8499,0,0,-0.1342620849609375,0.675048828125,0.085968017578125,0.5260579586029053,-2.6468119621276855,0.26173120737075806
607,0.7119,1.652,0,0,-0.2872772216796875,0.5919189453125,0.048065185546875,0.43759146332740784,-2.4113962650299072,0.07761942595243454
608,0.7326,1.474,0,0,-0.4090423583984375,0.5860748291015625,-0.0369873046875,0.4618895947933197,-1.7710915803909302,-0.0340581014752388
609,0.7736,1.3213,0,0,-0.5026397705078125,0.542816162109375,-0.1216583251953125,0.39919427037239075,-0.675745964050293,0.030878553166985512
610,0.8335,1.199,0,0,-0.546600341796875,0.4882659912109375,-0.3216400146484375,0.13955283164978027,0.05078807845711708,0.15199778974056244
611,0.9097,1.1109,0,0,-0.5222930908203125,0.4881591796875,-0.49981689453125,-0.453045517206192,0.4495048224925995,0.06143566220998764
612,0.9981,1.0591,0,0,-0.381744384765625,0.6276702880859375,-0.5710296630859375,-1.1924774646759033,0.9380348324775696,-0.09652280807495117
613,1.0934,1.0444,0,0,-0.2964935302734375,0.821807861328125,-0.6493377685546875,-1.2612097263336182,1.0586813688278198,-0.25240588188171387
614,1.1895,1.0656,0,0,-0.1492462158203125,0.9850006103515625,-0.6617431640625,-0.8323765993118286,0.37252482771873474,-0.23851776123046875
615,1.2797,1.1201,0,0,0.124176025390625,1.0271453857421875,-0.62481689453125,-0.4553382396697998,-0.5451911687850952,0.13168266415596008
616,1.3577,1.2042,0,0,0.3544769287109375,1.07354736328125,-0.65716552734375,-0.36198005080223083,-1.0877861976623535,0.7320560812950134
617,1.4177,1.3133,0,0,0.3809661865234375,1.1581573486328125,-0.6978912353515625,-0.8088390231132507,-0.2243417650461197,1.049334168434143
618,1.4554,1.442,0,0,0.2443695068359375,1.220672607421875,-0.84130859375,-0.9001540541648865,1.133012294769287,0.7294347286224365
619,1.4683,1.5849,0,0,0.108367919921875,1.26861572265625,-1.1025543212890625,-0.03333398699760437,0.17817053198814392,0.38366085290908813
620,1.4564,1.7366,0,0,-0.0536041259765625,1.3377532958984375,-0.66943359375,-0.09557685256004333,-2.0941720008850098,0.17808690667152405
621,1.4216,1.8921,0,0,-0.377349853515625,1.3352813720703125,0.206573486328125,-1.7035304307937622,-2.4470391273498535,-0.36990562081336975
622,1.3683,2.0469,0,0,-0.686279296875,1.328399658203125,0.6841888427734375,-2.9612345695495605,-0.31360772252082825,-0.8904569149017334
623,1.3026,2.1967,0,0,-0.966094970703125,1.300384521484375,0.254119873046875,-1.8961243629455566,1.3264994621276855,-0.7608126401901245
624,1.2314,2.3372,0,0,-1.00860595703125,0.7594451904296875,-0.1594390869140625,0.5759586691856384,0.25670796632766724,-0.2513022720813751
625,1.1617,2.463,0,0,-0.5879669189453125,0.4481048583984375,-0.029632568359375,1.5095505714416504,-1.636607050895691,-0.3205215632915497
626,1.0996,2.5675,0,0,-0.2633209228515625,0.471710205078125,0.0596160888671875,0.7572123408317566,-1.4318981170654297,-0.6137670278549194
627,1.0495,2.6428,0,0,-0.0982208251953125,0.7504730224609375,0.305877685546875,-0.9194486141204834,0.4371704161167145,-0.7170050144195557
628,1.0135,2.6807,0,0,0.024932861328125,0.9795379638671875,0.2194366455078125,-2.0847861766815186,2.466214179992676,-0.2005261778831482
629,0.9915,2.6745,0,0,0.0110015869140625,1.15374755859375,0.1496734619140625,-2.42598819732666,3.1312716007232666,0.4371166229248047
630,0.9816,2.62,0,0,0.0854949951171875,1.2086181640625,0.137115478515625,-2.203552007675171,2.725449562072754,1.0800862312316895
631,0.9807,2.5178,0,0,0.2003173828125,1.07269287109375,0.2256622314453125,-1.8308504819869995,1.939307451248169,1.6692054271697998
632,0.9849,2.3734,0,0,0.147064208984375,0.9358673095703125,0.2292938232421875,-1.6856027841567993,1.127864956855774,1.7703850269317627
633,0.9906,2.1965,0,0,0.031982421875,0.8481597900390625,0.1536102294921875,-1.396531343460083,0.6794472336769104,1.2667828798294067
634,0.9948,2.0002,0,0,0.0046539306640625,0.84124755859375,-0.0007171630859375,-0.9303982257843018,0.04436453431844711,0.5214461088180542
635,0.9954,1.7985,0,0,-0.0679168701171875,0.9322662353515625,-1.0897674560546875,0.7767303586006165,1.7153586149215698,-0.20241062343120575
636,0.9918,1.604,0,0,0.0706939697265625,1.0188140869140625,-0.0655975341796875,0.15360847115516663,1.0682852268218994,-0.03183329850435257
637,0.9846,1.4269,0,0,0.1021270751953125,1.010711669921875,0.1030426025390625,-0.8734238743782043,-0.12765276432037354,0.15972627699375153
638,0.9754,1.2731,0,0,0.124176025390625,0.9831390380859375,0.082427978515625,-1.0664061307907104,-0.6303460001945496,0.19432713091373444
639,0.9667,1.1445,0,0,0.1083221435546875,0.8867034912109375,0.05999755859375,-0.7905393838882446,-0.6954317688941956,0.05783000960946083
640,0.961,1.0389,0,0,0.0978546142578125,0.853271484375,0.03546142578125,-0.6171441674232483,-0.6384800672531128,0.01170592475682497
641,0.9609,0.9518,0,0,0.0662078857421875,0.8493499755859375,-0.000732421875,-0.7851720452308655,-0.5601016283035278,0.0976293534040451
642,0.968,0.8775,0,0,-0.0308837890625,0.908477783203125,-0.0296783447265625,-1.0726778507232666,-0.45743119716644287,0.028930451720952988
643,0.9831,0.811,0,0,-0.061187744140625,0.935943603515625,-0.052032470703125,-1.1448612213134766,-0.3160381317138672,-0.07709265500307083
644,1.0058,0.7495,0,0,-0.0622100830078125,0.928253173828125,-0.0418243408203125,-0.9818374514579773,-0.1869794726371765,-0.15606336295604706
645,1.0346,0.6933,0,0,-0.05706787109375,0.9716644287109375,0.0296173095703125,-0.8186202645301819,-0.15439648926258087,-0.30838367342948914
646,1.0676,0.6463,0,0,-0.0433807373046875,1.136993408203125,0.027008056640625,-0.7138387560844421,-0.09392516314983368,-0.4498819410800934
647,1.1023,0.6159,0,0,0.005706787109375,1.231964111328125,-0.040283203125,-0.6529293060302734,0.32936564087867737,-0.328043133020401
648,1.136,0.6114,0,0,0.081451416015625,1.227081298828125,-0.0813751220703125,-0.4998348653316498,0.7786286473274231,-0.24969051778316498
649,1.1666,0.6429,0,0,0.1209259033203125,1.1752471923828125,-0.0500946044921875,-0.1733797788619995,0.6750450134277344,-0.17975005507469177
650,1.1925,0.7189,0,0,0.104644775390625,1.1606597900390625,-0.026580810546875,0.12307745963335037,0.15659546852111816,-0.011563179083168507
651,1.2127,0.8449,0,0,0.1468505859375,1.276885986328125,-0.0587310791015625,0.0890963226556778,0.14747335016727448,0.1688113957643509
652,1.2269,1.0212,0,0,0.1467132568359375,1.338775634765625,-0.059814453125,0.050586212426424026,0.5281908512115479,0.3028767704963684
653,1.2353,1.2426,0,0,0.0501251220703125,1.24310302734375,-0.055938720703125,0.3976736068725586,0.6387796998023987,0.2775479853153229
654,1.2382,1.498,0,0,-0.0258026123046875,1.1436614990234375,-0.1245880126953125,1.029889702796936,0.4870500862598419,0.14191453158855438
655,1.236,1.7717,0,0,-0.0672760009765625,1.1210784912109375,-0.1044464111328125,1.87614905834198,0.13655038177967072,0.038353513926267624
656,1.2287,2.0453,0,0,-0.0587005615234375,1.0262298583984375,0.1099853515625,2.3462107181549072,-0.06619712710380554,0.15931668877601624
657,1.2161,2.2994,0,0,-0.07440185546875,1.0466156005859375,0.0998687744140625,2.6584393978118896,-0.11346983909606934,0.28478753566741943
658,1.1974,2.5169,0,0,-0.131622314453125,1.1310577392578125,0.167572021484375,2.5261974334716797,0.2145833969116211,0.4030872583389282
659,1.1719,2.6842,0,0,-0.28289794921875,1.286590576171875,0.081298828125,2.366025447845459,1.5024281740188599,0.11690158396959305
660,1.1389,2.7935,0,0,-0.4041595458984375,1.357421875,-0.0046844482421875,2.4331352710723877,2.873039484024048,-0.3101906180381775
661,1.0983,2.8427,0,0,-0.3406524658203125,1.2135772705078125,-0.02349853515625,2.6273794174194336,2.421107053756714,-0.4103369414806366
662,1.0508,2.8353,0,0,-0.1857757568359375,1.0178070068359375,-0.0594635009765625,2.6216793060302734,1.0749386548995972,-0.16897517442703247
663,0.9977,2.7794,0,0,-0.1384429931640625,0.8531646728515625,0.075897216796875,2.261850595474243,-0.328642338514328,-0.08583927154541016
664,0.9414,2.6854,0,0,0.0606689453125,0.8135986328125,-0.0347137451171875,1.6845487356185913,-1.1695122718811035,0.13796453177928925
665,0.8847,2.5645,0,0,0.1212921142578125,0.8070220947265625,-0.1496124267578125,1.6438385248184204,-0.648104727268219,0.44865208864212036
666,0.831,2.4267,0,0,0.0790863037109375,0.851348876953125,-0.0381622314453125,1.4245754480361938,-0.7348545789718628,0.48226943612098694
667,0.7839,2.2799,0,0,0.012908935546875,0.8589935302734375,-0.0388031005859375,1.270880937576294,-1.5932108163833618,0.2951200604438782
668,0.7471,2.1298,0,0,0.017547607421875,0.834991455078125,-0.04742431640625,1.168119192123413,-2.0170578956604004,0.15358635783195496
669,0.7239,1.9808,0,0,-0.0259857177734375,0.7869873046875,-0.019561767578125,1.0877718925476074,-2.178361177444458,0.1577528715133667
670,0.7172,1.8365,0,0,-0.149688720703125,0.7111663818359375,-0.004913330078125,0.8472511172294617,-2.6471009254455566,0.11316677182912827
671,0.7291,1.701,0,0,-0.2996978759765625,0.6178741455078125,-0.137298583984375,0.6523719429969788,-2.4220058917999268,0.008616125211119652
672,0.7605,1.5791,0,0,-0.377716064453125,0.5720367431640625,-0.2250213623046875,0.4058087468147278,-1.5517100095748901,-0.017244767397642136
673,0.811,1.4769,0,0,-0.429840087890625,0.51519775390625,-0.2738494873046875,-0.07567106187343597,-0.5968210697174072,0.05638550966978073
674,0.8785,1.4008,0,0,-0.480926513671875,0.4690399169921875,-0.384307861328125,-0.6265267729759216,0.17399443686008453,-0.05543902516365051
675,0.9595,1.357,0,0,-0.4563446044921875,0.5132598876953125,-0.48919677734375,-1.1835764646530151,0.5928587913513184,-0.2588403522968292
676,1.049,1.3505,0,0,-0.4462127685546875,0.677734375,-0.5851898193359375,-1.5823291540145874,1.0514016151428223,-0.5202716588973999
677,1.1412,1.3848,0,0,-0.290283203125,0.841400146484375,-0.66021728515625,-1.6255959272384644,0.9648060202598572,-0.4816704988479614
678,1.23,1.461,0,0,-0.132293701171875,0.987457275390625,-0.7490386962890625,-1.3818143606185913,-0.25614070892333984,-0.21659249067306519
679,1.3093,1.5773,0,0,0.2095794677734375,1.198333740234375,-0.860809326171875,-0.9076716303825378,-1.016981601715088,0.35277697443962097
680,1.374,1.729,0,0,0.368499755859375,1.3828887939453125,-0.8911895751953125,-0.45030832290649414,0.3185763955116272,0.8626993298530579
681,1.4203,1.9077,0,0,0.297698974609375,1.3437042236328125,-0.8008270263671875,-0.19059763848781586,1.7988049983978271,0.7364460825920105
682,1.4458,2.1023,0,0,0.288238525390625,0.8621978759765625,-1.0256805419921875,0.44835835695266724,0.24827319383621216,0.6278333067893982
683,1.4501,2.2994,0,0,0.1326751708984375,0.8303680419921875,-0.487457275390625,-0.39220160245895386,-2.2063562870025635,0.24968039989471436
684,1.4339,2.4851,0,0,-0.0972442626953125,1.0854034423828125,0.449920654296875,-2.855220317840576,-1.7549781799316406,-0.3090478479862213
685,1.3995,2.6458,0,0,-0.454071044921875,1.2907257080078125,0.766937255859375,-4.261617660522461,-0.5077196955680847,-0.7838372588157654
686,1.3504,2.7705,0,0,-0.7996673583984375,1.479400634765625,0.1755523681640625,-2.5593464374542236,0.5913429260253906,-1.0465043783187866
687,1.291,2.8512,0,0,-1.073516845703125,1.3990020751953125,-0.6769561767578125,1.5493991374969482,-0.03418673202395439,-1.0153850317001343
688,1.2261,2.8837,0,0,-0.58404541015625,0.8852081298828125,-0.203399658203125,3.4198052883148193,-1.2391070127487183,-0.754872739315033
689,1.1608,2.8669,0,0,-0.2613525390625,0.5946044921875,0.196441650390625,1.5225512981414795,-0.8838440179824829,-0.8909810185432434
690,1.0994,2.8029,0,0,-0.116455078125,0.734527587890625,0.455841064453125,-0.8990877270698547,1.0044881105422974,-0.7720724940299988
691,1.0456,2.6965,0,0,-0.020721435546875,0.8676300048828125,0.249969482421875,-1.9998387098312378,2.112640857696533,-0.08919086307287216
692,1.0016,2.5546,0,0,-0.0118255615234375,0.9970245361328125,0.1578521728515625,-2.3182926177978516,2.153424024581909,0.6368398666381836
693,0.9681,2.3862,0,0,0.0277252197265625,1.0867156982421875,0.1701507568359375,-2.198184013366699,1.631592035293579,1.1957066059112549
694,0.9449,2.2024,0,0,0.0909423828125,1.057373046875,0.285003662109375,-2.026315689086914,1.0200186967849731,1.6182777881622314
695,0.9308,2.0149,0,0,0.0149993896484375,0.9399871826171875,0.181732177734375,-1.7246482372283936,0.4720218777656555,1.5503687858581543
696,0.924,1.8358,0,0,-0.0201568603515625,0.8899688720703125,0.1167144775390625,-1.211387038230896,0.08413565158843994,1.0203994512557983
697,0.9228,1.6756,0,0,0.0146484375,0.85784912109375,0.078460693359375,-0.7754669785499573,-0.05066930130124092,0.44575831294059753
698,0.9253,1.5423,0,0,0.057281494140625,0.8549346923828125,-0.064666748046875,-0.6355226635932922,0.06524957716464996,0.1646438091993332
699,0.9303,1.4396,0,0,-0.1327972412109375,0.909088134765625,-0.7167510986328125,0.12362953275442123,2.012571334838867,-0.0972788855433464
700,0.9369,1.367,0,0,0.0596923828125,0.9823150634765625,-0.0492095947265625,-0.45953404903411865,0.9802336692810059,0.13166934251785278
701,0.9447,1.3198,0,0,0.08575439453125,1.0036773681640625,0.1582794189453125,-0.9993967413902283,-0.2615221440792084,0.1605270951986313
702,0.9541,1.2897,0,0,0.0746002197265625,0.8981475830078125,0.1173248291015625,-0.9516941905021667,-0.8754518628120422,0.01188302505761385
703,0.9653,1.2666,0,0,0.0797576904296875,0.8078460693359375,0.0882415771484375,-0.765637218952179,-1.008760929107666,-0.10240786522626877
704,0.9791,1.2402,0,0,0.0332489013671875,0.84918212890625,0.0996856689453125,-0.7725577354431152,-0.8659971356391907,-0.16194894909858704
705,0.9958,1.2018,0,0,-0.009735107421875,0.9416351318359375,0.1335296630859375,-0.9974989891052246,-0.7818702459335327,-0.1277790069580078
706,1.0157,1.1464,0,0,-0.0681915283203125,1.0261688232421875,0.1292724609375,-1.2902264595031738,-0.6590407490730286,-0.1131550520658493
707,1.0387,1.0739,0,0,-0.1758880615234375,1.066741943359375,-0.0544281005859375,-1.5666934251785278,-0.23098687827587128,-0.13871926069259644
708,1.0648,0.9895,0,0,-0.196533203125,1.11273193359375,-0.320098876953125,-1.27505362033844,0.7026675939559937,-0.222996324300766
709,1.0935,0.9041,0,0,-0.02520751953125,1.1194305419921875,-0.1979217529296875,-0.5309339165687561,1.055224895477295,-0.2564552128314972
710,1.1243,0.8325,0,0,0.099365234375,1.1499481201171875,-0.08624267578125,0.004369981121271849,1.1416995525360107,-0.2285357117652893
711,1.1564,0.7919,0,0,0.206329345703125,1.1376953125,-0.0447235107421875,-0.0009366337326355278,0.8390493988990784,-0.1466411054134369
712,1.189,0.799,0,0,0.225921630859375,1.1075439453125,-0.0470428466796875,0.011829495429992676,0.44430235028266907,-0.030843932181596756
713,1.2208,0.8672,0,0,0.237548828125,1.1045379638671875,0.0239715576171875,0.2023291289806366,-0.0798620730638504,0.16042935848236084
714,1.2505,1.004,0,0,0.180084228515625,1.203857421875,0.0072784423828125,0.23037941753864288,-0.3376062512397766,0.23947809636592865
715,1.2762,1.209,0,0,0.189178466796875,1.3422698974609375,-0.07635498046875,0.374106764793396,-0.2187214195728302,0.40966740250587463
716,1.296,1.4736,0,0,0.05126953125,1.3136749267578125,-0.032562255859375,0.8403724431991577,-0.3491414785385132,0.47625789046287537
717,1.3078,1.781,0,0,-0.029052734375,1.2336578369140625,0.050750732421875,1.431888461112976,-0.7412354946136475,0.3861876428127289
718,1.3098,2.1082,0,0,-0.10003662109375,1.116302490234375,0.08734130859375,1.8887665271759033,-1.0125585794448853,0.34197837114334106
719,1.3002,2.4291,0,0,-0.216796875,1.177886962890625,0.0931854248046875,2.4103546142578125,-0.8110108375549316,0.14576253294944763
720,1.2783,2.717,0,0,-0.3425140380859375,1.3427276611328125,0.1792755126953125,2.5765976905822754,0.034753452986478806,-0.26054131984710693
721,1.2438,2.9487,0,0,-0.62579345703125,1.5160980224609375,0.2255401611328125,2.4014148712158203,2.2119481563568115,-0.928595781326294
722,1.1979,3.1068,0,0,-0.645660400390625,1.2752685546875,-0.0110015869140625,2.8222122192382812,3.4747393131256104,-1.402979850769043
723,1.1424,3.182,0,0,-0.497802734375,1.0179901123046875,0.0090484619140625,3.0380992889404297,2.8717188835144043,-1.0144606828689575
724,1.0802,3.1736,0,0,-0.2152557373046875,0.804412841796875,0.0091400146484375,2.8867130279541016,1.451995849609375,-0.023267505690455437
725,1.0147,3.0885,0,0,-0.23162841796875,0.6945037841796875,0.026763916015625,2.526621103286743,0.13303475081920624,0.33104395866394043
726,0.9493,2.9394,0,0,-0.091522216796875,0.7361907958984375,0.1399993896484375,1.6463632583618164,-1.7955710887908936,0.1535339057445526
727,0.8875,2.7423,0,0,0.1179656982421875,0.8351898193359375,-0.2240142822265625,1.3608289957046509,-1.535529613494873,0.274845689535141
728,0.8324,2.5136,0,0,0.17974853515625,0.9072418212890625,-0.173675537109375,1.2523424625396729,-0.12489958852529526,0.5081439018249512
729,0.7868,2.2687,0,0,0.0874176025390625,0.9914703369140625,-0.15228271484375,1.1062995195388794,-0.49993500113487244,0.4676782488822937
730,0.7534,2.0202,0,0,0.065643310546875,0.9293365478515625,-0.0380859375,0.8811771273612976,-2.1320037841796875,0.3096475899219513
731,0.7346,1.7785,0,0,0.0325775146484375,0.795806884765625,-0.0097198486328125,0.6251967549324036,-2.7916173934936523,0.37816861271858215
732,0.7324,1.5518,0,0,-0.165985107421875,0.6587982177734375,0.042816162109375,0.39847972989082336,-2.360438108444214,0.33197021484375
733,0.7481,1.3471,0,0,-0.353424072265625,0.575958251953125,-0.008544921875,0.2794492244720459,-1.8915154933929443,0.10362067073583603
734,0.7822,1.1707,0,0,-0.4450225830078125,0.55267333984375,-0.0351715087890625,0.1967543363571167,-1.1342169046401978,-0.045648977160453796
735,0.8342,1.0281,0,0,-0.5160980224609375,0.51593017578125,-0.139068603515625,0.09030592441558838,-0.17885762453079224,-0.03567676991224289
736,0.9021,0.924,0,0,-0.5601806640625,0.472381591796875,-0.361968994140625,-0.05595194920897484,0.3673149049282074,0.011479821987450123
737,0.9825,0.8619,0,0,-0.52227783203125,0.5796966552734375,-0.542083740234375,-0.541104793548584,0.5808253288269043,-0.09919529408216476
738,1.071,0.8432,0,0,-0.4167633056640625,0.78387451171875,-0.67767333984375,-1.048952341079712,0.9446746110916138,-0.3597557842731476
739,1.1621,0.8678,0,0,-0.2385406494140625,0.945281982421875,-0.7575531005859375,-0.9318123459815979,0.8022780418395996,-0.44635406136512756
740,1.2498,0.9329,0,0,0.054168701171875,1.0028076171875,-0.706390380859375,-0.544687032699585,0.03540406376123428,-0.07714778184890747
741,1.3281,1.0343,0,0,0.2255401611328125,1.0134429931640625,-0.6472015380859375,-0.37965065240859985,-0.41340407729148865,0.40511685609817505
742,1.3916,1.1656,0,0,0.3022613525390625,1.1429443359375,-0.661590576171875,-0.7091851234436035,-0.015017032623291016,0.6351450085639954
743,1.4356,1.3189,0,0,0.273345947265625,1.2095489501953125,-0.821807861328125,-0.9416642189025879,0.8475400805473328,0.46250292658805847
744,1.4572,1.4855,0,0,0.3506011962890625,1.1051788330078125,-1.111328125,-0.010570885613560677,-0.006332198157906532,0.5345760583877563
745,1.4552,1.6566,0,0,0.158843994140625,1.14678955078125,-0.897430419921875,0.5270038843154907,-2.1593267917633057,0.4367906451225281
746,1.4303,1.8243,0,0,-0.164031982421875,1.267547607421875,-0.0653839111328125,-1.1243549585342407,-2.1264102458953857,-0.03149161487817764
747,1.3856,1.982,0,0,-0.5167236328125,1.3037872314453125,0.60394287109375,-3.1809329986572266,-0.5546411275863647,-0.5241114497184753
748,1.3255,2.1251,0,0,-0.883758544921875,1.5069580078125,0.440185546875,-3.105797052383423,0.25013288855552673,-0.8699899911880493
749,1.2563,2.2505,0,0,-1.0410614013671875,1.2248077392578125,-0.2606201171875,-0.07260096818208694,-0.06790048629045486,-0.35012444853782654
750,1.1845,2.3557,0,0,-0.6243438720703125,0.5692291259765625,0.0201873779296875,1.7430860996246338,-1.4592809677124023,-2.663161103555467e-05
751,1.1164,2.438,0,0,-0.2991790771484375,0.4687042236328125,-0.00555419921875,1.6432380676269531,-1.236419677734375,-0.20366071164608002
752,1.0573,2.494,0,0,-0.1803131103515625,0.6328277587890625,0.35443115234375,-0.09593478590250015,0.1308530867099762,-0.6888697743415833
753,1.0107,2.5193,0,0,-0.004791259765625,0.8662109375,0.2827301025390625,-1.4211503267288208,1.8286726474761963,-0.5210237503051758
754,0.9782,2.5097,0,0,0.007415771484375,0.998779296875,0.1611175537109375,-1.9012326002120972,2.7725744247436523,0.19676631689071655
755,0.9592,2.4619,0,0,0.0009307861328125,1.14263916015625,0.138519287109375,-1.9157017469406128,2.874480962753296,0.8427815437316895
756,0.9519,2.3755,0,0,0.1000518798828125,1.1428680419921875,0.2111358642578125,-1.6704938411712646,2.259307622909546,1.4075969457626343
757,0.9534,2.2534,0,0,0.1000518798828125,0.9889678955078125,0.330657958984375,-1.6603200435638428,1.123000979423523,1.6993420124053955
758,0.9603,2.1023,0,0,-0.0265960693359375,0.8892822265625,0.19268798828125,-1.6507947444915771,0.2807736098766327,1.3029686212539673
759,0.9694,1.9317,0,0,-0.024749755859375,0.833953857421875,0.0990142822265625,-1.4416090250015259,-0.4181908667087555,0.7188681364059448
760,0.9781,1.7529,0,0,-0.0177001953125,0.8506011962890625,0.0538482666015625,-1.2073485851287842,-0.822639524936676,0.1459691971540451
761,0.9848,1.5768,0,0,-0.116729736328125,0.953826904296875,-1.000091552734375,0.022291989997029305,1.0341448783874512,-0.16913682222366333
762,0.9885,1.4126,0,0,0.025726318359375,1.0211181640625,-0.126251220703125,-0.1439928561449051,1.1979920864105225,0.053521815687417984
763,0.9894,1.2665,0,0,0.0667572021484375,0.9626312255859375,0.084625244140625,-0.7999739050865173,0.37007659673690796,0.16938982903957367
764,0.9886,1.1409,0,0,0.054656982421875,0.9914093017578125,0.0979156494140625,-0.9159561395645142,-0.07824154198169708,0.06655958294868469
765,0.9876,1.0351,0,0,0.0909576416015625,0.9271087646484375,0.0897674560546875,-0.76847243309021,-0.32470405101776123,-0.04135622829198837
766,0.988,0.9458,0,0,0.088653564453125,0.861907958984375,0.07257080078125,-0.9024795293807983,-0.4667024612426758,0.018925487995147705
767,0.9914,0.8682,0,0,-0.015533447265625,0.8530426025390625,-0.004180908203125,-1.1430548429489136,-0.4826497435569763,-0.021934060379862785
768,0.9988,0.7982,0,0,-0.1027984619140625,0.917724609375,-0.0809326171875,-1.1957582235336304,-0.40456318855285645,-0.17348816990852356
769,1.0106,0.7335,0,0,-0.1096954345703125,0.9748687744140625,-0.148101806640625,-0.9337593913078308,-0.08464884012937546,-0.2702314853668213
770,1.0268,0.6743,0,0,-0.0550994873046875,1.0410614013671875,-0.1198883056640625,-0.601167619228363,0.11231162399053574,-0.2661195695400238
771,1.0468,0.6244,0,0,0.0372772216796875,1.1224212646484375,-0.0261993408203125,-0.42049580812454224,0.3295845687389374,-0.2500756084918976
772,1.0699,0.5906,0,0,0.1625518798828125,1.170074462890625,0.0277862548828125,-0.4589928686618805,0.5207896828651428,-0.15424282848834991
773,1.0952,0.5819,0,0,0.13885498046875,1.1804046630859375,-0.0441741943359375,-0.5354841947555542,0.7829291224479675,-0.1450357586145401
774,1.1221,0.6084,0,0,0.0980987548828125,1.16143798828125,-0.1033172607421875,-0.3563847541809082,0.8176804780960083,-0.04520769044756889
775,1.1497,0.6796,0,0,0.022796630859375,1.10357666015625,-0.1220703125,-0.015973906964063644,0.6845354437828064,-0.018995262682437897
776,1.1775,0.8022,0,0,0.0390472412109375,1.1004638671875,-0.139190673828125,0.24144618213176727,0.4616698920726776,-0.028174379840493202
777,1.2047,0.9788,0,0,0.0934906005859375,1.228607177734375,-0.054107666015625,0.3182658553123474,0.20049022138118744,0.05801510065793991
778,1.2302,1.2063,0,0,0.11895751953125,1.25079345703125,-0.1152191162109375,0.4243108034133911,0.24844469130039215,0.15380793809890747
779,1.2526,1.4755,0,0,0.0936737060546875,1.200897216796875,-0.120819091796875,0.9277307987213135,0.15659892559051514,0.16047276556491852
780,1.2703,1.7712,0,0,0.0461273193359375,1.1099090576171875,-0.0797576904296875,1.6369985342025757,-0.1929561346769333,0.1333732306957245
781,1.2809,2.0743,0,0,0.0315704345703125,1.044921875,0.111083984375,2.1543538570404053,-0.25609222054481506,0.2677488923072815
782,1.2824,2.3635,0,0,0.0829620361328125,1.1778717041015625,0.1606597900390625,2.501750946044922,-0.5668501257896423,0.5685862302780151
783,1.2725,2.6179,0,0,-0.066131591796875,1.3314361572265625,0.2270050048828125,2.5249366760253906,-0.02232448011636734,0.6899747252464294
784,1.2499,2.8203,0,0,-0.3098297119140625,1.4607696533203125,0.1526336669921875,2.3558061122894287,1.7001996040344238,0.13509230315685272
785,1.2142,2.9587,0,0,-0.55419921875,1.49041748046875,-0.1307373046875,2.6797754764556885,3.4296367168426514,-0.7184739708900452
786,1.166,3.0277,0,0,-0.34906005859375,1.2415771484375,-0.05743408203125,2.930187463760376,2.8348934650421143,-0.7549792528152466
787,1.1076,3.0294,0,0,-0.1908721923828125,0.9822235107421875,-0.0234222412109375,2.7490038871765137,1.1448538303375244,-0.25906696915626526
788,1.042,2.9715,0,0,-0.1716461181640625,0.8100738525390625,0.0034332275390625,2.2812252044677734,-0.3760279715061188,0.03687386214733124
789,0.9731,2.8657,0,0,-0.0864410400390625,0.7718505859375,0.0384063720703125,1.5080740451812744,-2.0727627277374268,-0.025906965136528015
790,0.9051,2.7258,0,0,0.053802490234375,0.7884063720703125,-0.23779296875,1.4675657749176025,-1.8082588911056519,0.16465792059898376
791,0.8422,2.5644,0,0,0.0171966552734375,0.8100433349609375,-0.07012939453125,1.3023432493209839,-0.6607550382614136,0.14677771925926208
792,0.7883,2.3922,0,0,0.0336151123046875,0.842071533203125,0.0076141357421875,1.0512250661849976,-1.0305708646774292,0.07576373964548111
793,0.7467,2.2164,0,0,0.08343505859375,0.9111480712890625,0.0419158935546875,0.7735292315483093,-2.338560104370117,0.1977684646844864
794,0.7202,2.0415,0,0,0.0286865234375,0.8320770263671875,0.0189971923828125,0.6614701151847839,-2.546278238296509,0.40637946128845215
795,0.7111,1.8699,0,0,-0.133636474609375,0.7210540771484375,0.0744781494140625,0.4993554949760437,-2.3877711296081543,0.39385223388671875
796,0.7207,1.7031,0,0,-0.3006591796875,0.6341094970703125,0.0207672119140625,0.3431493639945984,-2.2499141693115234,0.25292494893074036
797,0.7493,1.5431,0,0,-0.390380859375,0.5654754638671875,-0.081451416015625,0.19939912855625153,-1.61664879322052,0.1816110759973526
798,0.7961,1.393,0,0,-0.4456939697265625,0.5306549072265625,-0.241912841796875,-0.022459236904978752,-0.7836093306541443,0.3330450654029846
799,0.8592,1.2576,0,0,-0.4714202880859375,0.482879638671875,-0.359466552734375,-0.5406193137168884,-0.06404982507228851,0.33735859394073486
800,0.9352,1.1433,0,0,-0.4765167236328125,0.5037078857421875,-0.4073333740234375,-1.2674622535705566,0.7324143052101135,0.1337684541940689
801,1.02,1.0574,0,0,-0.4642181396484375,0.7137603759765625,-0.4352874755859375,-1.5368239879608154,1.2916083335876465,-0.15532620251178741
802,1.1083,1.0081,0,0,-0.3722076416015625,0.9138336181640625,-0.56744384765625,-1.143013596534729,1.22200345993042,-0.31117573380470276
803,1.195,1.0024,0,0,-0.1538238525390625,1.0264434814453125,-0.797698974609375,-0.2585652470588684,0.03943662345409393,-0.35647448897361755
804,1.2746,1.0457,0,0,0.3094024658203125,1.104705810546875,-0.817169189453125,0.4596687853336334,-0.77623450756073,0.1284911334514618
805,1.3427,1.1398,0,0,0.45037841796875,1.25390625,-0.593841552734375,0.1776789128780365,-0.029520874843001366,0.6328187584877014
806,1.3955,1.2822,0,0,0.2914886474609375,1.278656005859375,-0.62945556640625,-0.42156800627708435,0.5586142539978027,0.5387377738952637
807,1.4306,1.465,0,0,0.1923065185546875,1.0293121337890625,-1.112884521484375,0.2384442687034607,0.11559397727251053,0.39044418931007385
808,1.4465,1.676,0,0,0.3347625732421875,0.73272705078125,-1.04144287109375,0.6721147298812866,-0.5932694673538208,0.7907662987709045
809,1.4433,1.8992,0,0,0.09619140625,0.795318603515625,-0.2977142333984375,-0.8107247948646545,-1.2456861734390259,0.31020233035087585
810,1.4219,2.1173,0,0,-0.2202911376953125,1.2105712890625,0.426727294921875,-3.1638708114624023,-1.1482282876968384,-0.5114589929580688
811,1.3844,2.3137,0,0,-0.52374267578125,1.4674835205078125,0.570465087890625,-4.215236663818359,-0.9535813331604004,-1.024137020111084
812,1.3339,2.4744,0,0,-0.8357696533203125,1.6241912841796875,-0.0072479248046875,-2.4779717922210693,-0.4803008437156677,-1.0901011228561401
813,1.2747,2.5897,0,0,-1.0881805419921875,1.424713134765625,-0.3893585205078125,0.968640923500061,-0.17129851877689362,-0.8439573645591736
814,1.2114,2.6542,0,0,-0.680633544921875,0.8381805419921875,-0.300506591796875,2.9072070121765137,-0.7719228267669678,-0.5623642802238464
815,1.1491,2.6667,0,0,-0.2154541015625,0.4743804931640625,-0.0587615966796875,2.078650712966919,-0.6357591152191162,-0.36435824632644653
816,1.0923,2.6296,0,0,-0.19580078125,0.6003875732421875,0.51495361328125,-0.7970423102378845,0.5543995499610901,-0.6242449283599854
817,1.0445,2.5481,0,0,-0.0487213134765625,0.874481201171875,0.3550872802734375,-2.2209739685058594,1.568895936012268,-0.33970242738723755
818,1.0079,2.4297,0,0,0.0139923095703125,1.0399169921875,0.1858367919921875,-2.549443483352661,1.9823564291000366,0.46715468168258667
819,0.983,2.2835,0,0,0.0675506591796875,1.129730224609375,0.188232421875,-2.289685010910034,1.5079926252365112,1.2129780054092407
820,0.969,2.1201,0,0,0.0440216064453125,1.0418548583984375,0.23370361328125,-1.7726706266403198,0.7138144969940186,1.6084320545196533
821,0.9641,1.9505,0,0,0.0350189208984375,0.908538818359375,0.2328033447265625,-1.3859162330627441,0.21014390885829926,1.489043116569519
822,0.9657,1.7852,0,0,-0.0831756591796875,0.8214569091796875,0.1565399169921875,-1.0121668577194214,-0.01683916710317135,0.8851290345191956
823,0.971,1.6333,0,0,-0.02117919921875,0.89404296875,0.1294403076171875,-0.8304175734519958,0.04411632940173149,0.271595299243927
824,0.9772,1.5008,0,0,0.0886688232421875,0.9212799072265625,0.139404296875,-0.8838562965393066,-0.05072975531220436,0.12319517135620117
825,0.9824,1.3907,0,0,-0.1912994384765625,0.947509765625,-1.0104827880859375,0.2403889000415802,1.6592934131622314,-0.013325126841664314
826,0.9851,1.3024,0,0,-0.0206146240234375,1.017120361328125,-0.15118408203125,0.0178194772452116,1.5516724586486816,0.15771186351776123
827,0.9853,1.2324,0,0,0.044403076171875,0.9998931884765625,0.05279541015625,-0.8716251850128174,0.2221694141626358,0.28131237626075745
828,0.9834,1.1752,0,0,0.0820159912109375,0.9886474609375,0.0706329345703125,-1.1692723035812378,-0.47074833512306213,0.2332276552915573
829,0.9808,1.1247,0,0,0.1285247802734375,0.919525146484375,0.0531005859375,-0.9291713237762451,-0.8853843808174133,0.23044012486934662
830,0.9792,1.0748,0,0,0.1194305419921875,0.8560333251953125,0.0500946044921875,-0.6871727705001831,-0.9308131337165833,0.15870682895183563
831,0.9802,1.0213,0,0,0.05035400390625,0.869659423828125,0.05230712890625,-0.788499116897583,-0.9446735382080078,0.03687199577689171
832,0.985,0.962,0,0,-0.05694580078125,0.9193115234375,-0.085418701171875,-1.0348823070526123,-0.8003326058387756,0.026689933612942696
833,0.9945,0.8976,0,0,-0.1687469482421875,0.9162445068359375,-0.1954803466796875,-0.9291060566902161,-0.2202356904745102,-0.07483349740505219
834,1.0086,0.8317,0,0,-0.1510009765625,0.9835357666015625,-0.099822998046875,-0.5272009372711182,0.21763351559638977,-0.16184855997562408
835,1.0268,0.7701,0,0,-0.0381622314453125,1.04241943359375,0.0698699951171875,-0.33741292357444763,0.30855438113212585,-0.15853877365589142
836,1.0483,0.7206,0,0,0.01068115234375,1.058074951171875,0.13421630859375,-0.4194217622280121,0.3368198275566101,-0.23308305442333221
837,1.0721,0.692,0,0,0.079132080078125,1.1455535888671875,0.1513214111328125,-0.6522893905639648,0.3147779107093811,-0.1443670392036438
838,1.097,0.6933,0,0,0.04827880859375,1.2355499267578125,0.0577392578125,-0.826218843460083,0.4346233606338501,0.0010753844399005175
839,1.1222,0.7327,0,0,-0.0095062255859375,1.1385955810546875,-0.106689453125,-0.6507527232170105,0.8326090574264526,0.023232351988554
840,1.1471,0.8171,0,0,-0.0649871826171875,1.062255859375,-0.2285919189453125,-0.21391521394252777,1.0805150270462036,-0.031002391129732132
841,1.1712,0.9505,0,0,-0.0513458251953125,1.1065216064453125,-0.1896514892578125,0.1978166699409485,0.9397491216659546,-0.05445605143904686
842,1.1942,1.1332,0,0,0.102508544921875,1.2821044921875,-0.033203125,0.4977940618991852,0.6085234880447388,0.004959871061146259
843,1.2154,1.3614,0,0,0.189971923828125,1.2735748291015625,-0.056488037109375,0.7005985975265503,0.5788761377334595,0.12441942095756531
844,1.2343,1.6261,0,0,0.1952056884765625,1.161102294921875,-0.0445709228515625,1.0346442461013794,0.41370102763175964,0.21974541246891022
845,1.2496,1.9141,0,0,0.166778564453125,1.11199951171875,-0.0600128173828125,1.5489554405212402,0.004335360135883093,0.31305378675460815
846,1.2597,2.2081,0,0,0.0712890625,1.0257720947265625,0.0481719970703125,2.0551788806915283,-0.6698787808418274,0.25571513175964355
847,1.2626,2.4892,0,0,0.0250701904296875,1.108001708984375,0.0184783935546875,2.457298755645752,-0.6797202229499817,0.41354018449783325
848,1.2562,2.7381,0,0,-0.0216827392578125,1.2070159912109375,0.1764373779296875,2.570582151412964,-0.0814402624964714,0.6436769962310791
849,1.2387,2.938,0,0,-0.2107391357421875,1.3777618408203125,0.2148590087890625,2.221705436706543,1.5625817775726318,0.33291536569595337
850,1.2087,3.0766,0,0,-0.4080657958984375,1.5086517333984375,0.0100250244140625,2.223698854446411,3.7226693630218506,-0.20880195498466492
851,1.1662,3.1471,0,0,-0.3936920166015625,1.3149871826171875,-0.1157073974609375,2.8705222606658936,3.564235210418701,-0.44721105694770813
852,1.1123,3.1496,0,0,-0.2381591796875,1.04180908203125,-0.03363037109375,2.8438963890075684,1.7943782806396484,-0.21839864552021027
853,1.0495,3.0898,0,0,-0.2440948486328125,0.8412933349609375,0.0514068603515625,2.351396083831787,-0.2306332141160965,-0.13940955698490143
854,0.9814,2.9781,0,0,-0.1553955078125,0.8039703369140625,0.0439910888671875,1.6555708646774292,-1.9905991554260254,-0.2997497022151947
855,0.9123,2.8271,0,0,0.093475341796875,0.8479156494140625,-0.3192291259765625,1.7167249917984009,-1.8198684453964233,0.09058289974927902
856,0.8471,2.6499,0,0,0.0909576416015625,0.88519287109375,-0.0770416259765625,1.5939445495605469,-0.9483290314674377,0.33982548117637634
857,0.7904,2.4584,0,0,0.069854736328125,0.8900146484375,-0.099578857421875,1.2766815423965454,-1.0353797674179077,0.3118271231651306
858,0.7465,2.2618,0,0,0.0445556640625,0.8182373046875,-0.0731048583984375,1.104313611984253,-1.669624924659729,0.2933541238307953
859,0.7191,2.0671,0,0,-0.01507568359375,0.6748809814453125,-0.003143310546875,0.8661920428276062,-2.372529983520508,0.30135637521743774
860,0.7107,1.8791,0,0,-0.1169281005859375,0.6036224365234375,0.0245819091796875,0.5786257982254028,-2.7496278285980225,0.2284502238035202
861,0.7222,1.7016,0,0,-0.2816619873046875,0.57672119140625,-0.010406494140625,0.34956517815589905,-2.464395523071289,-0.04955929517745972
862,0.7532,1.5378,0,0,-0.4176177978515625,0.5514678955078125,-0.0706634521484375,0.18806470930576324,-1.5360628366470337,-0.29181987047195435
863,0.8018,1.391,0,0,-0.467315673828125,0.5339508056640625,-0.1190185546875,-0.12578189373016357,-0.5625602602958679,-0.23504580557346344
864,0.8647,1.2648,0,0,-0.4880828857421875,0.5667572021484375,-0.2431640625,-0.5875652432441711,0.17237603664398193,-0.06858571618795395
865,0.9377,1.1629,0,0,-0.466278076171875,0.6778411865234375,-0.4138641357421875,-1.0614880323410034,0.603649914264679,-0.06546449661254883
866,1.0158,1.0892,0,0,-0.4297637939453125,0.8650970458984375,-0.591156005859375,-1.3116248846054077,1.0519675016403198,-0.2374836653470993
867,1.0944,1.0469,0,0,-0.2201080322265625,1.0248870849609375,-0.714813232421875,-1.0414581298828125,1.2210588455200195,-0.20960542559623718
868,1.1689,1.0393,0,0,-0.0443115234375,1.1233062744140625,-0.757415771484375,-0.34230542182922363,0.7096482515335083,0.02419348619878292
869,1.2357,1.0685,0,0,0.1688385009765625,1.0537872314453125,-0.716644287109375,0.19259554147720337,-0.35232874751091003,0.29248619079589844
870,1.2921,1.1351,0,0,0.35552978515625,0.9854583740234375,-0.6486968994140625,0.0817265510559082,-1.3014745712280273,0.6274971961975098
871,1.3362,1.2381,0,0,0.4330291748046875,1.0030975341796875,-0.63275146484375,-0.7219587564468384,-0.9413749575614929,0.7798784971237183
872,1.367,1.3742,0,0,0.2642059326171875,1.095123291015625,-0.60198974609375,-1.355676531791687,0.33409303426742554,0.4985083341598511
873,1.3837,1.5373,0,0,0.0911712646484375,1.0300750732421875,-0.91046142578125,-0.6467683911323547,0.1334158480167389,0.336785227060318
874,1.3866,1.7193,0,0,-0.0029144287109375,0.870941162109375,-0.927947998046875,0.36327648162841797,-1.1370654106140137,0.5163605809211731
875,1.3757,1.91,0,0,-0.2984619140625,1.0206146240234375,-0.2796630859375,-0.6822696328163147,-1.4620472192764282,0.0919797271490097
876,1.3519,2.0981,0,0,-0.420166015625,1.0766448974609375,0.3922576904296875,-2.509096384048462,-0.6243110299110413,-0.4519283175468445
877,1.3166,2.2721,0,0,-0.5953216552734375,1.3194427490234375,0.6921539306640625,-3.455012321472168,-0.029150428250432014,-0.7634233236312866
878,1.2716,2.4219,0,0,-0.9726409912109375,1.513519287109375,0.1713409423828125,-2.014112710952759,0.3556166887283325,-0.9046409130096436
879,1.2198,2.5392,0,0,-0.822967529296875,1.2953643798828125,-0.4637451171875,1.4014781713485718,-0.7298464775085449,-0.5194154977798462
880,1.1644,2.6184,0,0,-0.3455657958984375,0.7845611572265625,-0.2830352783203125,3.040268898010254,-0.9771817326545715,-0.29766497015953064
881,1.1093,2.657,0,0,-0.1209869384765625,0.623748779296875,0.2089080810546875,1.50307297706604,0.42023801803588867,-0.74224454164505
