id,ASVM,GSVM,walking_nonwalking,normal_abnormal,ax,ay,az,gx,gy,gz
1,0.7584,1.3631,0,0,0.0977630615234375,0.6052093505859375,-0.5087127685546875,-0.505084753036499,1.1885906457901,-0.2920699417591095
2,0.887,1.2669,0,0,0.1694488525390625,0.6667327880859375,-0.498779296875,-0.5973688364028931,0.864323079586029,-0.37384068965911865
3,1.0118,1.1853,0,0,0.2423858642578125,0.7318115234375,-0.5454864501953125,-0.8083404898643494,0.391480416059494,-0.449311226606369
4,1.1255,1.1371,0,0,0.444915771484375,0.77899169921875,-0.5868682861328125,-1.1632336378097534,0.005801962688565254,-0.17875483632087708
5,1.2225,1.1375,0,0,0.610076904296875,0.813934326171875,-0.693695068359375,-1.1494195461273193,-0.41407760977745056,0.31401410698890686
6,1.2985,1.1967,0,0,0.629302978515625,0.96087646484375,-0.7682342529296875,-1.1494195461273193,-0.41407760977745056,0.31401410698890686
7,1.3515,1.3184,0,0,0.4974365234375,1.2540283203125,-0.8337860107421875,-0.6638232469558716,-0.26465803384780884,0.6078121662139893
8,1.3813,1.5,0,0,0.4121551513671875,1.30047607421875,-1.05743408203125,0.3541857600212097,0.4456709623336792,0.5320513844490051
9,1.3896,1.7323,0,0,0.4466400146484375,0.853363037109375,-1.112762451171875,0.14694790542125702,-1.0332950353622437,0.8575506210327148
10,1.3793,2.001,0,0,0.18865966796875,0.6732177734375,-0.5377349853515625,-0.6101650595664978,-1.7235312461853027,0.44692131876945496
11,1.3544,2.288,0,0,0.0107574462890625,0.9157562255859375,0.2497100830078125,-0.6101650595664978,-1.7235312461853027,0.44692131876945496
12,1.3191,2.574,0,0,-0.00885009765625,1.2794036865234375,0.5399627685546875,-3.3065903186798096,2.1140520572662354,-1.5609549283981323
13,1.2773,2.8401,0,0,-0.0405731201171875,1.222259521484375,0.0343017578125,-3.3065903186798096,2.1140520572662354,-1.5609549283981323
14,1.2326,3.0699,0,0,-0.1614837646484375,1.22467041015625,-1.0292205810546875,0.8608487248420715,-0.22794954478740692,-2.1782283782958984
15,1.1879,3.2508,0,0,-0.1427001953125,1.148651123046875,-0.716461181640625,2.3007261753082275,-2.2471683025360107,-1.5939735174179077
16,1.1455,3.3735,0,0,0.1179962158203125,0.91583251953125,-0.1185760498046875,2.3007261753082275,-2.2471683025360107,-1.5939735174179077
17,1.107,3.4326,0,0,0.209442138671875,0.813385009765625,0.64385986328125,1.1043117046356201,-1.251646876335144,-0.7431071400642395
18,1.0733,3.4259,0,0,0.1519317626953125,0.879638671875,0.372894287109375,-1.2717478275299072,1.0885205268859863,0.048057008534669876
19,1.0446,3.3541,0,0,0.2299957275390625,0.96734619140625,0.1425628662109375,-2.3775429725646973,3.2384326457977295,0.6321550607681274
20,1.0205,3.221,0,0,0.3302459716796875,1.002685546875,0.0785675048828125,-2.3775429725646973,3.2384326457977295,0.6321550607681274
21,1.0005,3.0339,0,0,0.35986328125,0.9778900146484375,0.080596923828125,-0.7088772654533386,4.099991798400879,0.33910349011421204
22,0.9836,2.8037,0,0,0.3930816650390625,0.98382568359375,0.069427490234375,-0.7088772654533386,4.099991798400879,0.33910349011421204
23,0.9689,2.5442,0,0,0.3777923583984375,0.97125244140625,0.1201019287109375,0.8095335960388184,1.363285779953003,0.6966408491134644
24,0.9559,2.2713,0,0,0.2906341552734375,0.883880615234375,0.063720703125,0.8434076905250549,-0.6895542144775391,0.7457641959190369
25,0.9442,2.0012,0,0,0.2335052490234375,0.844085693359375,-0.085601806640625,0.026551982387900352,-1.8490487337112427,0.46649208664894104
26,0.9338,1.7485,0,0,0.197601318359375,0.7726593017578125,-0.37261962890625,-1.4171873331069946,-0.020410999655723572,0.051963865756988525
27,0.9251,1.5251,0,0,0.31329345703125,0.8871307373046875,-0.172698974609375,-0.9791939854621887,1.276857852935791,-0.004728708881884813
28,0.9187,1.3385,0,0,0.3239288330078125,0.939056396484375,-0.038482666015625,-0.22165437042713165,1.5279442071914673,-0.06121781840920448
29,0.9154,1.1919,0,0,0.30694580078125,0.8358612060546875,-0.035736083984375,-0.09132911264896393,0.9250484704971313,-0.06115683168172836
30,0.9162,1.0836,0,0,0.3618927001953125,0.81243896484375,-0.100006103515625,-0.7278386950492859,0.3604127764701843,-0.1507066935300827
31,0.9221,1.0084,0,0,0.42120361328125,0.867706298828125,-0.0887603759765625,-1.0314595699310303,-0.0033752904273569584,-0.1735432893037796
32,0.9336,0.9578,0,0,0.4030303955078125,0.9039459228515625,-0.0829620361328125,-0.7612267732620239,-0.13093538582324982,-0.09738114476203918
33,0.9511,0.9222,0,0,0.352508544921875,0.845703125,-0.052459716796875,-0.7052085399627686,-0.16819193959236145,0.005358812864869833
34,0.9746,0.8919,0,0,0.283416748046875,0.8700103759765625,-0.00433349609375,-1.039405345916748,-0.1810837686061859,-0.0411735363304615
35,1.0033,0.8593,0,0,0.2710113525390625,0.9245758056640625,-0.0214996337890625,-1.2286123037338257,0.12950792908668518,-0.08426880836486816
36,1.0357,0.8198,0,0,0.2730560302734375,0.95794677734375,-0.073944091796875,-1.1784194707870483,0.5066338777542114,-0.1449662446975708
37,1.07,0.7732,0,0,0.2808685302734375,0.93701171875,-0.1189117431640625,-0.9480182528495789,0.6741486191749573,-0.21179960668087006
38,1.1036,0.7234,0,0,0.372100830078125,0.964141845703125,-0.1358489990234375,-0.5460801124572754,0.6257757544517517,-0.2674697935581207
39,1.1342,0.6786,0,0,0.5269622802734375,1.0197296142578125,-0.076812744140625,-0.2779935300350189,0.5833667516708374,-0.3606815040111542
40,1.1594,0.6491,0,0,0.64532470703125,1.034637451171875,-0.011260986328125,-0.15364255011081696,0.41887715458869934,-0.34054532647132874
41,1.1774,0.6468,0,0,0.650421142578125,1.015045166015625,0.027587890625,-0.2383451908826828,0.1189626082777977,-0.19367359578609467
42,1.1874,0.6822,0,0,0.5922088623046875,1.077301025390625,0.0139007568359375,-0.4167998731136322,-0.14116191864013672,0.10644548386335373
43,1.1895,0.7637,0,0,0.569183349609375,1.18768310546875,-0.0893402099609375,-0.3601754903793335,-0.08387226611375809,0.27089861035346985
44,1.1849,0.8953,0,0,0.531646728515625,1.2444305419921875,-0.1492767333984375,0.10508593916893005,-0.1954086422920227,0.3113267123699188
45,1.1759,1.077,0,0,0.4397125244140625,1.194305419921875,-0.101715087890625,0.6562241911888123,-0.5395127534866333,0.33270952105522156
46,1.165,1.3037,0,0,0.4492645263671875,1.1292266845703125,-0.0035247802734375,0.9914466738700867,-0.9188254475593567,0.3713375926017761
47,1.1551,1.5666,0,0,0.3572845458984375,0.9974822998046875,0.1023101806640625,1.059403896331787,-1.538425087928772,0.3070278465747833
48,1.1481,1.8535,0,0,0.1667633056640625,0.9065399169921875,0.06878662109375,1.1811201572418213,-1.8258326053619385,0.0996759906411171
49,1.1451,2.1508,0,0,0.0091705322265625,0.8713836669921875,-0.0561981201171875,1.6625936031341553,-1.6570582389831543,-0.2057987004518509
50,1.1456,2.4437,0,0,0.06982421875,0.941619873046875,-0.0587615966796875,2.219374418258667,-1.0710134506225586,-0.17198240756988525
51,1.1479,2.718,0,0,0.1623077392578125,1.011138916015625,0.0723876953125,2.219374418258667,-1.0710134506225586,-0.17198240756988525
52,1.149,2.9605,0,0,0.1265716552734375,1.210113525390625,0.0876312255859375,2.3856089115142822,1.9829838275909424,0.5303294062614441
53,1.1455,3.1595,0,0,0.00164794921875,1.4219207763671875,-0.207366943359375,2.9779975414276123,1.9110854864120483,0.39939719438552856
54,1.1339,3.3052,0,0,-0.07421875,1.3281097412109375,-0.0026702880859375,2.970914602279663,1.0642433166503906,0.06840196251869202
55,1.1118,3.3901,0,0,-0.0069122314453125,1.1670379638671875,-0.04986572265625,2.842111587524414,0.24994006752967834,-0.16323019564151764
56,1.078,3.409,0,0,-0.073577880859375,0.9253692626953125,0.2157440185546875,2.0721275806427,-1.3028525114059448,-0.3774665892124176
57,1.0332,3.3596,0,0,0.5008697509765625,0.852081298828125,-0.22747802734375,2.2288315296173096,-2.4548327922821045,0.5947443246841431
58,0.9798,3.2431,0,0,0.5961456298828125,0.9249267578125,-0.391571044921875,2.6544382572174072,-2.3876841068267822,1.4070191383361816
59,0.9215,3.0643,0,0,0.485321044921875,0.93377685546875,-0.3129730224609375,2.6544382572174072,-2.3876841068267822,1.4070191383361816
60,0.8635,2.8323,0,0,0.4094390869140625,0.7454986572265625,-0.2385406494140625,2.280489206314087,-1.991061806678772,1.4298921823501587
61,0.8114,2.56,0,0,0.26220703125,0.630828857421875,-0.2938385009765625,-0.33097633719444275,-2.307487726211548,0.5709732174873352
62,0.7708,2.2637,0,0,0.1185302734375,0.5720062255859375,-0.2163848876953125,-0.5790455341339111,-2.285325527191162,0.2589367628097534
63,0.7463,1.9617,0,0,-0.0143585205078125,0.537353515625,-0.1545867919921875,-0.6014227271080017,-1.790215253829956,-0.11239524930715561
64,0.7412,1.6722,0,0,-0.1168365478515625,0.55413818359375,-0.2126922607421875,-0.43481671810150146,-1.0970274209976196,-0.41436150670051575
65,0.7568,1.4122,0,0,-0.144744873046875,0.5736846923828125,-0.2965087890625,-0.4943585991859436,-0.580024778842926,-0.43653443455696106
66,0.7927,1.196,0,0,-0.124603271484375,0.6300201416015625,-0.4798431396484375,-0.8485260009765625,-0.22343601286411285,-0.2653419077396393
67,0.8466,1.0337,0,0,-0.0081024169921875,0.687408447265625,-0.673919677734375,-0.8485260009765625,-0.22343601286411285,-0.2653419077396393
68,0.9145,0.931,0,0,0.1095123291015625,0.7396697998046875,-0.7452545166015625,-0.9538710713386536,0.46423372626304626,-0.3295462131500244
69,0.9918,0.8895,0,0,0.1312713623046875,0.806610107421875,-0.733551025390625,-0.23917822539806366,1.1767592430114746,-0.5746779441833496
70,1.0728,0.9066,0,0,0.1572265625,0.87298583984375,-0.6966705322265625,-0.4940411448478699,0.6436780691146851,-0.6242492198944092
71,1.152,0.9762,0,0,0.281951904296875,0.798675537109375,-0.6965484619140625,-0.9816728830337524,-0.12391315400600433,-0.33280593156814575
72,1.2239,1.0894,0,0,0.403900146484375,0.676849365234375,-0.660888671875,-1.1018378734588623,-0.7581548094749451,0.15609639883041382
73,1.2838,1.2348,0,0,0.416046142578125,0.765411376953125,-0.566986083984375,-1.1308062076568604,-0.6913313269615173,0.4110434651374817
74,1.3277,1.3992,0,0,0.3478240966796875,1.147918701171875,-0.68255615234375,-0.8879439830780029,0.7364341020584106,0.18957099318504333
75,1.353,1.5678,0,0,0.355682373046875,1.2738494873046875,-0.9766387939453125,-0.22756977379322052,1.26176118850708,0.20536726713180542
76,1.3583,1.7254,0,0,0.3884735107421875,0.9049835205078125,-1.187652587890625,0.019997410476207733,-0.2021581530570984,0.3610772490501404
77,1.3444,1.857,0,0,0.2682037353515625,1.0886077880859375,-0.5840911865234375,-0.587946355342865,0.1827269345521927,0.2822575271129608
78,1.3134,1.9498,0,0,-0.024261474609375,1.2694091796875,0.2180938720703125,-2.385190010070801,1.8470861911773682,-0.46345606446266174
79,1.2689,1.9946,0,0,-0.2421417236328125,1.274139404296875,0.608245849609375,-2.385190010070801,1.8470861911773682,-0.46345606446266174
80,1.2157,1.9875,0,0,-0.2105560302734375,1.2485504150390625,-0.4371185302734375,-3.755908489227295,2.000701665878296,-1.5974936485290527
81,1.1588,1.9303,0,0,-0.016326904296875,1.0068511962890625,-0.1907958984375,-0.034090325236320496,-1.0354682207107544,-1.326695442199707
82,1.1033,1.8305,0,0,0.2765960693359375,0.8613433837890625,-0.030120849609375,0.5892659425735474,-0.6041988134384155,-0.22715671360492706
83,1.0534,1.6995,0,0,0.2025909423828125,0.89923095703125,0.3502655029296875,-0.0054602790623903275,0.38625049591064453,0.29435253143310547
84,1.0123,1.5512,0,0,0.24176025390625,0.7933807373046875,0.3516845703125,-0.6683652997016907,1.1051466464996338,0.612241268157959
85,0.9814,1.3995,0,0,0.1624603271484375,0.825347900390625,0.2366180419921875,-0.8537130355834961,1.3581993579864502,0.4571310579776764
86,0.9609,1.2566,0,0,0.246795654296875,0.9407958984375,0.0969696044921875,-0.5518876910209656,0.9776898622512817,0.36329084634780884
87,0.9496,1.132,0,0,0.3182525634765625,1.013336181640625,0.075592041015625,-0.3684169054031372,0.677017331123352,0.5106406211853027
88,0.9456,1.0316,0,0,0.299346923828125,0.9635467529296875,0.0248565673828125,-0.269883930683136,0.15186356008052826,0.6549291014671326
89,0.9461,0.9579,0,0,0.163604736328125,0.8959503173828125,-0.0643310546875,-0.20325511693954468,-0.7520580291748047,0.5113514065742493
90,0.9486,0.9102,0,0,0.0114898681640625,0.7593231201171875,-0.5952301025390625,-0.5448808670043945,-0.6515604853630066,0.11859535425901413
91,0.9511,0.8855,0,0,0.218841552734375,0.8507537841796875,-0.3101806640625,-0.6952914595603943,0.9299383163452148,0.07435812056064606
92,0.9519,0.8796,0,0,0.3166046142578125,1.0722808837890625,0.0474853515625,-0.5885804295539856,1.589556097984314,0.14487490057945251
93,0.9507,0.8872,0,0,0.3026275634765625,1.0619964599609375,0.132171630859375,-0.5496804118156433,0.9726407527923584,0.14162343740463257
94,0.9477,0.9035,0,0,0.270843505859375,0.9357452392578125,0.0621337890625,-0.48910045623779297,0.1164642944931984,0.09652121365070343
95,0.9442,0.9238,0,0,0.2525634765625,0.813446044921875,-0.018707275390625,-0.6812965273857117,-0.20217972993850708,0.06463119387626648
96,0.9417,0.9438,0,0,0.2444305419921875,0.75628662109375,-0.1165771484375,-0.856262743473053,0.15744608640670776,0.11079921573400497
97,0.942,0.9597,0,0,0.2242431640625,0.8549041748046875,-0.1285400390625,-0.771309494972229,0.5386349558830261,0.11207007616758347
98,0.9466,0.968,0,0,0.192169189453125,0.9349365234375,-0.0939788818359375,-0.5942378044128418,0.6557056903839111,0.01164360623806715
99,0.9566,0.9662,0,0,0.1864166259765625,0.925933837890625,-0.064453125,-0.5247418284416199,0.5186170339584351,-0.05674796923995018
100,0.9723,0.9524,0,0,0.213134765625,0.9132080078125,-0.02459716796875,-0.5967944264411926,0.31670525670051575,-0.0833795815706253
101,0.9934,0.9262,0,0,0.2388153076171875,0.9034576416015625,-0.0067596435546875,-0.7115218043327332,0.33555057644844055,-0.11618679016828537
102,1.0189,0.8895,0,0,0.25927734375,0.9354705810546875,-0.01800537109375,-0.8202086091041565,0.6139992475509644,-0.14378300309181213
103,1.0473,0.8463,0,0,0.33636474609375,1.003143310546875,-0.0484466552734375,-0.8981667757034302,0.9973932504653931,-0.24875548481941223
104,1.077,0.8036,0,0,0.4620208740234375,1.0445404052734375,-0.0766448974609375,-0.8922015428543091,1.0780409574508667,-0.33956047892570496
105,1.1061,0.7709,0,0,0.5169219970703125,1.0889892578125,-0.10638427734375,-0.8723548650741577,0.8109317421913147,-0.25418993830680847
106,1.1331,0.7591,0,0,0.441741943359375,1.1083221435546875,-0.1954803466796875,-0.655118465423584,0.5013776421546936,-0.13926920294761658
107,1.1568,0.7798,0,0,0.375579833984375,1.037078857421875,-0.2761688232421875,-0.086148202419281,0.3793361485004425,-0.12264389544725418
108,1.1765,0.8431,0,0,0.4004974365234375,1.004241943359375,-0.2011260986328125,0.30878767371177673,0.31379786133766174,-0.013894510455429554
109,1.1919,0.956,0,0,0.494659423828125,1.0785980224609375,0.004852294921875,0.4271862208843231,-0.019542274996638298,0.17357099056243896
110,1.203,1.121,0,0,0.5837860107421875,1.172515869140625,0.0431060791015625,0.3993133008480072,-0.3287997245788574,0.3604769706726074
111,1.2101,1.3354,0,0,0.4620208740234375,1.156005859375,0.030303955078125,0.5164282321929932,-0.8580523729324341,0.35058465600013733
112,1.2134,1.5913,0,0,0.3434600830078125,1.106109619140625,0.079193115234375,0.7281889319419861,-1.7532801628112793,0.2936673164367676
113,1.2133,1.8761,0,0,0.2291412353515625,1.049591064453125,0.10736083984375,0.9757662415504456,-2.08829402923584,0.325617253780365
114,1.2097,2.174,0,0,0.174346923828125,1.089324951171875,0.080169677734375,1.3607640266418457,-1.6270021200180054,0.33146899938583374
115,1.2022,2.4675,0,0,0.091339111328125,1.2045745849609375,0.0007476806640625,1.3607640266418457,-1.6270021200180054,0.33146899938583374
116,1.1905,2.7388,0,0,0.0633392333984375,1.275299072265625,0.0267486572265625,2.489140510559082,0.9876135587692261,0.005685050040483475
117,1.1737,2.9715,0,0,-0.024017333984375,1.23681640625,0.0369873046875,2.7575693130493164,2.2151989936828613,-0.12874093651771545
118,1.1512,3.152,0,0,-0.09674072265625,1.18255615234375,-0.130096435546875,3.127164363861084,1.8464406728744507,-0.22612474858760834
119,1.1225,3.2699,0,0,0.0055389404296875,1.1081390380859375,-0.037933349609375,3.123342275619507,1.2255643606185913,-0.05036650225520134
120,1.0875,3.3191,0,0,0.1360321044921875,1.02838134765625,-0.047149658203125,3.123342275619507,1.2255643606185913,-0.05036650225520134
121,1.0465,3.2974,0,0,0.00653076171875,0.886444091796875,0.151885986328125,2.1492931842803955,-1.1881808042526245,-0.0013171994360163808
122,1.0003,3.2066,0,0,0.3348388671875,0.828277587890625,-0.0831451416015625,1.8142929077148438,-2.4196014404296875,0.38372209668159485
123,0.9505,3.0515,0,0,0.533599853515625,0.9178619384765625,-0.3440704345703125,2.0290935039520264,-2.484316825866699,1.0099213123321533
124,0.8993,2.8403,0,0,0.4893798828125,0.9712066650390625,-0.2805328369140625,1.8357840776443481,-1.9080824851989746,1.1891757249832153
125,0.8497,2.5833,0,0,0.446929931640625,0.8835906982421875,-0.2755126953125,1.2034300565719604,-1.6826435327529907,1.059253454208374
126,0.8053,2.2933,0,0,0.2875518798828125,0.6997528076171875,-0.188201904296875,0.19552955031394958,-2.0756940841674805,0.7158129811286926
127,0.7697,1.9847,0,0,0.12115478515625,0.6094970703125,-0.1308441162109375,-0.4786587357521057,-2.495157480239868,0.3145158588886261
128,0.7466,1.6729,0,0,-0.0587921142578125,0.597381591796875,-0.1545867919921875,-0.6975729465484619,-1.9995883703231812,-0.09660563617944717
129,0.7389,1.3741,0,0,-0.167724609375,0.62158203125,-0.1895904541015625,-0.5588989853858948,-1.1210126876831055,-0.37500664591789246
130,0.7486,1.1038,0,0,-0.1940155029296875,0.62921142578125,-0.2514190673828125,-0.2000846266746521,-0.5266848206520081,-0.3717788755893707
131,0.7765,0.8763,0,0,-0.1948089599609375,0.6291046142578125,-0.3466339111328125,0.0809025689959526,-0.10416368395090103,-0.16556978225708008
132,0.8219,0.7038,0,0,-0.1432647705078125,0.699951171875,-0.50830078125,-0.0898238942027092,0.18066591024398804,-0.2009751796722412
133,0.883,0.5955,0,0,-0.053253173828125,0.746856689453125,-0.635162353515625,-0.6148983240127563,0.6969620585441589,-0.46031832695007324
134,0.9564,0.5578,0,0,0.056549072265625,0.7602691650390625,-0.6534423828125,-0.7234370708465576,0.883242666721344,-0.46157321333885193
135,1.0379,0.5937,0,0,0.11181640625,0.767242431640625,-0.620849609375,-0.5299474596977234,0.5906457304954529,-0.3923688530921936
136,1.1228,0.7028,0,0,0.2054595947265625,0.7867431640625,-0.579803466796875,-0.5662698149681091,0.1033378392457962,-0.36300644278526306
137,1.2055,0.8808,0,0,0.345184326171875,0.7974853515625,-0.6428375244140625,-1.0780390501022339,-0.14789918065071106,-0.24363583326339722
138,1.2806,1.1192,0,0,0.459320068359375,0.84173583984375,-0.8159637451171875,-1.1347377300262451,-0.2229667752981186,0.10874538868665695
139,1.3432,1.4054,0,0,0.53125,1.037933349609375,-0.797943115234375,-1.1347377300262451,-0.2229667752981186,0.10874538868665695
140,1.3891,1.7219,0,0,0.5279998779296875,1.2556304931640625,-0.815277099609375,-0.31107425689697266,0.83048415184021,0.7199863791465759
141,1.4154,2.0474,0,0,0.43743896484375,0.941680908203125,-1.215850830078125,0.25456809997558594,-0.4805498421192169,0.5356966853141785
142,1.4207,2.3581,0,0,0.304534912109375,0.95001220703125,-0.817626953125,-0.13055481016635895,-1.3309142589569092,0.42712149024009705
143,1.4054,2.6295,0,0,-0.0547943115234375,1.139404296875,0.0358734130859375,-1.752493143081665,0.02280358225107193,-0.24883005023002625
144,1.3713,2.8399,0,0,-0.253662109375,1.2480926513671875,0.67108154296875,-3.8810179233551025,1.8519641160964966,-1.3650178909301758
145,1.322,2.9729,0,0,-0.4241943359375,1.35455322265625,0.3969573974609375,-3.8908867835998535,2.7212471961975098,-2.5763561725616455
146,1.262,3.02,0,0,-0.2288665771484375,1.4682769775390625,-0.8741912841796875,-3.8908867835998535,2.7212471961975098,-2.5763561725616455
147,1.1967,2.9819,0,0,-0.08843994140625,1.15997314453125,-0.0716094970703125,-0.5150625705718994,-0.009562346152961254,-2.4138617515563965
148,1.1315,2.8673,0,0,0.1517791748046875,0.8452911376953125,0.1469268798828125,0.5019752383232117,-0.7606030702590942,-0.5041491985321045
149,1.0715,2.6918,0,0,0.1646881103515625,0.7383270263671875,0.3753814697265625,0.5019752383232117,-0.7606030702590942,-0.5041491985321045
150,1.0205,2.4743,0,0,0.1631622314453125,0.73388671875,0.346588134765625,-0.9071655869483948,1.8526759147644043,0.8314412832260132
151,0.9811,2.2351,0,0,0.0822601318359375,0.8810272216796875,0.227935791015625,-0.9401877522468567,2.374197006225586,0.8509100675582886
152,0.9538,1.9933,0,0,0.126617431640625,0.9929351806640625,0.1944732666015625,-0.9401877522468567,2.374197006225586,0.8509100675582886
153,0.9381,1.7654,0,0,0.1814727783203125,0.9544525146484375,0.2038116455078125,-0.4939785599708557,1.4254937171936035,0.8657814264297485
154,0.932,1.5645,0,0,0.16131591796875,0.910736083984375,0.166595458984375,-0.4939785599708557,1.4254937171936035,0.8657814264297485
155,0.9327,1.3995,0,0,0.10809326171875,0.957275390625,0.1057281494140625,-0.4431057870388031,-0.15869669616222382,0.43937045335769653
156,0.9373,1.2748,0,0,0.112548828125,0.963043212890625,0.002960205078125,-0.34566739201545715,-0.884355902671814,0.13150635361671448
157,0.9431,1.1904,0,0,0.1485443115234375,0.92730712890625,-0.089508056640625,-0.13238359987735748,-1.571447491645813,0.05510666221380234
158,0.9481,1.1426,0,0,0.19976806640625,0.87530517578125,-0.662109375,-0.30076730251312256,-1.1791083812713623,-0.011419101618230343
159,0.9512,1.1247,0,0,0.2794647216796875,0.890655517578125,-0.35400390625,-0.8503260016441345,0.5306848883628845,0.01974068209528923
160,0.9522,1.1279,0,0,0.3162841796875,0.9508514404296875,-0.0867462158203125,-0.6120449900627136,1.4688910245895386,0.28768211603164673
161,0.9518,1.1428,0,0,0.211669921875,0.9422607421875,0.0069732666015625,-0.26789164543151855,1.3751513957977295,0.23118768632411957
162,0.9515,1.1597,0,0,0.1853790283203125,0.873992919921875,0.0816192626953125,-0.27186745405197144,0.4141356647014618,0.03340402990579605
163,0.953,1.17,0,0,0.2363128662109375,0.874420166015625,0.046844482421875,-0.7100877165794373,-0.6714351177215576,-0.060324326157569885
164,0.9578,1.1668,0,0,0.2363128662109375,0.856536865234375,-0.085540771484375,-1.2661997079849243,-0.8363186120986938,-0.032396554946899414
165,0.9673,1.1454,0,0,0.1959991455078125,0.8563385009765625,-0.13189697265625,-1.2859920263290405,-0.3917427361011505,-0.04592461511492729
166,0.9819,1.1038,0,0,0.174163818359375,0.878143310546875,-0.12677001953125,-1.0068269968032837,-0.005666141398251057,-0.10604228079319
167,1.0013,1.0432,0,0,0.18109130859375,0.9358062744140625,-0.1152496337890625,-0.9016249179840088,0.21806122362613678,-0.10726973414421082
168,1.0245,0.9677,0,0,0.204315185546875,0.9754180908203125,-0.0915374755859375,-0.6930093765258789,0.5320809483528137,-0.11664219200611115
169,1.05,0.8844,0,0,0.2601165771484375,1.039825439453125,-0.0576171875,-0.5002138018608093,0.8466010689735413,-0.08196064829826355
170,1.076,0.8026,0,0,0.29473876953125,1.1200714111328125,-0.08355712890625,-0.4547387361526489,1.0692917108535767,-0.11783581972122192
171,1.1006,0.7335,0,0,0.3167724609375,1.1293182373046875,-0.0674591064453125,-0.39148733019828796,0.9029806852340698,-0.17203913629055023
172,1.1223,0.689,0,0,0.33746337890625,1.133087158203125,-0.0648040771484375,-0.2668900191783905,0.645699143409729,-0.1957324892282486
173,1.1403,0.6803,0,0,0.344635009765625,1.0829315185546875,-0.112274169921875,-0.17072780430316925,0.521456778049469,-0.10463640093803406
174,1.1542,0.717,0,0,0.3423919677734375,1.0493927001953125,-0.1559295654296875,-0.07497890293598175,0.46459802985191345,0.07984449714422226
175,1.1642,0.8055,0,0,0.427642822265625,1.134002685546875,-0.1154327392578125,-0.07497890293598175,0.46459802985191345,0.07984449714422226
176,1.171,0.9482,0,0,0.48516845703125,1.186126708984375,-0.1152191162109375,0.33965715765953064,-0.07905380427837372,0.3498818278312683
177,1.1757,1.1431,0,0,0.4227294921875,1.184722900390625,0.013458251953125,0.5839425325393677,-0.8141874670982361,0.3833412528038025
178,1.1789,1.3838,0,0,0.2899932861328125,1.06072998046875,0.0734710693359375,0.8539013266563416,-1.3560552597045898,0.19894345104694366
179,1.1811,1.6597,0,0,0.202178955078125,0.958251953125,0.061309814453125,1.1969311237335205,-1.5757430791854858,0.14191105961799622
180,1.1824,1.9576,0,0,0.158599853515625,0.9773406982421875,0.0458221435546875,1.5796420574188232,-1.254066824913025,0.23489026725292206
181,1.1817,2.262,0,0,0.1532745361328125,1.026153564453125,0.0874481201171875,1.829687476158142,-0.705485999584198,0.3673764169216156
182,1.1778,2.5571,0,0,0.0703125,1.154510498046875,0.055267333984375,2.1814537048339844,0.3115408420562744,0.30911657214164734
183,1.1689,2.8272,0,0,0.02972412109375,1.2937469482421875,-0.000518798828125,2.5609335899353027,1.7814377546310425,0.18151865899562836
184,1.1534,3.0583,0,0,-0.113861083984375,1.4275360107421875,-0.136199951171875,3.0321688652038574,2.261079788208008,-0.10707958042621613
185,1.13,3.2385,0,0,-0.0965118408203125,1.2945098876953125,-0.068145751953125,3.102832078933716,1.9593923091888428,-0.24983033537864685
186,1.0983,3.359,0,0,0.0469207763671875,1.04998779296875,0.0026397705078125,2.8651585578918457,0.7292264699935913,-0.045996785163879395
187,1.0589,3.4137,0,0,0.0991973876953125,0.908721923828125,-0.0613250732421875,2.5535504817962646,-0.44504430890083313,0.10743990540504456
188,1.0134,3.4001,0,0,0.1532745361328125,0.8210906982421875,0.13818359375,1.6777409315109253,-2.444542169570923,0.21634428203105927
189,0.9641,3.3185,0,0,0.50482177734375,0.8961944580078125,-0.2602386474609375,1.589468240737915,-3.257345676422119,0.8995252847671509
190,0.9141,3.1726,0,0,0.450408935546875,0.903961181640625,-0.291290283203125,1.552846074104309,-2.6659703254699707,1.2141414880752563
191,0.867,2.9694,0,0,0.3571624755859375,0.8563690185546875,-0.1605377197265625,1.552846074104309,-2.6659703254699707,1.2141414880752563
192,0.8263,2.7191,0,0,0.2869720458984375,0.7708892822265625,-0.104766845703125,0.5235732197761536,-2.3412551879882812,0.7980822324752808
193,0.7957,2.4351,0,0,0.1264495849609375,0.692138671875,-0.075103759765625,-0.09595156461000443,-2.766362190246582,0.39040157198905945
194,0.7779,2.1332,0,0,0.010223388671875,0.6849365234375,-0.1022491455078125,-0.5444196462631226,-2.5868163108825684,0.08643369376659393
195,0.7751,1.8305,0,0,-0.128448486328125,0.677825927734375,-0.1537017822265625,-0.7213318347930908,-1.6710458993911743,-0.13886840641498566
196,0.7882,1.5447,0,0,-0.2592620849609375,0.6660308837890625,-0.25677490234375,-0.5450811386108398,-0.8204551935195923,-0.2834775149822235
197,0.817,1.2926,0,0,-0.2841949462890625,0.643829345703125,-0.288238525390625,-0.3656157851219177,-0.20342449843883514,-0.16909527778625488
198,0.8602,1.0889,0,0,-0.3138427734375,0.70257568359375,-0.3933563232421875,-0.33311325311660767,0.4999754726886749,-0.005346029531210661
199,0.9154,0.9455,0,0,-0.3087158203125,0.7793121337890625,-0.534454345703125,-0.573905885219574,1.0963547229766846,-0.16471464931964874
200,0.9795,0.871,0,0,-0.186248779296875,0.837188720703125,-0.547576904296875,-0.6208875179290771,1.5121196508407593,-0.38279637694358826
201,1.049,0.8709,0,0,0.0194091796875,0.9066619873046875,-0.58514404296875,-0.4985051453113556,1.3034900426864624,-0.3067748546600342
202,1.1203,0.947,0,0,0.2211761474609375,0.897674560546875,-0.6760406494140625,-0.6788908839225769,0.2290121465921402,-0.1476626992225647
203,1.1898,1.0974,0,0,0.3853607177734375,0.78594970703125,-0.7769622802734375,-0.677685558795929,-1.001500129699707,0.12753798067569733
204,1.2542,1.3162,0,0,0.6009368896484375,0.8104400634765625,-0.7336883544921875,-0.543422281742096,-1.1818687915802002,0.7516268491744995
205,1.3105,1.593,0,0,0.6900482177734375,1.0063934326171875,-0.6214752197265625,-0.543422281742096,-1.1818687915802002,0.7516268491744995
206,1.3563,1.9129,0,0,0.4081573486328125,1.1690826416015625,-0.741851806640625,-0.15092186629772186,1.391911506652832,0.7000830173492432
207,1.3897,2.2567,0,0,0.4449005126953125,0.81976318359375,-1.138519287109375,0.21414585411548615,0.37151628732681274,0.8766191601753235
208,1.4092,2.6016,0,0,0.39776611328125,0.4892578125,-0.99530029296875,-0.4234766960144043,-1.1821538209915161,1.0108616352081299
209,1.414,2.9235,0,0,0.1280670166015625,0.8308868408203125,-0.243988037109375,-1.774979829788208,-1.3746757507324219,0.15374881029129028
210,1.404,3.1988,0,0,-0.050933837890625,1.355743408203125,0.4179534912109375,-3.9294068813323975,0.9354696869850159,-1.0727466344833374
211,1.3796,3.4077,0,0,-0.1974945068359375,1.54876708984375,0.618560791015625,-4.977585315704346,2.925389528274536,-2.1712512969970703
212,1.3425,3.5366,0,0,-0.5345001220703125,1.685516357421875,-0.6123809814453125,-1.7665692567825317,1.6548867225646973,-3.117818832397461
213,1.2951,3.5794,0,0,-0.517913818359375,1.460479736328125,-0.55670166015625,1.4510995149612427,-1.5760624408721924,-3.010282278060913
214,1.241,3.5379,0,0,-0.382354736328125,0.9340972900390625,-0.17047119140625,2.2497856616973877,-2.263345956802368,-2.562854528427124
215,1.1842,3.4209,0,0,-0.0086212158203125,0.64849853515625,0.676239013671875,0.3926681876182556,-0.9747318625450134,-1.5554916858673096
216,1.1287,3.2418,0,0,0.311492919921875,0.6118621826171875,0.6065216064453125,-1.4268839359283447,0.42063456773757935,-0.12520425021648407
217,1.0779,3.0173,0,0,0.1771087646484375,0.8106689453125,0.3134002685546875,-2.0199661254882812,1.643993616104126,0.7303149104118347
218,1.0344,2.7649,0,0,0.1563262939453125,0.9873504638671875,0.119964599609375,-1.5330795049667358,2.7425456047058105,1.273249864578247
219,0.9995,2.502,0,0,0.1316986083984375,1.06396484375,0.10052490234375,-1.5330795049667358,2.7425456047058105,1.273249864578247
220,0.9735,2.2449,0,0,0.066131591796875,0.9877777099609375,0.1470947265625,-0.3720947206020355,2.8723435401916504,1.4719914197921753
221,0.9555,2.0079,0,0,0.01922607421875,0.9542388916015625,0.16754150390625,-0.2614041864871979,2.0580711364746094,1.123070240020752
222,0.9443,1.8024,0,0,0.0265655517578125,0.9945526123046875,0.115234375,-0.1782831847667694,1.1713134050369263,0.6440149545669556
223,0.9381,1.6359,0,0,0.077178955078125,0.9701080322265625,0.0045166015625,-0.034018419682979584,0.231625497341156,0.2584611177444458
224,0.9355,1.5111,0,0,0.036865234375,0.937164306640625,-0.05023193359375,-0.034018419682979584,0.231625497341156,0.2584611177444458
225,0.9351,1.4257,0,0,0.0412139892578125,0.9025115966796875,-0.337554931640625,-1.3146207332611084,-2.0182297229766846,-0.13106881082057953
226,0.9363,1.3729,0,0,0.208984375,0.9392852783203125,-0.32220458984375,-1.129441261291504,-0.5696538686752319,0.06927787512540817
227,0.9387,1.3423,0,0,0.2293701171875,0.971771240234375,-0.176971435546875,-0.34950393438339233,1.2010807991027832,0.12598855793476105
228,0.9428,1.3219,0,0,0.2199554443359375,0.95562744140625,-0.004486083984375,0.05368320271372795,1.7507420778274536,0.11550768464803696
229,0.9492,1.2994,0,0,0.1968841552734375,0.86224365234375,0.0296630859375,0.05368320271372795,1.7507420778274536,0.11550768464803696
230,0.9584,1.2646,0,0,0.1983489990234375,0.849578857421875,0.040008544921875,-0.8128830194473267,0.11886007338762283,-0.1480318009853363
231,0.9711,1.2102,0,0,0.2170257568359375,0.87115478515625,-0.0024566650390625,-1.087728500366211,-0.7608195543289185,-0.06483891606330872
232,0.9875,1.1332,0,0,0.1438140869140625,0.915557861328125,-0.040557861328125,-0.9293676018714905,-0.7130038738250732,-0.08165518194437027
233,1.0071,1.0354,0,0,0.084625244140625,0.9421234130859375,-0.0665130615234375,-1.0724270343780518,-0.38593703508377075,-0.09473077207803726
234,1.0292,0.9235,0,0,0.0609588623046875,0.99249267578125,-0.1411590576171875,-1.0622681379318237,0.16155986487865448,-0.15420661866664886
235,1.0528,0.8086,0,0,0.1301422119140625,1.0488128662109375,-0.1501617431640625,-0.5708941221237183,0.6687173247337341,-0.1882530003786087
236,1.0765,0.7053,0,0,0.220916748046875,1.1079559326171875,-0.1290435791015625,-0.35120144486427307,0.8558856248855591,-0.14474573731422424
237,1.0992,0.6299,0,0,0.2581787109375,1.1449432373046875,-0.117523193359375,-0.4539744257926941,0.7493285536766052,-0.20513397455215454
238,1.12,0.5993,0,0,0.2820892333984375,1.1626739501953125,-0.1065521240234375,-0.25357499718666077,0.5941243171691895,-0.18498876690864563
239,1.1387,0.6278,0,0,0.3091888427734375,1.1392822265625,-0.0925445556640625,0.08879085630178452,0.3708590269088745,-0.11281336843967438
240,1.1552,0.7263,0,0,0.3356475830078125,1.1214141845703125,-0.108123779296875,0.18109335005283356,0.19372206926345825,0.02528511732816696
241,1.1699,0.8993,0,0,0.3534393310546875,1.1517791748046875,-0.110076904296875,0.24633680284023285,-0.0013337110867723823,0.1379445493221283
242,1.1832,1.145,0,0,0.3363037109375,1.172760009765625,-0.0302276611328125,0.49134361743927,-0.7253822088241577,0.3149062693119049
243,1.1955,1.4538,0,0,0.2797393798828125,1.1609344482421875,0.0399169921875,0.7716227173805237,-1.5367395877838135,0.38749179244041443
244,1.2067,1.8098,0,0,0.1562652587890625,0.963775634765625,0.1354827880859375,0.7716227173805237,-1.5367395877838135,0.38749179244041443
245,1.2159,2.1915,0,0,0.047393798828125,0.9444732666015625,0.14239501953125,1.2313125133514404,-1.5895599126815796,0.10297112166881561
246,1.2219,2.5741,0,0,-0.0512847900390625,1.128082275390625,0.014312744140625,1.8984935283660889,-0.9705411195755005,-0.03977750614285469
247,1.2228,2.9318,0,0,0.01202392578125,1.307891845703125,-0.0133209228515625,2.5232365131378174,0.23238077759742737,0.17989972233772278
248,1.2165,3.2404,0,0,-0.0302581787109375,1.31573486328125,0.1661224365234375,2.412266969680786,2.3371803760528564,0.3620748519897461
249,1.2012,3.4798,0,0,-0.2807769775390625,1.3925018310546875,0.0142822265625,2.6145522594451904,4.226996421813965,-0.0030682277865707874
250,1.1755,3.6363,0,0,-0.3121795654296875,1.326751708984375,-0.2613067626953125,3.3038523197174072,3.330017328262329,-0.30041787028312683
251,1.1393,3.7033,0,0,-0.06573486328125,1.014007568359375,0.0739288330078125,3.3038523197174072,3.330017328262329,-0.30041787028312683
252,1.0933,3.6813,0,0,0.0325927734375,0.8943328857421875,0.06512451171875,2.3740811347961426,-0.21101289987564087,0.14143036305904388
253,1.0392,3.5774,0,0,0.07672119140625,0.8922271728515625,0.2142181396484375,2.3740811347961426,-0.21101289987564087,0.14143036305904388
254,0.98,3.403,0,0,0.333770751953125,1.0186767578125,-0.3125457763671875,1.6564345359802246,-3.2951488494873047,0.7139117121696472
255,0.9192,3.1722,0,0,0.298736572265625,1.01446533203125,-0.2141571044921875,1.6987133026123047,-2.3645002841949463,0.890415370464325
256,0.8612,2.9002,0,0,0.2529754638671875,0.9337615966796875,-0.1120452880859375,1.39900541305542,-1.5287655591964722,0.7948116064071655
257,0.8101,2.602,0,0,0.1629180908203125,0.798553466796875,-0.0870819091796875,1.0567423105239868,-1.748226523399353,0.6054241061210632
258,0.7704,2.2919,0,0,0.0003662109375,0.662384033203125,-0.059814453125,0.6934801936149597,-2.6520464420318604,0.2916787266731262
259,0.7454,1.9831,0,0,-0.11407470703125,0.62469482421875,-0.0565185546875,0.31714412569999695,-2.9894986152648926,-0.04487639293074608
260,0.7378,1.6878,0,0,-0.2105560302734375,0.6074066162109375,-0.081787109375,0.01044305320829153,-2.144273281097412,-0.337905615568161
261,0.7488,1.417,0,0,-0.33746337890625,0.5976104736328125,-0.1508941650390625,-0.15144650638103485,-0.8123008608818054,-0.6011337637901306
262,0.7778,1.1805,0,0,-0.3570709228515625,0.5851287841796875,-0.2227325439453125,-0.2690461277961731,-0.044864408671855927,-0.5986823439598083
263,0.8233,0.9863,0,0,-0.2758331298828125,0.6105499267578125,-0.3264617919921875,-0.4370740056037903,0.2446659356355667,-0.22664618492126465
264,0.8821,0.8406,0,0,-0.24786376953125,0.711517333984375,-0.520599365234375,-0.5166940093040466,0.6200435757637024,-0.09229211509227753
265,0.9504,0.7475,0,0,-0.1588134765625,0.801849365234375,-0.64654541015625,-0.5024484992027283,1.0227657556533813,-0.19627657532691956
266,1.0239,0.7091,0,0,-0.031005859375,0.8937530517578125,-0.7119293212890625,-0.48009923100471497,0.8408342599868774,-0.27734851837158203
267,1.0982,0.7252,0,0,0.130523681640625,0.946929931640625,-0.7646942138671875,-0.48009923100471497,0.8408342599868774,-0.27734851837158203
268,1.1691,0.7937,0,0,0.2935943603515625,0.922332763671875,-0.7901611328125,-0.4833917021751404,0.21148374676704407,-0.2058655470609665
269,1.233,0.9102,0,0,0.4274139404296875,0.874969482421875,-0.705108642578125,-0.6297265291213989,-0.5606318712234497,0.5510032176971436
270,1.2868,1.0681,0,0,0.3757476806640625,0.842742919921875,-0.64422607421875,-0.841249942779541,-0.43362921476364136,0.685391902923584
271,1.3282,1.2585,0,0,0.20989990234375,0.89703369140625,-0.755096435546875,-0.7706255912780762,0.3118188679218292,0.3958197832107544
272,1.3553,1.4701,0,0,0.250885009765625,0.9883270263671875,-0.8289642333984375,-0.5412622094154358,0.370265930891037,0.5344692468643188
273,1.3671,1.6901,0,0,0.25970458984375,0.9992523193359375,-0.9317779541015625,-0.26019349694252014,-1.058880090713501,0.7112088799476624
274,1.3633,1.9049,0,0,0.1164093017578125,1.176239013671875,-0.5932159423828125,-0.26019349694252014,-1.058880090713501,0.7112088799476624
275,1.3445,2.1012,0,0,-0.204010009765625,1.3387603759765625,-0.104400634765625,-1.8255223035812378,0.5203022956848145,-0.3795531690120697
276,1.3124,2.2679,0,0,-0.489501953125,1.34246826171875,0.347564697265625,-3.5024397373199463,1.8774031400680542,-1.4621316194534302
277,1.2695,2.397,0,0,-0.7035980224609375,1.3373260498046875,-0.053466796875,-2.9755771160125732,1.5630161762237549,-2.6131975650787354
278,1.2194,2.4843,0,0,-0.5346221923828125,1.2158050537109375,-0.7420501708984375,-0.1523282825946808,-0.5309932827949524,-2.4452056884765625
279,1.166,2.5291,0,0,-0.2928924560546875,0.8945159912109375,-0.0924835205078125,1.0471054315567017,-1.2792397737503052,-0.908564031124115
280,1.1135,2.5335,0,0,-0.17449951171875,0.6729583740234375,0.468170166015625,0.17646478116512299,-0.6547160744667053,-0.06431906670331955
281,1.0655,2.5005,0,0,-0.0685272216796875,0.691162109375,0.5138702392578125,-1.1318458318710327,0.25414225459098816,0.3265940845012665
282,1.0248,2.4339,0,0,0.002838134765625,0.8427886962890625,0.3397216796875,-1.6963616609573364,1.4719445705413818,0.622394323348999
283,0.9932,2.337,0,0,0.0601654052734375,1.0475921630859375,0.1805877685546875,-1.3179776668548584,2.4202497005462646,0.8821771740913391
284,0.9711,2.2139,0,0,0.0810546875,1.1133880615234375,0.1581268310546875,-0.7094626426696777,2.9042916297912598,1.0291633605957031
285,0.9578,2.0696,0,0,0.0420684814453125,0.9976959228515625,0.2046661376953125,-0.33777564764022827,2.6597673892974854,0.9731842875480652
286,0.9521,1.9106,0,0,0.06964111328125,0.904937744140625,0.2171630859375,-0.33777564764022827,2.6597673892974854,0.9731842875480652
287,0.9519,1.7449,0,0,0.1054229736328125,0.8819732666015625,0.1786651611328125,-0.3021681010723114,1.2108993530273438,0.7551693916320801
288,0.955,1.5816,0,0,0.1253204345703125,0.891204833984375,0.0795135498046875,-0.27767929434776306,0.5847364068031311,0.5588680505752563
289,0.9593,1.4294,0,0,0.11431884765625,0.900787353515625,0.0263824462890625,-0.27767929434776306,0.5847364068031311,0.5588680505752563
290,0.9628,1.2953,0,0,0.0947418212890625,0.9231109619140625,-0.0780029296875,-0.3273661434650421,-0.1371442675590515,0.2614198923110962
291,0.9645,1.1844,0,0,0.1322174072265625,0.9698944091796875,-0.5521087646484375,-1.5267939567565918,-1.4103541374206543,-0.12096983194351196
292,0.9639,1.0984,0,0,0.2484130859375,1.00994873046875,-0.4849090576171875,-0.7773734927177429,0.34091895818710327,0.027278225868940353
293,0.9615,1.0364,0,0,0.18414306640625,0.9929656982421875,-0.115570068359375,-0.11249005794525146,1.357528567314148,0.004806739278137684
294,0.9587,0.9949,0,0,0.1289520263671875,0.9364776611328125,0.1147918701171875,-0.06949838250875473,0.8838309645652771,-0.06412865221500397
295,0.957,0.9684,0,0,0.133575439453125,0.8876495361328125,0.040008544921875,-0.43606439232826233,-0.1413360834121704,-0.07601034641265869
296,0.9586,0.9505,0,0,0.1228790283203125,0.8794708251953125,-0.1271820068359375,-0.9735701680183411,-0.8693956136703491,-0.07939335703849792
297,0.9651,0.9345,0,0,0.1274261474609375,0.8862457275390625,-0.1391448974609375,-0.9558894634246826,-0.7172020673751831,-0.05744491517543793
298,0.9777,0.9146,0,0,0.1162872314453125,0.9199981689453125,-0.1136932373046875,-0.698462963104248,-0.3397599756717682,-0.07942957431077957
299,0.9966,0.8867,0,0,0.1367340087890625,0.927093505859375,-0.0543975830078125,-0.7601481676101685,-0.3865532875061035,-0.104865163564682
300,1.0213,0.849,0,0,0.1408233642578125,0.931915283203125,-0.063507080078125,-0.709441065788269,-0.3928767144680023,-0.12959447503089905
301,1.0503,0.8027,0,0,0.1375732421875,1.01055908203125,-0.0343017578125,-0.709441065788269,-0.3928767144680023,-0.12959447503089905
302,1.0812,0.7521,0,0,0.126800537109375,1.066253662109375,-0.0164031982421875,-0.6180405616760254,0.30127862095832825,-0.09641708433628082
303,1.1115,0.7041,0,0,0.119964599609375,1.1463165283203125,-0.0682220458984375,-0.6035870909690857,0.8559727072715759,-0.07514961063861847
304,1.1386,0.6686,0,0,0.157958984375,1.1727142333984375,-0.049835205078125,-0.6035870909690857,0.8559727072715759,-0.07514961063861847
305,1.1603,0.6567,0,0,0.2133941650390625,1.144683837890625,-0.0799713134765625,-0.21266034245491028,0.8699774742126465,-0.15080416202545166
306,1.1752,0.68,0,0,0.2713623046875,1.1681365966796875,-0.1008453369140625,-0.21652723848819733,0.658707857131958,0.04386385902762413
307,1.1829,0.7492,0,0,0.357330322265625,1.2911834716796875,-0.07891845703125,-0.1131659671664238,0.36263757944107056,0.26874518394470215
308,1.1838,0.8717,0,0,0.3253173828125,1.2677459716796875,-0.1163177490234375,0.16105519235134125,0.19965079426765442,0.387031614780426
309,1.1795,1.051,0,0,0.2835540771484375,1.2717742919921875,-0.04827880859375,0.5512575507164001,-0.28371694684028625,0.5169842839241028
310,1.1719,1.2853,0,0,0.2317962646484375,1.15997314453125,0.0107879638671875,0.5512575507164001,-0.28371694684028625,0.5169842839241028
311,1.1633,1.5672,0,0,0.1549530029296875,1.0412445068359375,0.126129150390625,1.1840406656265259,-1.3213963508605957,0.26557841897010803
312,1.1553,1.884,0,0,0.023590087890625,0.90789794921875,0.1566009521484375,1.3033709526062012,-1.5131175518035889,0.0431344211101532
313,1.1488,2.2188,0,0,-0.062744140625,0.840728759765625,0.115203857421875,1.479407787322998,-1.152596116065979,-0.12747859954833984
314,1.1436,2.552,0,0,-0.1222686767578125,0.946807861328125,0.0655670166015625,1.8777296543121338,-0.0759568139910698,-0.20293234288692474
315,1.1386,2.8631,0,0,-0.20037841796875,1.176055908203125,0.00311279296875,2.3418614864349365,1.8195486068725586,-0.25611087679862976
316,1.1316,3.1329,0,0,-0.313720703125,1.3117828369140625,0.0563812255859375,2.518796443939209,3.5489237308502197,-0.37623995542526245
317,1.1203,3.3451,0,0,-0.382415771484375,1.329010009765625,-0.1833953857421875,2.518796443939209,3.5489237308502197,-0.37623995542526245
318,1.1025,3.4879,0,0,-0.291534423828125,1.0974578857421875,-0.0138702392578125,3.0409717559814453,2.3519949913024902,-0.3680746853351593
319,1.0767,3.5543,0,0,-0.10009765625,0.9771575927734375,0.006072998046875,2.649381399154663,0.5222653150558472,0.12289316207170486
320,1.0425,3.5422,0,0,-0.1763153076171875,0.8661041259765625,0.2193603515625,2.649381399154663,0.5222653150558472,0.12289316207170486
321,1.0005,3.4536,0,0,0.2589569091796875,0.8984527587890625,-0.1623992919921875,1.5307508707046509,-2.7447502613067627,1.0189690589904785
322,0.9528,3.2944,0,0,0.411041259765625,1.0224456787109375,-0.367889404296875,1.5307508707046509,-2.7447502613067627,1.0189690589904785
323,0.9023,3.0732,0,0,0.2890777587890625,1.0067901611328125,-0.2106475830078125,1.9762232303619385,-1.5028153657913208,1.6729953289031982
324,0.8532,2.8013,0,0,0.2376861572265625,0.8790283203125,-0.22149658203125,1.7177082300186157,-1.8018628358840942,1.2138712406158447
325,0.81,2.4926,0,0,0.10858154296875,0.7161407470703125,-0.1994476318359375,1.2098655700683594,-2.6118924617767334,0.5766779780387878
326,0.7774,2.1625,0,0,-0.035491943359375,0.6290283203125,-0.1855926513671875,0.44453299045562744,-2.6160683631896973,0.06443358212709427
327,0.7593,1.8281,0,0,-0.1439971923828125,0.59710693359375,-0.197784423828125,-0.26891589164733887,-1.9144290685653687,-0.24752084910869598
328,0.7589,1.5073,0,0,-0.264739990234375,0.587127685546875,-0.2465667724609375,-0.6526121497154236,-0.9478464722633362,-0.48717790842056274
329,0.7776,1.2176,0,0,-0.3163604736328125,0.6091156005859375,-0.266357421875,-0.8130449652671814,-0.22455161809921265,-0.5546078085899353
330,0.8154,0.975,0,0,-0.2636871337890625,0.651214599609375,-0.3045501708984375,-0.8650416135787964,-0.0890830010175705,-0.3277360498905182
331,0.8704,0.7929,0,0,-0.2684478759765625,0.7093658447265625,-0.5129241943359375,-0.598856508731842,-0.062433019280433655,-0.2801024913787842
332,0.9392,0.6811,0,0,-0.170745849609375,0.7222747802734375,-0.6065521240234375,-0.3724129796028137,0.23931777477264404,-0.35790833830833435
333,1.0172,0.645,0,0,-0.097900390625,0.763702392578125,-0.6517791748046875,-0.3516712188720703,0.4784289002418518,-0.41642090678215027
334,1.0991,0.6852,0,0,-0.05194091796875,0.80230712890625,-0.70001220703125,-0.6250196695327759,0.45556938648223877,-0.4959873855113983
335,1.1792,0.7971,0,0,0.0470733642578125,0.8426361083984375,-0.7693328857421875,-0.9526268243789673,-0.16094493865966797,-0.4700127840042114
336,1.252,0.9714,0,0,0.212615966796875,0.9496612548828125,-0.88446044921875,-0.5693526864051819,-0.7713824510574341,-0.0007755124825052917
337,1.3125,1.194,0,0,0.359771728515625,1.170166015625,-0.834716796875,-0.08687737584114075,-0.430525541305542,0.5920848846435547
338,1.3572,1.4472,0,0,0.3666534423828125,1.25384521484375,-0.6701202392578125,0.07922212034463882,0.41802388429641724,0.806206226348877
339,1.3834,1.7107,0,0,0.290313720703125,0.8948974609375,-0.932220458984375,0.25166311860084534,-0.5651997327804565,0.7641578316688538
340,1.3903,1.9632,0,0,0.1406402587890625,0.769317626953125,-0.97052001953125,-0.14423413574695587,-1.569797396659851,0.6050534248352051
341,1.3783,2.1848,0,0,-0.0496368408203125,1.0558013916015625,-0.314361572265625,-1.4398728609085083,-0.23133336007595062,0.13959437608718872
342,1.3495,2.3593,0,0,-0.1983184814453125,1.31793212890625,0.3934173583984375,-3.8520445823669434,0.9398082494735718,-0.6055732369422913
343,1.307,2.476,0,0,-0.5,1.527984619140625,0.4642486572265625,-4.996531009674072,1.606123685836792,-1.727617859840393
344,1.255,2.5309,0,0,-0.650665283203125,1.4662322998046875,-0.6496734619140625,-2.1052122116088867,0.9031908512115479,-2.2649271488189697
345,1.1984,2.5264,0,0,-0.476409912109375,1.0409393310546875,-0.2962188720703125,0.7462806105613708,-0.5316495299339294,-0.9380340576171875
346,1.1421,2.4703,0,0,-0.3624114990234375,0.6336212158203125,0.0988006591796875,1.4080489873886108,-0.8307243585586548,-0.11718281358480453
347,1.0905,2.3726,0,0,-0.2286529541015625,0.6257171630859375,0.572998046875,0.11289912462234497,-0.5094051957130432,0.05945427343249321
348,1.0471,2.2442,0,0,0.0082550048828125,0.724853515625,0.4249267578125,-1.0247212648391724,0.27981460094451904,0.48573100566864014
349,1.0137,2.095,0,0,0.11114501953125,0.88812255859375,0.240264892578125,-1.4404138326644897,1.1198821067810059,0.9806557893753052
350,0.9907,1.9331,0,0,0.110748291015625,1.0796661376953125,0.1523895263671875,-1.3369475603103638,2.0978713035583496,1.1749783754348755
351,0.977,1.7654,0,0,0.1038665771484375,1.0640106201171875,0.142242431640625,-1.025205373764038,2.5259199142456055,1.0657533407211304
352,0.9706,1.5982,0,0,0.0968780517578125,0.9850921630859375,0.1324920654296875,-0.688814640045166,2.2300972938537598,0.8262196183204651
353,0.9688,1.4379,0,0,0.149169921875,0.9541473388671875,0.0931243896484375,-0.33490556478500366,1.5248026847839355,0.6192712187767029
354,0.9691,1.2907,0,0,0.1537322998046875,0.9361419677734375,-0.021575927734375,0.16581480205059052,0.4611143469810486,0.3519580364227295
355,0.9692,1.1627,0,0,0.1167449951171875,0.8669281005859375,-0.8310546875,0.8384382128715515,-0.28724029660224915,-0.11091506481170654
356,0.9675,1.0585,0,0,0.1649017333984375,0.914520263671875,-0.127166748046875,-0.4324912428855896,-0.6196840405464172,-0.11495907604694366
357,0.9637,0.981,0,0,0.1928253173828125,0.985626220703125,0.1690216064453125,-0.4324912428855896,-0.6196840405464172,-0.11495907604694366
358,0.958,0.9305,0,0,0.1458740234375,0.9956817626953125,0.123199462890625,-1.1424965858459473,-0.6470378637313843,0.12106890231370926
359,0.9516,0.9044,0,0,0.0976104736328125,0.8545989990234375,0.0461883544921875,-0.5673587918281555,-0.4361829161643982,-0.04435281828045845
360,0.9462,0.8978,0,0,0.1359100341796875,0.8594512939453125,-0.042083740234375,-0.4117787778377533,0.16165681183338165,-0.03170013800263405
361,0.9438,0.9035,0,0,0.157867431640625,0.9229583740234375,-0.139068603515625,-0.7318938970565796,0.581977367401123,0.04217621684074402
362,0.9461,0.9131,0,0,0.10772705078125,0.9274139404296875,-0.093780517578125,-0.7318938970565796,0.581977367401123,0.04217621684074402
363,0.9545,0.9186,0,0,0.046142578125,0.9395294189453125,-0.0110931396484375,-0.9910298585891724,0.39629513025283813,0.04551315680146217
364,0.9699,0.9128,0,0,0.0430755615234375,0.9268035888671875,0.0190887451171875,-0.7614720463752747,-0.5312790870666504,-0.12182044237852097
365,0.9923,0.8915,0,0,0.0391387939453125,0.9435577392578125,-0.08001708984375,-0.8790050745010376,-0.3497505486011505,-0.14447568356990814
366,1.0209,0.8536,0,0,0.05419921875,1.0012969970703125,-0.156036376953125,-0.9401451349258423,0.2141202837228775,-0.15421061217784882
367,1.0544,0.8023,0,0,0.1096954345703125,1.055419921875,-0.1020050048828125,-0.7366242408752441,0.5134907364845276,-0.13621322810649872
368,1.0908,0.7451,0,0,0.1456756591796875,1.108245849609375,-0.113494873046875,-0.7366242408752441,0.5134907364845276,-0.13621322810649872
369,1.1278,0.693,0,0,0.2147674560546875,1.105194091796875,-0.1551055908203125,-0.44190284609794617,1.1853545904159546,-0.182012140750885
370,1.1629,0.6598,0,0,0.3152618408203125,1.076263427734375,-0.086517333984375,-0.2739929258823395,1.0304774045944214,-0.1738692671060562
371,1.1938,0.6603,0,0,0.4078521728515625,1.1253814697265625,-0.0286102294921875,-0.20933590829372406,0.49082884192466736,-0.008401740342378616
372,1.2186,0.7081,0,0,0.4159393310546875,1.1412506103515625,-0.02862548828125,-0.2114643156528473,0.11796631664037704,0.15885649621486664
373,1.2358,0.8136,0,0,0.3907470703125,1.212432861328125,-0.098480224609375,-0.15097486972808838,-0.004948153160512447,0.2901516556739807
374,1.2448,0.982,0,0,0.2484893798828125,1.328216552734375,-0.106414794921875,0.09297148883342743,-0.37074875831604004,0.4297894537448883
375,1.2455,1.212,0,0,0.0695037841796875,1.2911376953125,-0.051849365234375,0.5290918350219727,-0.8263125419616699,0.27045705914497375
376,1.2384,1.4955,0,0,0.0382537841796875,1.28851318359375,0.039215087890625,0.9529924988746643,-1.0818394422531128,0.16728512942790985
377,1.2247,1.8178,0,0,-0.079986572265625,1.1809539794921875,0.054901123046875,0.9529924988746643,-1.0818394422531128,0.16728512942790985
378,1.2057,2.1591,0,0,-0.1281280517578125,1.1149139404296875,0.0980682373046875,1.7824311256408691,-1.197714924812317,-0.3889935612678528
379,1.1826,2.4966,0,0,-0.1096954345703125,1.0347747802734375,0.1054534912109375,2.0037453174591064,-0.2261684238910675,-0.3510264754295349
380,1.1566,2.8071,0,0,-0.215179443359375,1.02984619140625,0.147064208984375,2.083125114440918,1.4331330060958862,-0.3611328899860382
381,1.1285,3.0697,0,0,-0.34918212890625,1.1038055419921875,0.018035888671875,2.4303507804870605,3.2339982986450195,-0.480133593082428
382,1.0988,3.268,0,0,-0.45166015625,1.119415283203125,-0.1626129150390625,3.0632946491241455,3.8290679454803467,-0.6679317355155945
383,1.0677,3.3921,0,0,-0.37615966796875,1.068328857421875,-0.016357421875,3.0927183628082275,2.9561049938201904,-0.4735665023326874
384,1.0352,3.4385,0,0,-0.24737548828125,1.0152130126953125,-0.03167724609375,2.8463363647460938,1.366513729095459,0.012742160819470882
385,1.0015,3.4102,0,0,-0.1790008544921875,0.849639892578125,0.05621337890625,2.1519880294799805,-0.537451982498169,0.18761010468006134
386,0.9667,3.3146,0,0,-0.0216217041015625,0.8126983642578125,0.078826904296875,1.4792349338531494,-2.073281764984131,0.39889997243881226
387,0.9314,3.1622,0,0,0.17059326171875,0.8950347900390625,-0.2236175537109375,1.641394853591919,-2.3014869689941406,0.8502823710441589
388,0.8967,2.9647,0,0,0.212066650390625,1.0228424072265625,-0.279998779296875,1.8850868940353394,-1.5865963697433472,1.0955687761306763
389,0.8638,2.7336,0,0,0.2208404541015625,1.0692596435546875,-0.187744140625,1.778483510017395,-1.4382829666137695,1.0638095140457153
390,0.8348,2.4803,0,0,0.19232177734375,0.9194488525390625,-0.14849853515625,1.3972841501235962,-2.118379592895508,0.8547130227088928
391,0.812,2.2152,0,0,0.0452728271484375,0.722808837890625,-0.132171630859375,0.8105671405792236,-2.7032530307769775,0.4890831410884857
392,0.7978,1.9484,0,0,-0.1063079833984375,0.6011199951171875,-0.1566009521484375,0.12936730682849884,-2.336594343185425,0.15560530126094818
393,0.7943,1.6896,0,0,-0.25341796875,0.5667572021484375,-0.2115020751953125,-0.4046974182128906,-1.5784672498703003,-0.13385580480098724
394,0.803,1.4479,0,0,-0.3412017822265625,0.5898590087890625,-0.2682647705078125,-0.4046974182128906,-1.5784672498703003,-0.13385580480098724
395,0.8244,1.2318,0,0,-0.3533935546875,0.61328125,-0.3372344970703125,-0.7780523896217346,-0.2404930293560028,-0.19860124588012695
396,0.8583,1.0486,0,0,-0.3347320556640625,0.7104949951171875,-0.47869873046875,-0.6253799796104431,0.33427757024765015,-0.07213038951158524
397,0.9032,0.9044,0,0,-0.214935302734375,0.7911834716796875,-0.5360260009765625,-0.5414859056472778,0.6535378694534302,-0.01600293442606926
398,0.9571,0.803,0,0,-0.133758544921875,0.8300628662109375,-0.6102294921875,-0.4193807542324066,0.762637197971344,-0.05450798198580742
399,1.0169,0.7465,0,0,-0.0774383544921875,0.859161376953125,-0.6133880615234375,-0.38193458318710327,0.6009265780448914,-0.18498316407203674
400,1.0794,0.7352,0,0,0.0067291259765625,0.8795623779296875,-0.5522918701171875,-0.5950196981430054,0.06610258668661118,-0.22035127878189087
401,1.1409,0.7671,0,0,0.0702667236328125,0.8827362060546875,-0.5869293212890625,-0.8494029641151428,-0.6199849843978882,-0.13742603361606598
402,1.1974,0.8391,0,0,0.16156005859375,0.860595703125,-0.6622314453125,-1.0086957216262817,-0.7984727025032043,0.09086944907903671
403,1.2454,0.946,0,0,0.189178466796875,0.8857269287109375,-0.6757965087890625,-1.044159173965454,-0.07006163895130157,0.3314330577850342
404,1.2816,1.0813,0,0,0.2126007080078125,1.036895751953125,-0.6937713623046875,-0.8326727151870728,0.6511442065238953,0.5097079873085022
405,1.3038,1.2366,0,0,0.181640625,1.148956298828125,-0.8311920166015625,-0.16417402029037476,0.3467038869857788,0.5472108721733093
406,1.3105,1.4018,0,0,0.0928955078125,1.163665771484375,-1.00732421875,0.35498979687690735,-0.5820719599723816,0.492571085691452
407,1.3018,1.5658,0,0,-0.08734130859375,1.2169189453125,-0.6828155517578125,-0.258637934923172,-0.3045811951160431,0.20773828029632568
408,1.279,1.7162,0,0,-0.3372955322265625,1.1267852783203125,-0.092681884765625,-1.8957937955856323,0.9038110971450806,-0.5045068264007568
409,1.2447,1.8417,0,0,-0.4509735107421875,1.1331787109375,0.390167236328125,-1.8957937955856323,0.9038110971450806,-0.5045068264007568
410,1.2025,1.9324,0,0,-0.54180908203125,1.18975830078125,-0.1392364501953125,-2.7698371410369873,0.2815912067890167,-1.6978226900100708
411,1.1563,1.9813,0,0,-0.3582763671875,1.0356597900390625,-0.3774871826171875,-2.7698371410369873,0.2815912067890167,-1.6978226900100708
412,1.1103,1.9851,0,0,-0.2244415283203125,0.8502655029296875,0.1434326171875,-0.484316349029541,-0.7770331501960754,-0.7847382426261902
413,1.068,1.9442,0,0,-0.21417236328125,0.7829132080078125,0.5211639404296875,-0.44815966486930847,-0.07190188765525818,-0.022597454488277435
414,1.032,1.8622,0,0,-0.0003509521484375,0.8439178466796875,0.389984130859375,-1.0635181665420532,0.8035052418708801,0.23295974731445312
415,1.0041,1.7454,0,0,0.01800537109375,0.9603424072265625,0.2476959228515625,-1.0255542993545532,1.6451631784439087,0.4335460960865021
416,0.9847,1.602,0,0,0.0745849609375,1.0423431396484375,0.2109375,-0.6608743667602539,2.0578737258911133,0.6808509826660156
417,0.9732,1.4423,0,0,0.0091094970703125,1.00787353515625,0.240081787109375,-0.4359882175922394,1.892827033996582,0.6949793100357056
418,0.9683,1.2774,0,0,0.0151519775390625,0.960662841796875,0.2285308837890625,-0.3509356677532196,1.2886115312576294,0.6484065055847168
419,0.9682,1.1189,0,0,0.033111572265625,0.94268798828125,0.17767333984375,-0.36023861169815063,0.7284272909164429,0.5849217772483826
420,0.9707,0.9777,0,0,0.019927978515625,0.9275360107421875,0.1100006103515625,-0.383144736289978,0.2591111958026886,0.43184834718704224
421,0.9738,0.8629,0,0,-0.019775390625,0.9347686767578125,0.042877197265625,-0.4370902478694916,-0.16669471561908722,0.21617890894412994
422,0.9761,0.7808,0,0,-0.045745849609375,0.9090423583984375,-0.076171875,-0.4370902478694916,-0.16669471561908722,0.21617890894412994
423,0.9765,0.7342,0,0,-0.1228179931640625,0.933319091796875,-0.798919677734375,-0.3146410286426544,-0.6569168567657471,0.06353796273469925
424,0.9747,0.722,0,0,0.133575439453125,0.972869873046875,-0.22210693359375,0.14024339616298676,-0.5822024345397949,-0.12219515442848206
425,0.9713,0.7398,0,0,0.1788787841796875,0.977081298828125,-0.005157470703125,-0.5710890293121338,0.42597341537475586,-0.08424749970436096
426,0.9673,0.7801,0,0,0.1586151123046875,0.9720001220703125,0.0527801513671875,-0.9437702298164368,0.8727495670318604,0.13489070534706116
427,0.9642,0.8334,0,0,0.1189117431640625,0.9309539794921875,0.026397705078125,-0.5791275501251221,0.3021095097064972,0.0857710987329483
428,0.9638,0.8894,0,0,0.12982177734375,0.8852386474609375,-0.0373077392578125,-0.3346392512321472,-0.39569327235221863,-0.05702946335077286
429,0.9674,0.938,0,0,0.1826629638671875,0.863922119140625,-0.1551055908203125,-0.710408091545105,-0.8860787153244019,-0.15124890208244324
430,0.9759,0.9703,0,0,0.1755828857421875,0.91790771484375,-0.09619140625,-0.9749428033828735,-0.9507144093513489,0.006383064668625593
431,0.9898,0.9797,0,0,0.060546875,0.960205078125,-0.0012664794921875,-0.7977712154388428,-0.7208995819091797,-0.0012655340833589435
432,1.0084,0.9626,0,0,-0.030242919921875,0.9801025390625,-0.0343780517578125,-0.670816957950592,-0.3533357083797455,-0.11191108822822571
433,1.0305,0.9188,0,0,-0.0583953857421875,0.983062744140625,-0.1069488525390625,-0.6989514231681824,-0.10562576353549957,-0.18091359734535217
434,1.0545,0.8519,0,0,-0.00567626953125,1.0063629150390625,-0.0666351318359375,-0.5686621069908142,0.2038593888282776,-0.2128467559814453
435,1.0783,0.7688,0,0,0.065521240234375,1.1074371337890625,-0.0257720947265625,-0.43883222341537476,0.6344046592712402,-0.268310010433197
436,1.0999,0.6801,0,0,0.1768341064453125,1.17108154296875,-0.030303955078125,-0.4669775664806366,0.9745936393737793,-0.2808942496776581
437,1.1179,0.5989,0,0,0.267913818359375,1.1557159423828125,-0.0330963134765625,-0.4484017491340637,0.8804434537887573,-0.2288651317358017
438,1.1313,0.54,0,0,0.271881103515625,1.1115264892578125,-0.0591888427734375,-0.4484017491340637,0.8804434537887573,-0.2288651317358017
439,1.1398,0.5185,0,0,0.2415313720703125,1.1325225830078125,-0.1263885498046875,-0.2896488606929779,0.12647885084152222,0.06939345598220825
440,1.144,0.5483,0,0,0.21246337890625,1.1767425537109375,-0.1635589599609375,-0.09379972517490387,0.023142071440815926,0.2321576029062271
441,1.1453,0.6397,0,0,0.22967529296875,1.2234954833984375,-0.1695404052734375,0.1651628613471985,0.008282165043056011,0.3219836354255676
442,1.1451,0.7985,0,0,0.1663970947265625,1.168609619140625,-0.09332275390625,0.1651628613471985,0.008282165043056011,0.3219836354255676
443,1.1453,1.0244,0,0,0.129180908203125,1.10382080078125,0.035552978515625,0.6120149493217468,-0.5905612707138062,0.3198302090167999
444,1.147,1.3102,0,0,0.121246337890625,1.0187225341796875,0.0946044921875,0.8203985095024109,-0.9633575081825256,0.22879137098789215
445,1.1509,1.6429,0,0,0.059906005859375,0.90380859375,0.18487548828125,0.9045911431312561,-1.3008910417556763,0.1830877959728241
446,1.1565,2.0038,0,0,-0.0186004638671875,0.93670654296875,0.143768310546875,0.9045911431312561,-1.3008910417556763,0.1830877959728241
447,1.1627,2.371,0,0,-0.1315155029296875,1.1339263916015625,-0.0320281982421875,1.945188045501709,-0.3970935642719269,0.0714225172996521
448,1.1672,2.7209,0,0,-0.181793212890625,1.218841552734375,0.0896759033203125,2.245471715927124,0.9847333431243896,0.011242267675697803
449,1.1677,3.0311,0,0,-0.2803955078125,1.264678955078125,0.2018585205078125,2.0515518188476562,2.8972127437591553,-0.1468496322631836
450,1.1617,3.2827,0,0,-0.40447998046875,1.3272247314453125,0.00335693359375,2.3814494609832764,4.380728244781494,-0.41186797618865967
451,1.1473,3.4615,0,0,-0.439239501953125,1.214385986328125,-0.2976837158203125,3.256255865097046,3.4325129985809326,-0.5083604454994202
452,1.1235,3.5598,0,0,-0.2093658447265625,0.9897308349609375,0.12274169921875,2.8377511501312256,1.223933458328247,-0.14471137523651123
453,1.0901,3.5754,0,0,-0.13018798828125,0.896514892578125,0.068695068359375,2.1698946952819824,-0.7761322259902954,0.14264823496341705
454,1.0481,3.5114,0,0,-0.0367431640625,0.8456268310546875,0.1115875244140625,1.469553828239441,-2.5936224460601807,0.4174683392047882
455,0.9994,3.3746,0,0,0.24676513671875,0.9813690185546875,-0.3265228271484375,1.469553828239441,-2.5936224460601807,0.4174683392047882
456,0.9467,3.1745,0,0,0.2424163818359375,1.0474700927734375,-0.274688720703125,1.9802472591400146,-1.6372780799865723,1.2464592456817627
457,0.8935,2.9223,0,0,0.313385009765625,1.0390777587890625,-0.2140045166015625,1.8441002368927002,-1.6297768354415894,1.3219527006149292
458,0.8438,2.631,0,0,0.187164306640625,0.85321044921875,-0.173736572265625,1.49851655960083,-2.4825780391693115,0.9993583559989929
459,0.8017,2.3146,0,0,-0.0216827392578125,0.698089599609375,-0.1533050537109375,0.950182318687439,-2.821690797805786,0.37966209650039673
460,0.7709,1.9887,0,0,-0.1642913818359375,0.6120452880859375,-0.168182373046875,0.950182318687439,-2.821690797805786,0.37966209650039673
461,0.7545,1.6695,0,0,-0.2818756103515625,0.5636444091796875,-0.2232208251953125,0.031011445447802544,-1.4446407556533813,-0.35795149207115173
462,0.7545,1.3733,0,0,-0.346710205078125,0.5571441650390625,-0.254119873046875,-0.23567350208759308,-0.6374779343605042,-0.30991312861442566
463,0.7716,1.1152,0,0,-0.3101043701171875,0.574737548828125,-0.29376220703125,-0.4851320683956146,0.049728408455848694,-0.02480228617787361
464,0.805,0.908,0,0,-0.30517578125,0.61181640625,-0.403961181640625,-0.606100857257843,0.422152042388916,-0.12664955854415894
465,0.8527,0.7615,0,0,-0.1680145263671875,0.6453094482421875,-0.447784423828125,-0.6707240343093872,0.4869517982006073,-0.2319464087486267
466,0.9114,0.6814,0,0,-0.0582427978515625,0.7423248291015625,-0.49932861328125,-0.6707240343093872,0.4869517982006073,-0.2319464087486267
467,0.9774,0.6693,0,0,0.0219573974609375,0.875335693359375,-0.57269287109375,-0.6139294505119324,0.4974265694618225,-0.235565647482872
468,1.0464,0.7229,0,0,0.0549468994140625,0.9703826904296875,-0.670440673828125,-0.2963493764400482,-0.3209095895290375,-0.13960103690624237
469,1.1144,0.836,0,0,0.18182373046875,0.970184326171875,-0.7415924072265625,-0.47181013226509094,-1.0655797719955444,0.04327210783958435
470,1.1776,0.999,0,0,0.3303375244140625,0.883148193359375,-0.7305450439453125,-0.7454786896705627,-1.1510467529296875,0.42271688580513
471,1.2328,1.1996,0,0,0.322357177734375,0.92608642578125,-0.6091461181640625,-0.8424707651138306,-0.4364028871059418,0.58146071434021
472,1.2776,1.4229,0,0,0.092620849609375,1.1071624755859375,-0.6282501220703125,-0.8424707651138306,-0.4364028871059418,0.58146071434021
473,1.3103,1.6526,0,0,-0.0264434814453125,1.0614471435546875,-0.80078125,-0.06726985424757004,0.7354926466941833,0.3929443657398224
474,1.3298,1.8717,0,0,-0.0914306640625,0.8454437255859375,-0.883819580078125,0.10765482485294342,-1.4026448726654053,0.5629382133483887
475,1.3358,2.064,0,0,-0.206268310546875,0.9862060546875,-0.484283447265625,-0.6592192053794861,-0.7054529786109924,0.11433296650648117
476,1.3284,2.2155,0,0,-0.2985687255859375,1.155364990234375,0.058990478515625,-2.5287716388702393,1.511836051940918,-0.6307316422462463
477,1.3089,2.3162,0,0,-0.5283966064453125,1.3290863037109375,0.36065673828125,-4.156376361846924,1.86458420753479,-1.6833159923553467
478,1.2788,2.3612,0,0,-0.7081146240234375,1.464324951171875,-0.4024658203125,-2.7225019931793213,1.036624550819397,-2.473804473876953
479,1.2407,2.351,0,0,-0.450927734375,1.3617706298828125,-0.80975341796875,0.36817988753318787,-0.6755480766296387,-1.2123245000839233
480,1.1977,2.2907,0,0,-0.2798919677734375,0.8502349853515625,-0.1278533935546875,1.3043601512908936,-0.5760763883590698,-0.01883307658135891
481,1.1532,2.1889,0,0,-0.2028350830078125,0.68359375,0.571014404296875,-0.1559741497039795,0.6033298373222351,0.11437104642391205
482,1.1102,2.0557,0,0,-0.04052734375,0.72625732421875,0.60430908203125,-0.1559741497039795,0.6033298373222351,0.11437104642391205
483,1.0714,1.9013,0,0,0.08270263671875,0.9065399169921875,0.308990478515625,-2.1377816200256348,2.004769802093506,0.4866514205932617
484,1.0387,1.7358,0,0,0.162628173828125,1.080108642578125,0.1267852783203125,-2.1377816200256348,2.004769802093506,0.4866514205932617
485,1.0129,1.5685,0,0,0.1542205810546875,1.085784912109375,0.172454833984375,-0.32386142015457153,2.046231508255005,0.8842690587043762
486,0.994,1.4079,0,0,0.0887298583984375,0.989776611328125,0.2654876708984375,8.468852320220321e-05,1.1762497425079346,0.7794212102890015
487,0.9813,1.2613,0,0,0.0525665283203125,0.9341888427734375,0.259033203125,-0.08789630234241486,0.36186420917510986,0.5309101939201355
488,0.9736,1.1347,0,0,0.052459716796875,0.9067230224609375,0.1477203369140625,-0.24348802864551544,-0.20007850229740143,0.31975749135017395
489,0.9692,1.0322,0,0,0.029998779296875,0.9019775390625,0.05572509765625,-0.4251464903354645,-0.680152952671051,0.2568637430667877
490,0.9667,0.9554,0,0,-0.08294677734375,0.9083404541015625,-0.3646392822265625,-0.47448262572288513,-1.3809880018234253,0.17291691899299622
491,0.965,0.9039,0,0,-0.2234649658203125,0.8839874267578125,-0.7034912109375,-0.5695087313652039,-0.6560021042823792,-0.060686782002449036
492,0.9632,0.8751,0,0,0.0807952880859375,0.9373779296875,-0.0279388427734375,-0.9335977435112,0.28240132331848145,0.019449064508080482
493,0.9613,0.8649,0,0,0.1111907958984375,0.9982147216796875,0.1105194091796875,-0.96124666929245,0.5411455631256104,0.06390921026468277
494,0.9594,0.8679,0,0,0.147735595703125,0.9674224853515625,0.05450439453125,-0.682990312576294,0.48432886600494385,0.058517105877399445
495,0.9587,0.8778,0,0,0.1894073486328125,0.9191436767578125,-0.091400146484375,-0.44184771180152893,0.31909677386283875,0.037157755345106125
496,0.9602,0.8882,0,0,0.210296630859375,0.9296875,-0.2776336669921875,-0.6223778128623962,-0.17230412364006042,0.011808722279965878
497,0.9651,0.8928,0,0,0.10015869140625,0.9636993408203125,-0.16168212890625,-0.6648035645484924,-0.6088236570358276,0.05823640897870064
498,0.9743,0.8862,0,0,0.003265380859375,0.9588165283203125,-0.02825927734375,-0.42935776710510254,-0.8720217347145081,0.02088024839758873
499,0.9883,0.8647,0,0,-0.020355224609375,0.8690185546875,0.019500732421875,-0.5474066138267517,-0.983208954334259,-0.02104962430894375
500,1.0067,0.8266,0,0,-0.04058837890625,0.85113525390625,-0.018035888671875,-0.7665868997573853,-0.6687698364257812,-0.09150328487157822
501,1.0285,0.7728,0,0,-0.01214599609375,0.9390411376953125,-0.077789306640625,-0.6036206483840942,0.04687429964542389,-0.1844308227300644
502,1.0521,0.7072,0,0,0.08544921875,1.01617431640625,0.0078582763671875,-0.4024702310562134,0.3992645740509033,-0.23729483783245087
503,1.0755,0.6361,0,0,0.206268310546875,1.10809326171875,0.0389404296875,-0.4770134389400482,0.4411936402320862,-0.2053060233592987
504,1.0966,0.5687,0,0,0.2274627685546875,1.2218475341796875,0.0060882568359375,-0.5739967226982117,0.42539843916893005,-0.15197329223155975
505,1.1139,0.5156,0,0,0.1559600830078125,1.205596923828125,0.0074615478515625,-0.4027152359485626,0.1775452196598053,0.044374123215675354
506,1.1262,0.4888,0,0,0.0462188720703125,1.1468353271484375,-0.1258697509765625,-0.37619414925575256,0.39388152956962585,0.14849813282489777
507,1.1334,0.5002,0,0,-0.0115203857421875,1.102325439453125,-0.2438812255859375,-0.25469887256622314,0.695988118648529,0.13047198951244354
508,1.1364,0.5608,0,0,0.1122894287109375,1.2566680908203125,-0.117950439453125,0.0665297582745552,0.3893120586872101,0.305747389793396
509,1.1364,0.679,0,0,0.1062164306640625,1.17181396484375,-0.10235595703125,0.38691282272338867,0.5055001974105835,0.27418628334999084
510,1.1353,0.8599,0,0,0.17822265625,1.1860504150390625,-0.033905029296875,0.6766695380210876,0.4659349322319031,0.3398672938346863
511,1.1348,1.1039,0,0,0.1938629150390625,1.0963134765625,0.041961669921875,0.9320996999740601,0.11535082757472992,0.3604535162448883
512,1.1363,1.4059,0,0,0.123504638671875,0.936187744140625,0.067718505859375,1.1417254209518433,-0.36935168504714966,0.09562292695045471
513,1.14,1.755,0,0,0.0751953125,0.863433837890625,0.087646484375,1.3268941640853882,-0.5983683466911316,-0.06132514402270317
514,1.1453,2.1349,0,0,-0.0575714111328125,0.98284912109375,0.0076751708984375,1.6995686292648315,-0.8964013457298279,-0.0835351049900055
515,1.1504,2.5246,0,0,-0.0023651123046875,1.0805816650390625,-0.0244598388671875,1.6995686292648315,-0.8964013457298279,-0.0835351049900055
516,1.153,2.9003,0,0,-0.064605712890625,1.134735107421875,0.084320068359375,1.9852744340896606,0.8178309202194214,0.451031357049942
517,1.1501,3.2373,0,0,-0.1947784423828125,1.3191986083984375,0.1094512939453125,1.8394743204116821,2.9327034950256348,0.32945218682289124
518,1.1395,3.5129,0,0,-0.3199615478515625,1.486480712890625,-0.135467529296875,2.31832218170166,4.4288010597229,-0.09597127139568329
519,1.1194,3.7087,0,0,-0.307037353515625,1.2285919189453125,-0.2773284912109375,2.9777448177337646,3.2718422412872314,-0.2548208236694336
520,1.0895,3.8126,0,0,-0.112030029296875,0.9850921630859375,0.03924560546875,2.9777448177337646,3.2718422412872314,-0.2548208236694336
521,1.0506,3.8197,0,0,-0.058990478515625,0.8940582275390625,0.2012786865234375,1.6974575519561768,-2.0562634468078613,0.26120683550834656
522,1.0048,3.7323,0,0,0.165985107421875,0.8981170654296875,-0.0945892333984375,1.465193748474121,-3.9639768600463867,0.6740007996559143
523,0.9551,3.5592,0,0,0.207977294921875,0.919952392578125,-0.2405853271484375,1.6984258890151978,-3.233201742172241,0.9362263083457947
524,0.9052,3.3142,0,0,0.19097900390625,0.89117431640625,-0.1869354248046875,1.688910722732544,-1.5051451921463013,0.9381658434867859
525,0.8587,3.0145,0,0,0.2018890380859375,0.863067626953125,-0.094207763671875,1.346985101699829,-1.57847261428833,0.8567423820495605
526,0.8195,2.6789,0,0,0.0908966064453125,0.7685699462890625,-0.093048095703125,0.9500811100006104,-2.7032787799835205,0.5963510274887085
527,0.7905,2.3263,0,0,-0.0169677734375,0.702239990234375,-0.1417236328125,0.9500811100006104,-2.7032787799835205,0.5963510274887085
528,0.7744,1.975,0,0,-0.154632568359375,0.703033447265625,-0.1879425048828125,0.1618054062128067,-2.4038166999816895,-0.02056732587516308
529,0.7726,1.6413,0,0,-0.3031768798828125,0.6904144287109375,-0.2218170166015625,-0.19977010786533356,-1.35576331615448,-0.24526089429855347
530,0.7856,1.3392,0,0,-0.3958740234375,0.6479339599609375,-0.315155029296875,-0.3183518648147583,-0.4802020192146301,-0.3089064359664917
531,0.813,1.0796,0,0,-0.339935302734375,0.5855712890625,-0.337005615234375,-0.434927761554718,0.24067039787769318,-0.06294301152229309
532,0.8532,0.8705,0,0,-0.34710693359375,0.64178466796875,-0.418365478515625,-0.5817323923110962,0.7924107909202576,-0.08864012360572815
533,0.904,0.7168,0,0,-0.2562408447265625,0.7587890625,-0.4743804931640625,-0.6663335561752319,1.0676116943359375,-0.30685049295425415
534,0.9626,0.6211,0,0,-0.1002655029296875,0.8323822021484375,-0.5209503173828125,-0.6112639307975769,0.9913153648376465,-0.2510921359062195
535,1.0257,0.5838,0,0,0.009246826171875,0.862213134765625,-0.576202392578125,-0.39012059569358826,0.3035779893398285,-0.05269863083958626
536,1.0899,0.6035,0,0,0.1590118408203125,0.89031982421875,-0.6349029541015625,-0.18061025440692902,-0.5995633006095886,0.1472027599811554
537,1.1517,0.677,0,0,0.330169677734375,0.91790771484375,-0.6701812744140625,-0.20330758392810822,-0.941670835018158,0.3747381865978241
538,1.208,0.799,0,0,0.3376312255859375,0.9604034423828125,-0.67303466796875,-0.5306204557418823,-0.43875977396965027,0.34445270895957947
539,1.256,0.9618,0,0,0.2496185302734375,0.979217529296875,-0.6661529541015625,-0.6962749361991882,0.005830991081893444,0.3054174482822418
540,1.2933,1.1552,0,0,0.16925048828125,1.03350830078125,-0.7238616943359375,-0.4662798345088959,0.23708471655845642,0.47508716583251953
541,1.3183,1.3664,0,0,0.1103057861328125,0.9903564453125,-0.884613037109375,-0.11067351698875427,-0.26349103450775146,0.6991838812828064
542,1.3298,1.5803,0,0,0.0083160400390625,0.8975982666015625,-0.948211669921875,-0.11067351698875427,-0.26349103450775146,0.6991838812828064
543,1.3275,1.7813,0,0,-0.11846923828125,1.00457763671875,-0.5400390625,-0.9154120683670044,-0.5837827324867249,0.0223830696195364
544,1.3121,1.9544,0,0,-0.25286865234375,1.204132080078125,-0.03070068359375,-2.323880672454834,0.8217567205429077,-0.7310989499092102
545,1.285,2.0872,0,0,-0.45562744140625,1.4402008056640625,0.3098297119140625,-3.7953290939331055,1.5011248588562012,-1.5835504531860352
546,1.2485,2.1718,0,0,-0.62530517578125,1.487518310546875,-0.0503692626953125,-3.0881621837615967,0.9131377339363098,-2.171579599380493
547,1.2057,2.2052,0,0,-0.556732177734375,1.2318572998046875,-0.583038330078125,0.014974421821534634,-0.8859476447105408,-1.0139505863189697
548,1.1602,2.1893,0,0,-0.3817901611328125,0.7224884033203125,-0.0915069580078125,1.4471803903579712,-1.1192249059677124,0.020050939172506332
549,1.1155,2.13,0,0,-0.28924560546875,0.61920166015625,0.53131103515625,0.38955387473106384,-0.035596877336502075,0.025351962074637413
550,1.0746,2.0354,0,0,0.0035858154296875,0.6857757568359375,0.6092529296875,-1.1765598058700562,0.7784212231636047,0.3136146366596222
551,1.0398,1.9144,0,0,0.0860443115234375,0.848968505859375,0.3469085693359375,-1.1765598058700562,0.7784212231636047,0.3136146366596222
552,1.0122,1.7762,0,0,0.134552001953125,1.0418243408203125,0.1562957763671875,-1.232384443283081,2.3337490558624268,0.8065004944801331
553,0.9921,1.6298,0,0,0.091522216796875,1.0867462158203125,0.1662139892578125,-0.6822821497917175,2.496321439743042,0.7531411647796631
554,0.9787,1.4836,0,0,0.0444488525390625,1.01177978515625,0.1888885498046875,-0.3372246325016022,1.9843183755874634,0.5494234561920166
555,0.9706,1.3456,0,0,0.05902099609375,0.95819091796875,0.1572723388671875,-0.17863446474075317,1.1806073188781738,0.3664640188217163
556,0.9662,1.2225,0,0,0.052001953125,0.95599365234375,0.0902862548828125,-0.13996562361717224,0.2674524784088135,0.20319759845733643
557,0.964,1.1193,0,0,0.00640869140625,0.98382568359375,-0.0845947265625,-0.13996562361717224,0.2674524784088135,0.20319759845733643
558,0.9627,1.0389,0,0,-0.129791259765625,0.964752197265625,-0.4806671142578125,-0.6697919368743896,-0.5880129337310791,-0.10014630854129791
559,0.9615,0.9813,0,0,0.04095458984375,0.9407958984375,-0.144866943359375,-0.7999675273895264,0.8019904494285583,-0.077874556183815
560,0.96,0.9447,0,0,0.09246826171875,0.9765625,0.0489044189453125,-0.6444895267486572,1.3545305728912354,-0.019229620695114136
561,0.9582,0.925,0,0,0.091461181640625,0.947296142578125,0.0859222412109375,-0.48690280318260193,1.1694401502609253,-0.05359505116939545
562,0.9568,0.9172,0,0,0.1232452392578125,0.8697052001953125,0.04803466796875,-0.5727458000183105,0.4769180715084076,-0.1174701675772667
563,0.9563,0.9154,0,0,0.1719512939453125,0.8576812744140625,-0.106109619140625,-0.8682312369346619,-0.15800774097442627,-0.2098006308078766
564,0.9574,0.9138,0,0,0.1492156982421875,0.970916748046875,-0.21978759765625,-0.8190759420394897,-0.2125178575515747,-0.15305186808109283
565,0.9607,0.9067,0,0,0.054107666015625,0.9878692626953125,-0.1707763671875,-0.5208682417869568,-0.07525373995304108,-0.11730612069368362
566,0.9667,0.8893,0,0,0.05474853515625,0.92462158203125,-0.049102783203125,-0.572036623954773,-0.3797704875469208,-0.1419171839952469
567,0.9755,0.8582,0,0,0.09234619140625,0.9239959716796875,-0.040557861328125,-0.7876136302947998,-0.7600376605987549,-0.1462664008140564
568,0.987,0.8116,0,0,0.089935302734375,0.937774658203125,-0.12091064453125,-0.7344763875007629,-0.5997276306152344,-0.1630842536687851
569,1.0009,0.7501,0,0,0.072906494140625,0.9669189453125,-0.119903564453125,-0.7344763875007629,-0.5997276306152344,-0.1630842536687851
570,1.0167,0.6769,0,0,0.0885009765625,1.0429840087890625,-0.03955078125,-0.35339000821113586,-0.08562835305929184,-0.13541534543037415
571,1.0339,0.598,0,0,0.0894622802734375,1.074951171875,-0.0006103515625,-0.4670984745025635,0.09284498542547226,-0.06668901443481445
572,1.052,0.5218,0,0,0.064910888671875,1.12432861328125,-0.049896240234375,-0.5964607000350952,0.4009980261325836,-0.030489198863506317
573,1.0707,0.459,0,0,0.028228759765625,1.143524169921875,-0.1127777099609375,-0.47826164960861206,0.7879513502120972,-0.05685476213693619
574,1.0896,0.4216,0,0,0.0291748046875,1.0978546142578125,-0.1220550537109375,-0.25472548604011536,0.7898813486099243,-0.0683194026350975
575,1.1085,0.4217,0,0,0.077667236328125,1.0244598388671875,-0.110198974609375,-0.20885388553142548,0.437616229057312,0.0022474415600299835
576,1.1273,0.4702,0,0,0.15655517578125,0.98687744140625,-0.08721923828125,-0.1615055352449417,0.13013136386871338,0.049553703516721725
577,1.1456,0.5753,0,0,0.2606048583984375,1.044677734375,-0.0900726318359375,-0.08441368490457535,0.150573268532753,0.07045259326696396
578,1.1629,0.7409,0,0,0.3064117431640625,1.1775054931640625,-0.0753631591796875,0.10749450325965881,0.11016751825809479,0.23199941217899323
579,1.1784,0.9655,0,0,0.262481689453125,1.3193511962890625,0.029266357421875,0.4134671986103058,-0.3545258641242981,0.5218152403831482
580,1.1912,1.2423,0,0,0.1774139404296875,1.22637939453125,0.0777587890625,0.786258339881897,-0.8282076716423035,0.5694613456726074
581,1.2002,1.559,0,0,0.0748138427734375,1.090545654296875,0.09112548828125,1.1710766553878784,-1.0011906623840332,0.37309953570365906
582,1.2043,1.899,0,0,-0.0318450927734375,1.0110626220703125,0.1417388916015625,1.407005786895752,-0.8799249529838562,0.17425808310508728
583,1.2023,2.243,0,0,-0.182952880859375,1.072479248046875,0.05133056640625,1.8031163215637207,-0.545508623123169,-0.08183414489030838
584,1.1931,2.5709,0,0,-0.2437744140625,1.1676483154296875,-0.009613037109375,2.221557378768921,0.4732905924320221,-0.2657669484615326
585,1.1762,2.8638,0,0,-0.3307037353515625,1.2724151611328125,0.08599853515625,2.289614677429199,2.2138607501983643,-0.4673844873905182
586,1.1514,3.1062,0,0,-0.4405517578125,1.3278656005859375,0.0311279296875,2.4926764965057373,3.779944658279419,-0.7002432942390442
587,1.1194,3.2871,0,0,-0.3612213134765625,1.2090301513671875,-0.2227783203125,2.4926764965057373,3.779944658279419,-0.7002432942390442
588,1.0814,3.4008,0,0,-0.1905364990234375,0.9824981689453125,0.035797119140625,2.8788745403289795,1.7075879573822021,-0.05397055670619011
589,1.0395,3.4464,0,0,-0.0775604248046875,0.894744873046875,0.120208740234375,2.1117103099823,-0.5973994731903076,0.3418143391609192
590,0.9959,3.4269,0,0,0.0281829833984375,0.870452880859375,0.033447265625,1.4794349670410156,-2.418682813644409,0.6458376049995422
591,0.9532,3.3473,0,0,0.1485443115234375,0.878875732421875,-0.098663330078125,1.2821203470230103,-2.894717216491699,0.8992413878440857
592,0.9138,3.2137,0,0,0.1160888671875,0.85467529296875,-0.0986328125,1.2107460498809814,-2.3256566524505615,0.8886310458183289
593,0.8797,3.0324,0,0,0.1959686279296875,0.8759765625,-0.10247802734375,1.084220051765442,-1.8064045906066895,0.9052414894104004
594,0.853,2.81,0,0,0.2810211181640625,0.952056884765625,-0.07305908203125,0.8586145639419556,-2.1388282775878906,1.043880581855774
595,0.8349,2.5532,0,0,0.22564697265625,0.9344329833984375,-0.0772247314453125,0.5965323448181152,-2.8735811710357666,1.046938180923462
596,0.8265,2.2706,0,0,0.033477783203125,0.7988433837890625,-0.07257080078125,0.30445072054862976,-3.1218245029449463,0.6740077137947083
597,0.8285,1.9728,0,0,-0.1107330322265625,0.670379638671875,-0.0900726318359375,-0.03983796015381813,-2.6102826595306396,0.263455867767334
598,0.841,1.6732,0,0,-0.28204345703125,0.6343841552734375,-0.22039794921875,-0.308133602142334,-1.6743594408035278,-0.04662928730249405
599,0.8636,1.388,0,0,-0.4018707275390625,0.642120361328125,-0.3010406494140625,-0.6161603927612305,-0.8753376603126526,-0.17629779875278473
600,0.8958,1.1351,0,0,-0.453765869140625,0.675750732421875,-0.4298553466796875,-0.7679195404052734,0.1266184002161026,-0.16096732020378113
601,0.9363,0.9329,0,0,-0.4983978271484375,0.7673187255859375,-0.5063018798828125,-0.6233623623847961,1.1396851539611816,-0.23137331008911133
602,0.9839,0.7985,0,0,-0.495452880859375,0.8794708251953125,-0.5023651123046875,-0.2744869589805603,1.0769431591033936,-0.39481043815612793
603,1.0372,0.7458,0,0,-0.3419342041015625,0.899169921875,-0.6737823486328125,0.2852106988430023,0.14795644581317902,-0.2915396988391876
604,1.0946,0.7833,0,0,-0.0529327392578125,0.808197021484375,-0.707916259765625,0.6425864100456238,-0.6626951694488525,-0.011403122916817665
605,1.1544,0.9133,0,0,0.115447998046875,0.796661376953125,-0.5272369384765625,0.3941241502761841,-0.4116458594799042,0.1564607173204422
606,1.2146,1.13,0,0,0.2770538330078125,0.847198486328125,-0.4455718994140625,-0.2812902629375458,-0.029685724526643753,0.3435017168521881
607,1.2728,1.4195,0,0,0.4392547607421875,0.997833251953125,-0.5552520751953125,-0.6840592622756958,0.46219292283058167,0.6851423978805542
608,1.3266,1.7608,0,0,0.5592041015625,1.1401519775390625,-0.871734619140625,-0.24355539679527283,0.9644070267677307,1.1057380437850952
609,1.3731,2.1271,0,0,0.6902923583984375,1.0124053955078125,-1.2071380615234375,0.3771994709968567,0.018390724435448647,1.480384349822998
610,1.4097,2.4885,0,0,0.53515625,0.667236328125,-0.93951416015625,-0.1973130702972412,-1.7731800079345703,1.3772622346878052
611,1.4339,2.8161,0,0,0.093658447265625,0.6938323974609375,-0.381561279296875,-0.1973130702972412,-1.7731800079345703,1.3772622346878052
612,1.4436,3.0844,0,0,-0.277618408203125,1.1750946044921875,0.2080535888671875,-3.682896614074707,0.3290548622608185,-0.8734172582626343
613,1.4376,3.2757,0,0,-0.475006103515625,1.48760986328125,0.6693878173828125,-5.542274475097656,1.87234365940094,-2.0851645469665527
614,1.4158,3.3814,0,0,-0.8776092529296875,1.7061309814453125,-0.0440521240234375,-5.542274475097656,1.87234365940094,-2.0851645469665527
615,1.3796,3.4027,0,0,-1.0331878662109375,1.5358123779296875,-0.8556060791015625,1.9944250583648682,-0.3049761652946472,-0.77617347240448
616,1.3315,3.3488,0,0,-0.9268035888671875,0.7818756103515625,-0.1129150390625,1.9944250583648682,-0.3049761652946472,-0.77617347240448
617,1.2755,3.2346,0,0,-0.34783935546875,0.57415771484375,0.5235748291015625,1.9719003438949585,-1.3336535692214966,-0.5434326529502869
618,1.2158,3.0767,0,0,0.0892486572265625,0.672088623046875,0.6703643798828125,-0.3303355574607849,0.28148147463798523,0.10808199644088745
619,1.1569,2.8906,0,0,0.1785125732421875,0.9188079833984375,0.3604278564453125,-1.5457279682159424,1.7389349937438965,0.7839605808258057
620,1.1026,2.6893,0,0,0.2048187255859375,1.1189117431640625,0.1702423095703125,-1.5457279682159424,1.7389349937438965,0.7839605808258057
621,1.0557,2.482,0,0,0.185150146484375,1.1195526123046875,0.1740875244140625,-1.9317164421081543,3.3533477783203125,1.3493901491165161
622,1.0179,2.2758,0,0,0.1202239990234375,1.047637939453125,0.1255340576171875,-1.9317164421081543,3.3533477783203125,1.3493901491165161
623,0.9896,2.0754,0,0,0.1206817626953125,0.961090087890625,0.066864013671875,-0.7095667719841003,1.7695890665054321,0.5125042796134949
624,0.9702,1.8849,0,0,0.141326904296875,0.879608154296875,0.0714569091796875,-0.7095667719841003,1.7695890665054321,0.5125042796134949
625,0.9586,1.7076,0,0,0.175537109375,0.850830078125,0.122955322265625,-0.13134177029132843,0.9240534901618958,0.09943976998329163
626,0.9528,1.5461,0,0,0.0935211181640625,0.875701904296875,0.0731658935546875,-0.1473364531993866,0.20497632026672363,0.043167710304260254
627,0.951,1.4021,0,0,-0.0976409912109375,0.9718017578125,-0.5259857177734375,-1.8383212089538574,-0.5950010418891907,0.18620476126670837
628,0.9514,1.276,0,0,-0.0038909912109375,0.9834747314453125,-0.586395263671875,-1.8383212089538574,-0.5950010418891907,0.18620476126670837
629,0.953,1.1673,0,0,0.1122894287109375,0.9904022216796875,-0.029998779296875,0.1975383758544922,1.230968713760376,-0.06876388192176819
630,0.9551,1.0744,0,0,0.164215087890625,0.9547882080078125,0.185760498046875,0.1975383758544922,1.230968713760376,-0.06876388192176819
631,0.9581,0.995,0,0,0.170379638671875,0.923553466796875,0.0175323486328125,-0.46230238676071167,0.22277981042861938,-0.0755394995212555
632,0.9626,0.926,0,0,0.0623779296875,0.929412841796875,-0.1728363037109375,-0.6812973022460938,-0.5424201488494873,-0.05313112959265709
633,0.9695,0.8638,0,0,-0.032989501953125,0.932708740234375,-0.1558074951171875,-0.5112624764442444,-0.5454537272453308,-0.07312960177659988
634,0.9797,0.8046,0,0,-0.0281219482421875,0.9243316650390625,-0.094879150390625,-0.5468444228172302,-0.4510907530784607,-0.0900004655122757
635,0.9937,0.7453,0,0,0.0332489013671875,0.9137420654296875,-0.02349853515625,-0.579511284828186,-0.425963819026947,-0.08776846528053284
636,1.0117,0.6833,0,0,0.035308837890625,0.93402099609375,-0.011566162109375,-0.5575756430625916,-0.15933452546596527,-0.1464911699295044
637,1.0329,0.6182,0,0,0.0648956298828125,0.9683990478515625,-0.037017822265625,-0.45259889960289,0.2849512994289398,-0.1906072348356247
638,1.0561,0.5518,0,0,0.1120452880859375,1.0211639404296875,0.0194549560546875,-0.4840660095214844,0.338318407535553,-0.17209772765636444
639,1.0797,0.4889,0,0,0.12109375,1.10198974609375,-0.027679443359375,-0.5364759564399719,0.498628169298172,-0.15702930092811584
640,1.102,0.4375,0,0,0.131134033203125,1.1414947509765625,-0.0319671630859375,-0.42039409279823303,0.6625087261199951,-0.19857487082481384
641,1.1214,0.4087,0,0,0.2167205810546875,1.156341552734375,-0.004638671875,-0.37987250089645386,0.6378111243247986,-0.20684053003787994
642,1.1368,0.4155,0,0,0.272705078125,1.1360626220703125,-0.035614013671875,-0.37987250089645386,0.6378111243247986,-0.20684053003787994
643,1.1476,0.4715,0,0,0.2559814453125,1.18359375,-0.05767822265625,-0.3260025978088379,0.2597671151161194,0.06847625970840454
644,1.1543,0.5892,0,0,0.1903076171875,1.226043701171875,-0.148406982421875,-0.2297074943780899,0.32221320271492004,0.15370114147663116
645,1.1578,0.7777,0,0,0.1535797119140625,1.2087249755859375,-0.2091217041015625,0.17551909387111664,0.3372238278388977,0.12763172388076782
646,1.1595,1.0408,0,0,0.1667327880859375,1.184326171875,-0.123199462890625,0.7037211656570435,-0.20785972476005554,0.14340536296367645
647,1.161,1.3752,0,0,0.1804656982421875,1.1651458740234375,-0.05084228515625,1.079382061958313,-0.7224684357643127,0.19021467864513397
648,1.1633,1.7701,0,0,0.0922698974609375,1.0601654052734375,0.03607177734375,1.2549712657928467,-0.9710639119148254,0.08550611138343811
649,1.1672,2.2072,0,0,-0.1028289794921875,0.89154052734375,0.07476806640625,1.4468296766281128,-0.7742506861686707,-0.26515495777130127
650,1.1721,2.6613,0,0,-0.2103424072265625,0.9977264404296875,-0.1055450439453125,2.1403026580810547,-0.37875795364379883,-0.5289080739021301
651,1.1765,3.1033,0,0,-0.03009033203125,1.07611083984375,0.060089111328125,2.3789496421813965,0.5527846217155457,-0.09487111866474152
652,1.178,3.5023,0,0,-0.139312744140625,1.1052703857421875,0.157745361328125,2.165771484375,2.114386558532715,0.264760285615921
653,1.1737,3.8296,0,0,-0.338897705078125,1.2711181640625,0.0526123046875,2.1675710678100586,4.1761627197265625,0.1792653650045395
654,1.1608,4.0616,0,0,-0.4293365478515625,1.392333984375,-0.2292022705078125,2.8575000762939453,5.513087272644043,0.035049330443143845
655,1.1371,4.1832,0,0,-0.3256072998046875,1.1768951416015625,-0.1397247314453125,2.8575000762939453,5.513087272644043,0.035049330443143845
656,1.1014,4.1887,0,0,-0.2714996337890625,0.883636474609375,0.1032867431640625,2.3848657608032227,0.14556145668029785,0.20466765761375427
657,1.0538,4.0826,0,0,0.0223846435546875,0.8323516845703125,0.1421051025390625,1.5876957178115845,-3.1053483486175537,0.5686131119728088
658,0.9964,3.8776,0,0,0.3045654296875,1.0169677734375,-0.3603973388671875,2.007741689682007,-3.427682399749756,1.2859225273132324
659,0.9325,3.5929,0,0,0.192626953125,1.0584716796875,-0.26220703125,2.2310080528259277,-1.7693551778793335,1.3793272972106934
660,0.8669,3.2518,0,0,0.226959228515625,1.053802490234375,-0.2206573486328125,2.1106646060943604,-1.0669547319412231,1.244340419769287
661,0.8054,2.8793,0,0,0.0814666748046875,0.8513946533203125,-0.2862396240234375,1.8503080606460571,-1.855614185333252,0.7934656739234924
662,0.7544,2.4994,0,0,-0.0051116943359375,0.665374755859375,-0.20556640625,1.0484963655471802,-2.801513433456421,0.5111445188522339
663,0.7196,2.1342,0,0,-0.1300811767578125,0.5238800048828125,-0.2663421630859375,0.351249635219574,-2.4418630599975586,0.2511283755302429
664,0.7059,1.802,0,0,-0.23724365234375,0.4390716552734375,-0.1945037841796875,-0.12476563453674316,-1.5020442008972168,-0.14585520327091217
665,0.7162,1.5166,0,0,-0.362701416015625,0.42303466796875,-0.1656646728515625,-0.4070308804512024,-0.6528071165084839,-0.5558549761772156
666,0.7512,1.287,0,0,-0.313629150390625,0.4704742431640625,-0.21844482421875,-0.4070308804512024,-0.6528071165084839,-0.5558549761772156
667,0.809,1.1174,0,0,-0.242706298828125,0.5215606689453125,-0.4088897705078125,-0.5845540165901184,0.11784034967422485,-0.602884829044342
668,0.8855,1.0078,0,0,-0.1538238525390625,0.60528564453125,-0.54644775390625,-0.921782910823822,0.1529996693134308,-0.5878419280052185
669,0.9744,0.955,0,0,-0.044769287109375,0.7290191650390625,-0.7010040283203125,-1.2388132810592651,0.4710649847984314,-0.7923761606216431
670,1.0687,0.9538,0,0,0.0787811279296875,0.8725128173828125,-0.8332366943359375,-1.2180062532424927,0.9745979309082031,-0.8062488436698914
671,1.1605,0.9979,0,0,0.2377471923828125,1.0336151123046875,-0.8609619140625,-0.8861783146858215,0.9612666368484497,-0.32566118240356445
672,1.2428,1.0806,0,0,0.3536529541015625,1.087554931640625,-0.8296661376953125,-0.46466487646102905,0.1433531641960144,0.26700347661972046
673,1.3093,1.1949,0,0,0.4135284423828125,1.035430908203125,-0.6942901611328125,-0.25001809000968933,-1.1427805423736572,0.6178778409957886
674,1.3555,1.3332,0,0,0.34429931640625,1.010040283203125,-0.520050048828125,-0.25001809000968933,-1.1427805423736572,0.6178778409957886
675,1.3788,1.487,0,0,0.10693359375,1.0187835693359375,-0.589111328125,-0.2796801030635834,-1.626598596572876,0.2036561816930771
676,1.3785,1.6467,0,0,-0.1472930908203125,1.0703582763671875,-0.8170318603515625,0.13519057631492615,-1.0623767375946045,-0.04138259217143059
677,1.3562,1.8012,0,0,-0.406494140625,1.235809326171875,-0.9145355224609375,-0.1418447494506836,-0.5896832346916199,-0.13976162672042847
678,1.3149,1.9388,0,0,-0.522125244140625,1.275848388671875,-0.7662506103515625,-0.9848822355270386,0.6205146908760071,-0.23800110816955566
679,1.2597,2.0479,0,0,-0.58135986328125,1.083343505859375,-0.3051605224609375,-1.9809726476669312,1.6097029447555542,-0.7109649181365967
680,1.1962,2.1183,0,0,-0.511383056640625,1.0200958251953125,0.1519012451171875,-3.05590558052063,0.8251716494560242,-1.0924276113510132
681,1.1308,2.1429,0,0,-0.382720947265625,1.0200958251953125,-0.0614776611328125,-2.6632542610168457,-0.4879366457462311,-0.9971106648445129
682,1.0695,2.1188,0,0,-0.284088134765625,0.9391937255859375,-0.0713348388671875,-2.6632542610168457,-0.4879366457462311,-0.9971106648445129
683,1.0174,2.0478,0,0,-0.1101226806640625,0.880218505859375,0.1285400390625,-0.8954668641090393,0.5115463733673096,0.05621666833758354
684,0.9781,1.9357,0,0,-0.0330963134765625,0.807891845703125,0.263153076171875,-0.7900125980377197,1.1357638835906982,0.32550060749053955
685,0.9532,1.7922,0,0,0.0868682861328125,0.8000640869140625,0.255279541015625,-0.6526156067848206,1.581924319267273,0.6485487222671509
686,0.9426,1.6287,0,0,0.076934814453125,0.86346435546875,0.219268798828125,-0.35637223720550537,1.8699175119400024,0.7116184830665588
687,0.9443,1.4577,0,0,0.021209716796875,0.921356201171875,0.288299560546875,-0.28887122869491577,1.59707772731781,0.5019211769104004
688,0.9553,1.2912,0,0,0.0112152099609375,0.9705963134765625,0.3450775146484375,-0.45316988229751587,0.6248812079429626,0.2412451058626175
689,0.9716,1.1396,0,0,0.039581298828125,1.035858154296875,0.2486724853515625,-0.5089132785797119,-0.2542370855808258,0.1019202396273613
690,0.9891,1.011,0,0,0.0554962158203125,1.0331878662109375,0.17340087890625,-0.5089132785797119,-0.2542370855808258,0.1019202396273613
691,1.0042,0.9106,0,0,0.0585784912109375,0.9979248046875,0.121612548828125,-0.7577159404754639,-1.078162670135498,0.19607417285442352
692,1.0144,0.8406,0,0,-0.0045166015625,0.96051025390625,0.0052337646484375,-0.7699108123779297,-1.3322396278381348,0.1987120360136032
693,1.0182,0.8006,0,0,-0.30523681640625,0.8749542236328125,-0.9339141845703125,-0.10792966187000275,-0.7997451424598694,-0.041067540645599365
694,1.0154,0.7877,0,0,-0.1180419921875,0.901702880859375,-0.3269500732421875,-0.40361377596855164,0.37111735343933105,-0.0569186769425869
695,1.0071,0.7973,0,0,0.0847930908203125,0.96923828125,0.0652008056640625,-0.40361377596855164,0.37111735343933105,-0.0569186769425869
696,0.9955,0.8232,0,0,0.121368408203125,1.0224761962890625,0.170806884765625,-0.9696891903877258,0.6466559767723083,0.18702208995819092
697,0.983,0.858,0,0,0.0975189208984375,0.9352874755859375,0.0958709716796875,-0.748962938785553,0.01990792714059353,0.10543321818113327
698,0.9726,0.8937,0,0,0.0994720458984375,0.8511810302734375,-0.0444488525390625,-0.4847775995731354,-0.41187888383865356,-0.048049818724393845
699,0.9666,0.9227,0,0,0.11773681640625,0.8688812255859375,-0.21942138671875,-0.6480381488800049,-0.5064789056777954,-0.05488215759396553
700,0.967,0.9378,0,0,0.021697998046875,0.9390411376953125,-0.146759033203125,-0.8021275997161865,-0.45705464482307434,-0.0029891319572925568
701,0.9747,0.9335,0,0,-0.0082244873046875,0.9415435791015625,-0.009674072265625,-0.8021275997161865,-0.45705464482307434,-0.0029891319572925568
702,0.9895,0.9068,0,0,0.003814697265625,0.9345855712890625,0.0510406494140625,-0.6904338002204895,-0.5004657506942749,-0.03136218339204788
703,1.0105,0.8574,0,0,-0.0190887451171875,0.9656982421875,-0.0378265380859375,-0.9400455355644226,-0.2572301924228668,-0.0226171612739563
704,1.0359,0.789,0,0,-0.009796142578125,1.030731201171875,-0.14349365234375,-0.9099528789520264,0.331633597612381,-0.05036303773522377
705,1.0636,0.709,0,0,0.031707763671875,1.0985107421875,-0.1529083251953125,-0.9099528789520264,0.331633597612381,-0.05036303773522377
706,1.0915,0.6281,0,0,0.152801513671875,1.148529052734375,-0.1149444580078125,-0.28615427017211914,0.9547786712646484,-0.21508966386318207
707,1.1175,0.56,0,0,0.2499847412109375,1.169219970703125,-0.0395660400390625,-0.2595825791358948,0.7550674080848694,-0.19566909968852997
708,1.1401,0.5196,0,0,0.2752227783203125,1.1459197998046875,-0.0168609619140625,-0.25232917070388794,0.34201937913894653,-0.08434177935123444
709,1.1587,0.5215,0,0,0.2243499755859375,1.1465301513671875,-0.0786285400390625,-0.24659299850463867,0.0680147334933281,0.1589030921459198
710,1.173,0.5782,0,0,0.1824798583984375,1.1689300537109375,-0.1615447998046875,-0.10177696496248245,0.07464014738798141,0.3410113751888275
711,1.1834,0.6978,0,0,0.1619873046875,1.22589111328125,-0.1599273681640625,0.13427019119262695,0.01380928885191679,0.4395536780357361
712,1.1906,0.8831,0,0,0.12445068359375,1.2937469482421875,-0.0435943603515625,0.4167064130306244,-0.4598994255065918,0.4820726215839386
713,1.1955,1.1302,0,0,0.046356201171875,1.1548309326171875,0.02978515625,0.7526189088821411,-0.6922064423561096,0.36283251643180847
714,1.1983,1.4285,0,0,0.0344696044921875,0.9945068359375,0.108856201171875,0.7526189088821411,-0.6922064423561096,0.36283251643180847
715,1.199,1.7616,0,0,-0.0605010986328125,0.8962554931640625,0.1501617431640625,1.269013524055481,-0.48440369963645935,0.14217178523540497
716,1.1968,2.1084,0,0,-0.1484527587890625,0.998260498046875,0.0844879150390625,1.269013524055481,-0.48440369963645935,0.14217178523540497
717,1.1904,2.4453,0,0,-0.159576416015625,1.1979217529296875,0.0444488525390625,2.2442493438720703,1.1237733364105225,0.11561155319213867
718,1.1783,2.7489,0,0,-0.307159423828125,1.3420867919921875,0.1119384765625,2.2442493438720703,1.1237733364105225,0.11561155319213867
719,1.1591,2.999,0,0,-0.46624755859375,1.4226226806640625,-0.0894927978515625,2.8503201007843018,4.178063869476318,-0.3747789263725281
720,1.1319,3.1802,0,0,-0.463226318359375,1.2707366943359375,-0.1797332763671875,3.327139139175415,3.5105948448181152,-0.5975449085235596
721,1.0966,3.2841,0,0,-0.213958740234375,0.9702606201171875,0.1358489990234375,2.7862541675567627,1.2715795040130615,-0.2207408994436264
722,1.0541,3.3089,0,0,-0.06207275390625,0.850372314453125,-0.0449676513671875,2.3422000408172607,-0.23714889585971832,0.2648654878139496
723,1.0061,3.259,0,0,-0.0677337646484375,0.8188018798828125,0.0674591064453125,1.632112979888916,-1.8933045864105225,0.42595475912094116
724,0.9548,3.1431,0,0,0.1541290283203125,0.844329833984375,-0.18017578125,1.4748224020004272,-2.3990538120269775,0.8144060969352722
725,0.9032,2.9726,0,0,0.1669921875,0.929351806640625,-0.2467498779296875,1.6245511770248413,-1.9052797555923462,0.9972467422485352
726,0.8543,2.7602,0,0,0.1396942138671875,0.9632568359375,-0.1674041748046875,1.5635799169540405,-1.4908990859985352,0.8948801755905151
727,0.8115,2.5188,0,0,0.211944580078125,0.9366912841796875,-0.13580322265625,1.3624242544174194,-1.8572193384170532,0.8726124167442322
728,0.7781,2.2609,0,0,0.08111572265625,0.8035430908203125,-0.09698486328125,1.0412651300430298,-2.478569269180298,0.6320719718933105
729,0.7573,1.9986,0,0,-0.108245849609375,0.6561279296875,-0.112762451171875,0.7019072771072388,-2.5074875354766846,0.12346441298723221
730,0.7516,1.7431,0,0,-0.2655487060546875,0.574127197265625,-0.1592864990234375,0.3741389811038971,-1.9210113286972046,-0.3201769292354584
731,0.7624,1.5051,0,0,-0.393707275390625,0.5787811279296875,-0.2490692138671875,0.032343026250600815,-1.2619620561599731,-0.4725811183452606
732,0.7905,1.2942,0,0,-0.3852081298828125,0.593658447265625,-0.3160552978515625,-0.37881043553352356,-0.7233536839485168,-0.2308606505393982
733,0.8349,1.1182,0,0,-0.30889892578125,0.5911407470703125,-0.41796875,-0.7369829416275024,0.014483335427939892,0.17592522501945496
734,0.8935,0.9835,0,0,-0.267578125,0.641510009765625,-0.539031982421875,-0.8914252519607544,0.6605398654937744,0.04506654292345047
735,0.9631,0.8943,0,0,-0.1529693603515625,0.7305145263671875,-0.5542755126953125,-1.0047214031219482,0.8497492074966431,-0.10242650657892227
736,1.0392,0.8524,0,0,-0.0574493408203125,0.84393310546875,-0.6122894287109375,-0.782362163066864,0.723422646522522,-0.09437310695648193
737,1.1169,0.8577,0,0,0.0764312744140625,0.931243896484375,-0.665557861328125,-0.32203102111816406,-0.10128853470087051,0.045582931488752365
738,1.1909,0.9075,0,0,0.15533447265625,0.9557647705078125,-0.6802978515625,-0.1706300675868988,-1.0047744512557983,0.11120801419019699
739,1.256,0.997,0,0,0.2797698974609375,0.9463958740234375,-0.7245025634765625,-0.5048817992210388,-1.1712480783462524,0.24516580998897552
740,1.308,1.1193,0,0,0.3114013671875,1.0104827880859375,-0.6841583251953125,-0.5048817992210388,-1.1712480783462524,0.24516580998897552
741,1.3433,1.2655,0,0,0.1400299072265625,1.172698974609375,-0.66998291015625,-0.42761579155921936,0.10000276565551758,0.4909886419773102
742,1.36,1.4254,0,0,-0.0169677734375,1.1556396484375,-1.0574493408203125,0.3609533905982971,-0.5443155169487,0.5323347449302673
743,1.3578,1.5881,0,0,-0.088409423828125,1.0826873779296875,-0.995086669921875,0.3303358256816864,-1.2310155630111694,0.5347691178321838
744,1.338,1.7426,0,0,-0.283355712890625,1.12615966796875,-0.3472442626953125,-0.995614767074585,-0.14454546570777893,-0.10396181792020798
745,1.3034,1.8794,0,0,-0.40411376953125,1.18267822265625,0.342437744140625,-3.336876153945923,0.9923334717750549,-0.9080870747566223
746,1.258,1.9908,0,0,-0.564453125,1.24859619140625,0.39453125,-3.336876153945923,0.9923334717750549,-0.9080870747566223
747,1.2068,2.0719,0,0,-0.670623779296875,1.132171630859375,-0.386016845703125,-2.3706727027893066,0.5893822908401489,-1.5860708951950073
748,1.1546,2.1203,0,0,-0.5513916015625,0.9306488037109375,-0.3562469482421875,0.2855159044265747,-0.20007210969924927,-0.285531610250473
749,1.106,2.1353,0,0,-0.4152984619140625,0.6380157470703125,-0.01885986328125,1.0816175937652588,0.007260309532284737,0.04824822396039963
750,1.0646,2.1174,0,0,-0.2511749267578125,0.699737548828125,0.4047698974609375,0.15094637870788574,0.7083600759506226,-0.045391183346509933
751,1.0326,2.0671,0,0,-0.044647216796875,0.81634521484375,0.39312744140625,-0.9373778104782104,1.494070053100586,0.1279587596654892
752,1.0106,1.9859,0,0,0.0662841796875,0.9958038330078125,0.263824462890625,-1.5232287645339966,2.220266103744507,0.4605361819267273
753,0.9979,1.8761,0,0,0.1179656982421875,1.1010589599609375,0.2234954833984375,-1.587219476699829,2.586653232574463,0.7394948601722717
754,0.9926,1.742,0,0,0.1197509765625,1.10321044921875,0.17913818359375,-1.2558543682098389,2.353684902191162,0.8059239387512207
755,0.9922,1.5903,0,0,0.0815887451171875,1.0220184326171875,0.1412200927734375,-0.7109143137931824,1.5869814157485962,0.6453608870506287
756,0.9941,1.4302,0,0,0.1193389892578125,0.95941162109375,0.101654052734375,-0.23387214541435242,0.6600729823112488,0.475837379693985
757,0.9956,1.2719,0,0,0.14495849609375,0.9459228515625,0.083770751953125,-0.06506102532148361,-0.40950337052345276,0.3093740940093994
758,0.995,1.126,0,0,0.134429931640625,0.9519195556640625,0.0277099609375,-0.14383786916732788,-1.2034928798675537,0.17504452168941498
759,0.9912,1.0017,0,0,-0.0487518310546875,0.91497802734375,-0.78363037109375,-0.40714940428733826,-0.773028552532196,0.04982561245560646
760,0.9841,0.9055,0,0,0.0057830810546875,0.9148101806640625,-0.31396484375,-0.670963704586029,0.21865271031856537,0.05386296659708023
761,0.9743,0.841,0,0,0.0938873291015625,0.98492431640625,0.1123504638671875,-0.8790404796600342,0.41651999950408936,0.08341126888990402
762,0.9634,0.8078,0,0,0.1134490966796875,0.9863128662109375,0.0959014892578125,-0.6898641586303711,0.3468988239765167,0.049125466495752335
763,0.9533,0.802,0,0,0.078338623046875,0.862060546875,0.0223236083984375,-0.4236750900745392,-0.0007534082396887243,-0.020736170932650566
764,0.946,0.8167,0,0,0.1099395751953125,0.8393402099609375,-0.13555908203125,-0.48259595036506653,-0.3587126135826111,-0.033189110457897186
765,0.9434,0.8431,0,0,0.0403289794921875,0.9410247802734375,-0.1756591796875,-0.8788692355155945,-0.6825820207595825,-0.1429307907819748
766,0.947,0.8714,0,0,0.0646209716796875,0.951080322265625,-0.1112823486328125,-0.8119685053825378,-0.6249373555183411,-0.08238169550895691
767,0.9575,0.8922,0,0,0.059478759765625,0.9587249755859375,-0.0490570068359375,-0.8119685053825378,-0.6249373555183411,-0.08238169550895691
768,0.9749,0.8983,0,0,0.0600128173828125,0.931304931640625,-0.0383453369140625,-0.703541100025177,-0.6774112582206726,-0.03387274593114853
769,0.9982,0.8849,0,0,0.0417938232421875,0.921661376953125,-0.031768798828125,-0.9119084477424622,-0.5932345986366272,-0.0344352051615715
770,1.0259,0.8511,0,0,0.0255889892578125,0.967987060546875,-0.03192138671875,-0.7120466828346252,-0.3150729835033417,-0.13459402322769165
771,1.0558,0.7999,0,0,0.0270233154296875,1.0339508056640625,-0.0539093017578125,-0.422639936208725,0.11629252135753632,-0.16741962730884552
772,1.0856,0.7379,0,0,0.026611328125,1.12933349609375,-0.0928802490234375,-0.4711557924747467,0.6984752416610718,-0.10386674106121063
773,1.1128,0.6755,0,0,0.0294189453125,1.17626953125,-0.049530029296875,-0.4842492341995239,0.9395565390586853,-0.12699389457702637
774,1.1355,0.6253,0,0,0.0828399658203125,1.191375732421875,-0.0264129638671875,-0.317771852016449,0.8768793344497681,-0.20504049956798553
775,1.1526,0.6016,0,0,0.174957275390625,1.1456298828125,-0.083282470703125,-0.1892372965812683,0.7510076761245728,-0.16872216761112213
776,1.1634,0.6183,0,0,0.2677764892578125,1.18328857421875,-0.0775604248046875,-0.14033687114715576,0.43637731671333313,0.05273538455367088
777,1.1684,0.6876,0,0,0.2787933349609375,1.17510986328125,-0.1048431396484375,-0.028424717485904694,0.09268999099731445,0.20554544031620026
778,1.1687,0.818,0,0,0.248016357421875,1.200531005859375,-0.1044158935546875,0.21303556859493256,-0.33909016847610474,0.3341582715511322
779,1.1657,1.0134,0,0,0.1827545166015625,1.2303466796875,-0.061553955078125,0.5521790385246277,-0.743518590927124,0.39029479026794434
780,1.1614,1.2713,0,0,0.133636474609375,1.1558074951171875,0.012451171875,0.8747624158859253,-1.0611631870269775,0.3127738833427429
781,1.1571,1.5836,0,0,0.048065185546875,1.0467987060546875,0.064239501953125,1.1670717000961304,-1.1236881017684937,0.19622063636779785
782,1.1537,1.9357,0,0,-0.1070404052734375,0.9290008544921875,0.0652008056640625,1.4514936208724976,-0.6462743282318115,-0.1439627707004547
783,1.1513,2.3086,0,0,-0.2201385498046875,0.9486236572265625,0.043426513671875,1.4514936208724976,-0.6462743282318115,-0.1439627707004547
784,1.1489,2.6795,0,0,-0.11578369140625,1.06280517578125,0.0335845947265625,2.1424784660339355,0.5923778414726257,-0.16745930910110474
785,1.1449,3.0247,0,0,-0.1707000732421875,1.1273651123046875,0.1494140625,2.02851939201355,2.1116533279418945,0.15665698051452637
786,1.1371,3.3213,0,0,-0.3398284912109375,1.231201171875,0.1500244140625,1.8908417224884033,3.917221784591675,0.11002423614263535
787,1.1235,3.5502,0,0,-0.42034912109375,1.2911834716796875,-0.2905731201171875,2.8167104721069336,4.19327974319458,-0.039507996290922165
788,1.1024,3.6975,0,0,-0.2841796875,1.1324310302734375,-0.0325927734375,2.9278557300567627,2.448199987411499,0.15482766926288605
789,1.0729,3.756,0,0,-0.1691741943359375,0.9895782470703125,0.07720947265625,2.9278557300567627,2.448199987411499,0.15482766926288605
790,1.0354,3.7246,0,0,-0.1038970947265625,0.871429443359375,0.1419677734375,1.6173750162124634,-2.413614273071289,0.34742188453674316
791,0.9911,3.6084,0,0,0.249725341796875,0.9181365966796875,-0.23583984375,1.6838935613632202,-2.995112657546997,0.9588085412979126
792,0.9425,3.4169,0,0,0.2343902587890625,0.95635986328125,-0.26214599609375,1.904829978942871,-2.0425028800964355,1.288201928138733
793,0.8929,3.1628,0,0,0.227691650390625,0.99334716796875,-0.1746826171875,1.8016811609268188,-1.435996651649475,1.2720484733581543
794,0.8464,2.861,0,0,0.20166015625,0.91558837890625,-0.1523895263671875,1.4821242094039917,-1.9862658977508545,1.039989709854126
795,0.8071,2.5276,0,0,0.031829833984375,0.7920074462890625,-0.1157989501953125,1.4821242094039917,-1.9862658977508545,1.039989709854126
796,0.7791,2.1793,0,0,-0.062042236328125,0.6646728515625,-0.092803955078125,0.38017210364341736,-2.9620847702026367,0.26344361901283264
797,0.7656,1.8328,0,0,-0.2096099853515625,0.5508270263671875,-0.144683837890625,-0.049016546458005905,-2.14210844039917,-0.10528700798749924
798,0.7691,1.5047,0,0,-0.3581085205078125,0.533355712890625,-0.204254150390625,-0.3009886145591736,-1.1672166585922241,-0.39299601316452026
799,0.7903,1.2101,0,0,-0.4187469482421875,0.5555419921875,-0.2602996826171875,-0.5165512561798096,-0.2644042372703552,-0.437766432762146
800,0.8287,0.9628,0,0,-0.37921142578125,0.60760498046875,-0.376434326171875,-0.6568233966827393,0.31761178374290466,-0.21997497975826263
801,0.8822,0.7738,0,0,-0.3592681884765625,0.7139129638671875,-0.521453857421875,-0.6723480224609375,0.6325084567070007,-0.20495767891407013
802,0.9476,0.6514,0,0,-0.2586212158203125,0.7853851318359375,-0.5648345947265625,-0.6298514604568481,0.8231106400489807,-0.34376242756843567
803,1.0208,0.6002,0,0,-0.13079833984375,0.8769989013671875,-0.6127471923828125,-0.4802374541759491,0.6677932143211365,-0.32665348052978516
804,1.0972,0.6206,0,0,0.0406646728515625,0.8927154541015625,-0.6837615966796875,-0.24854882061481476,0.09428149461746216,-0.10582656413316727
805,1.172,0.7091,0,0,0.17578125,0.8643646240234375,-0.7260894775390625,-0.20502585172653198,-0.5229292511940002,0.042934682220220566
806,1.2406,0.8575,0,0,0.376983642578125,0.8659820556640625,-0.7302703857421875,-0.45054107904434204,-0.43668437004089355,0.3607073128223419
807,1.2991,1.0537,0,0,0.4517059326171875,1.01483154296875,-0.6237030029296875,-0.8148391246795654,0.08979566395282745,0.6934109926223755
808,1.3439,1.2816,0,0,0.3334503173828125,1.156158447265625,-0.623077392578125,-0.8085730075836182,0.2440406233072281,0.6392601132392883
809,1.3729,1.523,0,0,0.3040008544921875,1.041656494140625,-0.9242706298828125,0.1173468679189682,-0.44620516896247864,0.6651234030723572
810,1.3849,1.7582,0,0,0.208343505859375,0.97845458984375,-1.0299835205078125,0.34328439831733704,-1.1580300331115723,0.6521559357643127
811,1.3798,1.9689,0,0,-0.0931243896484375,1.1414337158203125,-0.498321533203125,-0.9624754786491394,-0.5642141103744507,0.06118346378207207
812,1.3591,2.1395,0,0,-0.3812255859375,1.2458648681640625,0.1440887451171875,-3.076064109802246,0.5031661987304688,-0.9171292781829834
813,1.3252,2.2594,0,0,-0.6265106201171875,1.3526458740234375,0.398590087890625,-4.612583160400391,1.1128220558166504,-2.017533779144287
814,1.2814,2.3241,0,0,-0.8259429931640625,1.3224639892578125,-0.3149566650390625,-2.752403497695923,0.7113263010978699,-2.2848472595214844
815,1.2317,2.335,0,0,-0.634124755859375,1.0570526123046875,-0.5297088623046875,0.601548433303833,-0.3604221045970917,-0.4581771492958069
816,1.1803,2.2984,0,0,-0.6016845703125,0.5853424072265625,-0.0887298583984375,1.7754818201065063,-0.7424054145812988,-0.03267299011349678
817,1.1308,2.2232,0,0,-0.34124755859375,0.62255859375,0.4124908447265625,0.790669858455658,-0.029158417135477066,-0.16041550040245056
818,1.0864,2.119,0,0,-0.0828094482421875,0.7772216796875,0.508544921875,0.790669858455658,-0.029158417135477066,-0.16041550040245056
819,1.0489,1.9944,0,0,0.0720977783203125,0.9883270263671875,0.309417724609375,-0.7364250421524048,0.7961357831954956,0.014137922786176205
820,1.019,1.8563,0,0,0.130767822265625,1.1416168212890625,0.2006683349609375,-1.795006275177002,2.282335042953491,0.808294415473938
821,0.9966,1.7102,0,0,0.114501953125,1.129669189453125,0.1528778076171875,-1.4644038677215576,2.4147286415100098,0.874268114566803
822,0.9807,1.5607,0,0,0.0979156494140625,1.019012451171875,0.114837646484375,-0.8669585585594177,1.903363823890686,0.7061081528663635
823,0.9699,1.4127,0,0,0.0855712890625,0.9557952880859375,0.08123779296875,-0.8669585585594177,1.903363823890686,0.7061081528663635
824,0.9627,1.2712,0,0,0.090057373046875,0.920166015625,0.077789306640625,-0.03816309943795204,0.27251940965652466,0.11693727225065231
825,0.9577,1.1414,0,0,0.1341400146484375,0.9100189208984375,0.0820159912109375,-0.17424583435058594,-0.4134941101074219,0.049961432814598083
826,0.9538,1.0279,0,0,0.0298919677734375,0.89947509765625,-0.2871551513671875,-0.6181260943412781,-0.8846203684806824,0.12283644080162048
827,0.9502,0.9343,0,0,-0.124237060546875,0.8947601318359375,-0.4620819091796875,-0.9117827415466309,-0.20367270708084106,0.022411832585930824
828,0.9469,0.8625,0,0,0.028289794921875,0.9372711181640625,-0.1204681396484375,-0.8101218938827515,0.6844635605812073,-0.020000340417027473
829,0.9439,0.8126,0,0,0.0726165771484375,1.017303466796875,0.0902862548828125,-0.6561296582221985,0.5428696870803833,-0.04627908021211624
830,0.942,0.7824,0,0,0.061981201171875,0.9164276123046875,-0.0058441162109375,-0.46966683864593506,0.2797730565071106,-0.07948923110961914
831,0.9421,0.7683,0,0,0.1111907958984375,0.8828887939453125,-0.13299560546875,-0.6572631001472473,-0.08113560080528259,-0.11744247376918793
832,0.9453,0.7649,0,0,0.13726806640625,0.923187255859375,-0.1662139892578125,-0.6572631001472473,-0.08113560080528259,-0.11744247376918793
833,0.9526,0.7662,0,0,0.06756591796875,0.982086181640625,-0.1597442626953125,-0.867464005947113,-0.4194902181625366,-0.10721460729837418
834,0.9647,0.7659,0,0,0.0709686279296875,0.9654998779296875,-0.072113037109375,-0.4841080904006958,-0.4571952521800995,-0.07851158827543259
835,0.9818,0.7584,0,0,0.06878662109375,0.9445648193359375,-0.0361785888671875,-0.4841080904006958,-0.4571952521800995,-0.07851158827543259
836,1.0037,0.7397,0,0,0.0222625732421875,0.9263763427734375,-0.0379180908203125,-0.7439287304878235,-0.5548086166381836,-0.0550006665289402
837,1.0292,0.7081,0,0,-0.0214691162109375,0.938507080078125,-0.090911865234375,-0.5528927445411682,-0.14352627098560333,-0.11898577213287354
838,1.0569,0.6647,0,0,-0.018310546875,0.9963531494140625,-0.0771026611328125,-0.39125537872314453,0.39260825514793396,-0.13190050423145294
839,1.0849,0.6141,0,0,0.0222625732421875,1.0946197509765625,0.027740478515625,-0.4748149812221527,0.6556369662284851,-0.08618548512458801
840,1.1109,0.5637,0,0,0.064910888671875,1.1311187744140625,0.036407470703125,-0.5232685208320618,0.7351599931716919,-0.17757637798786163
841,1.1331,0.5242,0,0,0.1141815185546875,1.1826324462890625,0.0047760009765625,-0.4492736756801605,0.7463692426681519,-0.25798600912094116
842,1.1499,0.508,0,0,0.18304443359375,1.1756439208984375,-0.0560455322265625,-0.3696717917919159,0.6311824917793274,-0.18312907218933105
843,1.1605,0.5282,0,0,0.222930908203125,1.1806488037109375,-0.1211090087890625,-0.3059476613998413,0.40832412242889404,0.02143178880214691
844,1.165,0.5966,0,0,0.25274658203125,1.2440948486328125,-0.1182098388671875,-0.13081873953342438,0.09347375482320786,0.20180928707122803
845,1.1642,0.7222,0,0,0.2303619384765625,1.216583251953125,-0.133087158203125,0.11280830949544907,-0.13767877221107483,0.3212035894393921
846,1.1596,0.9094,0,0,0.170745849609375,1.2205963134765625,-0.061431884765625,0.3983069062232971,-0.43840983510017395,0.3967239260673523
847,1.1531,1.1567,0,0,0.110137939453125,1.1444244384765625,-0.0183258056640625,0.7324252128601074,-0.6495673656463623,0.3284367322921753
848,1.1466,1.4563,0,0,0.1035919189453125,1.0805816650390625,0.063568115234375,1.0170689821243286,-0.9396122097969055,0.31660059094429016
849,1.1414,1.7944,0,0,0.0240325927734375,0.9296417236328125,0.1728515625,1.1060981750488281,-1.0671981573104858,0.2543089687824249
850,1.1381,2.1518,0,0,-0.1859588623046875,0.8494873046875,0.132659912109375,1.3270920515060425,-0.7337440252304077,-0.15409024059772491
851,1.1362,2.5064,0,0,-0.2934112548828125,0.991943359375,-0.0364532470703125,1.9593946933746338,0.0190754234790802,-0.4981602430343628
852,1.1344,2.8349,0,0,-0.19989013671875,1.1147613525390625,0.0613250732421875,2.2804110050201416,1.3522343635559082,-0.2863079309463501
853,1.1307,3.1158,0,0,-0.2740936279296875,1.1954498291015625,0.13958740234375,2.175834894180298,3.197535514831543,-0.03949121758341789
854,1.1228,3.3319,0,0,-0.3950042724609375,1.30560302734375,-0.11541748046875,2.6058831214904785,4.488500118255615,0.013309413567185402
855,1.1089,3.472,0,0,-0.432708740234375,1.2033538818359375,-0.2576751708984375,3.1539769172668457,3.7979190349578857,0.06462906301021576
856,1.0874,3.5317,0,0,-0.2895355224609375,1.052032470703125,0.04522705078125,2.685720920562744,1.6054635047912598,0.3170788884162903
857,1.058,3.5132,0,0,-0.2400054931640625,0.90240478515625,-0.03253173828125,2.047293186187744,-0.17194326221942902,0.3208579123020172
858,1.0212,3.4238,0,0,-0.0711212158203125,0.7852020263671875,0.1473846435546875,1.076308012008667,-2.518562078475952,0.4417305290699005
859,0.9784,3.2736,0,0,0.2561798095703125,0.8990325927734375,-0.2920989990234375,1.220349907875061,-2.970268964767456,1.08573317527771
860,0.9322,3.0746,0,0,0.1512451171875,0.98162841796875,-0.3297119140625,1.646018385887146,-1.7329192161560059,1.2010164260864258
861,0.8856,2.8383,0,0,0.1519317626953125,0.9840087890625,-0.1514129638671875,1.6225523948669434,-1.1637611389160156,1.0336982011795044
862,0.8423,2.5762,0,0,0.2298431396484375,0.9669952392578125,-0.1795654296875,1.5528205633163452,-1.8523625135421753,0.9216611981391907
863,0.8062,2.2986,0,0,0.0533294677734375,0.769989013671875,-0.1815948486328125,1.347464919090271,-2.4536755084991455,0.5341054797172546
864,0.781,2.0156,0,0,-0.10272216796875,0.620635986328125,-0.1921539306640625,0.8817632794380188,-2.3183836936950684,0.06823684275150299
865,0.7698,1.737,0,0,-0.241790771484375,0.55816650390625,-0.218109130859375,0.8817632794380188,-2.3183836936950684,0.06823684275150299
866,0.7748,1.4727,0,0,-0.3256378173828125,0.5413665771484375,-0.2766571044921875,-0.40376317501068115,-1.0074330568313599,-0.3309835195541382
867,0.7968,1.2326,0,0,-0.352203369140625,0.5330810546875,-0.32568359375,-0.8416885733604431,-0.3091277480125427,-0.22370952367782593
868,0.8352,1.0259,0,0,-0.3501739501953125,0.61236572265625,-0.45257568359375,-0.9016400575637817,0.03591911867260933,-0.17416833341121674
869,0.8882,0.8611,0,0,-0.2248687744140625,0.70831298828125,-0.561798095703125,-0.7263185977935791,0.23807008564472198,-0.259456604719162
870,0.9526,0.7445,0,0,-0.0986480712890625,0.798919677734375,-0.61956787109375,-0.4877355694770813,0.4621697664260864,-0.2778635621070862
871,1.0244,0.6803,0,0,-0.0361175537109375,0.891571044921875,-0.650970458984375,-0.3263237774372101,0.6265946626663208,-0.28246816992759705
872,1.099,0.6702,0,0,0.039276123046875,0.888427734375,-0.6871490478515625,-0.3263237774372101,0.6265946626663208,-0.28246816992759705
873,1.1718,0.7124,0,0,0.0996246337890625,0.8224945068359375,-0.7583770751953125,-0.5100196003913879,-0.6154102087020874,-0.16700443625450134
874,1.2381,0.8022,0,0,0.223358154296875,0.8369903564453125,-0.7639007568359375,-0.5663030743598938,-0.6267070174217224,0.08890403807163239
875,1.2936,0.9317,0,0,0.2508087158203125,0.9768218994140625,-0.689117431640625,-0.6861831545829773,-0.02666143886744976,0.3341849148273468
876,1.335,1.0903,0,0,0.136444091796875,1.1822967529296875,-0.678314208984375,-0.645031750202179,-0.029573338106274605,0.3229503631591797
877,1.3596,1.2649,0,0,0.109375,1.075775146484375,-0.9698944091796875,0.07885060459375381,-0.6084132790565491,0.47473934292793274
878,1.3663,1.4414,0,0,0.071197509765625,1.1043853759765625,-0.912353515625,0.12584607303142548,-0.49594396352767944,0.42446234822273254
879,1.3553,1.6059,0,0,-0.08612060546875,1.1706695556640625,-0.2987060546875,-1.195637822151184,0.49182459712028503,0.14362454414367676
880,1.3282,1.7462,0,0,-0.4215850830078125,1.24822998046875,0.33843994140625,-3.3684566020965576,1.0241308212280273,-0.802393913269043
881,1.2877,1.8535,0,0,-0.6821746826171875,1.3033599853515625,0.4000091552734375,-3.3684566020965576,1.0241308212280273,-0.802393913269043
882,1.238,1.9226,0,0,-0.7034149169921875,1.256561279296875,-0.6576385498046875,-1.576900601387024,-0.3170093894004822,-1.6057831048965454
