id,ASVM,GSVM,walking_nonwalking,normal_abnormal,ax,ay,az,gx,gy,gz
1,0.7510999035226936,0.010235075499461814,1,1,0.7424425482360554,0.06354068123028324,0.09483676209126074,0.008760418281910088,-0.0007613966452501681,-0.005165050149850893
2,0.8124739203207796,0.009457126981526424,1,1,1.056211224026158,0.09045365535223375,0.13455737273662052,0.01420479079692557,-0.00522019434917045,-0.005535563861565216
3,0.8703685138066071,0.008706727969056777,1,1,0.958259920557216,0.08454290060711912,0.12173855251196691,0.005753359916353916,-0.001445502241968577,-0.005479700202128138
4,0.9217451509979528,0.008031636367767431,1,1,1.014326724394377,0.09141050047108541,0.1307779510880677,0.0037057613842994184,-0.002119269829968374,-0.004448772517927437
5,0.9643674717485768,0.007477163445211728,1,1,0.9814353022194522,0.08749524184383434,0.12391199042946273,-0.0006829694564162996,-0.0014812065380550756,-0.004278297777567934
6,0.9970016217120673,0.007083155961816901,1,1,0.99568865787444,0.08724163532708337,0.1289084220500921,-0.001223920434586349,0.0016223312074498029,-0.005877316129995558
7,1.0194472819625187,0.00688142402476772,1,1,0.9831991884214055,0.08565250022173483,0.12751704991705728,-0.002561102554890276,-0.004235405016722586,-0.006768189682665667
8,1.032421886915584,0.006893772215650572,1,1,0.9934429440169278,0.08691887014309023,0.12860481537254873,0.0023334114155073647,0.002409688754502978,-0.009410550667750263
9,1.0373422564020471,0.007130352456543329,1,1,0.9900015332195943,0.08713607933179765,0.13086088712122124,0.001156435910153304,-0.0015952779989982346,-0.009900374318068327
10,1.0360547521095076,0.007587915078047894,1,1,0.9907565347227216,0.08794140429620048,0.12574495873833583,-0.00025690122235949684,-0.00010089495921346997,-0.005445177158858043
11,1.0305613234628688,0.008247882581472707,1,1,0.9920275994199279,0.08733145241287203,0.12312262642968978,-0.0027261355248682333,-0.004120174367813769,-0.005346970885527169
12,1.0227787406708644,0.009074783182388895,1,1,0.9905772311700275,0.08681005893700422,0.12651229508353817,-0.0033640989060966155,0.004785665554559294,-0.0058552446452029465
13,1.0143554572291305,0.010016030461402592,1,1,0.9878935387049975,0.08605167999137243,0.12775196040953912,0.001494307830944746,0.002290936966581458,-0.00546349463215951
14,1.0065574828397874,0.011004043283155355,1,1,0.9891289427229003,0.08812432079976788,0.12906472574728373,0.006286799770382999,-0.0022353110938298586,-0.005902443252602379
15,1.000223112892848,0.011961266482214588,1,1,0.9910321468757445,0.08668296049129909,0.12759049528711996,0.002167289621760125,-0.009151386167269132,-0.009766859467060776
16,0.9957773887211415,0.012807936161418712,1,1,0.9933594509892306,0.08444433261771016,0.12550270045164372,0.0037054248382102895,0.005744062712748043,-0.00962905647222975
17,0.9932912920113536,0.013471662275396585,1,1,0.9939820877239453,0.0844291668344841,0.12776831390176696,0.010697923516044,0.004794448202516532,-0.006986791417416471
18,0.9925680828650489,0.013897317920409722,1,1,0.9919986086998285,0.08668106354242179,0.1229607859136964,0.0123118817477777,0.006267948057509723,-0.008190989595080337
19,0.9932396398747727,0.01405545905630792,1,1,0.991671531456332,0.08722779869828307,0.12540022130453282,0.014108464045416557,0.010683412169862181,-0.005497486575642678
20,0.9948584513729117,0.013947564378358994,1,1,0.9911095384064925,0.08848653366074656,0.12957659159128707,0.01108625141853064,0.010141808287494771,-0.007010844167445814
21,0.9969750382576738,0.013606819677997211,1,1,0.9890529933401069,0.08740965817216097,0.1283491347025215,0.009879039664177948,0.00515407743367779,-0.007661061051618504
22,0.9991950778822329,0.013093994650033922,1,1,0.9865376262725344,0.08818402293290512,0.12718076082360127,0.012439015464274382,-9.082465279392547e-05,-0.008563729320840896
23,1.0012145828033427,0.012488997360054606,1,1,0.9893550348493453,0.08995226649922122,0.12653592464817764,0.0046798637562067555,-0.002417458066955699,-0.008365782675443821
24,1.002834644902337,0.011879612794091176,1,1,0.9920744205906656,0.08904095261816909,0.12590364664661285,-0.00029496669077054436,0.00623407699011341,-0.008600332112300452
25,1.0039592519776723,0.011349475311824108,1,1,0.9904635575901928,0.08685853748858396,0.12843791740222452,0.004739655592688692,0.0024847508884912836,-0.005064974540358657
26,1.0045806618079614,0.010967383926150074,1,1,0.9897541972970796,0.08684983057257659,0.12760375444307662,0.008215249542319784,-0.00013821013794160429,-0.0054518314515544
27,1.0047571310280294,0.010779652140802749,1,1,0.9888240875041722,0.08835571073014718,0.12695415570366156,0.0038161090618955766,0.007049095704050002,-0.0059144560405672494
28,1.004587662731796,0.010806418463443084,1,1,0.9876928281118952,0.08610057559116954,0.1307302909583353,0.005026542671012718,0.006276720126842546,-0.005919508618743884
29,1.0041878479855573,0.011041972296553432,1,1,0.9921965249132512,0.08233350278034408,0.13019062001227028,0.007139734530597464,0.004214071236504008,-0.0076935091480315266
30,1.003669831018644,0.011458416321262708,1,1,0.9899161980134052,0.08492087416625957,0.1302775790406195,0.007916217674192622,0.008165141542696307,-0.008312998510290751
31,1.0031281321385537,0.012011533738656701,1,1,0.9876176375844816,0.09103709238766984,0.13072471931743207,0.008371219645324376,0.007646622186811566,-0.009202489294546066
32,1.0026318325906687,0.012647628169642735,1,1,0.9910226740505766,0.09046425200274953,0.1280743695871031,0.0005068221018325911,0.009258727173016497,-0.009576709494023696
33,1.0022226467343112,0.013310379932566108,1,1,0.9900098327418494,0.08599663899675529,0.13107322798178928,0.0010161800084476898,0.003842442130728768,-0.007401554076796975
34,1.0019176828551895,0.013947271204708808,1,1,0.990745453016337,0.08370098818688275,0.12774453200944355,0.0012716837448961736,0.006153094983244045,-0.00877110019519098
35,1.0017152132351996,0.014515492921014854,1,1,0.9936827070359444,0.09168705762236112,0.1238579983356708,0.003991597448419247,0.013375476831330885,-0.007447875477567442
36,1.0016015995885392,0.014987108316042686,1,1,0.9911234736530339,0.09138054332500702,0.12886286146967266,-0.0004923818687948891,0.020790658820403488,-0.005079504351668722
37,1.0015577159780034,0.01535272730589265,1,1,0.9889120016324575,0.08673895214889346,0.12700545449363682,-0.011157287979759714,0.014261219959067485,-0.005388610759071243
38,1.0015637528950743,0.015622637828311818,1,1,0.9915755370427044,0.08706082154675047,0.12906633127983477,-0.005184796052315876,0.00866335322818576,-0.006886129807968627
39,1.0016020125030498,0.015824719536674657,1,1,0.9887542457805972,0.0860892928810802,0.12732260243286364,0.0005696368214430443,0.013649847855216907,-0.007397460516962532
40,1.0016579721585555,0.015999343513647582,1,1,0.9855357408638825,0.08496152310121713,0.1299195352776292,-0.0010892706199484472,0.019262048717713566,-0.007441460326495703
41,1.0017203039967248,0.016192245022539156,1,1,0.9892449604115383,0.08309210784876682,0.12994628220636192,0.003465205198432002,0.008700547777311623,-0.004492063626456273
42,1.0017805911004092,0.016446725248332236,1,1,0.9926181450029069,0.08437498687759008,0.13141738891653226,0.005567120513168787,0.00829263740424372,-0.005289184057951273
43,1.0018331972942975,0.016796546256844118,1,1,0.9892392098789348,0.08458822647452921,0.1288130810230592,0.008274140761686262,0.019620031202908356,-0.006077270207212618
44,1.0018753478418734,0.017260576498688934,1,1,0.9870640456243133,0.08757520684218914,0.12849982347950553,0.007973982400671062,0.014879458736317706,-0.00556986853119964
45,1.0019072386621346,0.017839694633863926,1,1,0.9912075207310455,0.09005983819998933,0.1316592909002525,0.0028326043040813966,0.012695444716785274,-0.007089828123498974
46,1.0019319459560672,0.018515981955200423,1,1,0.990903068953896,0.08865063554487394,0.1286586682986672,0.002820542753905805,0.015652117090093766,-0.004231273070743505
47,1.001954906106993,0.019254041321279836,1,1,0.9917712061516061,0.09083323173168284,0.12998869787215706,0.0001875227181167447,0.02073671097965018,-0.0036064530479262245
48,1.0019827761037028,0.020004178474630437,1,1,0.98888323585869,0.08739196785055899,0.13025204630794013,-0.0024590151411688884,0.024162450870167194,-0.004902284006266303
49,1.0020217108188776,0.020706995646392026,1,1,0.9869253256775105,0.08497388859423258,0.13632951732657142,-0.0006603888864997253,0.020867685854922945,-0.0055927428305032
50,1.002075476162498,0.021298901449491935,1,1,0.9858996791515863,0.08573152766547408,0.13476031056197912,0.0031592072078311666,0.013539002908042368,-0.006033467220161839
51,1.0021440727974953,0.021718339510484675,1,1,0.9898867070815907,0.0843079168923893,0.13127168712340417,0.008074422354780494,0.007869853408522203,-0.006983643648919372
52,1.0022234084017085,0.021912832971060805,1,1,0.9918152135289934,0.08482452320739547,0.132638647084919,0.014867618535459452,0.019288700200589728,-0.007687449499050001
53,1.0023060694148167,0.02184661829242056,1,1,0.9925253838121555,0.08672484058819896,0.13208839803067585,0.018514048915575513,0.018612103925903095,-0.008123056222973908
54,1.002382759573483,0.021507666776322838,1,1,0.9881974070066851,0.08895897451581594,0.13519721987280997,0.017680308415742148,0.01781036248710459,-0.005482919402141368
55,1.0024438466902088,0.0209120628404605,1,1,0.9878582971504698,0.09022639956418474,0.13671622165109404,0.014170833691361278,0.01839319224238857,-0.007041776892096208
56,1.002480709785762,0.02010385104849949,1,1,0.9890024275941535,0.09101908117230614,0.1367796462862456,0.01220399198698719,0.01716423251369518,-0.0064265058366598125
57,1.0024869046290468,0.019149616713741064,1,1,0.9891176702094302,0.08964375797834369,0.13630290623005095,0.00873072261277432,0.017196325479672897,-0.008231032505441056
58,1.002459290501689,0.018128623183175253,1,1,0.986519073231689,0.09019068786274824,0.13269784228450562,0.006351154794855195,0.011395175204352539,-0.007677537481312522
59,1.0023991536926056,0.017120682297130235,1,1,0.9896448452278801,0.09161723879830634,0.1327942610659572,-0.0013775753656884808,0.005795350471487097,-0.00490242997247718
60,1.0023131208045672,0.016194682124676004,1,1,0.9930453659177323,0.09080320812613048,0.13466321761923908,-0.01021633933578719,0.003233781093724642,-0.005826191179837948
61,1.0022133826126445,0.015400524045202263,1,1,0.9930696991660557,0.08802863309656224,0.13390077848621995,-0.010540295214039508,0.00567802919396388,-0.004081487056103081
62,1.002116644481211,0.014766035228810169,1,1,0.9894042500956813,0.08675172488323524,0.1321154715788272,-0.011098279146816699,0.017588750103271045,-0.0070820510831813835
63,1.0020415251126897,0.014298673099918955,1,1,0.9867286234766178,0.0886277140130703,0.13573880484087403,-0.007331546848223445,0.012476513200106527,-0.007234629495929152
64,1.0020048138598185,0.013990416734404754,1,1,0.9864746687154962,0.08637822138662843,0.13816403548391096,-0.0058733798458956744,0.011742513106406087,-0.005937025922351301
65,1.0020176562754775,0.013823815472532107,1,1,0.9861491349858049,0.08778726188961497,0.13570064478693922,-0.005675022652995534,0.010005364810117063,-0.00823162903220803
66,1.0020829221526588,0.013777649740420544,1,1,0.9883587078774929,0.08595526757222925,0.13602881416843943,-0.0025829086442187687,0.007305431715836383,-0.007193352912680527
67,1.0021946168875933,0.01383140898801675,1,1,0.987615512715484,0.08645367096366419,0.1353111945091044,0.0061116185213379685,0.01568449561935068,-0.006577630326284224
68,1.0023394582933411,0.013968273021540537,1,1,0.9918784768052582,0.09083004507822506,0.13476100768721974,0.002081157558708294,0.01459388674198436,-0.006211486185876394
69,1.0024999927962155,0.01417647020399755,1,1,0.9921876795403428,0.09076061084197813,0.13667413610453555,-0.0033914984694946694,0.011083153945126895,-0.0029725650839640483
70,1.0026581562813428,0.014449067044221135,1,1,0.9883682487738723,0.09146054109891696,0.137029703945014,-0.011215023610881794,0.006028224033771264,-0.004390772170962055
71,1.0027981703008082,0.014782551739421607,1,1,0.990689683107442,0.089843961100596,0.13851403630216194,-0.012895246589471953,0.006471393604058155,-0.004033726132635453
72,1.002908070170937,0.015174823812191861,1,1,0.9896218359553353,0.08997470303911792,0.14113536967006995,-0.01107835601583881,0.008331503070702302,-0.00403244118997615
73,1.0029797498188824,0.015623194631899671,1,1,0.9885544041531121,0.0881088311306367,0.1439689932680564,-0.011503099092961117,0.006734522750411013,-0.005534009088815077
74,1.0030079351004066,0.01612279107273189,1,1,0.9875922907488384,0.08478659829178439,0.13797568557337314,-0.011087672926924702,0.01401333355888878,-0.00626661611933582
75,1.002988848275961,0.016665515423777515,1,1,0.9865830709211882,0.08404984023432295,0.14010714441291247,-0.003580131456221455,0.012806732600757827,-0.006787792367971147
76,1.002919424568547,0.01723955715151573,1,1,0.9878871196708426,0.08308966142621677,0.13912608672722773,0.0030339761267408833,0.009830741372194677,-0.007760831028481155
77,1.002797687161113,0.01782936286774376,1,1,0.991038511173685,0.08432287844373937,0.1359706033738634,0.015084641966787493,0.014192919959135082,-0.007390783760582373
78,1.0026242983451596,0.018415844148496743,1,1,0.9908460172670444,0.09058848364455348,0.14149598479262562,0.01496703905314343,0.01344074836481997,-0.008201320548187355
79,1.0024046375205289,0.01897642303364376,1,1,0.9890572734679534,0.09214971990587055,0.14309708916533975,0.012247979453009695,0.012321132553239673,-0.010212041820851473
80,1.0021503745900027,0.019484522546239776,1,1,0.9911258340978873,0.09248226246480089,0.13994543556298478,0.0037352093855386385,0.019975906786515504,-0.00848754340054519
81,1.0018796142729256,0.019908560098438353,1,1,0.9869019613042338,0.09184103885164493,0.13986753384082823,0.00037039782014795954,0.016806329522164414,-0.00657250973355759
82,1.0016152030722116,0.020211278550054546,1,1,0.9877075567565423,0.09206447382029376,0.14222490051813802,-0.0020765286641389108,0.007712559525495964,-0.005202464006103607
83,1.0013814536984458,0.02035085603277394,1,1,0.9860018396819872,0.09309042009019816,0.1404985641025854,-0.009835429117357235,0.007954054854626018,-0.005837656850128388
84,1.0012000823853715,0.02028508137243192,1,1,0.9850204696403729,0.09146668432298001,0.1403902535090111,-0.01874519320636684,0.005816023258683344,-0.009141349858224682
85,1.0010864099350187,0.019978689636464743,1,1,0.9876580874645841,0.08539428602729283,0.1423591206198116,-0.0237421711015603,0.017595267969536085,-0.010242857141167018
86,1.0010468166270903,0.01941221324274163,1,1,0.9830419062973929,0.07856317279180984,0.1412288285695975,-0.009362351088691974,0.022597713219335975,-0.009744980458346476
87,1.0010781111532323,0.01858959097383809,1,1,0.9852987969517784,0.0802794138384202,0.14354563401084444,0.0008456695484253075,-0.004237267756088962,-0.012890421326461935
88,1.0011689237861832,0.017542145687146696,1,1,0.9943181734523637,0.08754145483129906,0.13775221523069545,0.005588579827520083,0.007839240261699982,-0.013371753341579912
89,1.0013025577640133,0.01632801562419639,1,1,0.9904713690998377,0.08802219428727875,0.14061564967014498,0.0048795762996036544,0.015096411492275329,-0.007795847676401314
90,1.0014602181815642,0.015027516458154557,1,1,0.9870912685481348,0.08741145644157847,0.14443314675331173,0.0045019113555325365,0.011450929227491144,-0.007845192436884255
91,1.0016235673577019,0.0137354944837309,1,1,0.9856471416488117,0.08545741966316779,0.14042500376918085,0.008769294196926172,0.006595344289941711,-0.007114546067464552
92,1.0017761596252968,0.012551713245322303,1,1,0.9874180844099133,0.0866642779758453,0.14420167149643953,0.007794118889744144,0.005143356356667511,-0.008913704124487502
93,1.0019040138364235,0.011570189311820479,1,1,0.9886011237190829,0.08936855558858037,0.13948681987194636,0.002819495457526825,0.01570252588826057,-0.0076931797053844935
94,1.0019959106788372,0.010868393804041289,1,1,0.9849354295566731,0.08772672104120037,0.1436176409392208,0.0017309694893179696,0.005831413877111845,-0.0031445462612665195
95,1.0020439111889123,0.010497428538706959,1,1,0.9870717272532904,0.08940386039704601,0.14144196899304626,0.0011039474650482077,0.005251250723146332,-0.0036361404508686063
96,1.0020442947045487,0.010474606393854443,1,1,0.9883758477551974,0.08865523141764682,0.14094167025035803,0.001665079721016754,0.007168134874921329,-0.004126003051013548
97,1.0019987395958734,0.01077998865719745,1,1,0.9906467512420642,0.08451629496896816,0.1399458338711583,0.00374001250310715,-0.0002561095135021582,-0.004068349146825533
98,1.001915196730784,0.011357988393529049,1,1,0.991685234430495,0.08556132673111737,0.14460541892223389,0.010469896988742778,0.010984888181803404,-0.0027674907854024415
99,1.0018077213978689,0.01212416385257831,1,1,0.9873758198775395,0.08728019241945538,0.14616208913368073,0.008884681180987203,0.005684194029716788,-0.0030417135065376483
100,1.001694737076426,0.012976236744315157,1,1,0.9873674954916648,0.08725733552735007,0.14036568041431977,0.01012435255935683,0.0038619249596157073,-0.004111433798017447
101,1.001595779675891,0.013807607920330582,1,1,0.9869033355104534,0.08699564129609874,0.14211891360651477,0.011521052067635302,0.007363466953582159,-0.0046230531885351
102,1.0015274194373742,0.014521297902036618,1,1,0.9866514883354438,0.08599620827485605,0.1441936694375579,0.013191191165196172,0.010917342740728695,-0.0059190474447814905
103,1.0014994526478898,0.015042156436488242,1,1,0.9840915395847312,0.0862615157704972,0.14835457421565046,0.01305419219676521,0.012239046415603307,-0.005346185508417508
104,1.0015124715256583,0.015325321416612631,1,1,0.9848201309713885,0.08885716386477381,0.14149179584711974,0.015258729813326889,0.010952055028113255,-0.005546140009827396
105,1.001557607080134,0.015359434503162005,1,1,0.9868318219828837,0.09056691319574652,0.13953137790629214,0.015496645775346773,0.007446397749839247,-0.002502253096048905
106,1.0016186734621895,0.015164138704895429,1,1,0.9884682478828457,0.08935411475370893,0.13955874617937714,0.012325054547458688,0.005931921995582947,-0.0029595308992147397
107,1.001676233420375,0.014782690831308051,1,1,0.9899250461951373,0.0914607028947635,0.14138991912451213,0.011251796836266098,0.008169992287077401,-0.001370066654404827
108,1.0017124771849704,0.014271702525955329,1,1,0.9891134777079357,0.09292277775464436,0.14211451502708114,0.00460562003373092,0.005973975940298916,-0.0031456507299638344
109,1.0017155297839633,0.01369066838728659,1,1,0.9900977958528403,0.08987386946549857,0.14199206164453368,0.0004262602078590439,0.00640150886891436,-0.0043134991236042555
110,1.0016820068585985,0.013093796764977817,1,1,0.9882665524044493,0.08579741669407288,0.1421956846439082,-0.0020644433851942827,0.01147748723870096,-0.0046059406750673685
111,1.001617238341779,0.01252571329486655,1,1,0.9867922590871997,0.0848496945935664,0.1459440498716622,0.004963561359123417,0.01199952889170453,-0.005854143130799766
112,1.0015333296521827,0.01202117367785143,1,1,0.9861044075940517,0.08506434881692714,0.1462934843611703,0.010589246104511663,0.009598534440942968,-0.003383573150711785
113,1.0014458541587126,0.0116076096354522,1,1,0.9840456830460625,0.08796459949244549,0.14355455500846748,0.010633980890863889,0.006671942176279673,-0.004869365134700971
114,1.0013702606994255,0.011308690635805628,1,1,0.9869865597782055,0.08861331132429599,0.14392415207410864,0.00726521406325397,0.0028143988242028467,-0.007573511737737826
115,1.001318967355876,0.011147209688782415,1,1,0.9872196066493575,0.08863858161020047,0.1450633896949354,0.008402884552651332,0.003771617303639059,-0.008250717924797916
116,1.0012997000907446,0.011146159428535704,1,1,0.9865369360640773,0.08796807003464976,0.1411975134107145,0.009585532704407764,0.006609088514291424,-0.008547249640104518
117,1.0013151491892858,0.011327484358406796,1,1,0.9867528255603417,0.09056400731277581,0.14441708523792046,0.007911267312302012,0.0018055273498858667,-0.008842039409960197
118,1.0013636573310567,0.011708566691492641,1,1,0.9871982451446513,0.09280109834436026,0.14487285915784384,0.004856424258197873,0.005759206817394753,-0.007841072147290367
119,1.001440470503208,0.012297083716061558,1,1,0.9883089488514553,0.09131949072727015,0.14487098262938994,0.00041455052423857114,0.007233183833393014,-0.008245241295562322
120,1.0015390409237346,0.01308541357891151,1,1,0.9880289094175474,0.08952156991119194,0.14339168201414496,-0.005618110673140697,0.007086618630323497,-0.008625278076046244
121,1.0016519702081925,0.014046074655460134,1,1,0.9864774549697752,0.08895624259432525,0.14372939332564263,-0.0061188984084106736,0.008728846323737528,-0.009161276402236747
122,1.0017714269808828,0.015129656536163076,1,1,0.9879104730683803,0.08558906708239605,0.14601667986714134,-0.006036586614416339,0.001028371296995192,-0.006737708488844427
123,1.0018891798890854,0.016266392084576645,1,1,0.9865229484373413,0.08356607597920342,0.14457365963177654,0.004332276921311715,0.009536693490591967,-0.009174525792080916
124,1.0019966071081472,0.017371961082523757,1,1,0.9853789758036453,0.08469018601340673,0.14623504046580954,0.013367267238512507,0.004963369799622755,-0.005694766878170053
125,1.0020850734799824,0.018357252901308917,1,1,0.9883147805805291,0.08383948443991127,0.14623097655643139,0.01582310849569853,0.01017184511024904,-0.008229789938183373
126,1.0021468863230443,0.019140737701519323,1,1,0.9883664786522641,0.0886370953147201,0.14450503797766737,0.01747399539946073,0.014798354267040445,-0.0062621151503446685
127,1.0021767200267337,0.019661181954955368,1,1,0.9876894846929443,0.08622344430433633,0.14763769119002312,0.015451293417547701,0.011983063534628306,-0.007639752573461757
128,1.0021730970590716,0.019888130673854885,1,1,0.9884210966140216,0.0871414157995902,0.14826324193529866,0.012771900061290855,0.01601242240043101,-0.006748753495944762
129,1.0021393868175095,0.019827986570642237,1,1,0.9884030975682773,0.08630210924229909,0.14715370522681043,0.012524547543091213,0.013301478888718158,-0.004105921341009993
130,1.0020838708329751,0.01952436011486667,1,1,0.9870895283242722,0.08638424298198052,0.14645813218421416,0.018919966408122147,0.01662905173904889,-0.004379043151309689
131,1.0020186500186512,0.019052251547732595,1,1,0.9889470304565504,0.0898414380758828,0.14622018990517963,0.014289534334188246,0.014500303242403513,-0.0014963209186040773
132,1.0019574506975926,0.018506431255594584,1,1,0.9889995404801644,0.09170819667085656,0.14693236156208528,0.009838817373045414,0.020724875920746427,-0.004177482856941188
133,1.0019126829716605,0.017985276105685895,1,1,0.9828356159333828,0.08780825259306106,0.1487794817388563,0.008346383765158217,0.01619294351513182,-0.0007605080357542481
134,1.001892404423602,0.01757242596019157,1,1,0.9852149285506132,0.08425182261796285,0.15063762744601258,0.010092974166746524,0.00679018175561939,-0.0015787065090639627
135,1.001898048615049,0.017319746327303456,1,1,0.9859645383005501,0.08672297612042819,0.14559061661341668,0.0038082810778903354,0.00337978308550457,-0.0021471791798024246
136,1.001923696241881,0.017235674191728025,1,1,0.9860413180224762,0.08870722551941074,0.14751208462916107,0.007119734154719762,-0.0016509631526598905,-0.0037805108004884346
137,1.001957216027323,0.017282437985917092,1,1,0.9910862245477013,0.08811295591294974,0.14830832211176184,0.0041802754524132455,0.007136055858873542,-0.0060733734523893915
138,1.001982991421487,0.017383603605705008,1,1,0.9863849056047194,0.0813995250051634,0.14929619928533164,0.010124555645678806,0.026983229104276522,-0.004678708989709875
139,1.0019855202964008,0.017440451863126816,1,1,0.9828482763980186,0.08042703669303476,0.15438663137970646,0.01830188273619368,-0.0012034461857160746,-0.006485852977682336
140,1.001953074609282,0.017353105950804536,1,1,0.9916825456907328,0.08711472735438705,0.1493394025168331,0.01810830398325888,0.009531777116733938,-0.005320063336765806
141,1.001880680796458,0.01704125408814804,1,1,0.9885343382433124,0.0924178858111202,0.1469452719511712,0.018240032399246535,0.016861127033667815,-0.0021734090753904754
142,1.0017717555972814,0.016459953593204332,1,1,0.9871744954871005,0.09080765009215268,0.14458088687732198,0.012779665440733763,0.012741415608048244,-0.0012308997852124176
143,1.0016378901939638,0.015607700407530364,1,1,0.9877506018333964,0.08752496429248885,0.1502550605720441,0.012322879136668883,0.008738507990946004,-0.0031214993948702
144,1.0014966749929686,0.014525930691359934,1,1,0.9872026472413077,0.08894214187126523,0.15056789794123027,0.01469579791139495,0.0020182676213216563,-0.0036955555831501598
145,1.0013680186324032,0.013290882276590643,1,1,0.9823642009575932,0.08993556499747368,0.15076018821088513,0.00918634303398133,0.013196171307131115,-0.004921253112990343
146,1.0012698994375135,0.012000012416368756,1,1,0.9834561761034185,0.08998725626876462,0.15041393174640932,0.0011286260760185157,0.004580508159548652,-0.0039059858008514328
147,1.0012147005656418,0.010755906762725607,1,1,0.983759024266664,0.08738349426205855,0.15356836601025745,0.001203647757713072,-0.0037676366312257197,-0.004260801226242708
148,1.001207101754922,0.009650868392427904,1,1,0.9869023811490071,0.08731181365941168,0.15033183021748123,0.0007797688415601301,-0.0001237437639044642,-0.005450173518326484
149,1.0012439519139291,0.008755031684096037,1,1,0.9859490236616385,0.08584000937652417,0.14982299829367063,0.004609749482342272,-0.0024300175975073357,-0.006028627502711851
150,1.0013158704486724,0.008109809727321077,1,1,0.9881872977691384,0.08637749110082944,0.15047808309131805,0.002111203986983444,-0.004533076303590125,-0.007160347943999335
151,1.0014098379541425,0.00772704517215561,1,1,0.9865704390227333,0.08745535862562552,0.1520525059664557,0.005707885306542652,-0.000273883123317507,-0.0034607014277362037
152,1.001511899258057,0.007592944319688142,1,1,0.9882244121417724,0.0869328837442777,0.1509967163282975,0.007682893744261502,-0.0006103287308525983,-0.004995846220710078
153,1.0016092839993649,0.007675086542315374,1,1,0.986101036744971,0.08636551940904483,0.1499200382264955,0.006430519852878051,-0.0006584439004766287,-0.006322204659044998
154,1.0016916309285977,0.0079305195867761,1,1,0.9852712528404882,0.08614616141279646,0.1509389632652501,0.011014908140823433,0.0006001430048561658,-0.005389559119508988
155,1.0017514207052387,0.00831306675388573,1,1,0.9842475366456893,0.08826954510500364,0.1544783981659813,0.007718784982805964,-0.002614055828854649,-0.006445369086612764
156,1.0017839944914997,0.008778453089544652,1,1,0.9862319021438672,0.09001710127147369,0.15189595702909023,0.006475072433481405,0.00039015112243572636,-0.005405032378631276
157,1.001787539368938,0.009286662995409008,1,1,0.9873827157523961,0.0896864854137896,0.14822198414854726,0.00801347883310746,0.004722792021090074,-0.003402702966962437
158,1.0017632002821286,0.009801868082306984,1,1,0.9864396014202785,0.08791396779386441,0.14760610146881153,0.006221143742364587,0.0007596709983211621,-0.0058906951067045354
159,1.0017152149275192,0.010291007588674347,1,1,0.9864635530137509,0.08620125382458324,0.15171229441031836,-0.00015921299466521862,-0.002289067277979698,-0.006169815043193633
160,1.0016508178130723,0.010722445885775183,1,1,0.9891344492657053,0.0863906441640666,0.15024650178343188,-4.919490103967335e-05,0.00041121829241565357,-0.0074393877306860815
161,1.001579654505825,0.011065992288820622,1,1,0.987001505044766,0.08526956142925837,0.14960389145673636,0.006909434461254616,0.00106816513341152,-0.007252685315314815
162,1.0015125727073166,0.0112949659877501,1,1,0.9856730339356122,0.08475576036890257,0.15121884879334074,0.011969694137215242,0.0018464431520905462,-0.004198890095859817
163,1.0014599028250462,0.011390100580820284,1,1,0.9834855152871134,0.08640530420633631,0.15268682818860688,0.01204603771415912,0.0032471727360181514,-0.005670147982431178
164,1.001429610364078,0.01134427368731227,1,1,0.9864960314889702,0.0867491736004012,0.1513228097473244,0.008441641597150915,-0.002513689041573391,-0.004835607262464064
165,1.0014258088096497,0.011166655162911902,1,1,0.9875682109494346,0.08692313173500678,0.15128371222141032,0.01207771612398648,0.0037708283494777527,-0.004339746361054966
166,1.0014479880497078,0.010884940702688157,1,1,0.9853954374384469,0.08878216221429895,0.14811908097965945,0.01196749690698408,3.8975879288911456e-05,-0.0052879932396633945
167,1.0014910862017485,0.010544685472863972,1,1,0.9862615798560809,0.08788009989852043,0.14635085486964014,0.011193270818755789,0.0021454537150064693,-0.004934689637163775
168,1.0015463917935554,0.010205229255942982,1,1,0.9850890431142845,0.0900722461532185,0.1489242239116084,0.010136351735932999,0.0023979069484180516,-0.004983214889030351
169,1.0016031994863015,0.009932311578937194,1,1,0.98658928749149,0.09034006844363922,0.14578377088196948,0.00996409468468028,-0.0037459146420788614,-0.004760174775143318
170,1.0016510235440008,0.009788206247536431,1,1,0.9876872978850302,0.08976060002057151,0.14832662942339425,0.007564826888499884,-0.0014726125695658436,-0.004389971709061193
171,1.001681963899075,0.00982093949607069,1,1,0.9879872165855378,0.09101756269538532,0.14906357994620714,0.001365053545988558,0.00027032263785009466,-0.004287082093445372
172,1.001692646757645,0.010054686819879297,1,1,0.9880118198872994,0.09007171452765608,0.1490623020624968,-0.004434563186333354,-0.003806249831644204,-0.004527975128811762
173,1.0016851886426588,0.010483522950923368,1,1,0.9854161019316207,0.08739205976116324,0.1502624147514451,-0.006205495569453852,-0.0009052925741386694,-0.006277583887303873
174,1.001666901582787,0.01107017991938849,1,1,0.9861391413648969,0.08649376814333759,0.14698119724186268,-0.0072858192861567595,-0.00832680895687428,-0.005872510468152238
175,1.0016488300979427,0.011750502437472894,1,1,0.9885382484528041,0.08471497332876805,0.14696990401604548,0.0007996757196880841,-0.00017504650124775494,-0.005856444036660814
176,1.0016434826164307,0.012443249344917893,1,1,0.986969914763433,0.08231333852478136,0.14901873414717118,0.007617193861528396,0.004083939360576796,-0.004178151328799518
177,1.0016622154562238,0.013063978826999875,1,1,0.9866086232542828,0.08344717137654224,0.15258833500599658,0.012597260823298585,-0.0043001683661019,-0.0053288960051161485
178,1.0017127401349748,0.013540882738192529,1,1,0.9840673401476283,0.08603023479918566,0.15037350246269404,0.018138521577546623,-0.0022394218377735664,-0.0031172473087271112
179,1.0017972367099044,0.013829600532770653,1,1,0.9865250481692072,0.08790869452125367,0.14782826243326203,0.019068841525955997,-0.004293576427427565,-0.004461022894382115
180,1.0019115067718791,0.01392363496980514,1,1,0.9875825913475181,0.08906948971552064,0.14608617561178194,0.01959323863112919,-0.003025390901101686,-0.005826295404620663
181,1.0020453989381661,0.013857494282472658,1,1,0.986153250378721,0.09074603345289078,0.1478879559187601,0.013470645991131324,-0.005813626174764632,-0.006046188822958751
182,1.0021844303430731,0.013701175201249572,1,1,0.9875587578498072,0.09221803277183163,0.14845305833603326,0.007120311075142549,-0.009413973635547124,-0.007016750146622675
183,1.0023122518489582,0.013546630764025023,1,1,0.98642369636321,0.0930877417475876,0.14821763417848013,-0.0037642783576635227,-0.011994766926193872,-0.007380083085879016
184,1.002413449514676,0.013488772811712608,1,1,0.9887028331465322,0.0894688213912639,0.1474772888143509,-0.006178937839437487,-0.006332187336551176,-0.00703499143531283
185,1.0024761326861094,0.013604857295108843,1,1,0.9888200613435563,0.08537508270934144,0.14771671921726814,-0.0010184634594778282,-0.0014713210365927846,-0.007022830650842018
186,1.0024938102009697,0.013936621775957867,1,1,0.9887346907582428,0.08552936006014995,0.1451711801115569,-9.794809841593101e-05,-0.002654592220863044,-0.00678451763887921
187,1.0024662094772374,0.014479244462391664,1,1,0.9877683383730861,0.08598826414937819,0.14638962681300177,0.0011760500959953468,-0.0034335728607139695,-0.005554176958008994
188,1.0023989386530172,0.01518000263041287,1,1,0.9888362733035966,0.08590886842355425,0.14742399374100867,-0.0020204790626855242,-0.005654524794600442,-0.010661815385147166
189,1.0023021686211169,0.015947483754236783,1,1,0.9888189319218637,0.08008622405411356,0.14800375430796156,0.005146943479520008,0.008377704340730298,-0.008939166502783449
190,1.0021887502769011,0.0166697210495493,1,1,0.9809634578674268,0.07870670144073642,0.15079274196220402,0.017041421345890775,0.0013647051049978586,-0.008007155458424618
191,1.00207231531061,0.017237299982194018,1,1,0.9876716236220033,0.08129818766901963,0.15080062982494752,0.02543928512341194,-0.00956334973161175,-0.009675246520857028
192,1.0019658188653675,0.017565960917731795,1,1,0.9923009923285991,0.08782914695034155,0.14635299262302598,0.027284086179016235,0.005027195230181849,-0.007380826627009951
193,1.0018806130130653,0.017613075777848146,1,1,0.9868556200453812,0.09308653723792105,0.14618871036002526,0.024711309501660634,0.0014033303161631939,-0.007457967141037065
194,1.0018257312981071,0.017383918454368368,1,1,0.9881809487901352,0.09165654358178693,0.14550247398918284,0.012526586871465824,0.004987888052980632,-0.005951694124908749
195,1.0018070100446783,0.016926563215224906,1,1,0.9848873918630406,0.0904300496808287,0.14666502712036902,0.011784007129048495,-0.006216460019208111,-0.006844562174584991
196,1.001826036605463,0.01631746775049246,1,1,0.9867557409605182,0.08950455352732237,0.14778278201237982,0.010876532794663758,-0.002989068569217032,-0.00927628608751117
197,1.001879345910457,0.01564210307687552,1,1,0.982543059744956,0.08877178036684553,0.14792297302902285,0.000680413510368796,-0.002140910610003175,-0.005778008074713662
198,1.0019584240111745,0.0149757780142141,1,1,0.9887823314926116,0.08889114445661064,0.14842106479892805,-0.0031187179721929442,-0.00970268917352883,-0.007005725516788435
199,1.002050837280205,0.014369210569687136,1,1,0.9872787609708613,0.08606679256895605,0.14933790020047605,-0.00021265229937634142,-0.007366963457854098,-0.005447154704108009
200,1.00214234597948,0.013841866710302532,1,1,0.98843211601141,0.08343541554046686,0.1462539893514563,0.0034843879058994985,-0.007803631374381238,-0.004722504271181298
201,1.00221944720215,0.013384068556001046,1,1,0.9900348969719328,0.08050178392708139,0.14709379553949292,0.007814868916882276,-0.0052627541266079495,-0.005900783415192019
202,1.0022716388008415,0.012966773265559454,1,1,0.9892236763862176,0.08193838576495129,0.1492752844223453,0.01509155891838942,0.0012959717144554446,-0.005978416740947069
203,1.0022928460343699,0.012556085071804219,1,1,0.9860607248318984,0.08469479960355729,0.15047708196493723,0.0183716058922003,0.0048614679755784275,-0.004941393292365664
204,1.002281806269817,0.0121283395612151,1,1,0.9858854273908649,0.08834177006452303,0.15093224077259954,0.018000271519450526,-0.0005522138471287143,-0.006285991309869975
205,1.002241593312656,0.011681394204376153,1,1,0.9871300269378156,0.08853712465792914,0.14872088687284415,0.01593576831073642,0.006881202638897181,-0.005559344786462615
206,1.0021786930408516,0.011238798898335988,1,1,0.9854914462447333,0.09183333144660118,0.1455372771311455,0.012346006392893504,-0.0041729990354682014,-0.005227779009031519
207,1.0021020168533479,0.010845580382259842,1,1,0.9888753613791381,0.09057173992389528,0.14486528758369774,0.008553433053637146,-0.004191434514425757,-0.00547776235097733
208,1.0020220260525698,0.010556819271388396,1,1,0.98814113649667,0.08946583315384271,0.1454454467495185,0.00232554597732549,0.0012075602843396051,-0.004666827810165568
209,1.0019499068131905,0.010422274039623548,1,1,0.9878317597185785,0.08993466156276887,0.1462315047986381,-0.00010295998987446296,-0.0006213054393666794,-0.005128705898822002
210,1.0018966336449475,0.010471411438559904,1,1,0.9864498024957764,0.08625024210287159,0.14577686328722037,0.0012354456274634132,-0.0007946356815242086,-0.003027102018686435
211,1.001871836818667,0.01070305276664633,1,1,0.9875251173707746,0.0882887213532774,0.1488215982809404,0.0044847102005812585,0.001529041368438442,-0.006116058017204654
212,1.0018825589592497,0.011082547760124331,1,1,0.9859709046041185,0.08484619181777008,0.1485154737016208,0.005452544333910996,7.147711072072449e-05,-0.0037444198196707307
213,1.0019321101034961,0.011547379718623239,1,1,0.9882441891175584,0.08224746024090344,0.14750378164033717,0.008656509343019267,-0.001371690599694244,-0.003518664623432258
214,1.002019248796148,0.01201993338817745,1,1,0.9879261457533589,0.08295755277620483,0.14893693435274138,0.013790805316237588,0.002294992153002595,-0.00506282163782271
215,1.0021378687955287,0.012424278664716484,1,1,0.9851968889720369,0.08493887241756941,0.14907624420985574,0.021573066380481495,-0.0004509569584739241,-0.0022099685092228974
216,1.0022773128771203,0.01270263005904742,1,1,0.9870603397995923,0.0879410496976766,0.14752891529619563,0.020835632487157616,-0.0008768947193615465,-0.0039381791287911635
217,1.0024233612908215,0.012827054059636023,1,1,0.9883508292584747,0.09145371500562992,0.1476581062727035,0.01679343475320996,0.004323821036623118,-0.005366132567015548
218,1.0025598079181972,0.01280327161582097,1,1,0.9882038568916086,0.0925666557755181,0.14857874068238067,0.013213998680850233,-0.0017257828676538942,-0.004790762801130912
219,1.0026703731570128,0.01266575956819642,1,1,0.9880044371291575,0.0912333378486172,0.14496098767421858,0.00684478898914116,-0.0016006543272594936,-0.005496206711197943
220,1.0027406345473562,0.012465940793584781,1,1,0.9863407741384017,0.0931465077694574,0.14736531352241816,0.003101274171896248,0.0026458557607857854,-0.005821622726746447
221,1.0027597432569162,0.012257104876919606,1,1,0.9876407845680182,0.0900404073654815,0.14762616020041988,-0.004253351050271184,-0.0022709056072639897,-0.008808345628945207
222,1.0027218292028544,0.012080273593487054,1,1,0.9877529241170958,0.08710933123156857,0.14762949858428054,-0.0027233175370876767,-0.00025364868103674814,-0.006555222881983605
223,1.0026270348526292,0.011954585736430871,1,1,0.9880443989556051,0.08828554381206266,0.14838170948589793,-0.0009445765486325151,0.0016379860204457123,-0.008253709122043058
224,1.0024820399981011,0.011874386227154332,1,1,0.9883791229738444,0.08460298279580575,0.1479774139233544,0.0026571281252139394,0.0016083248316458363,-0.005473125335564991
225,1.002299848231946,0.011813512360367033,1,1,0.9898226934888135,0.08486990189990784,0.14815152285218122,0.008887515811397455,0.0018079614254377454,-0.007288570467298065
226,1.002098613076877,0.011735517503797017,1,1,0.9883456090445936,0.08522898048529771,0.14730754936188342,0.01343147614984159,0.006599424191577495,-0.006635852056994494
227,1.0018994491641822,0.011606986752284202,1,1,0.9845557769608289,0.08621718998775782,0.14926147012741492,0.016175408055153672,0.008514464703955804,-0.005755139849835726
228,1.0017234739951113,0.011410113460923705,1,1,0.9868617667479452,0.0886209868154457,0.14530959190361295,0.013798221446363468,0.0067566611574108575,-0.008396874698018917
229,1.0015886121690551,0.011150809933673135,1,1,0.987476295223883,0.08892203725028168,0.15049702417215371,0.011533215547760567,0.007293328888427662,-0.007188985354188373
230,1.0015068000112686,0.01085994743133952,1,1,0.9855250953628005,0.09190804218630115,0.14897234502873521,0.009711053451322851,0.003481534301932029,-0.00454589212167398
231,1.0014821468364419,0.010587417070845222,1,1,0.9833771007523581,0.09280556298203457,0.14377518832356642,0.003996053595011062,-0.0014928054698908802,-0.004591539274472634
232,1.0015104571038518,0.010390782847701101,1,1,0.986004560139647,0.09118413980194362,0.14569594727014112,-0.003668389541751172,0.0005671977091463334,-0.006225028613775175
233,1.0015803143953041,0.010321640480333256,1,1,0.9875469735698373,0.08886041375838917,0.14754335174545702,-0.006403986611462745,-0.00013659757648493755,-0.0073610032569627025
234,1.0016755897273062,0.010413087908133844,1,1,0.9870763917414179,0.08781209447923914,0.1463030595507288,-0.00510663735580897,0.0012320793690185074,-0.005187349511515846
235,1.0017788112370989,0.010671146815390206,1,1,0.9892913312614947,0.08798909403475196,0.14749268767482046,-0.002789034988767865,0.0006002142339140255,-0.0063172535639166895
236,1.0018745378517406,0.011071991611212468,1,1,0.9880363510160416,0.08376453701251904,0.14618168496601802,0.0010484023531661234,0.0055230586283650076,-0.004053787641458775
237,1.0019518811021573,0.011565719007136406,1,1,0.9888597502494917,0.08354009896069242,0.1482687596190004,0.006307260494713647,0.0014521024849505715,-0.003513828096661186
238,1.0020056022094184,0.01208611818462007,1,1,0.9891306776250232,0.08310995405663765,0.14983456631152278,0.008843130287426068,0.004318815115103674,-0.00457270946524294
239,1.002035662884454,0.01256445257639889,1,1,0.9857079252239582,0.08384402544540527,0.1488080447886902,0.018009651926215963,0.012399782223960045,-0.004692345054973583
240,1.002045601680891,0.012943912101459754,1,1,0.9822449285857107,0.08797448714511198,0.1476250497143161,0.023053598330058288,0.00812838250496193,-0.005410850776197304
241,1.0020404798452405,0.013190781584838251,1,1,0.9891560799999196,0.08991905506747337,0.1500720644837834,0.01640913801637003,0.0034284741099400626,-0.0031034283481064275
242,1.002025196908147,0.013299151496180403,1,1,0.9864332491252948,0.09145021501173763,0.1477441670042826,0.00798419532628158,0.004061720808582813,-0.005909610998127003
243,1.0020036712307239,0.013288144497924401,1,1,0.9848805593711321,0.09440057241884399,0.1463243397126862,0.0038814884740253994,-0.006632423074093491,-0.007814633054255492
244,1.0019789332431024,0.013193164904456867,1,1,0.9892773999950315,0.09408411595871208,0.14464190228156343,-0.004167014681700522,0.0071376065603256595,-0.005053554517890931
245,1.0019538487133621,0.013054372529553653,1,1,0.985320272291887,0.08953102765968039,0.1472664557927901,-0.005119094948162725,0.0057824056616886015,-0.004340085242665649
246,1.001932028021446,0.012905910998122343,1,1,0.9876964246761183,0.08440672609068926,0.14835289584168893,-0.003459088123548096,-0.0027416042669276735,-0.00936822842706861
247,1.0019184115790174,0.012768663443287254,1,1,0.9918779561934068,0.08724202061168754,0.14748989512528415,-0.0007967306727324602,0.003084045712987057,-0.006631404262733571
248,1.0019190444225108,0.012647986164146642,1,1,0.9886362386858748,0.08923282261567482,0.14919087703146072,-0.0018193264147706558,0.011466721623984238,-0.005569538636900148
249,1.0019397650685438,0.012536361038251898,1,1,0.9851902656746132,0.08335465188559085,0.14659598418215802,-0.0003979509548909299,0.014815413574594571,-0.005750881261933288
250,1.0019840126085284,0.012419503222985517,1,1,0.9843758717793128,0.0818127745476579,0.15095616687702867,0.01167378400517561,0.0022391045840082194,-0.0076801479292451895
251,1.002050538761139,0.012283513891225213,1,1,0.9857126394379646,0.08665006835797297,0.15190400295025522,0.01855230114182696,0.0042434785254787,-0.008950622668847226
252,1.0021321080339087,0.012120514765755685,1,1,0.9830699427120617,0.09092803735517796,0.14958382270429724,0.00862697931747723,0.007427767198205007,-0.0075896018706439
253,1.0022160219016503,0.011930949316942297,1,1,0.9870907152602258,0.0911397470440463,0.14807760751067892,0.00694762377572098,0.0027538724539600806,-0.009597007017423411
254,1.002286622451873,0.01172214367351346,1,1,0.9890412700583113,0.09007741473405528,0.15191626412971937,0.0058177626377316945,0.0027849693934737718,-0.006697839963439922
255,1.0023291490804165,0.011504241942921902,1,1,0.9897370105509494,0.08954954074178749,0.14761551282561813,0.001712650333220841,0.003314598114705221,-0.0030805397044101433
256,1.002333780721827,0.011285617543248513,1,1,0.9881790609157874,0.08965973980352963,0.145429531708982,-0.0007313718627075825,0.005463041060503066,-0.005034864106306061
257,1.0022986210918159,0.011069882806650659,1,1,0.9870721622528645,0.08954644488117505,0.15034528366520758,-0.005637651366841556,0.006923621304887627,-0.004246141610256337
258,1.0022307538027726,0.01085569237170204,1,1,0.989344288091634,0.09055111712951641,0.14903615328646103,-0.01224339291912868,0.002222016995157485,-0.004542045191790754
259,1.002145061951613,0.010639139328858535,1,1,0.9874637488046525,0.08619839272944096,0.15052987409080965,-0.012957334169522501,0.008594771103211357,-0.006128894202314832
260,1.0020610498673839,0.010417393531139095,1,1,0.9864553793307086,0.08514349153594199,0.14980442301316824,-0.004047485019666191,0.008766491012046981,-0.004633290034647886
261,1.0019983660064329,0.010191887004765638,1,1,0.9859629952970616,0.08253310906427991,0.14940100402107442,0.0008016896618894505,0.00805462735922603,-0.005880680540569091
262,1.0019720822278368,0.009969851262534088,1,1,0.9849557747460324,0.0853143962673307,0.15075340394756276,0.0036235947257866343,0.008660159644605257,-0.002909085127417968
263,1.0019889260154609,0.009763884427059168,1,1,0.9843529623334002,0.08573307547832365,0.1505520981653778,0.005827206943313952,0.005371062861544658,-0.004211307098116148
264,1.0020454782344592,0.009589917736657459,1,1,0.9862097522487402,0.08765884274131196,0.15001850519419505,0.007685236553919671,0.0037300766343358162,-0.006138804875848075
265,1.0021288491363065,0.009464249087840094,1,1,0.9857417596352936,0.0899471334727654,0.14842120931747937,0.006136119106002847,0.007023519963794631,-0.005344331175199413
266,1.0022196639178058,0.009400358493056024,1,1,0.9890172731420024,0.0900503957389891,0.15107539625701216,0.00464988477876163,0.0007423800658837806,-0.0027361133972790847
267,1.0022965326603324,0.00940620991567971,1,1,0.9898483698114381,0.09006782886590885,0.14925302569114432,0.0019982323708518826,0.0055180563348316254,-0.0039646257592526055
268,1.0023407744154136,0.009482667701174664,1,1,0.98801939228182,0.08806193554399191,0.15108487488587047,-0.0013317651544416758,0.00694610455041698,-0.002963621048247192
269,1.0023401802927692,0.0096233455905797,1,1,0.9891327399962531,0.0854310808356508,0.14868502529220667,-0.005817020247058235,0.013063788923404804,-0.005002520401618228
270,1.002291035672926,0.009815648588738016,1,1,0.9844786997752187,0.08438450071156356,0.15350205136956535,0.0005586763437955766,0.013103892683118458,-0.004141438743636447
271,1.0021982611971159,0.010042313406780249,1,1,0.9862842354384515,0.08423808235656405,0.1548199055932913,-0.0009953743170661466,0.00615681282544742,-0.004416098292368759
272,1.0020740586502455,0.010282828063746082,1,1,0.9858858056323813,0.0848159042510946,0.15133156589121,0.0017401965158172943,0.0074799639648796875,-0.004786915227901448
273,1.0019356472795364,0.010514689236570994,1,1,0.9869158247195293,0.08574488208013877,0.15163317458491063,0.0032071251258294973,0.00544416483389291,-0.0025429784122489533
274,1.0018025615887394,0.010714999365912919,1,1,0.9888260764095648,0.0864563403290863,0.15265847579440164,0.004052956025774933,0.005613659601345845,-0.0024947051082681755
275,1.001693754482456,0.010862896549955347,1,1,0.9857988046180229,0.08777564070985563,0.15398286330446762,0.006128333275050232,0.012995906876047555,-0.004012367434499025
276,1.0016246442289192,0.01094272360990008,1,1,0.9857631349437185,0.08857423269972968,0.15272962106554144,0.00818529870700302,0.009100686750530742,-0.005386246444251567
277,1.0016043605218528,0.010947124723991388,1,1,0.9850877914762436,0.09067146334778275,0.1537973669375778,0.00584253174019984,0.012365321620846756,-0.005908015091659467
278,1.0016336817778557,0.010878965150642184,1,1,0.9824881919688514,0.0877056382469614,0.15341610504454462,0.00016548013856042894,0.002240674759788962,-0.008915984918651912
279,1.0017042928961017,0.010751342116953007,1,1,0.9842360218759623,0.08770908774172749,0.15292081382659992,0.0003330064173891673,0.00488439100789361,-0.008716042339942415
280,1.001799848751692,0.010585724072476854,1,1,0.9865580368808379,0.08897790517113197,0.15285391678479937,-0.0021813600048657578,0.0027356320544197244,-0.008062735553280607
281,1.0018988739370733,0.010408894836945033,1,1,0.9879987068873912,0.08951647118941918,0.15155329941858867,-0.003795484866363362,-0.0011395228451910875,-0.008307310681704724
282,1.0019789350740556,0.010249553517502301,1,1,0.9877487840438565,0.08562745271052521,0.15350017312806397,-0.009420623698674442,0.0006180254363364045,-0.006400790463396592
283,1.0020210931692564,0.010135180034394271,1,1,0.9885642703177367,0.08569772195214832,0.1513222046112986,-0.006375561628423906,0.0064429701700139085,-0.005835020790214339
284,1.0020136004387563,0.010089408640107917,1,1,0.9852364081864744,0.08305555915563977,0.15281424446361594,-0.005296699958731417,0.008316923653149441,-0.006092450382293793
285,1.0019541122108226,0.010129935105521253,1,1,0.987860836490427,0.08317983738634765,0.15545865796594754,-0.002117232390397665,0.0023212134375723377,-0.006586967740280756
286,1.0018501134216355,0.010267002379677806,1,1,0.9870616973571283,0.08241018336858719,0.15409491137381343,0.0038430814845493736,0.007661325240930908,-0.005569717262949042
287,1.0017176126176506,0.010502620221350178,1,1,0.9862080707825812,0.0834140922056302,0.15359698892673418,0.0062793320171243405,0.002927359846872884,-0.004338171044070542
288,1.001578396443373,0.010830651189150225,1,1,0.984901642758991,0.08656731320723321,0.15454638065693754,0.00974652778924035,0.0074727405318866505,-0.0066988151201501245
289,1.0014563135213488,0.011237671071019525,1,1,0.9853865185308828,0.09070282265123941,0.15303333249939574,0.010906579815020093,0.004751955344442616,-0.007065242178840474
290,1.0013731689918992,0.011704273205620765,1,1,0.9869662297890659,0.0907088547635459,0.15276526165109983,0.007087459910483981,0.0038814515386927074,-0.006161157865817446
291,1.0013448317336526,0.01220649188471575,1,1,0.9852237097307183,0.08957340300900941,0.15256000785807466,0.006384624795868473,0.0016323148382707121,-0.007910598827230931
292,1.0013781312143504,0.01271728830628704,1,1,0.983915461087632,0.08907847440495326,0.15375071389524822,-0.003557864595363654,-0.00025116185276446306,-0.009692637585159376
293,1.0014691206915465,0.013208276102677113,1,1,0.9833341576280258,0.08793346429987278,0.15294326528990723,-0.009314040823106334,0.001123562873248049,-0.011651052472161774
294,1.0016032552860747,0.013651774934279846,1,1,0.9836538570874935,0.0866219919487875,0.15528241371433713,-0.009331714061234972,0.0014576519710836303,-0.012562995373645122
295,1.0017578105054823,0.014022946396925829,1,1,0.9852393221446367,0.08323104779759267,0.1520686438503355,-0.009190819449642947,-0.00793138700483226,-0.010556536733965399
296,1.0019063551673446,0.014301548621858772,1,1,0.9881114848657452,0.0868028104380336,0.15239776055682358,-0.004117646013987329,-0.0039473351084170815,-0.009594650161311488
297,1.002024407194387,0.01447297631663898,1,1,0.9886121265094433,0.09081898302551751,0.15471288297787808,-0.007144512073840341,-0.010069151391213258,-0.008448104820271484
298,1.0020948336136577,0.014528586637326476,1,1,0.9940879549842299,0.08754072513709156,0.15380630507556953,-0.011886444799800461,-0.0024874974206899473,-0.007535263940601642
299,1.0021114479323723,0.014465530371068881,1,1,0.9854890409176407,0.07906922125767624,0.15498960913160223,-0.004703059052220053,0.01410636691748255,-0.00349079870984876
300,1.002079802808015,0.014286290123553348,1,1,0.9809875173681105,0.07854698765534071,0.15675221813643542,0.006025702642744446,-0.002129757249223615,-0.009807406574189936
301,1.0020151799878632,0.013998000169682666,1,1,0.9884679638031969,0.08582063231120897,0.1554384290471767,0.012676850503401175,0.00626407301869729,-0.011832140710638383
302,1.0019386662124141,0.013611535926427859,1,1,0.9865985416763337,0.09041064853888688,0.15164103296802633,0.009040945325823026,0.009262368377288646,-0.005952827070443537
303,1.0018725051994877,0.013140392560221297,1,1,0.9833519426811872,0.09077700906214178,0.1541813485108038,0.0021693472759864163,0.010746040519112923,-0.005639838586727123
304,1.0018357206411561,0.012599570216075147,1,1,0.9857155127182806,0.09076893652348231,0.15263719807703083,-0.0008164909792292594,-0.003447506477992373,-0.005835713654973826
305,1.0018406998274847,0.012004950968155745,1,1,0.9877299143481496,0.09011982696147909,0.1566648174681992,-0.002851489105411426,-0.00499528566008094,-0.008756119287736206
306,1.0018911937537254,0.011373667646754227,1,1,0.982787848263373,0.08836645209250406,0.15319241519875432,-0.00881369218250239,0.0024232895781190864,-0.008139473298664882
307,1.0019820004130022,0.010725493000205177,1,1,0.9846132353758293,0.08660614913043597,0.15483585213464485,-0.014322067647498226,-0.006224444394043933,-0.008244865378441121
308,1.0021004115094554,0.010084568284302518,1,1,0.9856862889392347,0.08326836813814703,0.1551485631627588,-0.007115321649841985,-0.0025301736046690875,-0.006947691468336698
309,1.0022292413063298,0.009480437455364091,1,1,0.9883865244396546,0.0820927281177509,0.15075037233005487,-0.002628988710149726,-0.00413973953130578,-0.00587950668711276
310,1.0023508576705413,0.008947676564222863,1,1,0.9894878750137038,0.08311247266327702,0.15237477970427243,-0.0001630471459743904,-0.0012542035878431949,-0.0071275845009672175
311,1.0024512319301553,0.008524091971620037,1,1,0.9897342071699949,0.0844270608233238,0.15368160143662069,0.005791742843847441,-0.004949848934385771,-0.005525359104300881
312,1.0025228847403012,0.00824792295889095,1,1,0.9859713824235075,0.08752723684711482,0.15279926097734675,0.004827185107692169,-0.0026313300043098484,-0.005372477170364189
313,1.002565871936167,0.008154495095453504,1,1,0.9906764881822454,0.08694381985574068,0.1549696209890729,-0.0025529251203716863,-0.00027733988039851026,-0.007453938662332242
314,1.0025865307252264,0.00827254658278066,1,1,0.9871094623149772,0.08493211641291602,0.15784075884358498,0.001336349577797948,0.0070440143053076285,-0.005613822887133275
315,1.00259439204349,0.00862026494219829,1,1,0.9823134992366537,0.08467119273278124,0.15833611382418744,0.009387158935692787,0.0011011947570874,-0.0071148797547467635
316,1.0025982900840786,0.009201044612376448,1,1,0.9834417135945532,0.08781018925337694,0.15169508686419336,0.008518998803950116,-0.004681949372168484,-0.006855442337486606
317,1.0026030647571118,0.009999178964036785,1,1,0.9841514841226654,0.08784578492004892,0.14901503678592026,0.005546667246732452,-0.0013965611489706615,-0.0064764299640622065
318,1.0026080950503617,0.0109761817579415,1,1,0.9875605417612833,0.08918705462511461,0.15133320956702473,0.0020644130886469645,-0.0026739124669304796,-0.007687631787971141
319,1.002608146099563,0.012069041071660229,1,1,0.9905132912302795,0.08577236374968301,0.1520503842289787,-0.0017900945479549938,0.0006732464241525268,-0.006138633676962162
320,1.002595996307385,0.013192041536903903,1,1,0.9893106723378432,0.08500832228700744,0.15338596190969206,0.004027462365493006,0.0038092104036916976,-0.004995385326651091
321,1.0025655911093616,0.014243442284414794,1,1,0.9892571377306549,0.08177481400538435,0.15206002812790642,0.010348334943460921,0.004523834048695003,-0.0029078777242811486
322,1.0025144021988883,0.015117158090878893,1,1,0.9888609062803596,0.08347086790910073,0.15099529928561012,0.015016157486307587,0.006871343381306603,-0.0017076375017111701
323,1.002444189588736,0.015717962746032366,1,1,0.987583610852907,0.08293803988086147,0.14938976508500915,0.01892550855474396,0.008420869835127562,-0.0010489723951694887
324,1.0023601235896378,0.01597723899998757,1,1,0.9839346657342369,0.0859499334220553,0.1544349955535309,0.020822128500108367,0.01123910089689276,8.40241306547886e-05
325,1.0022688672560485,0.015865610291136475,1,1,0.9840034563158487,0.08756017667707353,0.15551038349413762,0.01736143189505015,0.007760158250177921,-0.0008185775342017138
326,1.0021765100825413,0.015399273041984669,1,1,0.9876979699500951,0.08896355444509972,0.15124454532882473,0.015103387785221066,0.009830956299714044,-0.0020284918471231567
327,1.0020871070116808,0.014638343354168014,1,1,0.987984425067116,0.08930576909057421,0.1480258626743264,0.013211736459205965,0.007108541394848674,-0.003034379059408474
328,1.0020021632972793,0.013677451395923008,1,1,0.9867449839852988,0.08898267534070899,0.1488057071292948,0.01382239216045351,0.0036626896079220853,-0.002608374957097509
329,1.0019210189681904,0.012630532923806654,1,1,0.9844959924087845,0.09012221247175675,0.14987059689664955,0.00690721558314869,0.006342200858454462,-0.004665609026553128
330,1.0018419125237814,0.011612928815523265,1,1,0.9866348789918087,0.0901171952924311,0.14783927962938062,0.0025468530801640494,-0.0008181636611451884,-0.0029725450142287376
331,1.001763455214056,0.01072439305338512,1,1,0.9892337201866773,0.08802413430539707,0.14864207807260332,0.0005083559099141563,0.006297998527237014,-0.004874468710328248
332,1.0016861631376062,0.010036341019957816,1,1,0.9871193761675592,0.08355226330999223,0.15225188229647155,0.0029147731652674107,0.00399070660797351,-0.00280612944827998
333,1.001613603232438,0.009585623021779252,1,1,0.9865436618861877,0.08383177615753054,0.15073260654447476,0.0051180309387192655,0.007976572431740816,-0.002195804716235906
334,1.0015527687394266,0.009375534075076446,1,1,0.985938592538701,0.08299615288900498,0.14888489295148336,0.0059276386609949236,0.003751683857614801,-0.0035848390472204687
335,1.0015135295757662,0.009383149341514059,1,1,0.9882225742624416,0.08402340941123772,0.15113234062886902,0.007209919165440938,-0.0013414477353075906,-0.0022562448283622244
336,1.0015072458082364,0.009570794713902556,1,1,0.9864758252821076,0.08430799215985567,0.15016045134678396,0.01098444472153745,0.009849888876453125,-0.003957724741588569
337,1.0015447747573796,0.009898664727340505,1,1,0.9841807590297527,0.0866347365599477,0.1517539971030463,0.011122492450081166,0.007953543861676965,-0.006173657909436356
338,1.0016341722433773,0.010335359783232499,1,1,0.987722233993714,0.086792051697763,0.1515079089537635,0.009665605861811238,0.013083484939662203,-0.004439411909583787
339,1.0017784227581221,0.010863605744148496,1,1,0.9866901246807323,0.08635592365233025,0.15221317828725678,0.008327480326150069,0.008287413085574782,-0.006614354893023839
340,1.001973519186439,0.011479732579617494,1,1,0.9865607009073628,0.0894438786050567,0.1496430178975826,0.0069308605720764275,0.008862126553347643,-0.005896498450022587
341,1.0022071814436038,0.012187346523177168,1,1,0.9869452568025029,0.09034483300219087,0.14912123657007395,0.0007580497264425549,0.002496914833797928,-0.005477950600478687
342,1.0024585207372982,0.012987412754147729,1,1,0.9854804379960057,0.08741533186165083,0.15173664210119356,-0.005521766751642676,0.0053536188666253115,-0.007039534679781585
343,1.0026990012114843,0.013868033320078164,1,1,0.9868531272232461,0.08319108884223865,0.1479322060420454,-0.004228004457881936,0.006761863049274345,-0.006876866897759371
344,1.0028950100930414,0.014797230879908106,1,1,0.9853343675852837,0.08443408245750925,0.15283953116320392,0.0007581404528004608,0.00357965432806971,-0.00840739916683816
345,1.0030121185260557,0.015721145045339953,1,1,0.9868600957642273,0.08257396163514236,0.15364543526779337,0.004923870610267946,0.005867153783296812,-0.008542623472269197
346,1.0030206795661447,0.016568576367826673,1,1,0.9909852754235124,0.08103894675312745,0.1506068806560763,0.008640095211920136,0.012045381034309122,-0.006029795471611148
347,1.002901875157548,0.017261108049163882,1,1,0.9916031794428362,0.08016839687821674,0.1506591617934741,0.013944035845272715,0.012812989652080827,-0.004923384145560453
348,1.0026529357828022,0.017726413991504566,1,1,0.9883216464794223,0.07940972829630386,0.1548345554213365,0.014931026943537814,0.0234548192039127,-0.006645603451620525
349,1.0022902732805312,0.01791129945453981,1,1,0.9849384461019464,0.08634679333482738,0.15353877594931836,0.01668509863364577,0.017483901357847432,-0.005776276580284345
350,1.0018497188936077,0.01779106077398517,1,1,0.9882015643138112,0.08882182810522948,0.15527495636459526,0.011415462452826578,0.0105315825422229,-0.004931600768347163
351,1.0013836809568333,0.017373060460083387,1,1,0.9873841235888232,0.090672240450571,0.15446042092420278,0.005030154861113078,0.009284076264863697,-0.004495705077450828
352,1.0009555575494982,0.01669440755041489,1,1,0.9856368221237933,0.08567908662012781,0.1544513004775889,-0.0011835770942570719,0.020190032459768522,-0.001054368474169173
353,1.0006321422505278,0.015815258341608355,1,1,0.9768790685905788,0.08068916226167856,0.15913920886841842,0.003116301196367737,0.011896904093263,-0.005538031155571969
354,1.0004751024942093,0.014809873688693192,1,1,0.9851181863307695,0.08554364990912385,0.15742403619247797,-0.002395240359570948,-0.00044145783095561624,-0.012193972746557275
355,1.0005327212400144,0.013757397824403593,1,1,0.9884714565332545,0.0870436445545634,0.15100669567451455,-0.0017518685254258304,0.010412195486003393,-0.009373847637763418
356,1.0008327801609247,0.012733878748517868,1,1,0.9848267996717588,0.08669427744918892,0.1508392958619974,-0.0008311881379615716,0.008072831805873766,-0.00521149623748764
357,1.001376928682633,0.011806548560886143,1,1,0.986761096402549,0.08081312335598864,0.1544974582552351,-0.0015805067812893969,0.006565576715004289,-0.0022502306753163378
358,1.0021365814550751,0.011030774642363454,1,1,0.9900982085521909,0.0799526791756128,0.16097820992065331,0.009206557993237913,-0.010379137772479006,-0.0017673600087055505
359,1.0030505094566142,0.010449350266726713,1,1,0.9859526672633074,0.08301052622973051,0.1626455594630473,0.014403001728051664,0.009450652997791013,-0.005271662357997115
360,1.0040246968731856,0.010093101207179359,1,1,0.9805048701945996,0.0865485791409975,0.1616685936752966,0.0092480891558165,0.005805148380483482,-0.005562128402515189
361,1.0049354922183968,0.009981575267635425,1,1,0.9845309374709398,0.0889627868175615,0.16308208329246424,0.005300085270915541,0.001659471267273928,-0.00599347666586446
362,1.0056372704266885,0.010123153362284077,1,1,0.9885150684726397,0.08567275385149037,0.16346199247887877,0.003335459494687722,-0.0008251632812056156,-0.007323284036965724
363,1.0059754235010803,0.010514958032539908,1,1,0.9874125215459407,0.0851665605614041,0.15949484457869317,0.003856148616691747,0.004805989524192219,-0.005878796841945239
364,1.0058045398288173,0.01114370770751815,1,1,0.9857906641198155,0.08857938651701226,0.15679982001239545,0.004727317381600085,0.0009852625910790579,-0.007419112920333939
365,1.0050105002082894,0.011988729538281033,1,1,0.987338514004799,0.09107982743122822,0.15861114814443825,0.004255509552273907,0.008060047711219745,-0.007637361967578809
366,1.003534200849916,0.013027826210356539,1,1,0.9909395948651752,0.08861942325250613,0.15913713979057353,-0.0027845640106437196,0.013174055121396636,-0.005577904897842681
