id,ASVM,GSVM,walking_nonwalking,normal_abnormal,ax,ay,az,gx,gy,gz
1,1.004182432471198,0.004375226340894846,0,1,0.9991094825643324,-0.030033562183512878,0.09815860817611179,0.0025911126133270563,0.002364028647014471,0.0025918403999925666
2,1.003902314028585,0.002566206528808506,0,1,0.9993769773237863,-0.03139469685249603,0.09653860562141568,-0.0026964321812271434,0.0034407064111670782,0.0017086562154481572
3,1.0036665166984704,0.001253901219879733,0,1,1.0004755804009797,-0.02650418299203256,0.09074878735130665,-0.000722916204297332,0.004128986944409898,0.0011237881694165263
4,1.0035275484993134,0.0009276114322631702,0,1,1.0020482598956728,-0.020181245379675465,0.089312118829906,-0.005344574392549418,0.005760036014167235,0.0009719838149680332
5,1.0035417980125405,0.0021211734266841954,0,1,1.0043583828892104,-0.024928263123172784,0.09730716930076891,-0.018334264863439732,0.013114997607201747,0.003552211309901303
6,1.0037630058004077,0.005362559659380892,0,1,0.9957281046881044,-0.03254169431733273,0.09834122983830558,-0.02119646470391369,0.010894314711941218,0.0024125704654305454
7,1.0042340393803606,0.011109497076642457,0,1,0.9940823324371812,-0.035089443841852336,0.09466983408983705,-0.0064314378321592815,0.00842473726033367,0.0006874872976998463
8,1.004978452077179,0.019677116252490048,0,1,0.9946311116474612,-0.030647611355941587,0.09334471736521789,-0.00416841001952679,0.00258202803829064,-0.001206506189478871
9,1.0059937674692898,0.0311686116760815,0,1,0.9993145955350571,-0.029210207134471637,0.0907474592774494,-0.005868714920299911,0.007382388642484228,0.000985895934593703
10,1.0072480370011985,0.04542347767886895,0,1,1.005012392575359,-0.03238691659054578,0.09124852772357218,-0.002023262863530955,0.016036078833612574,0.004466262696403676
11,1.0086800576526915,0.06199781675112788,0,1,1.0067735475536947,-0.027596733384704027,0.09322928142602253,-0.003341008774515534,0.033050937352098464,0.003752944224558935
12,1.010202370424523,0.08018661662610763,0,1,1.0058471916524292,-0.02600112727773978,0.09831765862588042,-0.005309529733582228,0.059512633065650265,0.006001372121608629
13,1.0117054805833625,0.09908957028642897,0,1,1.0140320466961075,-0.023313011143760165,0.10300019151323714,-0.0053995572378583885,0.09930213403251803,0.010865862076636007
14,1.0130619088988648,0.11771195881367055,0,1,1.011724468387125,-0.021327281433840366,0.1036348097044999,0.008484750026634283,0.15398346863263676,0.015356405634930065
15,1.0141295818432663,0.1350831990205433,0,1,1.0055713355080715,-0.018473902408333326,0.0979747677303343,0.02429845106066711,0.17847032269650728,0.01978017880749804
16,1.0147554249752226,0.15037125315424152,0,1,1.003493238567638,-0.01219737948401279,0.09540829706180565,0.011940105986511282,0.1701219159169318,0.026136031157138882
17,1.0147813458101085,0.16297361877386568,0,1,1.000791238576622,-0.00825947503120126,0.08626219589766321,-0.012509095402513519,0.15304078944258737,0.03239494181732441
18,1.0140553095605742,0.17257434382894493,0,1,1.001248086781707,-0.006974135506434681,0.0782684706463343,-0.028009485505393308,0.1473409046888808,0.034177996088541863
19,1.0124492760009984,0.17916712276364433,0,1,1.0061412990157685,-0.0060731364556477156,0.07786646124235409,-0.026472801774038383,0.1516192315615072,0.028455772327902796
20,1.0098833925836304,0.18305172979455703,0,1,1.0144219418290215,-0.017763231749209917,0.08531241959437597,-0.027331563395898793,0.16533917545856008,0.023103062698793152
21,1.0063528438298586,0.18481212178893708,0,1,1.0149845951471916,-0.02290991715642685,0.09163777943414442,-0.013769889105952622,0.18418911177905634,0.015882325226931095
22,1.0019514680160795,0.18528057808128495,0,1,1.0058349880989579,-0.02102878162481521,0.09582311036756949,0.024380431075628498,0.19890935759794695,0.006955451897788237
23,0.9968858630779805,0.18548663347358257,0,1,0.9914080439358497,-0.018365520623574123,0.09528471193921842,0.06432302659158531,0.19571511035641165,0.0040567577623838
24,0.9914754566936842,0.1865857963128869,0,1,0.9873071061060323,-0.0128104717258556,0.0882162446768062,0.07811605898998368,0.19226109219035553,0.009264753353452067
25,0.9861369199848578,0.18976320735070512,0,1,0.9812388836346457,-0.012207368321514889,0.08581671732138618,0.08168955158233264,0.1951560543849176,0.01802392552094189
26,0.9813538941299282,0.19611168468771287,0,1,0.9779914265965829,-0.017164016609393935,0.08708350169587595,0.09951579085025695,0.18120227750209386,0.022808912201997034
27,0.9776344666849957,0.20649076747188466,0,1,0.9833616953731354,-0.015051379970340383,0.0902279162580132,0.1207494670918804,0.16787053393211426,0.018506142217362454
28,0.9754594472132211,0.22138151124811142,0,1,0.9789892287164754,-0.0187558560480222,0.10115770914963813,0.1389741369328195,0.15609178364583653,0.009188459129954711
29,0.9752251418323205,0.24075886329970933,0,1,0.9734054047437068,-0.021058580683446942,0.11912930209273076,0.13379500618383944,0.16770005999005277,0.010265636911154221
30,0.9771857812755453,0.26400751746052437,0,1,0.9590529114085531,-0.019568297062153465,0.1384650736313673,0.11415140848778851,0.17023050432491235,0.009353366773320207
31,0.9814029966359807,0.28990646670944314,0,1,0.9483622779995078,-0.011500258307783796,0.1578619081067583,0.10435385393938283,0.18853175282236595,-0.024173205864013527
32,0.9877116684521492,0.31670049549034973,0,1,0.9477041135915616,0.0005364970546243574,0.16722035096005333,0.04344513549182499,0.2677725566985856,-0.07288905153706833
33,0.9957113795831224,0.3422628895212705,0,1,0.9535708430409399,-0.003106685729879799,0.17720155883068464,-0.048725051123501596,0.33618120953770486,-0.11196730827275712
34,1.004789293345244,0.3643346153658222,0,1,0.9862224403900113,-0.01369570279123948,0.19209344780381155,-0.09736407603717125,0.3384492673224394,-0.13996180513341544
35,1.01417376194081,0.38080652354437405,0,1,1.0260956635942107,-0.0324871997594708,0.18279011539625017,-0.16833987023288915,0.32949190151936714,-0.16977719092656765
36,1.0230104938325422,0.389999006428406,0,1,1.0178529843528192,-0.028315508839353593,0.18689422582346638,-0.22477548399837313,0.3389312383928067,-0.2133685275420821
37,1.0304479805541518,0.39089124652577883,0,1,1.0351180624828444,-0.010617899507804594,0.16156689257589107,-0.23759796907443967,0.30276564187726684,-0.21542699144669364
38,1.035718499105818,0.3832594055780782,0,1,1.0437018954608852,-0.03874553259871821,0.14066123750435228,-0.2801461151652925,0.2955202628092712,-0.17578866890596406
39,1.0382051248114708,0.36769811845905265,0,1,1.0054528303411594,-0.07916959850368809,0.10963598985945457,-0.22985233679923658,0.3349550266520888,-0.14848552380685784
40,1.0374913011913371,0.34552042618905143,0,1,1.000516544988557,-0.1136446161642304,0.08800814414004099,-0.138856524959222,0.31225411340094,-0.10475782834803114
41,1.0333944461103963,0.3185548910316729,0,1,1.0315117678953811,-0.10653610558413089,0.0726636738963693,-0.013799922127740854,0.23720228612223157,-0.016747178333387555
42,1.0259864811527637,0.2888804170540978,0,1,1.0411111182551445,-0.07945101703465689,0.07969036151441285,0.055125078343112956,0.1807046020615799,0.05625442122907539
43,1.0156021323218007,0.25855249536094027,0,1,1.0366653288173604,-0.03263088023296665,0.0812795359683501,0.05290581489984183,0.14472910209444304,0.13304652050801255
44,1.0028333627213528,0.22937301456536074,0,1,0.9840001903443065,-0.012387523060346869,0.07604734637568718,0.0064478780545609085,0.13839455321314045,0.1661062264719836
45,0.988508579470661,0.2027393048711093,0,1,0.9584439110979055,-0.012948158383200832,0.08436847711345012,-0.037057659301215594,0.12329776555577304,0.15534596341861995
46,0.9736581233996275,0.17958448382578499,0,1,0.9636938523636167,0.005254214511180416,0.07708878712259151,-0.05300264964902159,0.10941977631199278,0.13733100968901357
47,0.9594695956109502,0.1604004774512125,0,1,0.9455273271299006,-0.0041728073317840175,0.07202242474283031,-0.07987527015098182,0.09096540551477647,0.10984917236142289
48,0.9472350888783608,0.14532262769025128,0,1,0.9557226941579052,-0.03316861775714074,0.060902460587671806,-0.09930464965305016,0.07000349144219382,0.09496883978339254
49,0.9382881120465271,0.13424995030107448,0,1,0.9606363428535224,-0.056593830463284325,0.05607270630787838,-0.11787485285794423,0.05686309484535475,0.07832002734107607
50,0.9339240414288551,0.12697492314714515,0,1,0.9640064434992834,-0.07050655146026452,0.06157698368347621,-0.11540540134636088,0.05148027977315126,0.05823806292241442
51,0.9352973103623875,0.12329910945156103,0,1,0.96868267246371,-0.08512390235337454,0.068958391490656,-0.13815878847662294,0.06217765436067606,0.04136817752624048
52,0.9432928852117384,0.12311540539895156,0,1,0.9639449598639854,-0.07791261790782507,0.07551201404078034,-0.15600311926946936,0.054676390105509946,0.02154788024598967
53,0.9583788033578606,0.1264444952456773,0,1,0.9403635652478594,-0.051416911153840915,0.06332958300633527,-0.12924507957816472,0.03397619842431084,-0.003125634495748461
54,0.9804586053658804,0.13342242119829772,0,1,0.9324568073489182,-0.07039619604456972,0.06151292190689412,-0.1289476484853122,-0.019193755102178977,-0.004891323532564718
55,1.0087533544254668,0.14424706553227068,0,1,0.944828248605365,-0.12049175019255898,0.06571977038435738,-0.09336941840046498,-0.04126395136419066,0.02628173643590491
56,1.041747764451672,0.159100782239302,0,1,0.962022841217748,-0.16700747538819702,0.07171256203372026,-0.03964162077664386,-0.06523963917607248,0.0552747941435938
57,1.0772304132729886,0.1780702567530824,0,1,1.0129673239369978,-0.1858218170256267,0.06105030454603472,0.06254328032059041,-0.096247605075115,0.06745133762095822
58,1.1124441574408335,0.20108010333654466,0,1,1.0849375340879832,-0.15910997068132351,0.035480254405917934,0.18897845166126925,-0.1282435056828672,0.09000463215879916
59,1.1443430357527813,0.22784485964441148,0,1,1.0957999423841995,-0.13259145633194136,0.03627792021181211,0.24401697333846623,-0.09109548965577813,0.15697129448140834
60,1.169930804277069,0.2578312090727653,0,1,1.113959770808239,-0.07419039301406109,0.15722546225870687,0.16859598476286283,-0.1791294544372445,0.1728789421852086
61,1.1866373669062025,0.2902173024975333,0,1,1.2968370473264061,0.07040778993364863,0.1769807274916035,0.06764272062441708,-0.35204064392416134,0.12219939211068372
62,1.1926750376369843,0.3238440981931869,0,1,1.3022189294288298,0.07350193447958481,0.13086690184062433,-0.06931236704319874,-0.25051351303384617,0.08252971986739277
63,1.187310598387242,0.35717190174136215,0,1,1.2142426638655028,-0.03585767382776404,0.16823728805437999,-0.1294697190345434,-0.26134100231542723,0.045957150969054665
64,1.170997040330678,0.38827445055531895,0,1,1.1567747030164892,-0.1079381540277395,0.24092918099498528,-0.011248434113571069,-0.17579460837649588,0.09190101584626863
65,1.1453316331275978,0.4149112956500749,0,1,1.2137602462305008,-0.09582570613905966,0.3483793576048607,0.10607948810815578,-0.1561031905731837,0.21103470153264112
66,1.1128374732555615,0.4347076486038787,0,1,1.1587805841401948,-0.09163239521830252,0.3805244975241161,0.2558484151937347,0.004918603402903132,0.3414301880928395
67,1.0765963959012967,0.4454383046256532,0,1,0.9459172265078,-0.0915856202197527,0.3591252130700183,0.39022733145689403,0.1439725777155544,0.35991798711246986
68,1.039790551377678,0.4453700744128506,0,1,0.8324344121002778,-0.1224707403479525,0.32351614178080457,0.4757062455599704,0.12547755435706143,0.30545209543304275
69,1.0052357054841945,0.4335852518802242,0,1,0.7691619650601862,-0.10481033108081564,0.261123599201994,0.5187346415988467,0.10812934972947397,0.24915790833318305
70,0.9750006156708433,0.410203575812495,0,1,0.7818507482373679,-0.027552840718392986,0.21903184561606057,0.459113929165016,0.07217107445906913,0.18159009412060306
71,0.9501914046067411,0.3764448062994223,0,1,0.8969780534592793,0.0687523276824434,0.24105699472967573,0.3710423804905545,0.03140104159482787,0.09554211573497663
72,0.9309376755459305,0.33451742661894507,0,1,0.9839161388232313,0.12739550362781593,0.23235330700635445,0.27049395049583164,0.009663498484717979,-0.018116689442202613
73,0.9165639596798444,0.28736363765003864,0,1,0.9857239075534597,0.11069602572936424,0.18668604194883612,0.15349610522088208,0.029457583864693285,-0.13758480809202997
74,0.9058881948832037,0.23832112502177683,0,1,0.8999449484453254,0.0779192447315707,0.18425426411946966,0.0541431490375736,0.033324181004959694,-0.1753945670837846
75,0.8975728913509691,0.1907704110762356,0,1,0.8813231191520073,0.0334801393958665,0.16599603734109672,0.0066246361677658626,0.014328265351028796,-0.15432542339542016
76,0.8904626378572104,0.14782545945640033,0,1,0.8661813057474674,-0.02637825180134609,0.16520508090182134,-0.035743284236128665,0.005970304860266259,-0.09704534442681116
77,0.8838596279009389,0.11210368749754061,0,1,0.911930400034085,-0.08009001865403353,0.14386044100412346,-0.06019003575347953,-0.03087296591802237,-0.05872239100109943
78,0.8777040607138938,0.08558857259439308,0,1,0.9482201258701431,-0.08677001378938287,0.12305472285050831,0.005381814798279045,-0.0016271861285949208,-0.07397035820035264
79,0.8726361217748949,0.06957830982210736,0,1,0.9155890784000779,-0.04161086996716002,0.11517337733032676,0.07186993020604832,0.05295889241690614,-0.08685244734936338
80,0.8699264744866477,0.06469942284613077,0,1,0.8903781151748518,0.01314259266475761,0.10049648425212195,0.09221564975532144,0.07494206475714589,-0.07915113702112275
81,0.8712780390208722,0.07095724351611114,0,1,0.8978687240287502,0.023116562536387726,0.07433885557981906,0.06511572455034073,0.07387544957799096,-0.04017428458369225
82,0.8785225089093678,0.08779846202014023,0,1,0.884246596985539,0.004429284082588802,0.03710693991804874,0.02131159214414193,0.044521619561634806,0.001556557724917213
83,0.8932554522411502,0.11417354083260921,0,1,0.8411374621064148,-0.015310066001876297,0.048828458671211286,-0.04229704407475041,0.004955484823603208,0.02526525582539671
84,0.9164691199681936,0.14860148407565046,0,1,0.8305225276710886,-0.0034623102232353544,0.08680109131433508,-0.005216652907578421,-0.14026479302827932,0.016983693660469253
85,0.948248923079151,0.18924694938594325,0,1,0.8390999090953438,0.06533192856890743,0.14214718887140015,0.06611612935901248,-0.19599476470376415,0.016140819680417244
86,0.9875950011473904,0.23401657757509625,0,1,0.8860632021828977,0.051020334146668275,0.19648291228083284,-0.003580338975304493,-0.2114685391840159,0.08653987133884325
87,1.0324127986384153,0.2806727473126927,0,1,0.9564349041735507,-0.04121355406172444,0.10509662016857903,-0.11951595552768769,-0.20632607145307388,0.1495329272407378
88,1.0796881596963457,0.32695601920851686,0,1,1.01743025681977,-0.05264120655912134,-0.049242738912774274,-0.034314761625462285,-0.3210680072525576,0.08796844169293985
89,1.1258284460025478,0.37070518601404706,0,1,1.0697569171719596,0.023869746519312004,-0.08031149561684114,-0.08364704503623156,-0.45667261470746584,0.047576753735902776
90,1.1671172205731382,0.4099654351522138,0,1,1.2560889310367587,0.03836252379228441,-0.007241074174733872,-0.14695846621183586,-0.3789726482304831,0.05968506733221063
91,1.2002012694610291,0.44308063217945565,0,1,1.4760907641881058,-0.09997303600172106,0.2748812936374541,-0.10903222059606171,-0.28959874121229406,-0.08136915076752972
92,1.2225132729867616,0.468774350768109,0,1,1.4605359540747216,-0.2420745113976052,0.33902492709606674,0.13111328193828187,-0.1505630345371256,-0.346739182279589
93,1.2325440530678327,0.48622985657927315,0,1,1.0140060817376906,-0.14542771054678674,0.3266062403843758,0.191497257015187,-0.11434493771944171,-0.41407934016760206
94,1.2299219957846588,0.4951734169083543,0,1,0.939555652430482,-0.05248559546454254,0.42721532547667657,0.05438812720190723,-0.15477525986008497,-0.4285938141082828
95,1.2153183847402063,0.4959471807754469,0,1,1.0588925380584295,-0.059341653540667436,0.4576700906420804,-0.035075094840236194,-0.06877395394357695,-0.5528849077567841
96,1.1902413226231916,0.4895366585208648,0,1,1.1436175086827334,0.04349126688017955,0.4302373664740598,-0.14916748154253112,-0.016595348354191086,-0.6826668812330571
97,1.1567851076221178,0.4775061842510865,0,1,1.1420767304478614,0.15431830892190712,0.35706127867120285,-0.24871723033562726,0.019840146351421718,-0.7064182597327591
98,1.1173777875168205,0.4618050127583612,0,1,1.1114118644225455,0.11669855969851528,0.30612944967613437,-0.20611248362457207,-0.027254785994017327,-0.515682599871005
99,1.0745460420237458,0.4444437510162893,0,1,1.0157016309004403,-0.0020302453571151152,0.2393223858138925,-0.13296002723779926,0.006742366535634105,-0.23572982309592133
100,1.030709585989012,0.42709890866276995,0,1,0.8984423401929321,-0.15550357249705257,0.2203939081104307,-0.12002257277200636,0.049456453212113255,-0.07833290171356086
101,0.9880217395139494,0.4107560219083005,0,1,0.8969568277121851,-0.2190842135949128,0.20081854140051003,0.007704369025144059,0.02563313799217362,0.04894519913288272
102,0.9482749236472445,0.3955153595203799,0,1,0.888298535225332,-0.19611759914692087,0.16518689264766195,0.21558862412864255,-0.06464097127761172,0.15218172005709424
103,0.9128813136288326,0.380642405279406,0,1,0.8806852379326634,-0.14199940669310385,0.1381202612881104,0.38105458585956153,-0.10192805274595029,0.17296858714309335
104,0.8829217537204707,0.364863305126662,0,1,0.9001788878310939,-0.047687818718890204,0.12980665437044328,0.48240206629343607,-0.08036647084190314,0.21307956335676737
105,0.8592384369295848,0.3468211159270086,0,1,0.8972155560921692,0.04788941399779926,0.12347797917443669,0.4559797799254199,-0.07629929448777983,0.2773969859603848
106,0.8425359229846024,0.3255590152213374,0,1,0.883349843159191,0.08644012912934096,0.11088771532963367,0.39553507031240154,-0.05559421374335291,0.27854357097562593
107,0.8334539023992947,0.3008974547788784,0,1,0.8733289973545137,0.07947639646615892,0.07805678753686454,0.30380499490823715,-0.0202403363683163,0.2580686253714439
108,0.8325835254796553,0.2736145588514353,0,1,0.8482729552800445,0.050729975460492335,0.07783230647899392,0.2104425873945884,0.030238958689864932,0.22406392921279616
109,0.8404145394835862,0.2454004246474718,0,1,0.8657332673459769,0.030151480764347902,0.07226627209061741,0.12990244196646694,0.06808456456987294,0.14324173085864556
110,0.8572187791725179,0.21861410754058097,0,1,0.8709411361448453,0.027843039159979103,0.05620465325203277,0.08454588124576096,0.10214343731090096,0.029472161279140572
111,0.8828927516230639,0.19591197780289388,0,1,0.8462469356028447,0.007515408045585233,0.05864760773856624,-0.013483857410410423,0.049708817627919365,-0.05146940708486781
112,0.9167954820363171,0.1798312344514906,0,1,0.8390765316829486,-0.02889291476765615,0.046532424952223525,-0.13021580040816255,-0.04115688525884816,-0.08215822611605156
113,0.9576251430505491,0.17240389187339414,0,1,0.8696645742366395,-0.04468699225917015,0.06751663968062262,-0.16015187339940226,-0.07407017535122795,-0.10829438711556014
114,1.0033762018515704,0.17485325583824776,0,1,0.9728070227790463,-0.02660456828726755,0.08459170405607384,-0.17105109189306048,-0.03589363979261171,-0.0952158257359026
115,1.0514059533512936,0.18740029085843818,0,1,1.0347741351556512,-0.08175265702550875,0.08210118749110724,-0.1147588547818816,0.003158995069026143,-0.07258418927869108
116,1.0986180529244693,0.2091919014312823,0,1,1.065833285165236,-0.07904657180183755,0.044105396356199644,-0.15942083059353707,-0.017180434181566565,-0.04364370235968578
117,1.1417478083184998,0.23835722937205522,0,1,1.0659254665374729,-0.06248264116594385,-0.03863521087292221,-0.13548275774771662,-0.0982798625855138,0.0023025176860321165
118,1.1777147894504252,0.27219320321539847,0,1,1.1345056859641838,-0.15107129700851119,-0.14164268288399334,0.15884780103232665,-0.04130781695631027,0.02631388567645428
119,1.203992464658936,0.30746866944451917,0,1,1.224938134085444,-0.11916403408026663,-0.027371152684377703,0.27228975415309165,-0.191409073356734,-0.03481888135072093
120,1.2189299749444615,0.34081607224289234,0,1,1.5110907000652805,-0.0674992604718274,0.3635822904511102,0.33405935057267205,-0.12345925229618215,0.21766465863390153
121,1.2219526327723718,0.36915687615487536,0,1,1.548437385532516,0.2656854364130744,0.3611677169398742,-0.05341407281592226,-0.1919651151362504,0.49673581145526663
122,1.2135802771941047,0.3900929867960573,0,1,0.9852853871981501,0.11803094917625567,0.3103211310398853,-0.10974800188564565,-0.11733209533837088,0.3993494842181961
123,1.1952487609320441,0.4022012327854702,0,1,0.8575819453592592,-0.1083813930534421,0.2228455303345999,0.17808909698945036,0.008902012706812013,0.2383088278214184
124,1.1689868605389206,0.4051905206250537,0,1,0.9831946127845114,-0.1435106287294405,0.32324243765369554,0.23779011555219948,-0.02648674765448022,0.2784945382029229
125,1.1370490023382251,0.3999075022363353,0,1,1.0460156531040758,-0.16110343963674573,0.360356253624935,0.331458886488996,0.1506885139254482,0.44505191586260534
126,1.1016019799687533,0.3881924069193173,0,1,1.0548381278874375,-0.07719357308922957,0.3488274531030128,0.19921657265495885,0.1524121403748685,0.484474030057538
127,1.0645206729771537,0.37259426954850455,0,1,1.0564969380427072,0.03302155677489357,0.3291469770904716,0.18942464859811953,0.07705216373568131,0.3821992683181989
128,1.0272996517359931,0.3559698224252154,0,1,0.9735288738560547,0.06145586137384906,0.2716348529534592,0.06500175839763381,0.13313492640003002,0.15486064562208954
129,0.9910594596226303,0.3410199612538782,0,1,0.9383087637803936,0.03760128263054993,0.2581595930027496,0.07424763478912022,0.14299534854138493,-0.0650632277705583
130,0.9566185879289285,0.32984749025466525,0,1,0.9544830916635875,0.0080271531446727,0.21134084620367047,0.04189109998901826,0.15452253440603525,-0.20022262476798988
131,0.9246034200923187,0.32362736262881586,0,1,0.9313103789714374,0.06120765080069642,0.19099305619038204,-0.04749743343021589,0.1609646635431478,-0.17578763178359041
132,0.8955706679513443,0.3224580068998325,0,1,0.8880226406484263,0.08653112572205764,0.17621121070517295,-0.14725797488812778,0.15526881978845372,-0.07139943532657977
133,0.8701191082431803,0.3254208082621552,0,1,0.8351058230526744,0.05756370159229797,0.17894961913276275,-0.23919316379960467,0.1691320566228069,-0.03282320797181007
134,0.8489714380949851,0.33083054732824346,0,1,0.8214241895707809,0.005711339333744949,0.16713229749577227,-0.35919659139410487,0.141756809944778,-0.043617778354760224
135,0.8330121889291082,0.3366223336814916,0,1,0.8571374013200109,-0.038435864572089876,0.1496223456196638,-0.3801700429213258,0.13346822834023386,-0.10731509316711316
136,0.8232715932035658,0.34079568095516555,0,1,0.8758233954348619,-0.06879487373480216,0.10937924207385517,-0.36927126863028475,0.15138025733308103,-0.16550702596328257
137,0.820848337564178,0.34182888929017324,0,1,0.8621471304312037,-0.07896373910224094,0.06748313137215657,-0.36351282791013345,0.1712188913200111,-0.18190565718683704
138,0.8267700227909535,0.3389888277795963,0,1,0.8435780731743502,-0.06392812985308123,0.04876925802933476,-0.3586524846396161,0.10070400379579153,-0.12804507220836972
139,0.8418020108801825,0.33248830550964037,0,1,0.8340663707844154,-0.038083808602969414,0.0267354163956916,-0.3075788239954104,0.013889299573562316,-0.0368903986880318
140,0.8662314616152048,0.3234766240032516,0,1,0.8039685334667883,-0.000783371382791162,0.026639379912869552,-0.2717242109350586,-0.10928313089098862,0.025656052340995255
141,0.8996676762799745,0.31387864181911845,0,1,0.8126816513132541,0.07189155052822746,0.07655350584761066,-0.1949686594797185,-0.24806018970778085,0.06124748659937485
142,0.9409057381655934,0.3061163721389416,0,1,0.8802831721078771,0.014558958663813988,0.11036545973907372,-0.24447379500988345,-0.20038500904070286,0.079388900046885
143,0.987894149194522,0.302753945944352,0,1,0.9555765534960162,-0.08585640928233715,0.1291164242177186,-0.3307390944337443,-0.14566044641240602,0.08675954863940509
144,1.0378298880765249,0.30610776521075406,0,1,0.9981332578237699,-0.09544810374029965,0.0953232847066487,-0.142768406525624,-0.18891629870898982,0.03355908167017671
145,1.087381642504591,0.3178658772039609,0,1,0.9999236590157451,-0.10142104216063881,0.0013829430037700311,0.07110727675145115,-0.2654793169065736,-0.0794507684820585
146,1.133019678925949,0.3387650779908084,0,1,1.0540820278939091,-0.013936927601253323,-0.046344347598428565,0.07713987827519295,-0.2661047944076815,-0.1250112459864707
147,1.1714102540108033,0.36837564938914324,0,1,1.212686878836413,-0.016666643528745924,0.1804939774789984,-0.005526042593425118,-0.15922685543408785,-0.1154280342340136
148,1.1998124688624678,0.4050358602066776,0,1,1.567357935086486,-0.2725722100099029,0.18753942155592757,0.06493315546955383,-0.1679326711503584,-0.2898124033543692
149,1.2164013847166002,0.4459589868439137,0,1,1.3137831516487208,-0.16549408425551088,0.1762337516329682,0.30098490296660757,-0.16237680156046433,-0.41752334530521484
150,1.220448213639963,0.48750716919998066,0,1,1.00353529443877,0.08095270746875606,0.3234398528260199,0.02904613254359647,-0.2012053789464337,-0.3873911181031208
151,1.2123258901668752,0.52559713499234,0,1,1.0738682336758578,0.0029846861540000977,0.35978407531195644,-0.14638112378265378,-0.06610610063210433,-0.46974688977153517
152,1.1933605661861344,0.5561822729402427,0,1,1.0767647391198447,-0.04804329277236208,0.4089396571234614,-0.24319173758955867,0.03581364158714724,-0.5424128919691785
153,1.1655847365688046,0.5757461570135138,0,1,1.1279785219650726,-0.006991215781045585,0.4077772384770805,-0.2597143585931435,0.047665462523538746,-0.603699623085094
154,1.1314504512523542,0.581740557733725,0,1,1.077039134881058,0.06497177424310623,0.34378684083490674,-0.3151852283268301,0.16126459369661414,-0.6222532115920283
155,1.0935445584382912,0.572905831512432,0,1,1.0407225890354657,0.08619224715411161,0.30642850406677546,-0.3805260264319652,0.17639243017537876,-0.4775586542724311
156,1.054332782446302,0.549427863349106,0,1,1.0138263519159227,0.07580471556588313,0.26219935899460317,-0.4071436530240921,0.19853435080402476,-0.24156885212407628
157,1.0159533168240433,0.5129136019272843,0,1,0.936313025991128,-0.02964818475181485,0.24975851575853475,-0.4528837758701637,0.23756133852324934,-0.09553226520446831
158,0.9800791569442425,0.4661978940884495,0,1,0.8695545692737657,-0.11736350577589767,0.23614320165554362,-0.47695816861580437,0.222143937310843,-0.04427754558385218
159,0.947865002654083,0.4130174951091287,0,1,0.8625070753337098,-0.14929589805017277,0.2004259101469363,-0.40551779708275776,0.14095399253127477,-0.012459646001522209
160,0.9199851934602161,0.35760152910519133,0,1,0.899099562606775,-0.1293431440361517,0.1503410896987773,-0.26688877589670923,0.0730413788506896,0.014847070234606238
161,0.8967533889048184,0.3042356535277087,0,1,0.8932857253382328,-0.08283898771788413,0.13974265948534087,-0.14931138930724325,0.03959082055904278,0.07099302404042103
162,0.878296458613393,0.2568604660858668,0,1,0.9079712994855731,-0.04785667630459687,0.13795639345409902,-0.04832540238805401,0.03486056750357832,0.16027255198840581
163,0.864740854343089,0.218757053861997,0,1,0.9101006721414863,-0.019581317876184376,0.12249741293370865,-0.005227383787787754,0.036013747387787814,0.2180581278302982
164,0.8563647480276965,0.19235010165179475,0,1,0.908725682038477,-0.03189787659344093,0.10684379136551143,0.015937586212552576,0.049463287939746345,0.22617644373954282
165,0.8536747794129564,0.1791286028793721,0,1,0.9166019984082218,-0.05127273728275344,0.07180477084319649,0.03206732056706761,0.07190797244851256,0.20996899606380215
166,0.8573808666872957,0.17965973988399012,0,1,0.9080549709720477,-0.07112510502927297,0.0691580916791068,0.0574530277412343,0.1225045496685605,0.1556361041581776
167,0.8682636321689312,0.19366215897100944,0,1,0.9042114574208079,-0.0713476970211015,0.06134192101082948,0.12183535571066867,0.13345444299246764,0.08266509024065247
168,0.8869536080628538,0.22010949270129407,0,1,0.8618388797299901,-0.052897356666534404,0.03124612277669459,0.18488517793459658,0.060049876995115,0.02900859107252098
169,0.9136656847817141,0.25734556950113,0,1,0.8005801854913079,-0.1029765801546099,0.008028359046364609,0.2055205769576355,-0.09932780615644972,0.005173298570892082
170,0.9479506154020908,0.30320131105705267,0,1,0.7831482773486368,-0.17945256714366933,0.05686984266060427,0.30770256357029085,-0.19228525479296504,0.005855906829887944
171,0.9885305296613621,0.3551065709986254,0,1,0.8961462700922391,-0.1808083635693691,0.08382676536144412,0.3633545559795507,-0.24643786622760105,0.02997751430319773
172,1.0332718890438213,0.41019101705737454,0,1,0.9619944497755831,-0.2125015227714468,0.0826060371956559,0.34800022851306067,-0.16905827446560934,0.052642535492840134
173,1.0793188289051476,0.4653726626575052,0,1,1.0752683125088873,-0.09339918829227623,0.05119177449447271,0.3215977020501323,-0.25620543514223426,0.09662106099975357
174,1.1233723384472096,0.5174428257783327,0,1,1.122059199874218,-0.010235581739468522,-0.03654595391030543,0.3827245999673383,-0.2868676940739434,0.1357122385729306
175,1.1620682297396125,0.5631664820089451,0,1,1.1067737647090519,0.07881793002316423,0.24240797026704516,0.39900219834724276,-0.36785277840122016,0.09842510738731912
176,1.192386143379921,0.5994198541910575,0,1,1.459731978642608,0.13449487040632824,0.22267436319318082,0.22232451263348862,-0.34041098607112696,0.31707010087945564
177,1.2120148199550258,0.6233810153917214,0,1,1.2901305339567648,0.0890861090981939,0.0832471353127731,-0.09410785506923527,-0.35689860652614963,0.45035786428497265
178,1.2196081086464357,0.6327767949773933,0,1,1.0486780862836327,-0.15698744955254895,0.28870416064715815,0.11809224827326979,-0.22885911213917598,0.40181502898907573
179,1.214893156936972,0.6261711684028457,0,1,1.1494341429186579,-0.1042152466734577,0.42090106496671353,0.3784006193509209,-0.07377433825562656,0.47560021159068777
180,1.1986278677143143,0.6032557127187061,0,1,1.2198896487334407,0.06721138593404868,0.448753820262229,0.3735784807355071,-0.06111312460815685,0.6950060893082687
181,1.1724325101377229,0.5650757382725244,0,1,1.1163094287320465,0.05182625441790354,0.4079006382006431,0.48290714859505707,0.06956072828161605,0.7307199176568182
182,1.1385341588384672,0.5141108632696486,0,1,1.0011836511238223,0.02491457653102974,0.3177924160678704,0.46272589462228586,0.10409682804111761,0.5155706203682208
183,1.099470110850749,0.45414501632344617,0,1,0.9400751599535748,-0.007259196314072936,0.2722779787745664,0.30275842202327635,0.10982789849643212,0.2593840777883946
184,1.0578017488156615,0.38991333513743764,0,1,0.9639990215542402,0.05105750321919006,0.2745016569365118,0.21144613466206444,0.09511546202446242,0.07390526392667394
185,1.0158863517658379,0.3265814648956886,0,1,0.9797270492155402,0.06907869614310388,0.2705692694801494,0.13279363435907046,0.13075008306238284,-0.0005948207601902573
186,0.9757358684618973,0.2691618831162685,0,1,0.9728970127896582,0.07715830319649014,0.23289002027609834,0.08806397787355107,0.14340367213536423,-0.04102824174798155
187,0.9389657786700251,0.2219804740403829,0,1,0.9319906751655856,0.08743734962269685,0.2068465128120824,0.05070578478358384,0.1410062592975357,-0.049779776600321984
188,0.906816633336691,0.1882790547744755,0,1,0.8535126267981764,0.06459627807973302,0.1934537127550827,-0.028727845534600196,0.15967181472088712,0.0044370637826931245
189,0.8802219902997256,0.16999623201591638,0,1,0.8336977050280852,0.0006212157975907347,0.19042747146737596,-0.08866521373539879,0.16029156409060455,0.06268667127660003
190,0.859895852459006,0.16772874879666783,0,1,0.8848273098823168,-0.08710121953139527,0.17660680230390496,-0.053109803378212174,0.13490449000070662,0.08717442921957234
191,0.8464137079364696,0.18084779733108036,0,1,0.9079169899636506,-0.12933422549778112,0.14990082347509018,0.04594824692259875,0.1311225853389778,0.1042754865980833
192,0.8402619868634633,0.20773073498527939,0,1,0.8741433865413087,-0.10161039358127881,0.11991821550844811,0.16442986967125017,0.15535158078293343,0.12389946720557823
193,0.8418354442444449,0.24606480585875448,0,1,0.8173078061435177,-0.05499127951651397,0.1046389390379117,0.2016726364543729,0.11187750078933338,0.16018862254644556
194,0.8513744099978849,0.2931818633494799,0,1,0.8590264287387451,-0.0530026671256517,0.09562607428977932,0.21529516376530936,0.05402354953108095,0.1814743322458611
195,0.8688511746621993,0.3463895472324556,0,1,0.9055705841481293,-0.034484166203587865,0.07042517688497489,0.25897220957433176,-0.0017410352641200949,0.19982419073659133
196,0.893830335795357,0.4032729661706072,0,1,0.8648710141102302,-0.008658244723543968,0.06394414836682012,0.2824903527722404,-0.08553826106036069,0.23822127097678275
197,0.9253382302254721,0.46194796149323114,0,1,0.842158201989167,-0.03178999111978748,0.05324319698237395,0.33202322786895083,-0.2161659801089351,0.2791987553685395
198,0.9617817337662329,0.5212493287051462,0,1,0.8693266286579889,-0.04761829757423248,0.06790333812082539,0.38179181162754605,-0.267467487960117,0.31128060867441354
199,1.0009551887256483,0.5808361450375293,0,1,0.939644358224014,-0.11446305922729738,0.10341801285076171,0.4482145544675367,-0.23647797041461152,0.3523507742867039
200,1.040162423373221,0.641196526965469,0,1,0.9772907421225742,-0.18600831271820997,0.05226977798200834,0.5461675060904023,-0.1825002742089631,0.3766875213515108
201,1.0764586222882715,0.7035401150153113,0,1,0.9944237483842856,-0.177096184594581,0.06265192805877426,0.731662596830886,-0.21926260377890536,0.3086604829941496
202,1.106989431336913,0.7695798505336502,0,1,1.099441403982033,-0.09712168761754907,0.042048404121716905,0.7943026064622208,-0.17631383847059687,0.16834304155042723
203,1.129378261561967,0.841224976507256,0,1,1.1431237024293786,-0.015227146892458394,0.15392809898371618,0.7835671518636985,-0.13791191378271406,0.06554509134179588
204,1.1420912642215468,0.9202324413651298,0,1,1.3045211482978232,0.013538282257527038,0.24816145951779547,0.6113509253111801,-0.12652836905863699,-0.08490098019169899
205,1.1446976057775897,1.0078852167410346,0,1,1.4513039725219876,-0.08563387879646557,0.3314661195939609,0.7506772636052739,0.02859292634236563,-0.421928490912972
206,1.1379496033463836,1.1047680472436856,0,1,1.205109776531506,-0.1222803167585594,0.3173935848630523,1.1557375902511164,-0.037647907643395546,-0.5446821732291504
207,1.1236427146096422,1.2106852803513812,0,1,0.8863842923356792,-0.0672701831707386,0.35840058581986,1.1512288274236941,0.07615320054388518,-0.3588144615135547
208,1.1042764461016874,1.3247242853739851,0,1,0.8235368248386447,-0.16149363675600764,0.3697709035201654,1.1961756692363044,0.06956584157776287,-0.16113355833441817
209,1.0825993391742093,1.4454356172078275,0,1,0.8773789132775289,-0.2890006103619688,0.2866308999038128,1.3553327191052436,0.0216155572171531,-0.05940639598446498
210,1.0611515585952311,1.5710862432070183,0,1,0.9453793078070201,-0.22080906128620295,0.2402771232366761,1.6530659923703455,0.011304912994269209,-0.02618375039961481
211,1.0419042899140534,1.6999333631795992,0,1,1.0051254014391768,-0.11358666040736194,0.2061314654255526,1.9109297584524811,-0.0225001059005558,-0.00027660322237188815
212,1.0260522890574484,1.8304564340322411,0,1,1.0028147301921242,-0.037351515479076156,0.22332419761153136,1.986402245112256,0.06325825759671992,0.05028922983844129
213,1.0139710152569894,1.961485498860264,0,1,0.9706727026956554,-0.0411562917237599,0.22551237838695448,1.9644865175601633,0.08951151642333802,0.18702352415258575
214,1.0053185451420623,2.0921884526313357,0,1,0.9628467945431961,-0.10095499233090385,0.2105814769131477,2.0014449990473957,0.02672480861696469,0.33834822083890004
215,0.9992458894452044,2.221923085287681,0,1,0.9679775130627841,-0.1600030506888305,0.18318929293330732,2.133034479459876,-0.012064475848438812,0.41290098815657095
216,0.9946713984582323,2.3499999839600205,0,1,1.0061729379513744,-0.1644603831884171,0.15794998629692017,2.2811357173949447,-0.03262925616247396,0.436802416686373
217,0.9905707031676041,2.475421961918859,0,1,1.0290735421252013,-0.12367636632449522,0.14522467514786336,2.3992810355118017,-0.033457798617285046,0.46303699028522116
218,0.9862326835501473,2.5966635532316755,0,1,1.0428190997361757,-0.07362396431789071,0.12199042862861356,2.4915444530292166,-0.016803634515514105,0.517211453231525
219,0.9814369842404781,2.7115401888139044,0,1,1.0260921832874028,-0.060592928907010055,0.10365124402451731,2.5935455578066438,0.006106278915699906,0.6069689660609038
220,0.9765216078060652,2.817199552160326,0,1,0.996643163911344,-0.06573228413953049,0.08497019733530528,2.711066216119951,0.0017259287907755556,0.6945597634768359
221,0.9723287940361587,2.9102500859526628,0,1,0.9953077167328087,-0.07273583345223447,0.07165337730075425,2.8220279759819755,-0.003911227381821275,0.7260976140281273
222,0.970039564558259,2.9870244119338802,0,1,0.9759342540807495,-0.06966561427112929,0.0707331187101591,2.884073197904998,-0.006579949083124921,0.7181675124638858
223,0.9709274451289535,3.0439604589621387,0,1,0.9274443210540797,-0.08043074745616036,0.07871630793574186,2.8979674552023793,-0.02249099370978922,0.6908858176575047
224,0.976076898903795,3.078071582269443,0,1,0.8903096484787556,-0.1298950704064508,0.08901326096026575,2.8786700341221,-0.0636007142247812,0.6776148167140769
225,0.9861197083197509,3.0874659543649905,0,1,0.8913302927738268,-0.18199380562993275,0.0826735390033445,2.903184206225832,-0.11073216772383344,0.6964360417252164
226,1.0010405461858771,3.0718588257861144,0,1,0.9342935932937604,-0.21539097239888358,0.08881427452360198,3.0380420389322538,-0.11648574254647735,0.7456618940572642
227,1.0200901672575395,3.032996237458054,0,1,0.9618847555460626,-0.20187012011503871,0.1223655513742651,3.1674845177400455,-0.08190483769826655,0.8119508826116143
228,1.0418237193590785,2.974883965447139,0,1,0.9902797487598383,-0.13952560804329114,0.1467120317815081,3.19123615514502,-0.06950342845600134,0.8852261958833276
229,1.0642584828166155,2.903710687209824,0,1,1.0695345654081205,-0.018172824766228324,0.14640724894799317,3.0098803645738763,-0.015519285238402455,0.9967757960375132
230,1.085125343828268,2.8273888817634805,0,1,1.1107218318577092,0.05731020192388107,0.13188634409971142,2.801361876746343,-0.020360183737576774,1.0544762311691056
231,1.1021744659050727,2.7547138576398256,0,1,1.0793903355168994,0.09242465745248321,0.16601278881698422,2.610025271185221,-0.0071536763310935635,0.9620253202373795
232,1.1134890129223058,2.6942416915934477,0,1,1.0716724364990053,0.17766643494100323,0.22978600884123757,2.331385469313635,0.021188275784750583,0.7821654550951801
233,1.1177606760620673,2.6530786799723445,0,1,1.1300213238669035,0.16600433616629148,0.27726711799227594,2.1506005885203767,0.03792720318899079,0.5785830938662629
234,1.1144848396910232,2.635825798881478,0,1,1.240550185661911,0.07904244330533387,0.19964635182641632,2.0958674694540393,-0.000502294434221492,0.5124812138630955
235,1.104040872216249,2.6439082717508113,0,1,1.191748192276094,-0.13313929306060876,0.10237132376421698,2.2324780589993076,0.021685246104329745,0.6223593433518314
236,1.0876379943657164,2.6754367929823317,0,1,1.023490263001653,-0.24981598672242022,0.07160738293794876,2.5886753016261164,0.03273534842784872,0.7293401633717262
237,1.0671326150448597,2.725613443938767,0,1,0.954122120821683,-0.18966660168835678,0.07117624042111916,2.9053928992704994,0.07242420024339442,0.7268251909020613
238,1.0447530002781227,2.7875570164303776,0,1,0.9504343198739419,-0.03088534801103293,0.0591440489484087,3.052920751050167,0.05867005899411993,0.6640723091624356
239,1.0227873933215708,2.8533311448322816,0,1,1.0076868950455726,0.10729228103439882,0.036488428259654065,3.0452957156409757,0.03809017043931713,0.6015016153578332
240,1.0032919045351614,2.914945325368117,0,1,1.0294414040224071,0.16286575241551285,0.03282775749418678,2.987667212586033,0.044435834971094434,0.5395112041709451
241,0.9878582050994894,2.9651570534786997,0,1,0.9633756485740281,0.14956795915015478,0.06672125388738057,2.868695692760787,0.08001151901135291,0.5152574338404119
242,0.977461698741713,2.9979962337409236,0,1,0.9241927226817598,0.026634148418753105,0.09170436929259394,2.8264185020814665,0.06522858560967007,0.5433267415382528
243,0.972398555153021,3.009017588759077,0,1,0.9165528252677789,-0.058090686027640774,0.10195602861508653,2.9055395439935907,0.028983887218166117,0.5972505070967554
244,0.9723139506386252,2.995335558531684,0,1,0.9301243868527456,-0.06054859913414744,0.06690357392706765,3.0155278655838202,-0.006013968385381146,0.6098264339136863
245,0.9763168848259337,2.9555070855132275,0,1,0.9697904984115798,0.023305709852907516,0.021380105460699142,2.9952370929395613,-0.019536368057196017,0.5915159306079847
246,0.9831649679194203,2.889319376718323,0,1,0.9981706244848289,0.14040242995352215,0.008782000567578092,2.7854103421121352,-0.028913332875886214,0.576810862968597
247,0.9914883729684031,2.797534363804329,0,1,1.0425293821254396,0.21805792843673136,0.019799031227552163,2.553399034631019,0.002536156847601495,0.5939651976558933
248,1.000012098337876,2.6816456611192696,0,1,1.0517233993388646,0.20611372006772286,0.07764215473154634,2.426078242069612,0.029730940787899226,0.6231120101240241
249,1.0077353276116598,2.5437042904293516,0,1,1.0293753706117619,0.10859677934856217,0.09186801459182935,2.3770848256324237,0.025214652239566156,0.6423683453433002
250,1.0140378475480338,2.38624968860124,0,1,1.0007227682831195,0.03451831263696825,0.09734878415692468,2.3274689376858757,0.004085699959055421,0.6441942826824572
251,1.0187027841605338,2.212341643374125,0,1,0.9923484939952428,0.03360503277882984,0.09316156012932784,2.2333702686896912,0.03089045060810223,0.6192467551470946
252,1.0218647470373505,2.025644370525393,0,1,0.9971274219940897,0.09842729002681454,0.10300745177085568,2.1124678010549305,0.06183191654724049,0.5902436504309112
253,1.0239055758864049,1.8304881723700355,0,1,1.004481352779985,0.19417346044017697,0.11683610354482661,1.9043000064496713,0.0556552686798531,0.5587957981125199
254,1.0253239936081842,1.6318393268369873,0,1,0.9858520468805725,0.25540921327530747,0.1550045811418702,1.5940248881975163,0.06959424729121622,0.4969718560793454
255,1.026603651454781,1.4351424307835767,0,1,0.956273367043226,0.2512575351126915,0.17443116074410495,1.2949648029809433,0.0716757218054,0.4070824333068536
256,1.0281007358480796,1.2460462943392672,0,1,0.9389788394538392,0.21457426817968006,0.1691075013657312,1.0697434919636328,0.041320050512888506,0.33486240821614915
257,1.0299690670178854,1.0700636940417765,0,1,0.961801973491064,0.16318555559029635,0.17464750914527075,0.9164047049289392,-0.020033902231362727,0.2907158689150583
258,1.0321355089786672,0.9122300172822106,0,1,1.0077564230262357,0.0971389876852441,0.1666319781857284,0.843324358515962,-0.05137396299187373,0.2651876093995795
259,1.0343293596111547,0.7768127677211392,0,1,1.037020172625117,0.08742136631383736,0.1592945788224172,0.8215764880452756,-0.074470989228,0.2254819271296796
260,1.0361574742481077,0.6670948684163592,0,1,1.0311557180798747,0.13535344696501705,0.17568701343855003,0.7162530219423473,-0.08170382600971068,0.18772472929413767
261,1.0372067254316137,0.5852285673992627,0,1,1.01117357677835,0.1745228901122287,0.20118297575562874,0.531208206988685,-0.08853986520711776,0.18080858906355485
262,1.0371509237522136,0.5321469205571309,0,1,1.007762239546032,0.16376728778808125,0.23020479893080503,0.42174444482562184,-0.10850573668677342,0.21319978292912461
263,1.035840736263437,0.5075257377370291,0,1,1.0155186195677808,0.108677097469847,0.23615698192346118,0.3892272546777062,-0.13205710470143275,0.27152600150143086
264,1.0333597943838189,0.5097988573380466,0,1,1.0187764765905927,0.022060668979902463,0.23860041373112423,0.3745442695210201,-0.16068482634529307,0.298195930556144
265,1.0300355837165647,0.5362329785058259,0,1,1.025169764805275,-0.08522697856584825,0.2725008104594207,0.4096413076532588,-0.16396826359290823,0.2875251900132994
266,1.0263992996506546,0.5830638407152859,0,1,1.0220164919627475,-0.14867901959142768,0.3102580436796237,0.5114276287756493,-0.16084323184449617,0.24067375196323415
267,1.023095734439356,0.6456885611062895,0,1,0.9739293014393693,-0.15228502549901213,0.306295642606987,0.6018332305775458,-0.11655518199867657,0.1714518685873436
268,1.0207537017073067,0.7189036478423745,0,1,0.9246620372346379,-0.12454236245660484,0.33547559294886536,0.7199085404082757,-0.10268678707534455,0.11502952369133597
269,1.0198388336331075,0.7971753305865934,0,1,0.9191669133368902,-0.11379417074447026,0.33651797598680694,0.7580380628794898,-0.04277970168675854,0.11936935337116471
270,1.020520018864651,0.8749274738778623,0,1,0.8952912594366318,-0.116636130932005,0.303404252453538,0.8500754859121101,0.011556447934220901,0.14064055468721234
271,1.0225832120324745,0.9468312534384555,0,1,0.8947886421690854,-0.1423038403347416,0.2789650550713357,0.9568482242565668,-0.001564949828376694,0.14523575593946064
272,1.0254189212311433,1.0080790187549644,0,1,0.9694962650524636,-0.1433420374257657,0.2617001199740428,1.045757320167004,-0.060615249303599045,0.17441669013641833
273,1.0280933582650351,1.0546231226016487,0,1,1.0155760672024077,-0.09126639182625693,0.2442671832668023,1.0765238240626314,-0.11126612465440472,0.19911203370877187
274,1.0294927652954537,1.083362108409809,0,1,1.031084443386703,-0.023145791730787384,0.2517593695949284,1.0277613229443365,-0.143381949560989,0.23053145385025736
275,1.0285129579834813,1.0922639254772961,0,1,1.0451405901824666,0.015761598984544326,0.239849881678156,0.9963928906220885,-0.17755008023568136,0.28422088347312024
276,1.0242577876049825,1.0804263804937648,0,1,1.0063809780130708,-0.004456901286760688,0.2359913846947566,0.9969341517033283,-0.17519219361963442,0.31701441594721674
277,1.0162124274190645,1.04808247625337,0,1,0.9982572995968139,-0.00804105224492849,0.22580889449551483,0.9962850781390373,-0.1721605344553447,0.33049038743342574
278,1.0043665369373682,0.9965584527040704,0,1,0.9948389986503379,0.019062485713286642,0.22747728696141234,0.9468053374890057,-0.14742750220489284,0.3268190381170567
279,0.9892731631243596,0.9281874393543813,0,1,0.9801912595554176,0.07058486616058805,0.21515591225852948,0.8732118080269156,-0.15795469499020615,0.3347713546893736
280,0.9720383131733186,0.8461775251838299,0,1,0.9525572397605947,0.08600143039325232,0.1979545204996168,0.7627035489687087,-0.15287793721035342,0.3533542204385227
281,0.9542430605540124,0.7544334835165892,0,1,0.9184198210505019,0.06846279302662264,0.18073134430401203,0.6550942511321226,-0.14489126181948184,0.3526500839416888
282,0.9378055792851043,0.6573357239888213,0,1,0.9373486686211036,0.04618847560805721,0.16208102611173267,0.5399427643932521,-0.1355221539812047,0.34501855472218
283,0.9247946592097712,0.559485450153728,0,1,0.9385647111134411,0.02403450132187423,0.13654673704842443,0.4578563025417182,-0.11729432556738642,0.30242247594067406
284,0.9172089555280217,0.4654292474527577,0,1,0.9405681288535382,0.03218125099353364,0.12030172900332163,0.40982917498045013,-0.09118759959696104,0.247526658742651
285,0.916738864858802,0.3793790170054499,0,1,0.9064969203691785,0.029465480938925006,0.11590547319988125,0.3623966792473958,-0.05940755845247616,0.1868209290372689
286,0.9245325038173884,0.30494559012520206,0,1,0.9027358159928291,0.005406744090189314,0.12288209608159682,0.2420981967897222,-0.05972162608718838,0.12914133681478895
287,0.9409936872663196,0.24490791175559928,0,1,0.8964829191263428,-0.02145800765635493,0.10156726750707341,0.11305090234807116,-0.07049937365109131,0.08224441718476504
288,0.965644943156068,0.2010431183712215,0,1,0.8680523662204815,-0.06072739100882024,0.11040878041276303,0.06791652739391571,-0.09247056298533313,0.02881406920875736
289,0.9970881719565349,0.17404116852591373,0,1,0.9135068501556867,-0.06629133360885754,0.08901764770906995,0.10084410382546405,-0.12896049120029765,0.02386525869564455
290,1.0330863134705806,0.16351626871682526,0,1,0.9883525374890747,-0.09069604543079328,0.0831271921274479,0.17757554587771907,-0.1265298148038929,0.04046720901682635
291,1.070770740865485,0.16810833066570485,0,1,1.0710320910955848,-0.1405451302471029,0.08857284746068315,0.11876332564801055,-0.1259356158379168,0.05364937040641287
292,1.1069546352409148,0.18565041328865448,0,1,1.1032726313245738,-0.0926340876203856,0.05858027650307936,0.06351885990296788,-0.18967426851408173,0.05316477466850678
293,1.1385094343409619,0.21337099315628516,0,1,1.1522070556958333,-0.04548602187364447,0.02888785273125687,0.024969210720758583,-0.20535216999779954,0.09802468392104016
294,1.162746125364682,0.248103469655488,0,1,1.206558931848341,0.037722677603356174,0.20577251509936817,-0.10176612108997912,-0.24247699131835346,0.08307710287265126
295,1.177738190579713,0.2864842908609358,0,1,1.356503822741781,0.15622368626921768,0.30408531576577824,-0.1952398699245723,-0.2747146914595874,0.1475917518674707
296,1.1825292071981146,0.3251315590677074,0,1,1.2573383296061624,0.07261666024891979,0.11274694600863816,-0.2357733269967188,-0.07598995870215579,0.15907041467645527
297,1.1771879849410107,0.36080738165158155,0,1,1.0485435448324452,-0.13858043996074987,0.15080663638710953,-0.027397218946603383,-0.14624574851976138,0.09213434802908985
298,1.1627074705641158,0.3905772147275327,0,1,1.00193911779514,-0.2941563072457737,0.3079232759319008,0.24533842949993565,-0.14786581465258627,0.09450517052839956
299,1.1407794166962182,0.41197998439667854,0,1,1.1058783760370756,-0.20216549367489792,0.41855045430582805,0.39977127877831276,-0.12844245229479836,0.24092305805306993
300,1.1134983610781755,0.4232072299969955,0,1,1.0382099796431277,-0.0504216589706627,0.4303327373554897,0.36696461434600613,-0.084441614739145,0.3997462986350055
301,1.0830505614868684,0.4232648752135331,0,1,0.9356990445063711,0.050763635035818676,0.38673450252715535,0.3497737742158761,-0.06007249708219685,0.40098382651926057
302,1.0514361826100362,0.4120766057286068,0,1,0.8863543567717737,0.03286733888151478,0.34053955945308273,0.29766685486047983,0.02842019051999518,0.2927780587886862
303,1.0202653358906568,0.3904964087725543,0,1,0.8854542401345816,-0.01900297143069076,0.31046563906390257,0.2892683307572681,0.061350775806189535,0.15301933611071905
304,0.9906577934820832,0.36022379124463405,0,1,0.9335432710659047,-0.06959768294097227,0.28771618619677886,0.2999640600339812,0.07442515925182479,0.05186449579889395
305,0.9632564240788893,0.3236404190954562,0,1,0.9553722280726028,-0.06023545317975187,0.30314740588431144,0.3032180812063644,0.03553430107022315,0.013117374966654638
306,0.9383385168477149,0.2835976473307442,0,1,0.9667171470660102,-0.016249321239533338,0.2708268148721221,0.33162841953526495,0.010381866043986207,0.0025724155623048943
307,0.9159878892980388,0.2431806522236507,0,1,0.9076271963037608,0.04693914908980595,0.23074327020892985,0.28892327345167196,0.02406466800895084,-0.024936488783112238
308,0.8962828598995685,0.2054667824746939,0,1,0.8575763361455857,0.08358033838881833,0.21514866698921095,0.1587388653692785,-0.01047816867584991,-0.050741665741680174
309,0.8794608934191821,0.17329279121050345,0,1,0.8401117288748432,0.05702076016559576,0.1985954164841767,0.03541443566044258,-0.0070761825509310814,-0.08627070241518116
310,0.866032479235559,0.14904833475571455,0,1,0.8597619876511393,-0.021124134303635838,0.1869389678325504,-0.09474112472780465,-0.03211988279668574,-0.10326489529127793
311,0.8568264403152652,0.13451435741175444,0,1,0.9083412733761301,-0.0904452886331468,0.17148672088231215,-0.07579745251085139,-0.03386296109979361,-0.13745100287948037
312,0.8529541726931796,0.1307592739181992,0,1,0.8960485527803542,-0.094898101320162,0.13563629773525177,0.005288891588481445,0.004783794400053674,-0.13992084984064207
313,0.8556856409905135,0.1380961692656952,0,1,0.9035634662379345,-0.05028662395131545,0.09689124105507044,0.03248747845866003,-0.006381199157027362,-0.13015228458243086
314,0.8662410203046139,0.15609752711045272,0,1,0.8801672336744225,0.010116302596429516,0.09803792536967725,-0.0039503283011581266,-0.03675616195114037,-0.11700147857968435
315,0.8855199773720107,0.18366246913732734,0,1,0.8822522760184692,0.02677154498903534,0.06813400822172566,-0.00015871135880022227,-0.07698190821916255,-0.10051699204404531
316,0.9138114120219625,0.21913089850282966,0,1,0.8168406952631863,0.07615345539248138,0.028317270265307545,-0.04371515768020241,-0.18227928858297263,-0.06414006465354204
317,0.9505429349757158,0.2604342054204708,0,1,0.7894487787842128,0.1373433974538743,0.11565082130356451,-0.0666316108677978,-0.32047560525315194,-0.04697514615579627
318,0.9941342288468157,0.30526299007103885,0,1,0.8688288074124887,0.06955761622079781,0.15244494785986204,-0.2126416391455648,-0.28637019334052377,-0.07170494756525378
319,1.0420063246542648,0.3512242789554674,0,1,1.0179622559819872,-0.02719179668785077,0.11051162311443676,-0.20947809818343904,-0.32058845830482197,-0.15062597471039543
320,1.090769751377513,0.39596155531368354,0,1,1.0809947981065222,-0.060734755391685,0.07007037011302394,0.020706662311052993,-0.3612435934804248,-0.256755953954788
321,1.136576637891072,0.4372236956597093,0,1,1.057689646125798,-0.10978045021801042,0.042550781659300554,0.1245115695900786,-0.40039186369097457,-0.2710222411607643
322,1.1755869303797977,0.47289003965891185,0,1,1.114855787203947,-0.06645244686206431,0.12186898671446592,-0.053441736571551844,-0.3125149862407752,-0.17578641277869686
323,1.2044733319149314,0.5009809988852718,0,1,1.4080780675614104,-0.0872660477357496,0.32325238365143405,-0.14824043425564595,-0.3056283738469952,-0.17289428665202256
324,1.2208738538032289,0.5196978836644455,0,1,1.4539603834740529,-0.11093593556811995,0.3692323187887635,-0.10301447535836994,-0.20491812375935936,-0.2471306317832154
325,1.2236996403648168,0.5275322853405665,0,1,1.1993625062317788,-0.09636883528834306,0.42530934919554586,-0.19241114495601136,-0.08394494658231208,-0.31150489174801055
326,1.2132300365964321,0.5234584681575118,0,1,1.1535400306853625,-0.07842247802112852,0.4367996625952521,-0.3223466056608202,-0.04639569205615405,-0.5076247915606995
327,1.1909784974666933,0.5071767483954341,0,1,1.0549948714150705,0.00911542020199373,0.39058794824956805,-0.5019398267809264,0.1401511764476574,-0.6063470300434092
328,1.1593730775296278,0.4793307067439673,0,1,0.9491833506504784,0.05526204705313252,0.3668525664482447,-0.3891243772945303,0.1239711667454729,-0.5837022474430178
329,1.121337427097352,0.44160287544709326,0,1,0.9790595414994188,0.0006033059365260747,0.30445383310475443,-0.3285425532382081,0.1343453516505982,-0.45842579736231537
330,1.079868610556472,0.39661958707494693,0,1,0.9899606437215823,-0.13400838049502098,0.2895090991435334,-0.25652805278011503,0.10992949818417722,-0.22416072258107067
331,1.0376900880914213,0.3476580337701513,0,1,0.952268448833798,-0.22090142920786113,0.27114712335881563,-0.15306775960128532,0.13568218678259353,-0.045578833525324144
332,0.9970251359631184,0.2982168603020633,0,1,0.9334287916428257,-0.20146453194577052,0.2604871647412249,-0.09468272985962678,0.12103131794137152,0.06227620215713308
333,0.9595024320370535,0.2515540510187808,0,1,0.9153338827126095,-0.12355435633502086,0.23165035150131175,-0.05577710009507324,0.08392172123010291,0.10968584268630603
334,0.926180690834927,0.21029868021102818,0,1,0.8886416073934507,-0.0450573453990785,0.20863908650405674,-0.004899886247793041,0.035621557565279155,0.09126762827768692
335,0.8976644477908055,0.17621318958405557,0,1,0.8783437102790269,-0.02488099068223851,0.2023792404168555,0.06776144519924913,0.055664384120191084,0.07020570811791473
336,0.8742751594722572,0.15013705080152545,0,1,0.8747247116659931,-0.032801206496717486,0.1898287491265517,0.11414201980456538,0.0781136820955753,0.10247172672053817
337,0.8562377113232733,0.13209629220300764,0,1,0.8951159437851146,-0.03222759167894405,0.16831262588235024,0.13819952796453236,0.04256338853086951,0.1575399913659825
338,0.8438417337764137,0.12152714399846175,0,1,0.8640333677568961,-0.015069473902699046,0.14294695358708331,0.13013952766760203,0.01836983806143588,0.1779980897616253
339,0.8375412960737829,0.11754375412160172,0,1,0.8971021275115986,0.005176654362612121,0.11068391945978408,0.06035737660461561,-0.0018639397479885953,0.1765054146549155
340,0.8379668705453326,0.11918311845093707,0,1,0.889241337240937,0.0229765711323066,0.07575862887589198,-0.02490382062021531,0.031869392905984194,0.14345115140817408
341,0.8458395460050667,0.1255812365404123,0,1,0.8574446486360849,0.005601734934087164,0.07540399774751953,-0.06558797839745159,0.05904900841853389,0.055865380302103904
342,0.8617973298244237,0.1360626715831002,0,1,0.8633493265458103,-0.02282841922532783,0.06102748214297395,-0.059185262521360964,0.09316870465305219,-0.03685646763432052
343,0.886163838553309,0.1501497794361372,0,1,0.8701165804621057,-0.05281584949692593,0.07306721194796464,-0.07083404436425131,0.08058598918652207,-0.10005608031805073
344,0.9187067038342063,0.16751130469040573,0,1,0.8521754615927696,-0.0808237604360914,0.06916609947822507,-0.1251607229518317,-0.02210917841150198,-0.10925266627395344
345,0.9584427539022414,0.18787324348034795,0,1,0.7869274083331076,-0.1108976483215763,0.08647283948073198,-0.14488716573411067,-0.08372413055113662,-0.1229134778490176
346,1.0035461778891,0.21091295241976765,0,1,0.8805310814260422,-0.07223846589132597,0.11481343018197636,-0.12432812584133722,-0.14197868788736656,-0.11720414770886269
347,1.0514012016250605,0.23615568822621993,0,1,1.029254965368217,-0.1227383256054936,0.08586956624684235,-0.017871396491139245,-0.15940744433920598,-0.10583339422772581
348,1.098811578987045,0.26289307074735974,0,1,1.1255723387076213,-0.08032751222364834,0.009716971237612584,-0.12995053850255642,-0.19770891312021682,-0.06950276158611328
349,1.1423421002621152,0.29014353666093534,0,1,1.125725274602885,-0.06845024148218593,-0.07068288676185366,-0.10994412799191706,-0.2090397987682314,-0.024077496083944393
350,1.1787348928844024,0.3166721308629929,0,1,1.1421668114201982,-0.021105995342039493,-0.030723704600021027,0.04868076612254866,-0.2469185377435853,-0.05767859870028358
351,1.20532429872991,0.34107848012475184,0,1,1.343306884010071,-0.0864678380451675,0.3417342169086571,0.006547104404211881,-0.24160612226258943,0.05662909987898135
352,1.2203691162263393,0.3619471205972465,0,1,1.5970671841327768,0.06965255147767084,0.378933559733178,-0.11292871783747765,-0.2834740034738356,0.3419254519006472
353,1.2232313472411231,0.37803565451386856,0,1,1.157007710693619,0.09662405374589274,0.3089544173160566,-0.26200645744576895,-0.2135969836631567,0.42753984918312476
354,1.2143640392236972,0.388460283109449,0,1,0.8811952511290334,-0.15533610073848908,0.29042289100739255,0.040138957736024876,-0.10293113751102813,0.2933784371608068
355,1.1951259932964224,0.3928347993462103,0,1,1.013244703937209,-0.14873586253815818,0.38135587277399746,0.11850415416743774,-0.13907518783486442,0.32269342615195024
356,1.1674920404281763,0.39133081514013685,0,1,1.0556955806546509,-0.08181864832256808,0.42174695828351794,0.25074039391443254,-0.00904886526706199,0.4472782820796797
357,1.1337426510447168,0.3846449780105249,0,1,1.0992916919020237,-0.03298560675669598,0.37522981379917125,0.20719223816581048,0.06405716709228117,0.4684474941755563
358,1.0961932327872423,0.37387511738151813,0,1,1.0842506302301507,0.038227962535837184,0.34271042794980827,0.12327388525904102,0.040638532854295834,0.35840120281645954
359,1.0569884419017466,0.3603247675134844,0,1,0.9973134573982831,0.05262756280893982,0.2924162235145665,-0.054073598561451365,0.11228237126941207,0.13239891470767476
360,1.017964901492654,0.3452776193787625,0,1,0.9330020869363066,0.03649502083784192,0.2882208187948395,-0.12154533006412857,0.14084309883085894,-0.07447429515916482
361,0.9805802341939335,0.32979957494907514,0,1,0.9228344688232478,0.009333999870738522,0.25142243340255704,-0.17481074111355724,0.15305160279331043,-0.19879886769228006
362,0.9459069551511667,0.3146204904743718,0,1,0.9064756541882457,0.006846976912269669,0.2266750759618602,-0.18108628987178887,0.1542299681772118,-0.24670373977901408
363,0.9146872846688235,0.3001195859332057,0,1,0.870102195932336,0.0488341477619762,0.20320950692795525,-0.20386017646724028,0.1353350604273976,-0.141633907059141
364,0.8874375152526824,0.2864043888646045,0,1,0.8669619735657105,0.028749343638560257,0.1953007196667825,-0.2532440951807603,0.13633494729773404,-0.04716583277850737
365,0.8645813893449118,0.27344953280170436,0,1,0.8616149503265632,-0.025403400913567627,0.1807721678260967,-0.30072170878664606,0.10641124072437246,-0.036555580892290766
366,0.8465844288123543,0.26125255878422876,0,1,0.8574263407830832,-0.08040142361070574,0.16856195575298824,-0.317677131535556,0.10288497417674634,-0.059315437278848034
367,0.8340573159746877,0.2499649968188389,0,1,0.880939162229039,-0.10742521859270773,0.12345442136916696,-0.2598127645202615,0.12397185357947052,-0.11244420770390019
368,0.8277977862741442,0.2399660626434742,0,1,0.8752881352735893,-0.07841309604201295,0.08132627326570674,-0.19576013430204928,0.11581854116123957,-0.11788539588381622
369,0.8287484021202646,0.23186292143740808,0,1,0.8734982397004949,-0.055449822610933536,0.07074481543460305,-0.18844778228935505,0.10521175051939102,-0.0821408902528145
370,0.837862296723252,0.22642227522839672,0,1,0.8827365837736044,-0.05141023049212565,0.0555717106758689,-0.1652879062979093,0.07753428467447747,-0.030543521618942273
371,0.8558888717872107,0.22445616598984378,0,1,0.8509797928827677,-0.027485260456787078,0.04860002881019776,-0.15200481353136042,0.046555557712825234,0.015307697073394248
372,0.8831130499067992,0.2266940128856964,0,1,0.8198962459659919,0.014214210368332442,0.08927507890777746,-0.10694672529462518,-0.08677172702452601,0.04999285123129179
373,0.9191002260586856,0.23367009752315585,0,1,0.8250796144391145,0.05874555612066909,0.09244019632884554,-0.10500329580964317,-0.19243135580095824,0.08073809363308558
374,0.9625088769059678,0.24564214887422586,0,1,0.854496013079957,-0.0047993068620991695,0.13617920468375036,-0.2429504187575898,-0.17401667626241388,0.11970506786712737
375,1.0110289606795144,0.26253838982325967,0,1,0.9284767372160098,-0.07481633038230336,0.10769656826724348,-0.3113320109261324,-0.19210469608490036,0.15333804410553156
376,1.0614854842451875,0.28391780363199787,0,1,0.9819594026537946,-0.08681574235994277,0.038333592619464736,-0.12714960475615011,-0.21763345534555498,0.11482133249632898
377,1.110116503175587,0.30893071687737356,0,1,1.0212406109691374,-0.06526351080239556,-0.035903010704930904,0.050255320398235055,-0.3036212053427989,0.028809183798423826
378,1.1529993844918194,0.33628398315721697,0,1,1.1098861597469825,-0.042768539292362684,-0.03593863726494438,0.05021275556604323,-0.2831730274686468,0.015567446545699214
379,1.186563574723189,0.36423614551973854,0,1,1.299936782955445,-0.0575636420504792,0.16591332088486258,-0.02424041968178608,-0.20968222276867532,0.0015426830842219504
380,1.2080975570907349,0.39065913758312465,0,1,1.559263395674162,-0.23022740182236293,0.27595612504677014,-0.14102083828304618,-0.06360539871529275,-0.20232031714786525
381,1.21614250406238,0.41319598051276485,0,1,1.347466937986,-0.2615382139410052,0.2821458128484419,0.1390333972301323,-0.00911297742678181,-0.43113889305753683
382,1.2106805878831937,0.42951853540956875,0,1,1.0302402492052998,0.017135195297617794,0.3358651983155725,-0.022534011113858315,-0.03960508143432267,-0.42230194122405934
383,1.1930774563223283,0.4376545666667073,0,1,1.0521391455664852,0.0021984391703002383,0.3932829976013202,-0.05740009192300885,-0.09404265800955347,-0.45193119536682735
384,1.1658062669588722,0.4363235183106291,0,1,1.0203872932908102,0.007834568102358256,0.41856805181277845,-0.2075154666419566,0.02601384374096654,-0.4998279553276591
385,1.1320304813458935,0.4252063969580731,0,1,1.0211378454089368,0.008855208059993359,0.41561653528191145,-0.29374984464934195,0.1157811158648208,-0.49206546127822964
386,1.0951357730091231,0.4050799326856066,0,1,1.0258221984157974,0.006681757132242183,0.34630802422952495,-0.2105251533398076,0.10527116899140469,-0.4854933141840896
387,1.058287350469218,0.3777680612938872,0,1,0.9945453940701666,0.0012500884612645917,0.31029795192666126,-0.12453263626076645,0.09856208188012733,-0.4085563899510169
388,1.0240676539773421,0.34590253396327275,0,1,0.9346165569458508,-0.016260291492497324,0.2873190838405479,-0.10407437356568174,0.15282335068888903,-0.23372974055931667
389,0.9942318767345614,0.31253112110884523,0,1,0.8629006674563802,-0.08182266489937527,0.2700849756880749,-0.1335315346500612,0.17544413615081633,-0.09136833387622638
390,0.9696048528700203,0.28065192472946077,0,1,0.8615458037977015,-0.1274442496379244,0.2656372313628606,-0.08982345973819207,0.11734345032629886,0.012823287084224278
391,0.9501275313070278,0.25277183660894176,0,1,0.8986036396416751,-0.11979293373198346,0.22056142470516057,0.016294393024959185,0.05232753710677846,0.070097953967841
392,0.9350412845183597,0.23058009715896016,0,1,0.9525555370703082,-0.07131082052223829,0.17987648725243577,0.11651291466790133,-0.013350213362698926,0.10462413964401812
393,0.9231760770439279,0.2147972012262217,0,1,0.9448921030439975,-0.026630633289863464,0.16686950001487583,0.15446124133087336,-0.023315622314829105,0.13517804246253898
394,0.9132909225581919,0.20521489096700593,0,1,0.8993181957209223,0.00200347490136215,0.17510762987238396,0.17712564967897204,0.010307138616408234,0.15902370004716526
395,0.9044077908369522,0.20089864682410224,0,1,0.9364297953175026,0.011732637381796557,0.15512821993709022,0.17920027518007212,-0.004445186408799036,0.19348916483000816
396,0.896083275388269,0.20049317948602455,0,1,0.9483348541477465,-0.00010477338028673515,0.139279775335083,0.1659272579960967,0.020630933073640067,0.20077677489296203
397,0.8885721426853797,0.20256043667509893,0,1,0.9559672297527456,-0.01963912370178383,0.1165484572987169,0.1455329753916772,0.05274050852124107,0.18839353106975906
398,0.8828509451476761,0.20588654965554826,0,1,0.9396353192178687,-0.034492618699938506,0.10104087841950313,0.13910398255971193,0.09778268480119215,0.16926851822990296
399,0.8804887409617846,0.20971188031557816,0,1,0.9314705125324865,-0.05328918710582046,0.09297723909690077,0.15208274374176803,0.11870610563671569,0.11086829621861141
400,0.8833760076230394,0.21385926798166197,0,1,0.9004179730708932,-0.03725860882398538,0.0619218987403934,0.19386999590606083,0.1074174711904771,0.046446988289044526
401,0.8933496137847687,0.21875426123710298,0,1,0.846594994948411,-0.022852852048134586,0.041858536166087604,0.19875556960497823,0.01393757024365534,0.02292942445193104
402,0.9117762207830142,0.22534484219332634,0,1,0.7991794559911108,-0.08587682663301245,0.027818131373634033,0.13629849950919184,-0.13980795357599965,6.623035312937124e-05
403,0.9391722797632927,0.23493605346684282,0,1,0.7986181661835452,-0.1282801464939695,0.02969221834100577,0.18303797988742745,-0.21059163168022663,-0.02162582478864405
404,0.9749393818714469,0.24895758726928516,0,1,0.878817370963177,-0.11396057807912831,0.08476673587378775,0.2324732013661841,-0.21882849141056196,-0.010733678871476676
405,1.0172757467008158,0.26868298031954757,0,1,0.9688106888604381,-0.16724639575384775,0.06884830281833632,0.31232622563889323,-0.18263314484803714,-0.00024352992306154328
406,1.063291456607761,0.29492348146065345,0,1,1.0176343954745526,-0.1162832758323776,0.06931738933388847,0.17407668675643526,-0.13384755774089616,-0.003233489193876291
407,1.1093162516539554,0.32773187036264834,0,1,1.071856582773682,-0.017698796683406008,-0.0032724383667776667,0.17282819273163588,-0.21516014754260118,0.01480930183618683
408,1.1513540820007062,0.36616737195134147,0,1,1.0508761628992718,-0.020007121948959875,0.15834141400808982,0.15728753999595682,-0.183566398421558,-0.04199196190735459
409,1.185612221081324,0.40818120639465333,0,1,1.3940274779199318,0.2131846399737305,0.3138473306449403,0.1266258903542212,-0.3210275865394882,0.07600137682383665
410,1.20901506648886,0.45067440748999343,0,1,1.4598686461347814,0.1644865983262783,0.20657671850829631,-0.1652348915994548,-0.17627738161329085,0.3098242190788001
411,1.2196093382607016,0.48975570767134985,0,1,1.115688351172506,-0.11243976775892489,0.16320217600093995,-0.022833808509231474,-0.05754598526579043,0.2482861243688657
412,1.2167881093363435,0.5211934790554041,0,1,1.105136024565118,-0.2707298925873261,0.2924483912060171,0.3622527649271545,0.024778899709121855,0.22034947148992293
413,1.2013041321131699,0.5410154005694223,0,1,1.2288791008665199,-0.15221837581910622,0.41502650907312566,0.5053222384266793,0.009273109689670924,0.4127494972935019
414,1.175088192392803,0.5461646515060161,0,1,1.1777052149347662,0.0588210933140826,0.4232836909686715,0.4459327161801228,0.1638223964579024,0.6995932591858073
415,1.1409179571588624,0.5350833650997058,0,1,0.9836356601497948,0.09076616148306187,0.39583438417830974,0.44360557819089175,0.21023197112996897,0.7163761849605926
416,1.1019988725642376,0.5080860642808585,0,1,0.899787161456737,0.0586841190945165,0.33680114347646106,0.37917484765871384,0.2331207488832926,0.4981319783626252
417,1.0615291722775302,0.46742553680277593,0,1,0.9041332171675364,0.035343887668906164,0.2960515288595271,0.22286108327886536,0.22687480914023808,0.2501689710349472
418,1.0223221345101678,0.4170326701531934,0,1,0.9616157439497975,0.056834364454104315,0.28382161239605525,0.14319089313795835,0.23675178255377305,0.06161520062179168
419,0.9865420324811213,0.36199637881015717,0,1,0.9535753434099145,0.06890445966397893,0.2792981617785045,0.09422888871124586,0.2451916302919661,-0.020283388886467912
420,0.9555792934950723,0.3079039448875129,0,1,0.9348045590236289,0.04539100125337502,0.24066659409463215,0.08314387517792292,0.19272046674186114,-0.02711218659125354
421,0.9300595718567161,0.2601713823430084,0,1,0.8894783202176276,0.0380793266911276,0.2209321846172946,0.09332611788087815,0.1344628333758351,0.020801605829631135
422,0.9099619108247267,0.2234681097592687,0,1,0.8555715011581997,0.02421332920098439,0.20766627432895676,0.043509369549542765,0.13838729495272142,0.10298664167478389
423,0.8948131148434778,0.20129996675123712,0,1,0.8728666893475282,-0.03625526879230066,0.20367480371786117,0.050280780931756225,0.12846653829886245,0.13176989514835385
424,0.8839224374137014,0.19577423918491801,0,1,0.8903623284123727,-0.09602613640584537,0.190803779641497,0.09490240851354312,0.11723491744875561,0.13517309344596423
425,0.8766179967411353,0.20753756502508358,0,1,0.9124271141440295,-0.12120345462679476,0.18743270583618182,0.1682619624101863,0.11720893754101987,0.12819760995950155
426,0.8724448926658663,0.23585617839258322,0,1,0.9198021161366499,-0.08965002310961498,0.1594642698549371,0.24062168868388992,0.11427866631124074,0.10370204666453581
427,0.8712891074288392,0.2787990735859129,0,1,0.8892867852994253,-0.05231706373798463,0.13896795510858018,0.2681822512530716,0.08871049959541535,0.10022095398252967
428,0.8734035971179551,0.3334868186062797,0,1,0.8703116150444231,-0.04939387554101208,0.13370072920260395,0.2928090355387577,0.0469809412813125,0.11906452323942725
429,0.8793315570555175,0.39637802556779506,0,1,0.9045217038539536,-0.04951409523995918,0.12368544959015408,0.36047924913080104,-0.013209965651972876,0.14198023892069198
430,0.8897414580570946,0.46357632398356713,0,1,0.890632822376405,-0.04004479182763949,0.08764064533979257,0.40865253774622373,-0.08826556157438241,0.17248622616145093
431,0.9052046910468255,0.5311479499301152,0,1,0.8654730666865754,-0.02558031056149135,0.07692446154423446,0.44016073203220296,-0.19340681603044974,0.20125064371810944
432,0.925957955944199,0.5954417655377333,0,1,0.8694382718949953,-0.015302081248431765,0.07658456692760066,0.47297776549654885,-0.23033881466241216,0.22511136463186526
433,0.9516981718257262,0.6534008968326785,0,1,0.8910805240004688,-0.021946551988835324,0.13454121708040806,0.5271765616344946,-0.21946013687730667,0.25037998227300107
434,0.9814559205477068,0.7028500609579617,0,1,0.9289786304982249,-0.08932860265174399,0.1491006132641592,0.5879766814129339,-0.22352208618376623,0.26846187086637935
435,1.0135831941262026,0.7427357461201931,0,1,0.9223995822482223,-0.15024516150054906,0.07824744720655871,0.6469423002378243,-0.2729667973778924,0.2817355114259333
436,1.0458739999926294,0.7732884645369983,0,1,0.9202750757182935,-0.12910202986598118,0.06119318291593475,0.7958157885172747,-0.384820046099942,0.25229150854435584
437,1.0758143907735245,0.7960707901064472,0,1,1.0162976193513382,-0.056956200103378214,0.06062965317683896,0.8426648414774671,-0.3599033644558149,0.15367361529790458
438,1.1009321925609605,0.8138788993822095,0,1,1.120699818203876,-0.0051517583363519664,0.15135653314552908,0.8551926916753246,-0.31242279037759446,0.0395311300557131
439,1.119187319722101,0.83048547745016,0,1,1.3012239484105872,0.030357200691140472,0.18458871416994913,0.7256367576034555,-0.2177617214911017,-0.0762571201375552
440,1.1293186691451782,0.8502464216355102,0,1,1.3760021055905067,0.011928302993210222,0.29845142158145305,0.673556768635242,-0.1186299663690419,-0.2771734264164579
441,1.1310577989086164,0.8776294123415377,0,1,1.1985218267557738,0.03445317052561199,0.3812022740376912,0.7979478035818359,-0.06846852675424689,-0.3682744007207938
442,1.1251456001929478,0.9167423331357579,0,1,1.0107256834549418,-0.020171528782067072,0.39915105645069215,0.7484966773945748,0.06136570720454729,-0.28170852653346945
443,1.1131434607942685,0.9709365863663991,0,1,0.9043598985378662,-0.1477340233752464,0.37521922445773825,0.841570063985611,0.04677979313779266,-0.18719884726403627
444,1.0970929404300223,1.0425397496286166,0,1,0.8810627020021178,-0.23049675529835625,0.30718841113374185,0.9230703453009791,0.029336182872734477,-0.1513089923419652
445,1.079118999543227,1.1327416932853953,0,1,0.9164824940661344,-0.22757964047091175,0.2841586953561506,1.1480524135304917,0.03211786492747304,-0.17010886449569745
446,1.0610759313925517,1.2416230910499,0,1,0.9610859364467348,-0.16202625401095994,0.24024039623745574,1.3508904280067286,0.06618900198497356,-0.17608907290818432
447,1.044308031363043,1.3682821281985162,0,1,0.9874172573772405,-0.11281497694021811,0.23639586451694583,1.4768540976358744,0.11251660554966995,-0.1196748664887244
448,1.0295564147083736,1.5109963219948777,0,1,0.9957586387000423,-0.12114633209155397,0.2483507522838305,1.5655119578425494,0.1082488876191076,-0.002558730669119558
449,1.0170056249937083,1.6673610999445931,0,1,0.9956900509274866,-0.17009060586104638,0.2215732979099135,1.6654081616947212,0.1058984207933283,0.13104769269606464
450,1.0064372795086345,1.8343721466601457,0,1,0.9831244550398359,-0.20837249053536366,0.20474278523015102,1.8238178017947078,0.11296749824755689,0.24146496034949078
451,0.9974444319884322,2.008450883152622,0,1,0.9917856376740544,-0.18819649995565962,0.18102665466208814,1.9997279146928078,0.10204941867801036,0.30456948047680554
452,0.9896572731086288,2.1854386380553397,0,1,0.9874342752866184,-0.14015652540360246,0.1711902200971739,2.1320407433608075,0.11714485741639544,0.3486313418187293
453,0.9829348342339642,2.360600387268204,0,1,1.0049269524043496,-0.10247725347229719,0.171780785744049,2.236373868698899,0.13072143300020359,0.42892152104736253
454,0.977485711860116,2.528684662530943,0,1,1.0228865164663299,-0.0926505004991003,0.15466324162006181,2.3500868754236968,0.13938121712891083,0.5509925564063792
455,0.9738922150211505,2.684082736023853,0,1,1.0173880626084038,-0.12055665726361547,0.1243461527662397,2.5029320700569135,0.13668325242535567,0.6615571880506135
456,0.9730270046277358,2.821115147498502,0,1,0.9953448501710868,-0.15246414358381405,0.10384256727228672,2.664681797905001,0.1505989855364911,0.7527225271616996
457,0.975869744163274,2.934446656424019,0,1,0.9943006067866423,-0.13293288452091004,0.08029882660094022,2.8382106737228687,0.13165619564523964,0.825308919703753
458,0.9832524209243443,3.01959751491761,0,1,0.9474823762074635,-0.10292481118542138,0.06758851580095991,2.9494242627493774,0.08896871091789466,0.8375372554115113
459,0.9955823400338504,3.0734897462946087,0,1,0.8893430033338875,-0.10191201565278532,0.07439142442575629,2.9449818094736173,0.009065598200811747,0.8120205462433445
460,1.0126059928761693,3.0949500043426386,0,1,0.873794616254247,-0.14177485529990944,0.06489441005365408,2.948042227685708,-0.0725725662557025,0.7737622442352345
461,1.0332789247742762,3.0850858348113612,0,1,0.8964367740915642,-0.19272807147280221,0.08245461453521666,3.0188448471551514,-0.09990207372693562,0.7679501413898621
462,1.055791737078394,3.0474533150647694,0,1,0.943494635251628,-0.19473116211552396,0.13444903104041978,3.168916032708495,-0.0988305170307865,0.8357006317040359
463,1.0777707784651385,2.9879377944458807,0,1,1.005315312978057,-0.14503600181747567,0.18054184072501417,3.2657849360900917,-0.1138377126417884,0.9558612944975377
464,1.0966305947323765,2.914285408235103,0,1,1.1241115022517412,-0.004649620490338495,0.17934358763642072,3.0240433819470636,-0.12993151827931623,1.1225762315591428
465,1.1100143899915895,2.835269889933825,0,1,1.22353333453717,0.08233276881871636,0.2244101484280781,2.6479265931443994,-0.1413671020198654,1.214057676762503
466,1.1162296550879514,2.7595654132037346,0,1,1.2312497199971024,0.16839433981079874,0.2864264037515294,2.350791258638788,-0.10556699736518287,1.0622400373817635
467,1.1145781870774505,2.6945024081251674,0,1,1.230488523080113,0.26402597856426646,0.2814969987321981,2.076512737136414,0.004549720086477985,0.7646712319095547
468,1.1054983108944885,2.6449658210337055,0,1,1.1941711251445863,0.15459074812628382,0.1647738996221121,1.9210219188885886,0.07645516809184486,0.5268813735747533
469,1.090480059638412,2.6127087182224766,0,1,1.056370167537251,-0.06439623763934169,0.09628784381224485,2.0692093958774684,0.023222385882067192,0.41374831331986456
470,1.0717703439901776,2.596275465069522,0,1,0.9762184581172196,-0.24341889248877752,0.04691664560536379,2.4673518602836975,-0.010933985561683525,0.4569271211551701
471,1.0519377670968066,2.5915719527881143,0,1,0.910542682899828,-0.20376218496229365,0.039417840910695646,2.8463881352288185,0.07179049854416257,0.6115521693702196
472,1.0333993496883604,2.5929376975255507,0,1,0.8563642544898104,-0.03810720071875706,0.03317582332674356,2.9435864146309982,0.0698219856706502,0.7128319677380757
473,1.0180150549540148,2.594437001562011,0,1,0.8853794931470323,0.1183960364464706,0.008044046783212452,2.8934707762388516,-0.03079220418260871,0.7239788352614998
474,1.0068314873705253,2.591046185150105,0,1,0.9656087973971683,0.21560202103454515,-0.0042197884663754655,2.8032842014279047,-0.10967419324054294,0.6706503481915076
475,1.000012316107307,2.579476381318479,0,1,1.033825681748365,0.2854734243922417,-0.012364930733675169,2.665141986260922,-0.09797195923422036,0.5819249257195005
476,0.996944472511173,2.558498569979378,0,1,1.013180391706875,0.2670172428098669,0.007952939707566284,2.4701614017497273,-0.06097404993955917,0.46368548509532487
477,0.9964724441074279,2.5287769983664363,0,1,0.9803301685781812,0.1874422776590779,0.04513578681277197,2.334268909429616,-0.14021542450517765,0.39523141871183365
478,0.9971978883381067,2.4923271540626506,0,1,0.99902575397195,0.1113175228282882,0.03450034981066985,2.291278972330538,-0.2133380756407602,0.3895101011923469
479,0.9977855012698038,2.4517728832442036,0,1,1.0327877585762704,0.056645081086597576,0.022381452977525335,2.245928708150572,-0.20793141719597794,0.41469427957506166
480,0.9972278206031104,2.4095815815770516,0,1,1.047777829395249,0.03814356406010967,0.03207796440119371,2.264296711741397,-0.26084664986294204,0.45464863230313485
481,0.9950334844558228,2.367420295744381,0,1,1.0206553140780497,0.029553472611857933,0.041714639060667164,2.254155900913892,-0.24434707250448465,0.5058198629325781
482,0.9913147919676077,2.325720760146387,0,1,0.9750275426422186,-0.022739047524104092,0.15889882121621057,2.252087510719915,-0.20342773862906433,0.5272051034479802
483,0.9867632329492572,2.2834877536101406,0,1,1.032713920772248,-0.054347584011399656,0.24478466763991694,2.2608865454271903,-0.13482182020935257,0.4737157040822799
484,0.9825158982755519,2.2383449614155806,0,1,1.0519104600754943,-0.023899012341994243,0.2673299726017816,2.216622696255585,0.001675639145765931,0.363524710498608
485,0.9799308091079633,2.1867897136759242,0,1,0.9223475863110697,0.054980499534015626,0.22076465381561416,2.201637616971776,-0.04815632724793061,0.2875038470872284
486,0.9803063420695476,2.1246202095063005,0,1,0.7833028800895995,0.15494746420757635,0.17420722480916181,2.0407415969781946,-0.12214654450122102,0.3102226820258145
487,0.9845971507200703,2.0474998856217015,0,1,0.7937717092422448,0.20820076938763576,0.13990013209286692,1.8298293617819255,-0.11896497664107776,0.37563659887591205
488,0.9931863080501079,1.9516243111473779,0,1,0.9578047052467124,0.13016831626404296,0.1642947759214859,1.6885200771499291,-0.07723439417797949,0.4305925778817424
489,1.0057601436335621,1.8344451695648287,0,1,1.1185688638390126,-0.009398910705061032,0.1900774261243255,1.7620067120510459,-0.037445242196580734,0.46015770804710077
490,1.0213018305007509,1.6953758038544047,0,1,1.089343392096607,-0.10941117794975437,0.21986028636180796,1.818083470656105,0.13308079287716473,0.5291343571919701
491,1.038191505441784,1.5363599587991688,0,1,0.9331452227743731,-0.08741220092771225,0.26087599416498597,1.7667854447435103,0.2361262407836497,0.6336751366129024
492,1.054392036988853,1.3621547211432803,0,1,0.8233106386371244,0.053824164794666306,0.2279428691786491,1.5956778602688948,0.21597820861162637,0.7154669784521506
493,1.0677073946720272,1.1801907778732108,0,1,0.8573122302657844,0.15602555983195757,0.21696145772661665,1.2272773397104735,0.13065018850949356,0.7486292233271582
494,1.0761034161911023,0.999942416680423,0,1,1.0493226508496785,0.3270220554783021,0.16501184315122314,0.9212393996601062,-0.05325398033088635,0.6246372724532586
495,1.0780611129072346,0.8318528443824855,0,1,1.2589974760691534,0.40239258730301847,0.10511838291615283,0.5394564666016947,-0.054091125710285896,0.342607759468707
496,1.0728973841747034,0.6859817745000791,0,1,1.3311631819124417,0.20522815975377198,0.0838844891964225,0.15470548042954077,0.0561517008262357,0.14482220925430053
497,1.060965741044284,0.5706287677602416,0,1,1.1571660218479913,-0.004039730501359823,0.056450690068648585,0.1086892381832447,0.15859722232855847,0.04208675788901996
498,1.0436660395599924,0.49120345879463506,0,1,0.9920234692635991,-0.13943996946955636,0.08830841473922116,0.23389084964813245,0.1691576301273493,-0.033222635462012526
499,1.023246164481026,0.4495536682989847,0,1,0.9284536313160006,-0.141808507798549,0.09899800466115595,0.32750056618567547,0.16972652497196636,-0.02140618647151584
500,1.0024422916619744,0.4438487368593238,0,1,0.8719325833863809,-0.059249326411967104,0.0880783371044078,0.4077172680812002,0.1614563355780438,0.08842565473271373
501,0.9840463138326868,0.4689929205178908,0,1,0.8634532481207532,0.0007655603968754578,0.06912800362562228,0.47025140925725073,0.07566345334465077,0.21217115506395595
502,0.9704954913641473,0.5174501833891766,0,1,0.9268778099324946,-0.003717364308717362,0.037033614874562686,0.5123948673744101,-0.02131821081424845,0.3414578887762421
503,0.9635565363083815,0.5803115215491934,0,1,0.9722796408385971,-0.048348409519725605,0.01471417713948769,0.5903710928959626,-0.05986830619725759,0.4248018383996898
504,0.96413985183552,0.6484249340120988,0,1,0.9769998069650745,-0.08530636810533981,0.01828869626554181,0.6663050519564292,-0.048657291428801555,0.4112542247055228
505,0.972245305067545,0.7134266255113777,0,1,0.9739276844821023,-0.08430226170520283,0.08693594310651559,0.7128016800702652,-0.010064403856121016,0.36766367157892654
506,0.9870187877698455,0.7685507270569252,0,1,0.9929888145953447,-0.06606550712305541,0.15869990668482345,0.7829188600087484,0.047502645064629825,0.3284653337379828
507,1.0068906336084187,0.8091443465757755,0,1,1.0289911596753547,-0.01908108418636804,0.19037102951787083,0.8503142511713652,0.050452577940294376,0.26340398587001146
508,1.0297685315725869,0.8328656815718543,0,1,1.0308256525599382,0.02226213642451237,0.17368846779576447,0.8594186055223211,0.05186322044977663,0.1509141460474379
509,1.0532641056024699,0.8395885416211177,0,1,0.9638085546998493,0.051926519416436674,0.1452146884833595,0.7786681479426999,-0.015339954601522363,0.0192322604153067
510,1.0749400694105398,0.8310734678110993,0,1,0.9389580717556077,0.09612866529238531,0.2023881246916377,0.7401049309686115,-0.11620163402914908,-0.09215283146196213
511,1.0925686092172582,0.8104899761960105,0,1,0.9886115059138438,0.05810776646250087,0.30341493511961004,0.5974881614101741,-0.09491060227584851,-0.09389759105989044
512,1.1043851367851771,0.7818805706539264,0,1,1.1825725778735967,-0.0910270695852915,0.34237603346180784,0.7018329525283122,-0.23851833346046827,-0.006460238394517417
513,1.109304541671218,0.74964149265545,0,1,1.288722799301458,-0.09501467481854521,0.2927581845929108,0.7847846370454034,-0.24549907409807514,0.11867894106115018
514,1.1070514664166575,0.7180630421268316,0,1,1.190172963416949,-0.06073226587283945,0.3246275636833821,0.7813051203802734,-0.1886398009041563,0.130996983078971
515,1.0981600690653501,0.6909396661315533,0,1,1.0531120574189121,-0.013213342854565675,0.3395040029656958,0.7327337722877947,-0.09492347243643873,0.03910539462310442
516,1.0838300842437343,0.6712443372166345,0,1,0.9151463606505036,0.016065955714288073,0.33417800341378323,0.618052535443565,0.0332807963402476,-0.057379509530262024
517,1.0656719814393025,0.6608678466266957,0,1,0.8703512193688248,-0.0343510806273326,0.29955313160113545,0.5703206156620935,0.10715320460986756,-0.10225142689124055
518,1.0454095829531833,0.6604398300246299,0,1,0.9140410382609586,-0.0806021049244851,0.2643374675596159,0.6171509443392088,0.10835451479457399,-0.06134733909153759
519,1.0246152952734389,0.6692580097224731,0,1,0.9689745365698205,-0.14721343905936798,0.261943280844618,0.6420703935541555,0.05432444964464535,0.03771821168421078
520,1.0045313156114197,0.685347731002853,0,1,0.9886387988165467,-0.15425233328749005,0.2702567996871305,0.6539939964851841,0.03122857441716549,0.12442752903826994
521,0.9859953593771777,0.7056595360296324,0,1,0.9625366868165547,-0.1108788651464377,0.24886592154153958,0.6250246420834253,0.002545194485616401,0.17052221369084727
522,0.9694598890867012,0.7263959493466995,0,1,0.9360370271284004,-0.07170159963817987,0.2330925407989028,0.6480706254919787,-0.057994729216843115,0.17360363754542296
523,0.9550788827088026,0.743443107165948,0,1,0.9280092677299391,-0.03372888535563192,0.21491891683067088,0.6946459590348115,-0.09242981781086064,0.19212396491000908
524,0.9428337096702349,0.7528671581344003,0,1,0.9174749639904353,-0.00814106285942656,0.19904872379017566,0.7497363535112294,-0.11460511948814531,0.22689912427761727
525,0.9326722171275531,0.7514193279588373,0,1,0.9260828270322783,0.01253496451716152,0.18511210387438104,0.7599621037878981,-0.12883950805252797,0.2829819219987418
526,0.9246373498304561,0.7369814581923602,0,1,0.926000654824952,0.032897238871062516,0.16377265412972106,0.7447062950068584,-0.16143562425727292,0.35101002079913785
527,0.9189628163000604,0.7088822768121803,0,1,0.9571054051767737,0.041164152103697726,0.13331093008673264,0.6970723217698092,-0.17662348316236973,0.39510357694055925
528,0.9161154966551023,0.6680278852087288,0,1,0.9495629277637648,0.03720645365127543,0.10695387866613221,0.6319981593395132,-0.1597309386076418,0.37299899497083416
529,0.9167698554491772,0.61681735506638,0,1,0.9535181046972474,0.02093076569191051,0.09714696257948922,0.5632420594584714,-0.13017988572096514,0.2961451812509534
530,0.9217098985942859,0.5588507359677011,0,1,0.9402534034171377,0.003783782764021456,0.09304075520481975,0.494069405562858,-0.0980953298383416,0.20899900541043162
531,0.9316685781411795,0.49847391417012854,0,1,0.9216633154092926,0.011934531281395112,0.0961847755558247,0.4221970940564187,-0.07331844080911894,0.14848917140276693
532,0.9471303132668321,0.44023369400085893,0,1,0.9147023094836451,-0.005303595127051139,0.09688814081463928,0.28081086235650604,-0.10880803967949505,0.13977106049640972
533,0.9681355150942469,0.3883304097167718,0,1,0.8854855104916675,-0.05558127636704872,0.06907661483031709,0.12444976524849727,-0.16066810038292206,0.17375512916067878
534,0.9941325268131437,0.34615123034333745,0,1,0.8775102728800089,-0.09946265173013089,0.07053780471145787,0.06670736283967815,-0.2173693727342573,0.1823679410037011
535,1.023918628315007,0.31594608022439763,0,1,0.961647045621633,-0.10227817796437273,0.042769908944637905,0.11971181565931514,-0.24223959963190364,0.12823993386692803
536,1.0556959419671474,0.2986755650590927,0,1,1.0496748307070733,-0.12629460214090177,0.03456019715886314,0.15315139714964873,-0.2658227952511397,0.05129654924248553
537,1.0872427125083108,0.2940264632787824,0,1,1.138394899934182,-0.11732358961608984,-0.013049443229472603,0.1188234592185797,-0.27143814238445324,0.021576114317987963
538,1.1161735141610862,0.3005648187376878,0,1,1.1010447859547283,-0.15172565743675318,-0.0175083197936924,0.19416415762080522,-0.2561218452772154,0.003961442780104382
539,1.140243073471691,0.315983462553422,0,1,1.0768519074526661,-0.09785716929018311,-0.04927809672830808,0.2972130432671568,-0.23111372671143388,-0.02157405589296956
540,1.1576412766124227,0.3373982904341097,0,1,1.102432262724854,0.0010226552071019605,0.31651198543896797,0.19299135864456812,-0.2833854754223575,-0.07433301576833352
541,1.1672270559460458,0.36165269798509153,0,1,1.4973173700506457,0.2165356124371616,0.4668686763150664,0.06513986746951154,-0.3486095187664334,0.1680023228287309
542,1.1686529003350026,0.38560000502915914,0,1,1.2373483676638484,0.2706378197579355,0.2834138905780003,-0.3653342059794098,-0.2218567154504202,0.25727796114296475
543,1.1623476264821724,0.40634761976877815,0,1,0.831825511634889,-0.1266196139540185,0.2592192791032071,-0.12222993616396684,-0.15109653043269988,0.07901050729216601
544,1.1493616513025333,0.42146100050897783,0,1,0.9454824679251268,-0.2648166697551902,0.25196485370711025,0.1816806863934245,-0.18500866301641442,0.08805925635356043
545,1.1311232199137442,0.4291334180573959,0,1,1.0544700723765978,-0.23809963500694456,0.4158844813956902,0.41893302127822135,-0.14798694452780908,0.25770977709870224
546,1.1091755382824116,0.4283209440827428,0,1,1.0670807488656993,-0.10339081849980732,0.4275416518800486,0.4308106615130314,-0.03436328797608681,0.4201125513715904
547,1.0849516506126522,0.4188232434228998,0,1,1.002000902568207,-0.01482484288108704,0.3910706633887325,0.3759244648410251,-0.04370182297855112,0.41372633764167865
548,1.059616354386083,0.40127824648497235,0,1,0.9389155068149383,0.04966224625933587,0.3140966644785203,0.298966028796315,-0.06705269765540223,0.3017842846778668
549,1.033986030525816,0.37705086892902484,0,1,0.9163655718672157,-0.00835278516468342,0.2810796572613699,0.18947348327645533,-0.010916976601459894,0.11321058951378159
550,1.0085297357606708,0.3480288699597958,0,1,0.961593632052475,-0.05026220542997804,0.2789943038854358,0.2688149658739891,0.04050674657419451,-0.03141769067731266
551,0.983446727791855,0.31636933729577815,0,1,1.0068075127606027,-0.07212430238177849,0.2513074652758979,0.2911795962925041,0.02625527522095932,-0.12307462056518703
552,0.9588018331178104,0.2842473326849262,0,1,0.985116001567709,-0.008414417487027516,0.21338373707121402,0.2875954083511522,0.007686381316031988,-0.1301809764971717
553,0.934687227989125,0.2536446344004671,0,1,0.9215596858951834,0.06253784309459824,0.1991325989560843,0.23482373602854723,0.05048771807653298,-0.06198918693244445
554,0.9113757477273847,0.22619726098999554,0,1,0.8671972639714621,0.04941261026281288,0.20011053169335555,0.16513977586139247,0.08031049825700744,-0.05427265603126582
555,0.8894375811314452,0.2031084649745277,0,1,0.8660301242549568,-0.008263448168459836,0.18592166637548302,0.08003916120690462,0.06035343793310314,-0.08859487388606527
556,0.8698023667522937,0.1851287999231995,0,1,0.8824745785302361,-0.08010706123231083,0.15882895640811645,0.07960531400801996,0.04117557422148906,-0.14678580649393325
557,0.8537557425558849,0.17259910038050974,0,1,0.897179974880939,-0.09594665674885697,0.11631634393189079,0.11911378461574232,0.04450634082882302,-0.18944972180076844
558,0.8428631096941449,0.1655422583892004,0,1,0.8605341651375013,-0.05292330597256446,0.0800876562091236,0.13336566430151628,0.06878084869061826,-0.16213730152197484
559,0.8388183425703235,0.1637801222036294,0,1,0.8537379832924953,-0.02392694138254192,0.07580279983873577,0.12999890796129585,0.015900011917919604,-0.07306824097320345
560,0.8432247677277118,0.16704962571963614,0,1,0.8845271985332542,-0.02855641921601879,0.05540142801224582,0.13731777366479841,-0.015123949035499592,0.00454039141675752
561,0.8573289542898853,0.17509821491234756,0,1,0.8654594967264913,-0.0007803789157023758,0.04753217901354782,0.1371030380427261,-0.06840663130757421,0.04476097881211858
562,0.8817416103485302,0.1877462708684697,0,1,0.8361555829518207,0.045856463182308696,0.04968865962834589,0.0851530616026598,-0.19296616058247043,0.03788703029362721
563,0.9161915437485988,0.20490732924053073,0,1,0.804626546806598,0.08182656248694924,0.06957184603855421,0.0018663602204491653,-0.29156251265583993,0.018051429461026978
564,0.9593649482965296,0.22655660499846092,0,1,0.841804456739661,0.05071429824437403,0.11417028310499353,-0.08698446702571037,-0.2806952128226995,0.027682503149406346
565,1.0088781038969574,0.25264166449054015,0,1,0.9544031943972657,0.016117506606128283,0.1241229225872541,-0.12310369233018179,-0.22381690688279707,0.05460807883509547
566,1.0614134261371124,0.2829413033711921,0,1,1.039143327160239,-0.012335630254466568,0.08469261405197405,-0.030146059419182508,-0.2391359633747696,0.0510717819308107
567,1.1130196223898507,0.3168974326056741,0,1,1.06353611808143,-0.03251420564885457,-0.05657757029639459,0.04540835371830607,-0.29791432644696153,-0.024390706737751795
568,1.1595449617677245,0.35346152642446405,0,1,1.0607506481215334,0.04986725001205003,-0.06010791973597072,-0.04355662046522234,-0.28297109969729833,-0.04308793720031876
569,1.1971451978568146,0.3910042064865209,0,1,1.2442852081146412,-0.017295994797570945,0.031753031942903485,-0.15061534182571862,-0.23442196909018775,-0.0301829914430111
570,1.2227857287730328,0.4273311738240678,0,1,1.4429413262028778,-0.10024159633743078,0.3288866436839543,-0.26953544895863,0.021493215029033876,-0.11641960260053719
571,1.2346432702734773,0.45983119690994284,0,1,1.5725990770302427,-0.4042744281974782,0.38445576241198515,0.0789508503194892,-0.040296711398567345,-0.4031184097129853
572,1.2323176042844557,0.4857531451025063,0,1,1.1372794373201034,-0.22082611675011085,0.2635906757961648,0.2528411280187802,0.022512593477949483,-0.5269400453134899
573,1.2168035732357427,0.5025740590556389,0,1,0.9062613627389438,0.02618582747981073,0.36396953226763246,0.19671051397921985,-0.13802779412002694,-0.48023551027295286
574,1.1902416108997242,0.5083904476844049,0,1,0.9997872533835033,0.07014042659512021,0.36952270881937804,-0.002495775600648527,-0.07137510630980265,-0.5434819562433717
575,1.1555269633196033,0.5022520363906561,0,1,1.0184269427466122,0.13991220660945464,0.42477312550404656,-0.26164977810452983,0.15045321537655065,-0.5662156221314102
576,1.1158781129677562,0.4843641341020863,0,1,1.0601842942400088,0.10855065213572324,0.3756488429996455,-0.3234523468190808,0.14372071989950683,-0.5526284658832152
577,1.0744423538678982,0.45610769068814117,0,1,1.0707017204425409,0.003036357000030819,0.31859778442115644,-0.2890812366731898,0.12613295270323852,-0.4432631205142431
578,1.0339793873126304,0.4198615877255672,0,1,1.0169934543516241,-0.06871717817541169,0.259821459616853,-0.1809286008004417,0.15277250217894184,-0.25664718241494255
579,0.9966384903009865,0.37865579955744916,0,1,0.8825269944576997,-0.1184753295109538,0.252652783975077,-0.1761171546090466,0.21091999503472725,-0.14128506021956694
580,0.9638368031897591,0.33572554153314316,0,1,0.8454204320332693,-0.10883695212221116,0.2518472973040454,-0.18785491179666278,0.19313857712835786,-0.06872508395115773
581,0.9362457813535446,0.29406024865953473,0,1,0.8541584666475244,-0.07062000288418394,0.2233341260721104,-0.13698261016758262,0.07819446905853125,0.019761398564247447
582,0.9138877252845707,0.2560398087379227,0,1,0.8808073920786723,-0.04265421862766515,0.1813191905553578,-0.03718231498822164,-0.03831582350686759,0.08383294138959241
583,0.896329541260717,0.22322731517091046,0,1,0.8919972621408689,-0.0313964706025751,0.16468317334951482,0.05700192318639845,-0.031335822172146914,0.12361714134539868
584,0.8829408193508946,0.1963496353599152,0,1,0.919120361166813,-0.028824747139751666,0.159901601189294,0.08404838974149355,-0.021533040048779196,0.18564317951392048
585,0.8731666280977916,0.17545138360463983,0,1,0.9304528153878647,0.0007048878638891757,0.14190747383370533,0.09878737935502743,-0.03274763477270451,0.24559235046956943
586,0.8667587937318871,0.16016517149527867,0,1,0.9212148439137747,0.03309310005363264,0.12478557074251909,0.0911543621717248,-0.03344608013979674,0.26415027521563533
587,0.8639151273151047,0.15001503333818778,0,1,0.9279898000322929,0.04158710444080182,0.08966740879815513,0.033742104063835314,-0.005348299920388279,0.2623028101491707
588,0.8652927158121497,0.14466971612132906,0,1,0.9146807632965699,0.003139936330090453,0.08132721164146361,-0.04939326951038679,0.0645889178552609,0.18916099405354694
589,0.8718854338762044,0.14408642685257217,0,1,0.9162623950927079,-0.031621157025854045,0.07030835057761206,-0.08480995740301786,0.09117910487995967,0.07824888717563828
590,0.8847829995108087,0.1485226687032329,0,1,0.8868452469621203,-0.03898975592793216,0.050105930485346645,-0.07510791182799292,0.07335162587262899,-0.011949372454300836
591,0.904855181400915,0.15842973156698253,0,1,0.829659165137525,-0.061517837235269816,0.03078591694193959,-0.11670268724226068,-0.059400465876369685,-0.03331191379664816
592,0.932425859904757,0.17426529796477622,0,1,0.7781218050984089,-0.13129891447537934,0.024644499958022772,-0.08433212069968817,-0.16782869794530314,-0.019626052545282647
593,0.9670117637610702,0.19627135974349233,0,1,0.8354926542471193,-0.11280738023512162,0.08214231738975261,0.0272436283267634,-0.20694477575395415,0.001731261198128388
594,1.0071936859787856,0.224262017102164,0,1,0.9295151904117737,-0.1410515063173233,0.10189497844861835,0.07202861699123693,-0.1613043630701707,-0.011239966700509554
595,1.0506618662239133,0.2574610504942749,0,1,0.995903938151386,-0.12566182776441642,0.07143599714752263,-0.01183799063456945,-0.1308127296043725,-0.05961960007674058
596,1.0944381446662466,0.2944240157835377,0,1,1.1004508224484035,0.010653760512751489,-0.0388221571623064,-0.09476889145792167,-0.2741270809906581,-0.04255524583789653
597,1.1352371410454216,0.3330704729893333,0,1,1.095709358159391,-0.07472576503740097,-0.046897351545270555,0.023850839810182413,-0.24851776296036604,0.013949311880479251
598,1.1698970525092844,0.3708351845400974,0,1,1.2768605316862682,-0.03579791621520207,0.2169474513156651,0.02058299621626022,-0.2732131342026584,0.020672613622163383
599,1.195792595764623,0.40492405167425216,0,1,1.5910369018528274,0.2116485343452315,0.3257785093493425,-0.2323715126061136,-0.3892649696498169,0.2987213438984146
600,1.211142992252115,0.4326365094246706,0,1,1.1998056265909887,0.05133345697428317,0.19638240472177318,-0.35974615752924943,-0.20559806736934566,0.42164913326453746
601,1.2151546062780574,0.45169898663373237,0,1,0.9547426317086288,-0.12490435509079637,0.174851814251647,-0.07628148060611,-0.166577260514957,0.30746771107606735
602,1.2079895579246398,0.4605522469173039,0,1,1.0331422731468194,-0.21248135558086736,0.3736625820205746,0.16383453538295073,-0.11082563186550551,0.33144505003582886
603,1.1906042517966788,0.4585487859063478,0,1,1.151946383807884,-0.06908128962138646,0.42600074898198964,0.3284919243285472,-0.048080204968067836,0.48854264054679886
604,1.1645245605634358,0.44603289781548333,0,1,1.1307026672232334,-0.03653212277119495,0.3879114378814587,0.26789624311051125,0.08742353363537468,0.5680788412580329
605,1.1316129334548934,0.4242873483353826,0,1,1.0601198699598915,-0.012210652696144563,0.3213671609823669,0.27535840452874555,0.07656015166648789,0.4453708936755376
606,1.0938602197885094,0.3953452822006015,0,1,0.9885554757533338,0.0037790529587486826,0.26643058763042965,0.16978257579174524,0.10472342888916394,0.2162476011365415
607,1.0532212106232524,0.36169464623112274,0,1,0.9758043713080619,0.019748290705885463,0.2542130737447351,0.14618909276998782,0.1174076430438536,-0.00423931642484888
608,1.011506606733693,0.32593648940635994,0,1,1.012887083044393,0.014562062223148804,0.21851471402750905,0.132469105700344,0.11539774191494799,-0.14312820026363987
609,0.9703359050332937,0.29047522959671956,0,1,0.987456003693191,0.025563023086357915,0.18474978990363317,0.10224375935463381,0.1625602645166245,-0.20293458533086803
610,0.9311440037911355,0.25730558665745495,0,1,0.8991126398857324,0.0915117866475372,0.17147401731243814,0.03737315399065609,0.15320553678939328,-0.12231099147214967
611,0.8952252208681134,0.2279264231900211,0,1,0.8368107142614952,0.08782879494825208,0.1685257412001251,-0.08572427387036649,0.16738982618093207,-0.03492084051184959
612,0.8637956497516894,0.2033748963173349,0,1,0.8293388788689804,0.02588759840104339,0.16148879828758053,-0.18073283334160062,0.14625003933961792,-0.03554945235962988
613,0.83805509077052,0.1843465702244198,0,1,0.8455938408680066,-0.035352661768409184,0.1506720299267802,-0.2387456961780197,0.12439996258737554,-0.076201810827863
614,0.8192281697232926,0.17135088197397738,0,1,0.8879627419388024,-0.08405817914582482,0.12380752712377806,-0.1566440355255942,0.1271478425546131,-0.12077522825146943
615,0.8085610996673765,0.1648477695052081,0,1,0.8897281063535045,-0.07075461943630526,0.07236085994296108,-0.0691539937764873,0.17845655913926717,-0.1345815411512284
616,0.8072520202550771,0.16532197514119304,0,1,0.8545661255698621,-0.040174828451961485,0.05316980031827827,-0.05649755308768409,0.17441268067944057,-0.11328035862711697
617,0.8163047402191626,0.1732740574813192,0,1,0.8325099718872468,-0.00040415953308556513,0.04117028538801334,-0.07624196633667256,0.0939221154189773,-0.07653669492180662
618,0.8363175390223345,0.1891339405873946,0,1,0.8128829430370164,0.006918757723164618,0.020393000522340003,-0.07846502024804541,0.005592901580067794,-0.03396655294055652
619,0.867243353456729,0.21312455845077052,0,1,0.7889920328672964,0.03421150946592227,0.04925716540092097,0.00798911512246974,-0.16342042922537675,0.019172436073732892
620,0.9081759373785075,0.2451120395501897,0,1,0.8160415877064379,0.07937231149901548,0.09157763082816009,0.0700636003182359,-0.2993900771123751,0.08320130760203101
621,0.9572217448031347,0.2844731275615726,0,1,0.8786899482737525,0.019317743634080942,0.10218740357248542,-0.024886544012756213,-0.3007940964973216,0.11709187162688259
622,1.0115072979124458,0.32999785326675185,0,1,0.9567258911936419,-0.049126327983401524,0.06333969435795679,-0.15861318258796847,-0.2813081835289506,0.11939504532393229
623,1.0673493280512891,0.3798379760731643,0,1,0.9926500759236464,-0.051020206934355446,-0.015139891959697798,-0.07475202799693684,-0.3144378891720775,0.07654630271721728
624,1.1205856642416947,0.43151441654822353,0,1,1.0205158135912926,-0.008291147716875795,-0.05212997749383981,-0.07846603767838228,-0.4038077936505068,0.030436806229986946
625,1.1670336288178174,0.48200353540731006,0,1,1.1068617612553382,0.05051391690499791,-0.024932377611080518,-0.17210440959646695,-0.24810671283469188,0.0347557941450482
626,1.2030114875843627,0.527922257665084,0,1,1.3128757406612646,0.013609513095758004,0.3326696962506066,-0.4645283535745081,-0.08062249088441958,-0.02147194958613962
627,1.225830131778864,0.5658189981562586,0,1,1.7081821838584619,-0.40623721244600575,0.32251093284258353,-0.12501446987766532,-0.2042369504554904,-0.46782595991932835
628,1.2341487545397842,0.5925511846706376,0,1,1.216993485587145,-0.22471072316835541,0.30084641815117064,0.29998686420134896,0.03935466077357099,-0.6847711336692579
629,1.2281094579883474,0.605699098452739,0,1,0.9453343232130264,0.0527023140873952,0.3799439324804904,0.15095124646638713,-0.17768153153218408,-0.5603297895495374
630,1.2092263549282205,0.603943554267429,0,1,1.0450477867723467,0.059219081579519765,0.3690375906184191,-0.11966592871445142,-0.02935863797502315,-0.5958068150650997
631,1.1800760662776055,0.5873311310169731,0,1,1.0530319472373357,0.12679298611471385,0.4235323356859103,-0.43985012941866225,0.10670026273810035,-0.5879197458309651
632,1.143876966174757,0.5573635022470413,0,1,1.1289632362253703,0.10706052521995549,0.34035297423782257,-0.5575291668916101,0.09685949954709533,-0.5501988404641434
633,1.1040413583003006,0.5168713026121541,0,1,1.1005125974904288,0.023807354936406212,0.27044159114152444,-0.43634811591834627,0.1306170986938617,-0.4393374337761762
634,1.0637608149699422,0.4696686780410498,0,1,1.0139028023030463,-0.06465837004274594,0.2216754234009572,-0.23302920606778282,0.15382109661187773,-0.26268797233609603
635,1.0256666836049915,0.4200332791485148,0,1,0.8836045454950787,-0.1367346363602154,0.2196627854418778,-0.1435296722094473,0.20279717349853352,-0.13703742111638034
636,0.9916012820629077,0.37210565170506826,0,1,0.8311224831363085,-0.16207187230651712,0.23297719015012452,-0.16163770029204805,0.19634253266034093,-0.03801075695418252
637,0.9625300061559441,0.32932953392834036,0,1,0.8435686236344584,-0.15359193311955957,0.20770147853975293,-0.08534767054936329,0.09663866380458037,0.06175507127717422
638,0.9386087963989921,0.2940469907650505,0,1,0.9129380637675738,-0.13489398479218906,0.16874206912095085,0.0831107055809394,-0.009364325040210246,0.09514879763403254
639,0.9193931436377597,0.2673235013186481,0,1,0.9606660560226389,-0.09137205387387992,0.14567111001639058,0.21383506245992728,-0.002413154658914412,0.1180222443552842
640,0.9041429071666125,0.24902169863387016,0,1,0.9602950455339005,-0.029695145973595953,0.14318379758226912,0.2777803422900227,0.022250224632914508,0.15606232915062654
641,0.892154595822685,0.2380841880897239,0,1,0.9537940178618247,0.015596204145263944,0.1413831657322898,0.2740705960184518,0.021849608985650328,0.1923827727153827
642,0.8830477428334238,0.23294204792529957,0,1,0.9531336693336694,0.020066657204117974,0.11718266691625508,0.2444854547036568,0.03388974515364808,0.22016482150532418
643,0.8769445197967481,0.23194856331402344,0,1,0.9332641701644182,-0.0019169503409406496,0.07571611605562999,0.213952008909784,0.0490925347001665,0.22754627099432964
644,0.874505979339555,0.23374872885454026,0,1,0.9080985383169214,-0.023840840826716732,0.06384371690362523,0.20306940361905554,0.08092799816313227,0.18171745477798873
645,0.876817497412137,0.2375246036290056,0,1,0.9096626461123178,-0.02998318529698036,0.050277498500449325,0.205645778476837,0.11533664451783641,0.10122629902527161
646,0.8851447784849464,0.24309204954303962,0,1,0.8891711650664204,-0.021008467954090386,0.029975417868961268,0.2283229545473456,0.10143237579974242,0.022128072359510125
647,0.9006065052621759,0.2508559315060518,0,1,0.8502420175104712,-0.03382805409426726,0.027773524633746553,0.17518555429400542,-0.012314416441379495,-0.006384035369106453
648,0.9238276696151833,0.2616527796396607,0,1,0.8017178192423667,-0.10392473548242685,0.029610999819673675,0.21110879146449052,-0.11144496938393048,-0.008550828549349106
649,0.9546458197935718,0.2765197057151752,0,1,0.8378121467354039,-0.11638729544474548,0.08512156496242147,0.27820841561367887,-0.14056967612409088,0.013729665933614557
650,0.991937137956562,0.2964271265235716,0,1,0.9047351978651895,-0.1589436385675063,0.09052813730023836,0.30721494939975563,-0.1770070476989705,0.028229059297391935
651,1.0336085072754273,0.3220064697102539,0,1,0.9580359066864287,-0.11189027403057115,0.03624080097240444,0.23912499552458477,-0.1720497390963805,0.03641568606149856
652,1.0767689606784006,0.3533006196645565,0,1,1.068287384676269,0.022153016938456113,-0.01973336381590423,0.16259757707216801,-0.29712210637236897,0.040944385251900965
653,1.1180572639645467,0.3895677844618494,0,1,1.113002618006596,0.01577874288271753,-0.051484035534786546,0.2510577612665265,-0.24915019547728243,-0.026112744060272898
654,1.1540702124256923,0.42917430221162955,0,1,1.1570355341057375,0.032822496640274174,0.18266271747951082,0.18186244945817406,-0.24344280191929898,-0.07376764761957227
655,1.181814026495771,0.46961127687329474,0,1,1.4632838662582992,0.13379847072005396,0.17075440285990356,0.06486053769998457,-0.3517323620094607,0.19550113179675968
656,1.1990933451278323,0.5076592727509384,0,1,1.3010450195200622,0.037890909416688795,0.13785542555047436,-0.051892070300804095,-0.24763223438136933,0.4063072167311233
657,1.204764299511396,0.5397043937426929,0,1,1.1014503460900085,-0.12050188781369649,0.1799850928667027,0.1475955086705426,-0.11628380767424032,0.38420928337306254
658,1.1988118580278984,0.5621813107298146,0,1,1.088997597312465,-0.18201746460243418,0.3475938145740755,0.2850565832704652,0.036578974506666216,0.4089091963009506
659,1.182255767236726,0.5720888040384734,0,1,1.1855973725918012,0.0141425053534739,0.41862506463585586,0.348044595139701,0.01447405937656853,0.5932604257880782
660,1.1569238719933779,0.5674955351850088,0,1,1.0874073130928674,0.0879095594583181,0.41002842398633277,0.3562526956295113,0.20186865459206446,0.7235690086724336
661,1.1251467245377849,0.5479360805144243,0,1,0.9695484407173629,0.03895663256345382,0.3493088901190304,0.37417718843970016,0.27176700715126684,0.6156137570710075
662,1.0894301191913274,0.5146036486844838,0,1,0.9225394722980467,-0.010169256268370267,0.30039741345555887,0.2785903224989024,0.288693301488067,0.40156330049678157
663,1.0521598713418303,0.47028541588217027,0,1,0.9751914445679949,0.006795081850638536,0.2652680579776907,0.1999104006346037,0.2920694008489672,0.17790985037128731
664,1.0153829741028098,0.41904871913669056,0,1,0.9940320957910168,0.04715022841008421,0.2606728891999415,0.1594682036460859,0.29371457061333756,0.035159592157754944
665,0.9806880411659372,0.36574442433471704,0,1,0.977850215522416,0.05974118857504776,0.22312519200768335,0.12603756593766408,0.2743835975785312,-0.01988891543014159
666,0.949182482303473,0.3154242476308443,0,1,0.9678961281672801,0.05465308178606365,0.17453923366735144,0.11202757466645454,0.24036672245426366,-0.048163168957461186
667,0.921545672840367,0.272767742157669,0,1,0.8883132727372925,0.07112896857579747,0.16401089724144216,0.05528731632440769,0.21685765226424508,0.012812401114269682
668,0.8981316318517609,0.24159421145401525,0,1,0.8492493028276427,0.03670600429250105,0.14411139490895308,-0.013626916830198682,0.21049677028584035,0.08041965721122901
669,0.8790973425279375,0.22450925274106534,0,1,0.8493935652596382,-0.0353421951492489,0.14308032267087573,-0.04180763281300275,0.17096324792252798,0.10365341315408091
670,0.8645360315148493,0.22271284574107467,0,1,0.8899408976704243,-0.10501385892667682,0.14179593981735888,-0.010863943582482827,0.11900409336562633,0.1174588401671194
671,0.8545940048951319,0.2359776416376921,0,1,0.9068741625264116,-0.14013120493707695,0.12334965676931625,0.09679099047832161,0.1168457395974535,0.12446582247028205
672,0.8495473199526483,0.2627908191903695,0,1,0.8731810209383939,-0.11138003760196159,0.08744436742640435,0.1812818410267653,0.08811716054956929,0.13954848214667792
673,0.8498169462030529,0.30063805935151255,0,1,0.8529000196727412,-0.07467594767318093,0.0823684721852958,0.23220508620763203,0.04768095211625558,0.16685298606039858
674,0.8559116546992251,0.3463929931619492,0,1,0.8871985406615721,-0.07238687300578439,0.06807334551528513,0.29769652612441067,-0.007679672209732407,0.19851781614970157
675,0.8683039398687453,0.3967618769225459,0,1,0.8764977569897207,-0.06577508832179649,0.05624955237444232,0.367139535969897,-0.07266842234240002,0.24815265242468632
676,0.8872602956354332,0.44872458076335026,0,1,0.8410515766205747,-0.044922772269584396,0.05949490750260452,0.4337865051840238,-0.17385618476448145,0.2874598582448817
677,0.9126594746309696,0.4999124289815374,0,1,0.8557464949852548,-0.026577607803004638,0.0663233735912894,0.46497294037513126,-0.22340910993794585,0.2939112896180518
678,0.9438389851563489,0.5488736297663142,0,1,0.9036400437543596,-0.01229758105067583,0.09362952441819714,0.4364262025451833,-0.1856922042455082,0.2821584205448451
679,0.9795089367323123,0.5951981009835308,0,1,0.9387855205573401,-0.04478167671825555,0.12383517518253345,0.4541097840789089,-0.1361167608634958,0.2602310429739938
680,1.0177627777047267,0.6394998277314404,0,1,0.968195545355376,-0.1284383608517661,0.07321907337934624,0.544582061695955,-0.15792891518910818,0.22638249490910498
681,1.0561991043119312,0.683276244548071,0,1,0.9753659045664234,-0.12835456119805375,0.028110172476647793,0.6936566920834969,-0.18479399211528963,0.18759672981145867
682,1.0921510925533642,0.7286736026995891,0,1,1.0080757256860469,-0.04667666223315133,0.027109763533274718,0.7950730002626571,-0.19458325651040997,0.10185117244708462
683,1.123000984590201,0.7781883319493814,0,1,1.061561680602182,-0.01715614126832582,0.1166092866387679,0.7264123272028171,-0.17597504149734705,-0.0013866129533282505
684,1.1465349913200569,0.834336939445734,0,1,1.2137835963525518,-0.0034054282063536224,0.3325386864153307,0.6516124711603397,-0.172752945274858,-0.12277354598107822
685,1.1612706889410032,0.8993345934769107,0,1,1.5029139634419895,-0.11560479840166395,0.4009376651631069,0.7145521317535578,-0.0644794362968488,-0.4060055316960357
686,1.1666754164152784,0.9748267256635958,0,1,1.3021130632880566,-0.20018765772965147,0.3286356170291812,0.9636816121493089,-0.12532486736772513,-0.4813973001725476
687,1.163208238763829,1.061709207182275,0,1,0.9817689489372803,-0.06582903659727649,0.3639471090757276,0.9942041628319148,-0.06877045354791043,-0.2936589925985981
688,1.1521678434117533,1.1600543981348956,0,1,0.8955771404810161,-0.0941464573703973,0.3463733555335409,1.0729871620016407,-0.01958094270206746,-0.16688481271069522
689,1.1353949482363466,1.2691448842365456,0,1,0.9309435468406451,-0.14425242343283798,0.30918763320446824,1.1476528220890105,0.07607717304107185,-0.1339449532600501
690,1.1149224408153795,1.3876077101088182,0,1,0.9915982622663091,-0.1730446106312665,0.3055185910943057,1.3249542924758555,0.1264154641893501,-0.1035149562035938
691,1.0926659701243213,1.5136307693401356,0,1,1.070859475584887,-0.1569554275088534,0.27910091184539537,1.6036365008527693,0.11864579676567878,-0.022725715762050718
692,1.0702118557277702,1.6452238373857808,0,1,1.0506894681516128,-0.15361341271159684,0.26746390215244153,1.774566332953406,0.17759402378191838,0.10787543966869201
693,1.0487162771221792,1.780467718329138,0,1,0.9952567653347817,-0.14469339450994942,0.2676264857087873,1.8405454814519455,0.19985123086253886,0.2351086159089234
694,1.0289009470970878,1.917691311911756,0,1,0.9897023035626927,-0.13058349537154595,0.25285441223891153,1.9021735181229968,0.17914554156582913,0.3388964889351204
695,1.011119528454566,2.055534743263671,0,1,0.9817954830071212,-0.12183519416216852,0.21917495170356982,2.022783983306695,0.15201337661390815,0.378495885547016
696,0.9954684109978258,2.1928887236915413,0,1,0.9700032332552884,-0.1298661202509213,0.19072834554871587,2.1539641980871624,0.13214247018339012,0.39410180010059814
697,0.9819172642110673,2.328731047428261,0,1,0.9769082080532825,-0.12606757771368807,0.1701757321641722,2.26813031825951,0.12297019495783912,0.4451280445377493
698,0.9704361415337334,2.461901096983797,0,1,0.9705244045646159,-0.10276602374892804,0.1635662585167919,2.372626982717401,0.11590360151928483,0.5344067426385523
699,0.961097609798047,2.590861756747599,0,1,0.9725439619444908,-0.08566482207559814,0.14889281122792572,2.4768520823624414,0.1050310759782154,0.6422013818786491
700,0.9541358563928651,2.7134984340905044,0,1,0.9666356996122951,-0.09224998927318993,0.12663610881076448,2.599121120388528,0.10356960101374411,0.7344301447813205
701,0.9499507388554581,2.8269998191996613,0,1,0.9656884066632245,-0.09134161342874414,0.11206657579640185,2.713754289504401,0.092574576316838,0.7793612094647241
702,0.9490531909452472,2.9278569550764613,0,1,0.9662396051357962,-0.07142994106311987,0.11813980693264463,2.786542538888913,0.09608549952921627,0.7830302006168413
703,0.9519585750200227,3.0120084134193377,0,1,0.9466348917177712,-0.049149196296585894,0.11209710693011359,2.8033340774610545,0.10435963971898427,0.7569195041545518
704,0.9590453696856136,3.0751500611773896,0,1,0.9289150681793813,-0.0535434572519263,0.10772022647502767,2.818629293370885,0.07734625007753011,0.7242003597204878
705,0.9704062528171419,3.113213795006316,0,1,0.8933097754287375,-0.11191704051747173,0.11106225212719202,2.8595584507428176,0.043955363290674024,0.7057557314721731
706,0.9857243515710311,3.1229935011313574,0,1,0.9015860816473524,-0.1646709611239026,0.11972778263698265,2.926630719996671,-0.0036875434688746884,0.7457407674754717
707,1.0042058978334742,3.102854431490381,0,1,0.9577823523033093,-0.198555325884341,0.12432085307539371,3.095600442853128,-0.05729323363160947,0.8389353035992251
708,1.0245902928006327,3.0534104994703624,0,1,0.9970798068881161,-0.19921616836722056,0.14855476701350098,3.205375235718635,-0.07470527643657156,0.9708074533703848
709,1.045242280005006,2.9780115154315028,0,1,1.0260134791474842,-0.11046428517031953,0.1432746936987451,3.1616912226371667,-0.07935550776512285,1.0804987440354872
710,1.0643144731983982,2.882874265079322,0,1,1.0597230016659607,-0.0042145465270337825,0.1255841746225923,3.0202576508703607,-0.09201607135233464,1.0956159861660675
711,1.0799569746776643,2.776735396756111,0,1,1.071056354761542,-0.0022364799195028796,0.15851411691421088,2.7924045785809772,-0.041075816905974775,1.0205496758786587
712,1.0905452878404305,2.6699979764906234,0,1,1.0625870798815382,0.03109958726188557,0.20675218757819708,2.581278828899849,0.037264747473170656,0.8632558795928422
713,1.0948960924632443,2.5734634561636627,0,1,1.0837070814413485,0.14128188840146044,0.2518320878890757,2.319401897761405,0.04741036645092022,0.7014996561989328
714,1.0924406299710447,2.4968521564604984,0,1,1.102750319965152,0.20091529771076322,0.27509326205986234,2.0300729402909172,0.09030440105856773,0.5703496560414063
715,1.0833274204658594,2.44738573546592,0,1,1.0970078393597906,0.08790816981546994,0.26505475444145227,1.8842310738340822,0.10906052456102991,0.5309422665870304
716,1.068431920932461,2.4287115211927497,0,1,1.1188753212182658,-0.05944764791963687,0.20165942506155066,1.938060340796686,0.05401667543723429,0.6437527378550768
717,1.0492629275868819,2.440382733910502,0,1,1.0612526806477143,-0.19153047618212463,0.14506627161148286,2.1491020117326487,0.031719724859911355,0.7735661927816057
718,1.027774061929365,2.477983653353751,0,1,0.9408643051627403,-0.23845788791524092,0.12054096368574503,2.471903206503334,0.05597681635842855,0.7491414938470794
719,1.006109831620392,2.5338412215097454,0,1,0.8889939407047986,-0.14194895057942372,0.10599836327313696,2.7193512772081725,0.04346350406110609,0.6431946498202461
720,0.9863323762288837,2.5981424460935516,0,1,0.912493692064489,0.01120880294579636,0.08642639725096113,2.8169876819191564,0.01703603085783611,0.5750117435462774
721,0.9701791887927762,2.660217749123022,0,1,0.9525228738601549,0.1088423603603663,0.07339302192478919,2.79742145545947,0.012500498871278284,0.5734296261387125
722,0.9588907251825777,2.7097636547681834,0,1,0.9518655034507699,0.11084345234622922,0.08165903669625511,2.704066853270575,-0.007153515004089355,0.6141252139656991
723,0.9531254392758477,2.7378443158743666,0,1,0.9392619040648015,0.05761620119687705,0.10424139075000274,2.6431159546006535,-0.020954629430847003,0.6445081057746834
