id,ASVM,GSVM,walking_nonwalking,normal_abnormal,ax,ay,az,gx,gy,gz
1,0.9985058395669731,-0.014202446117390684,0,1,0.9881332966545316,-0.0808944001086999,0.1643424916455213,-0.008989189850857447,0.005441099365595549,0.00011909538147684269
2,1.0031029971272023,-0.0039961689187123185,0,1,0.9887390817072119,-0.08290055674046283,0.15900316540740358,0.0009815236274005985,0.006538023523378939,-0.00234794199524684
3,1.0095185000505467,0.01434181594246112,0,1,0.9852762263755324,-0.07831760664389431,0.1564123385329173,0.008254756823961108,0.005263287012761066,0.0015629884189114936
4,1.017485378621694,0.041679652017948036,0,1,0.9802858834460743,-0.0807759583110224,0.15339470876534814,0.0008066505642566886,0.01608131250851946,0.0037992340364141745
5,1.0264552525455855,0.07819829656979504,0,1,0.9762565450133469,-0.07695267381819633,0.1486805069199322,0.0012714934089742345,0.061458074540815595,-0.0026504052685632456
6,1.0356143205417265,0.12324035203983634,0,1,0.9882110171880799,-0.0691202710051789,0.14815782331434577,-0.00431078812391394,0.10064226072398552,-0.0059968453150840255
7,1.043947783428905,0.17524383697468707,0,1,1.009909838416554,-0.06440649015853386,0.1244190664070478,0.02444511271181235,0.11980375263511212,-0.0022319473207810703
8,1.0503515359787976,0.23178777614771565,0,1,1.039887775355788,-0.06575706305458913,0.12446845137297737,0.021591859103698888,0.15247410678870119,0.00833203657073621
9,1.053778478586435,0.28976594795045607,0,1,1.0573683760258705,-0.08409643170058276,0.15069898219729705,0.008083795726104065,0.21537044301665995,0.02632924816403417
10,1.0533958141721054,0.3456893268948184,0,1,1.0994906333652434,-0.03032743340763239,0.1845930423557689,-0.00395226324003897,0.2775148883775786,0.013562634096705072
11,1.0487230623034591,0.3960956552524457,0,1,1.1107021662579961,0.06683069525772145,0.21044478849113246,-0.04994537660327267,0.33564917965229574,-0.019374149419946703
12,1.0397218308145335,0.43801743683738276,0,1,1.0705354291346272,0.14254235897513517,0.1638539504993565,-0.2618095482282426,0.4868058233077987,-0.046142875865279084
13,1.0268195579115762,0.46943289431363133,0,1,0.9658548591034025,0.10178577500414439,0.14256289230160274,-0.5084640240721591,0.5605264154529702,-0.03895248681915066
14,1.0108682950113046,0.4896089049467412,0,1,0.8934685286249456,0.0016439808067081516,0.1407264036954224,-0.49803257557323044,0.40480388098660913,-0.012057440897671134
15,0.9930581217675666,0.4992543299088794,0,1,0.9277602456478067,-0.05654685051023427,0.13733158942141593,-0.41505271539774774,0.22989433181043128,-0.0010558230863003633
16,0.9748123491462763,0.5004418124228831,0,1,0.9730536372925023,-0.04494726730029528,0.1312352931100118,-0.3818933396007281,0.22473938041154085,0.020882152597522276
17,0.9576834165775552,0.49631206097694724,0,1,0.991957942969531,-0.04512798152122465,0.15110696796394926,-0.3804280580931204,0.3014812438659685,0.07000548044437355
18,0.9432506587226016,0.4906211146914713,0,1,0.9847100669226121,-0.068752683632385,0.16212601895377193,-0.23736915194310274,0.37999474405867306,0.13198859590922668
19,0.9330067731622824,0.48721243179905155,0,1,0.9791795131906376,-0.09763365422347212,0.16408008718499736,-0.10403519910982109,0.4081151344403507,0.16022317704076638
20,0.9282181382770246,0.4894955425039,0,1,0.9305123272615509,-0.1557897336626735,0.14256808378633212,0.032873048510679986,0.3488040895185293,0.17771572217461143
21,0.9297556335618049,0.5000024432255615,0,1,0.9132956422515736,-0.1882320949773193,0.1625594472015228,0.20120578266373293,0.24802697927886905,0.19417706514766248
22,0.9379115175577142,0.52007640709449,0,1,0.8941543245604029,-0.18601242882146984,0.19489373517432448,0.3969856048717604,0.20794378254193605,0.19736343405794718
23,0.952236987556773,0.549723951936466,0,1,0.8633019683070586,-0.15128208664394527,0.18791683712609145,0.55941831302376,0.2274926664161569,0.11720000056878047
24,0.971448490795534,0.5876310169733001,0,1,0.8074231514657577,-0.11706507690283709,0.21350264846157613,0.5654579462853787,0.2719576387117524,-0.057344387857322814
25,0.9934542294157044,0.6313181391431498,0,1,0.7525634251047524,-0.12440443317575864,0.20772150579757134,0.5030501285886807,0.3164716588847646,-0.26956898899588605
26,1.0155407911584033,0.6773968230634511,0,1,0.8085549286010745,-0.11201546951270427,0.16008960615646933,0.43431380947106785,0.2282096956027519,-0.4832066329304442
27,1.0347287835752523,0.7218921043359273,0,1,1.0330247373367776,-0.08707418360125951,0.12589061364175724,0.40391124901436876,0.030918040965088378,-0.6005770450155444
28,1.048256890849329,0.760607091138852,0,1,1.3076465615664654,-0.12350016436242756,0.14169931820216225,0.4002553277870252,0.13426177569884076,-0.5667395493776807
29,1.0541001998660129,0.7895149451816009,0,1,1.2810139795624496,-0.14275295823929926,0.1368201019967007,0.3367410356334119,0.4060423687483013,-0.4755190444811045
30,1.0513970738587486,0.8051665963888504,0,1,1.182035207663108,-0.11239694821575981,0.14697014869004177,0.39374910836124816,0.5330883857301073,-0.3807069361289266
31,1.0406710402258146,0.8050960697318155,0,1,1.1384373927419502,-0.042222568102197856,0.1845729699260566,0.5729647610256254,0.6609589422070168,-0.23631460777387717
32,1.0237888867141334,0.7881916135879803,0,1,0.9444748621798665,-0.01542692422551879,0.22346120272391362,0.5427900518028825,0.6564259775292228,-0.14516392823060056
33,1.0036690714058276,0.7549880624426647,0,1,0.871977898302243,-0.010874729547910671,0.18945223155516047,0.4733266996670983,0.5342482700130764,-0.1121381406767099
34,0.9838161231664586,0.7078336396911118,0,1,0.8659219906575336,-0.005782264293372088,0.1740402511767179,0.45153967740897843,0.5245348122654869,-0.08816742374054541
35,0.9677882972120815,0.6508939556254606,0,1,0.8315003005380216,-0.019631742712228444,0.1569848346230254,0.4717054278192412,0.5246901386792807,-0.04441920255231009
36,0.958703593988654,0.5899691852945571,0,1,0.8353542515129386,-0.0428842353234391,0.11525105170665108,0.5038864221893786,0.41729715377143506,0.020470159937783203
37,0.9588609438844301,0.5321109346567808,0,1,0.9417033576620989,-0.06620614426488668,0.07881231428810712,0.5513999711119572,0.2699876947100685,0.06354140862433486
38,0.969511844050227,0.48503611031787647,0,1,1.0853616492887648,-0.06800748310969443,0.0708337962476261,0.5827585558479195,0.2980558700530464,0.02385465307355379
39,0.9907770179379348,0.45635379576263313,0,1,1.0847859105968067,0.033276683459174776,0.10210032432089924,0.4309794828869117,0.4087823048931624,-0.06519269544463503
40,1.0216762369883463,0.45265241461564415,0,1,0.9789303382867576,0.11601022103781385,0.11568418268588512,0.12047246488789173,0.4141359654334892,-0.09317761648865608
41,1.0602354225310686,0.4785370585352119,0,1,1.0006044853927634,0.054295632636362334,0.12102371929212,-0.01163486249938995,0.3576452214873992,-0.027864369273550148
42,1.103648821775249,0.5357512384733845,0,1,1.0575994708776832,-0.061494753945115346,0.1022877473122357,-0.03892942471261043,0.27062765895022534,0.13085370921308753
43,1.1484897876349824,0.6225457688286676,0,1,1.1531043856177288,-0.15099749253144165,0.06962244906321927,-0.10930171362386426,0.08183688622287545,0.30859383342133817
44,1.1909687149574164,0.733452033196232,0,1,1.1813508265157315,-0.14331286830999998,0.02283123353754953,-0.17523233209601388,0.014039531005973006,0.4656486453543913
45,1.2272310196119032,0.8595701547260665,0,1,1.184580428014895,-0.17398069394875545,0.11492806423893712,-0.38733203540275085,-0.0642742983676293,0.6048921428494938
46,1.2536795293033343,0.9894022391517339,0,1,1.170308961128108,-0.1991843122063623,-0.07625386216308402,-0.4606998637245566,-0.14592929249655953,0.6861885165261198
47,1.2672989979004021,1.1101651038939242,0,1,1.2222281762690872,-0.25155994571421253,0.40664929391451776,-0.8239579406324955,-0.19777729687081155,0.6418164923309505
48,1.265954755497592,1.2094251192996497,0,1,1.213672701397383,0.14385769371866888,0.8357120839424506,-0.9496035243546962,-0.07259405733975965,0.6346479277031962
49,1.248633438750702,1.2768229622368157,0,1,0.9374676492363635,0.516375206867135,0.5243426845849335,-1.5971064369688226,0.45295333265082216,0.38915100565052124
50,1.2155976690300483,1.305607590192909,0,1,0.9134728482520081,0.32613498985430767,0.6237009542397435,-2.022085186462368,0.10448997781103846,0.375213281071934
51,1.1684418473680784,1.2936933917516358,0,1,1.0052464612288383,0.09139783922297849,0.3536269053581932,-1.4756570501822182,0.07326946299740471,0.6497492318542766
52,1.1100532875769105,1.2440159111805849,0,1,0.8748565287820448,-0.13379449439342672,0.4557896808083364,-1.0145459557804222,0.3227171112011873,0.8642331486909194
53,1.0444863400923918,1.16409468700192,0,1,1.277663708105659,-0.5005818055788104,0.3433040667207345,-1.0866418129692206,0.10214927505661989,0.5481246036682327
54,0.976745082719175,1.0648807487026117,0,1,1.0154400950500748,-0.37662687972450204,0.2872862566018638,-0.9683729465847408,0.5094861335617288,-0.03536876885144217
55,0.9124606320914934,0.9591145410513703,0,1,0.5523570176101843,-0.14325258550593267,0.27541785165325794,-0.41120177055101026,0.13995473833889613,-0.18045104282249896
56,0.8574614119570751,0.8595094580597682,0,1,0.8666537421330317,-0.13946915708791227,0.15211571454659156,0.0670106865062761,-0.3528833919788022,-0.19422675463104874
57,0.8172639930748073,0.7770946779439875,0,1,0.826966488796855,-0.10343045044022736,0.12765273890127612,0.13531428468922835,-0.2491070131129186,-0.2717192367308299
58,0.7965336753522716,0.7199963683479415,0,1,0.8220717617523755,-0.09155488708910195,0.1402981691844904,-0.1366780491079468,-0.06639884039734835,-0.4439181441315281
59,0.7985654329536335,0.6928177740807859,0,1,0.7916859561042175,-0.024247266632341887,0.18552483443438952,-0.26921551044086933,0.08481703893816858,-0.6546384187122803
60,0.8248295095580552,0.6966283445523918,0,1,0.8312951627835307,0.17625057866780108,0.14157287547638525,-0.37350101419860204,-0.1511390384390487,-0.769529945460793
61,0.8746267491415611,0.7294362914726641,0,1,0.7854718839410819,0.31386727850385987,0.050309066428400016,-0.5598441726776847,-0.3409183809952427,-0.7179431014123567
62,0.9449070139034347,0.7869357442124741,0,1,0.7129300433557217,0.22191796630991886,-0.022565357314564383,-0.8980540220189825,-0.24553242264388783,-0.4605703891573242
63,1.0303102620501383,0.8633042604560612,0,1,0.7227653344525866,0.13774464871234499,0.05677201694436416,-1.0931994528057152,-0.1576359062476973,-0.2532345677577814
64,1.1234815478213476,0.9518716444709207,0,1,0.960347170558115,-0.0011129952821749651,-0.026917030833645845,-1.1784990773121613,-0.5171349584542054,-0.2395168198329355
65,1.2156771684665622,1.0455677809907868,0,1,1.3901999560734843,-0.3890734278024672,-0.10069623599272871,-0.965225241636881,-0.6471565027815795,-0.35309090195769055
66,1.297621028603306,1.1371656168129889,0,1,1.3167602981797883,-0.4778128544605155,-0.04479472419149336,-0.24240035937025792,-0.33610357200682167,-0.3806220616346227
67,1.3605108300066049,1.219441489083031,0,1,1.0028223254273312,-0.3848446887083144,0.647994690106848,0.11976645403417281,-0.15542192376311198,-0.33497751831496875
68,1.397041537915734,1.2854372334396358,0,1,0.9224653828342754,-0.6117423502452742,1.0480274240560035,-0.011963137996610989,-0.14284935849883904,-0.7568657680490785
69,1.4023157526976304,1.328977273563362,0,1,1.0785862280221492,-0.8309681501339761,0.600937594586098,0.4706980249762489,0.12174218733246583,-1.3552835793263618
70,1.3745305625411093,1.345457267330123,0,1,0.916313121426942,-0.49684664511499615,0.7767268446644207,1.026910577147846,-0.07859385658193793,-1.5401517326832448
71,1.3153522106436333,1.3327395211921924,0,1,1.2415066397793315,-0.0702725164968996,0.8522058076749018,1.5417395813572472,-0.612509469665578,-1.2621975562756471
72,1.2299114389200478,1.291867717879954,0,1,1.630817650282414,0.14633602343453764,0.36882133434229947,1.655568388356716,-0.6309815894236179,-0.6621850777073428
73,1.1263808312834849,1.2273227994513505,0,1,1.309957806134609,0.14540052575751566,0.18024241479408104,0.7644908474774144,0.699315525910964,-0.22022118785398465
74,1.01514325447709,1.1466778367902457,0,1,0.8493951104192353,-0.08483523906294442,0.2914516135604121,0.2507689343161756,1.0266871773318111,-0.2353459001562186
75,0.9076344637106651,1.0596976912983702,0,1,0.5359111641323694,-0.1394773066269034,0.1796581993407193,0.4009626089391665,0.437600097716854,-0.39757054667244746
76,0.8150240343676093,0.9770774297694363,0,1,0.5302457740482589,-0.03806055548955931,0.07238788462856519,0.7060748931437025,-0.056007554661416076,-0.34311075040159317
77,0.7469450195447642,0.9090697976570415,0,1,0.527164126251429,0.01613879897471981,0.09938423683117104,0.7436185414214446,-0.21959049114281176,-0.09699702224007856
78,0.7104647862142585,0.8642235208525418,0,1,0.6460060632651413,0.057667184072768884,0.13782510487004013,0.7961920159238782,-0.25285424690168995,0.15519446168524156
79,0.7094167619729488,0.848381950038725,0,1,0.719724010628009,0.058478885857583346,0.0985380042706325,0.8264569914792138,-0.02857902838484163,0.3175960613732404
80,0.7441222992231813,0.8640172039668254,0,1,0.8576408690847628,-0.0992382983648918,0.13738228024690127,0.7205194498986325,0.3685420743416667,0.37580061424537786
81,0.8114598669082065,0.9099232830412999,0,1,0.9290043668727681,-0.14816958319472912,0.14538245404576264,0.7639943048529483,0.28745772329109553,0.3842960437728725
82,0.9052043441887705,0.9812678980850092,0,1,1.004010303420579,-0.13810714090620055,0.13988770470604964,0.8558390277218295,0.08790678674374308,0.3737394546581929
83,1.0165633936568947,1.069997978816562,0,1,0.9677086623828939,-0.20421539946649667,0.07124202934117603,0.8747815563027957,-0.08573785611342291,0.3728145407809677
84,1.1348687671287403,1.1655931055494002,0,1,0.8645034037869606,-0.1207884525007396,-0.00641986915863003,0.7609521000511572,-0.24048089744072276,0.320553819219703
85,1.2484164493822794,1.2561501268065518,0,1,0.8986492872398755,0.2482936365351259,0.02617197969558229,0.988744450852613,-0.5871559764561736,0.4577356315870269
86,1.3454641840008632,1.3297505906656,0,1,0.9592611999519985,0.3110636574309605,0.40383009292447214,-0.11081295864619162,-0.3980130918874181,0.7166729555167055
87,1.4153677405085798,1.376006264818374,0,1,1.2287095829064563,0.43087280203204326,1.0129253585398996,-0.6753117635897341,-0.5667653583358621,0.9925897804200045
88,1.4497709858492027,1.387601062671445,0,1,1.6082859094004123,0.7081132124448332,0.6843672446468569,-1.1883571528341244,0.015056215017403205,1.704466756469707
89,1.4436930206190615,1.3615687011646427,0,1,1.1737827065844093,-0.04426503319181334,0.6575681486144461,-1.1253782692009997,0.2588306719407401,1.956140657795026
90,1.3963233406489814,1.3000082690524697,0,1,1.481708599993052,-0.49254033739466097,0.5794715350765828,-0.6014405221708452,-0.6443024170400726,1.7387790621253998
91,1.311362813863526,1.2100006606215425,0,1,1.670345160313856,-0.6035521946557408,0.49721296313428864,-0.1234865524640994,0.44229314314343326,1.0496739817707013
92,1.1968182170537054,1.1026632006727037,0,1,1.0934302218041767,-0.07867816425390066,0.35811663131994215,0.11548129402528094,0.6578647014336478,0.4951567479127238
93,1.0642478809233278,0.9915059627909554,0,1,0.8060439969748792,0.21968049814021634,0.23622946403841108,-0.1834622591633087,0.4010862544713381,0.4357225343120736
94,0.9275506900380907,0.8904289986229701,0,1,0.6006205844879421,0.25062438325269176,0.16343804220233882,-0.2045000867252768,0.10514883159734799,0.3391235458752895
95,0.801466811265268,0.8117577137139581,0,1,0.817003055642124,0.043162221469915274,0.09946005049880469,-0.430736705175369,-0.27767541759767034,0.043584874415624864
96,0.6999866385036319,0.7646554079149933,0,1,0.7155813101852807,-0.05629295229932008,0.08966567135921066,-0.5892981843000763,0.09074969842963909,-0.22909831479709075
97,0.6348421512396556,0.754123645476178,0,1,0.6362804021411534,-0.11081932807272142,0.06607054439772336,-0.5075242284680339,0.1128029770519887,-0.46665911264671095
98,0.6142135698131082,0.780656442220005,0,1,0.6279701779813537,-0.07442352509330705,0.045875519051698684,-0.5154103324789164,-0.0037570806026688817,-0.624931352812744
99,0.641755561265879,0.840493767544323,0,1,0.47970951497130976,0.2137535175559976,0.017388828751018437,-0.6071479144582027,-0.14121307002047706,-0.6086689337940474
100,0.7160373415814143,0.9263425543992119,0,1,0.4318484462796204,0.29199652865343134,-0.029056266574036562,-1.0018058297305095,-0.1625262416680056,-0.2740786794373148
101,0.83048510335432,1.028398623788019,0,1,0.40538414928793814,0.16241641817699737,0.10964614302698801,-1.1608877489676506,0.028829179322443443,0.08091451762427666
102,0.973892949380018,1.1355016658697292,0,1,0.49160000177069935,-0.038043706123090465,0.06413624401031297,-1.409249103960019,-0.5763459876868154,0.263114297301882
103,1.1315134940680303,1.2362819210542813,0,1,1.2314881377573177,-0.8100649541297429,-0.23343148722470536,-1.0367943371188517,-0.8473727402191912,-0.01322972700127549
104,1.2866493836491488,1.3202095290692513,0,1,1.0087337786676362,-0.5612438262332852,0.07806404750659734,0.06159592673841358,-0.20497626364284183,-0.5094712125761016
105,1.422565315663554,1.3785220276339065,0,1,0.7157058621968382,-0.3525034303010971,1.415837680922379,0.34668278150799775,-0.5482931809670532,-0.7100182401324683
106,1.5244657059302171,1.4050426017739783,0,1,1.384884288124815,-0.7931745022594661,0.9862114297393603,-0.17456031415439371,-0.5588206782688225,-1.4899307479291333
107,1.581261421996369,1.3968710158195463,0,1,1.5699484460666826,-0.47894521753670305,0.48064477578909387,0.27469060223830577,0.2071581803672086,-2.0033103211543466
108,1.5868788998904142,1.354845962918381,0,1,1.5763037161337183,0.1448055611456969,0.9851485400752235,0.9219212692160921,-0.6359935751539036,-1.6275800999233971
109,1.540932902612204,1.2836216687017008,0,1,1.829961184598197,0.17897339404609736,0.5957186485983978,0.8761912622179013,-0.7994770028096738,-0.9862797665964658
110,1.4486771515969423,1.191244721402394,0,1,1.5868198749187872,-0.04059563775154116,0.20041558844638405,0.377079336945912,0.05102799520606767,-0.49957154632964307
111,1.3202546147997862,1.0882490310864268,0,1,1.1660858922087038,-0.2760217658038038,0.17520089496020863,-0.2014434376709865,0.9086485025793543,-0.4936845417796316
112,1.1693796459381973,0.9864247781492516,0,1,0.7422176259067343,-0.3501269091505354,0.16467708908695822,0.1117218256664384,0.4839030534984435,-0.5816193959983178
113,1.0116755548438012,0.8974828315182355,0,1,0.7561283161598198,-0.12444076683481578,0.08310243728586483,0.5486613506527153,0.09014649247291494,-0.5172796110223623
114,0.8629333754400914,0.8318157077926852,0,1,0.569298663814993,-0.018958919968657152,0.11811887108513577,0.6684326287661149,-0.04263583997713485,-0.22064725465658303
115,0.7375337046858088,0.7974888591992837,0,1,0.554615957589687,0.03687239791120966,0.12677759792657725,0.8047032846351344,-0.18628641869667398,0.1118682221542667
116,0.6471956541788216,0.7995235268071679,0,1,0.6858404038627752,0.09142700673364591,0.07537748962614864,0.8395315586719169,-0.1453831543576946,0.4148859223303265
117,0.6001173553795236,0.8394761963425513,0,1,0.7703615787362875,-0.06475468733575936,0.001662552129102659,0.775144867429214,0.011786706289548301,0.5983989373520853
118,0.600485537009146,0.9152910458982175,0,1,0.8419873658169285,-0.15589273592006783,-0.021350818208765627,0.6658821028782945,0.1450933094768253,0.6373076980773008
119,0.6482840055174602,1.0214050976044917,0,1,0.7824623401699319,-0.19315795445932007,-0.04266437216328112,0.5754663535881799,0.09012664779806312,0.5533410264581711
120,0.7393344577109566,1.149110013933084,0,1,0.6929812190776345,-0.3036246026032118,-0.025653474520661867,0.7970059911299668,0.15805837591993724,0.2949696275875019
121,0.8655492312977153,1.2871928530182406,0,1,0.5101265448419662,-0.3006778163250794,0.1439766500366142,1.1457064068990384,0.382901401682133,0.020228507815931066
122,1.0154352022055801,1.4228652309814478,0,1,0.227510020318257,-0.046941573169118,0.20665353432461628,1.4555233456768157,-0.26141374127198685,-0.31154933658806794
123,1.1749205738854565,1.5429438695636464,0,1,0.8270150553884685,0.5906411376507829,-0.14447333905737905,1.1026459447560955,-1.1638900664367444,-0.21369216868208585
124,1.3285474138811708,1.635188834728206,0,1,1.0949815124476683,0.5152626234031356,0.6600938423906368,-0.21258963165890887,-0.8289242840667765,0.5929452802465904
125,1.4609796383685483,1.6896621482280327,0,1,1.3031456284191814,0.6126851957229439,1.1095639209367407,-0.5248716226944146,-0.8424131983283313,1.5301390931620706
126,1.5586611193070636,1.6999368360168354,0,1,1.427845164849701,0.6252752587695188,0.5654107132585886,-1.0322569043129064,-0.03317611041666317,2.1900445828531665
127,1.6113829828863744,1.663956153911112,0,1,1.4498868602806407,-0.31002340581397714,0.661809348329294,-1.6338002622631425,-0.08684035801767316,2.088274026106764
128,1.6135137579248988,1.5843425175438488,0,1,1.9050477430060864,-1.068290342938263,0.4647037016257991,-0.4682040130397933,-0.7695590681442485,1.4320827270639933
129,1.5646967648657797,1.4680385898765043,0,1,1.7279037827862527,-0.6287659962604418,0.4597773232379315,0.6551762685286688,0.2774550770734023,0.6620254522138885
130,1.4699015893859186,1.3253317048793727,0,1,1.2990007198461373,0.17841972145389115,0.351460778948612,0.8737507760328327,0.241721139710227,0.5572923713694079
131,1.338821194052342,1.168485113039738,0,1,1.207544233709676,0.5139617654123267,0.20135462948916744,0.11497501364845188,0.30159648266427636,0.6142778756179665
132,1.1847197340208862,1.0102777701134549,0,1,0.741353832916295,0.4420421092290412,0.238962850383615,-0.6323967883163929,0.439398968231594,0.538994585829862
133,1.0229241895077825,0.8627131249074964,0,1,0.8116682836828102,0.0690956664742151,0.08127727606696541,-0.8371507018464824,-0.035177333691798186,0.3870797681849505
134,0.8691842445602308,0.73604780199353,0,1,0.8438142941473187,-0.27193666854573195,0.04221064101837803,-0.7354118910319779,-0.008956836177018604,0.10539694967483097
135,0.7380992282583066,0.6381822869644654,0,1,0.6484690600278821,-0.3543875467863357,-0.006665219859118449,-0.6286649827595047,0.2200518061178979,-0.14554677869473173
136,0.6417554628889374,0.5743877791353,0,1,0.5893396682345182,-0.3106370423747466,0.018261128540925313,-0.3571650552709316,0.26006538934749684,-0.3799165837055954
137,0.5886644387329275,0.5473188378165982,0,1,0.5204287231257421,-0.050572042678109726,0.0058855894904827205,-0.1153304897366277,0.015772205967688628,-0.4560260863653099
138,0.5830600793480857,0.557260933618395,0,1,0.4204894332838213,0.2169699385439195,0.06735260940500022,-0.2605384515164925,0.006949712898163772,-0.26197406231168663
139,0.6245986244526032,0.6025634895456442,0,1,0.3640263366098184,0.29417355202453255,0.046606922420553545,-0.5054108345453167,0.16522715110571556,0.06340617108413016
140,0.7084911208913047,0.6801980854898425,0,1,0.399106441775624,0.20106011221208892,0.16784353057878423,-0.7871804153696791,0.239490838536678,0.3996030048319424
141,0.8260712999640337,0.7863578182273167,0,1,0.5877738583170731,-0.154355724202581,0.08486816689370022,-1.1440925214678441,-0.469820228524161,0.5659554417672167
142,0.9657546376348309,0.9169975658881468,0,1,1.1582389921407286,-0.5945426175868185,-0.09415453462477043,-0.8527750931158788,-0.5811032042065079,0.37601154149495475
143,1.1142840831052239,1.0682368871698857,0,1,1.0347505752284925,-0.6417925296098577,0.10207797598226952,0.17744049862757208,0.08158107224746598,-0.03574814858769062
144,1.2581057120196322,1.2366121936051773,0,1,0.7614433707565516,-0.3836563392908621,0.9318953531336166,1.0546228502524104,-0.5186918134012442,-0.25749769562506286
145,1.3846988750309224,1.4192266780211589,0,1,0.9790102378201492,-0.7906964459742131,1.1447059809365723,0.8009801406204576,-0.720602420133657,-0.750756119134512
146,1.483707880526307,1.6138471632776412,0,1,1.230813963612842,-0.8150066746791019,0.43320923509212717,1.282976393853989,-0.20716124614760853,-1.2803041156834305
147,1.547771298659307,1.8189348591668837,0,1,1.1906560268118225,-0.2056145023818244,0.5900601464779122,2.0852644664011484,-0.6216931101416349,-0.9376765968102944
148,1.5730005663264028,2.033533604404186,0,1,1.5755620861333575,-0.0527031108022137,0.619192298052098,2.1955424331679385,-1.39873918181459,-0.5238845857206934
149,1.5591061024913422,2.256939787850274,0,1,1.7583361113113403,-0.2907992332689014,0.257293601665025,2.014302077769569,-0.30576875822786337,-0.28966422175554646
150,1.509198499939826,2.488160675116406,0,1,1.2392264671946676,-0.5889262502188388,0.3608952310666946,1.7223774425179437,0.5910339401977817,-0.15012500319907066
151,1.429310933156071,2.725289957136733,0,1,1.2115885387975132,-0.554296086299678,0.3020750987779231,2.160310067148377,0.2589554545396589,0.01291337673064723
152,1.327709112172809,2.9650085178292236,0,1,1.065454439511277,-0.525209391842058,0.22089686571147318,2.785032069853557,0.21748171022774726,0.23048112823320005
153,1.2140741097477554,3.2023909164877393,0,1,0.9956464866210452,-0.43757554408273874,0.17546211781054227,3.28336430596284,-0.07546662615592084,0.5792640564827675
154,1.0986455907390615,3.4310766643197765,0,1,1.113571160261197,-0.1576540479890791,0.10945474089351209,3.6833407386740764,-0.21423794549138786,1.0162589825874688
155,0.9913928818018278,3.6437296346559642,0,1,1.0781218506028856,-0.040420974650976015,0.07564245378731689,3.7470371677834082,-0.059309715866242625,1.2654268997154454
156,0.9012514986472336,3.8326377432298044,0,1,0.971274006219534,0.019456577424282757,0.028479666720980415,3.594608496239136,0.09129077567227338,1.278353416317651
157,0.8354419025465442,3.9903224506671355,0,1,0.9145054871325827,-2.5712826187733682e-05,-0.04075454528774507,3.613534181302715,0.14010131042234564,1.2454084596813835
158,0.7988866877254971,4.110099685929087,0,1,0.85204763311297,-0.006816115624688841,-0.03413988980684263,3.794707721635294,0.1754416893520824,1.2122864116060807
159,0.7937606075139618,4.186602461876573,0,1,0.635238849727342,-0.14914519014495464,0.04108504586999405,3.8357803304494618,0.21483270627540763,1.2325612572318363
160,0.8192332060438102,4.216300221797168,0,1,0.3741475249848453,-0.40842662888176734,0.10397499060620975,3.7719644583960386,0.08884573825154861,1.252446801344716
161,0.871479597055354,4.198025954528635,0,1,0.40576151309614183,-0.4365539418831732,0.06336358044597502,3.838388279153377,-0.17374677717715323,1.2544462135392085
162,0.9440238167341737,4.133466324139573,0,1,0.7338692408584744,-0.31565206895228626,0.00224132417360875,3.966879798838485,-0.36896482309123524,1.4594604593659508
163,1.0284317161209782,4.02750278158824,0,1,0.9370029020789697,-0.12012997845530876,0.0194362256813503,4.218409602707617,-0.23410458606268722,1.817892531901819
164,1.1152944357377519,3.88823832799672,0,1,1.2592723410906668,0.2931410823455815,0.1642073504908374,4.323489933323839,-0.2320023615920936,1.92169120460816
165,1.1953641966929422,3.7265437518280113,0,1,1.615952021260946,0.4463282208639118,0.30023836734247306,3.7029572788740666,0.011858165791271547,1.821704047404021
166,1.2606535341476657,3.5550441522929255,0,1,1.236925207945611,0.33922497754617625,0.49406583952874245,2.9854248675444723,0.6113663873558393,1.3511620037023762
167,1.3053123196573146,3.3866351229071197,0,1,1.0700288767974782,0.3615761930127517,0.5720863701116076,2.676034131046762,0.5590536909896823,0.7594447929829062
168,1.3261554035379315,3.232800627683677,0,1,1.2300749332213403,0.29911464721944325,0.5626792111498696,2.4423344389001085,0.5356388720227915,0.5886077885636706
169,1.3227982008568275,3.1021076050378538,0,1,1.377168516410104,0.18667923009689463,0.44394236530078335,2.501178243502924,0.46846508892682087,0.7760134228538773
170,1.2974301460459434,2.9992212130037608,0,1,1.2695998431228315,0.1051241590865074,0.2515139656264245,2.5252639438729667,0.34549898636716064,1.1165865767264078
171,1.2543019585630593,2.924638020354678,0,1,1.0752969460404225,-0.07541065687723805,0.20023997017630268,2.6115276105945586,0.20364002822158095,1.2263471936887897
172,1.199030102130133,2.875141090431476,0,1,1.061821787205121,0.02859526215337922,0.1502721766603941,2.821267530251232,0.07415049989608091,1.1914611844517902
173,1.137835392240027,2.844812544726955,0,1,1.0662378454139527,0.1467486134433337,0.12195011539159938,2.982058202026354,0.05681601643391956,1.214137516002646
174,1.0768262496804664,2.8263403251635637,0,1,1.0222762062652104,0.21500254505171165,0.11986364614638051,2.8556787259735867,0.16772568734575505,1.1554984597570264
175,1.0214097304765744,2.812339351567499,0,1,0.9268029011352319,0.22720790700905574,0.13133257704699744,2.673516332450664,0.15619070993702008,1.071014642262481
176,0.9758769949945311,2.796459894811392,0,1,0.8716570790811815,0.25631779525604265,0.11494430361793194,2.6639938049167604,-0.004522791739101192,1.0189538041331374
177,0.9431770149351246,2.7741449993053617,0,1,0.8549653234006889,0.25674116682414805,0.12725966057030375,2.639347288419376,-0.11062620562965522,1.0352397170457877
178,0.9248661868076573,2.7429866531848366,0,1,0.8694462004456959,0.27834015825022257,0.15218370645679766,2.591031776213148,-0.20100900278648795,1.0864083250434287
179,0.9211994017054422,2.7026953147023414,0,1,0.9554397775590258,0.32657259980724096,0.11046008207860608,2.4515699721689903,-0.30372273863706883,1.1458796801518556
180,0.9313102596242114,2.654739702917283,0,1,0.9615521051291719,0.35389192895776084,0.08621691546343384,2.3050568550893322,-0.32838585126750464,1.2490575826412962
181,0.9534200751928493,2.6017429451571727,0,1,1.0015782738222525,0.3529544276054997,0.011285692731017186,2.2646231416386096,-0.43573442631476167,1.284603765472746
182,0.9850233018523031,2.5467425268889357,0,1,1.0473839428941984,0.2808972826554442,0.23488926370750204,2.1910898118879376,-0.3347934077401949,1.2216615572863092
183,1.0230221851746264,2.4924355560622247,0,1,0.7832948780711826,0.16895206120141232,0.5418500714972989,2.1043924677005568,-0.16877309511846228,1.2017051176300686
184,1.0638198608108274,2.440537429933365,0,1,0.8487113585157141,0.11905418139007524,0.5129331966683218,1.8270580092574518,-0.2969827971401362,1.0223631048518125
185,1.1034168699038722,2.391377743450239,0,1,0.8372889164969513,-0.14229833180057241,0.4540771864249214,1.8536234624942638,-0.441984178136111,0.7423090210564065
186,1.137576972826993,2.3438313731668385,0,1,0.7099169774798505,-0.24947389851772617,0.40889586512994464,1.954945273248946,-0.4238894913234142,0.6358620986071231
187,1.1621228047234151,2.2956226126501713,0,1,0.7269243612613555,-0.42584412982078923,0.4501094508808541,2.112452456590601,-0.5705707115110857,0.6404545499239097
188,1.1733858348041628,2.243948111399231,0,1,1.0088297883291983,-0.5433072723486014,0.3705096411104895,2.414427582037313,-0.7629876970729123,0.5350953734138604
189,1.1687736653672878,2.186267364217906,0,1,1.2628451930205973,-0.4214919920465823,0.2425392915776709,2.460084827784185,-0.8068926902664342,0.3635514597725739
190,1.1473499723536997,2.121050302415947,0,1,1.4138128735377695,-0.19266213545289496,0.27344558471262365,2.277757995582353,-0.5167437494004852,0.33161642612278364
191,1.1102783321055572,2.0482822108337344,0,1,1.3638778534122609,0.032093693273552736,0.24533388179498497,2.0929255080927867,-0.3789049902014911,0.2976564539664716
192,1.060985988391057,1.969604522288688,0,1,1.1713591185523349,0.20476155252673175,0.18182014050277104,1.9092396226526234,-0.14429107485018686,0.3438497207318721
193,1.0049603766974409,1.888079304811512,0,1,0.910064584727446,0.22595519375557865,0.16863036519122582,1.752554493656816,-0.023306675126606585,0.3437919102561679
194,0.9491781401801999,1.8076597327959414,0,1,0.8367911537015927,0.1742701449877073,0.16429640727270056,1.682884387399183,-0.062247636196036495,0.31880358194141734
195,0.9012494845659634,1.7325013172003203,0,1,0.7886624396373562,0.11281228688382973,0.19423263751450978,1.579136744590491,-0.07373482926567682,0.340252668690861
196,0.8684127066966612,1.6662573229459448,0,1,0.825503473131264,0.10367049448175054,0.17970072100061127,1.5090736486159635,-0.11056114669776677,0.37741371367565946
197,0.8565273750281884,1.611479340054864,0,1,0.793733515746361,0.09142971549184761,0.16145128331561642,1.447052626832677,-0.0464955413611485,0.4607298910934873
198,0.8692016683902457,1.5692051920069,0,1,0.7722827965420447,0.06529404758496382,0.13156927954328684,1.4376211504750198,-0.164010060765982,0.5844474201766731
199,0.907166465050865,1.5387727310421282,0,1,0.7709094986494673,0.012141852014723262,0.09523433348466095,1.3762437728536308,-0.32860214913882196,0.6636301063411766
200,0.967984110650374,1.517858502365552,0,1,0.8259120505160766,-0.014045818539752793,0.02612759603756422,1.3658689820526342,-0.4900951995830269,0.5900281159460943
201,1.0461509162391234,1.5027122864241507,0,1,0.8302652575939963,-0.02149903778529547,-0.00232970518073926,1.3135419278302491,-0.5670570154629445,0.4053461715686198
202,1.1336130009945897,1.4885459837446067,0,1,0.9711402252620875,0.05040026195166014,0.025248872800221055,1.2575610913775135,-0.8167463517494127,0.27999605157619517
203,1.2206616767866525,1.4700356327421717,0,1,1.1485765716135334,0.14319478443911818,0.049618097826338296,1.1526120992699733,-0.7889834766661462,0.2967002105708579
204,1.2971101295871623,1.4419012260581128,0,1,1.4127540290497365,0.09606691302899203,0.4940981453451549,0.9205803667575423,-0.7890426934334263,0.49523879404819204
205,1.3535899082095508,1.3995322907252856,0,1,1.6317185938334993,0.24556364617893411,0.6785518598368602,0.6684139692412814,-0.5530684414138075,0.9867855254104597
206,1.3827660284646779,1.3396209986792198,0,1,1.337717409750478,0.28960972646195277,0.6674960877271627,0.2279644329558549,-0.015210536923809057,1.278285485023067
207,1.3802764361069866,1.2607453984893664,0,1,1.247790738024562,0.1321394307836963,0.7602782788632578,0.20452226696458983,-0.12185378124802151,1.3393026551353184
208,1.3452595923249842,1.1638181333200703,0,1,1.253540447169291,-0.042760263481861085,0.5528650424573828,0.5228027833119364,-0.10275715831626551,1.3373903789549648
209,1.2804196032651443,1.0522962313638202,0,1,1.31896526979448,0.0017405982410541858,0.490992334963541,0.6728256237285719,0.2887617514832662,1.162250316121673
210,1.1916579853196014,0.9320552807761872,0,1,1.0107626969756704,0.11556662004591582,0.43036576774787233,0.5198089203254086,0.4824041772367781,0.8934129314991373
211,1.0873568639311493,0.8108791065035559,0,1,0.974592970429834,0.10403345024793824,0.33369226368473287,0.10193462077848735,0.0990459670965852,0.7780774644069101
212,0.9774307362833744,0.6975975806286635,0,1,0.9261602072924363,0.044083384370474654,0.18370072285159603,0.010506996454278935,0.05330066768484927,0.5914595009675816
213,0.8722770240273189,0.6009935932103635,0,1,0.6103489984983838,0.023352444979667774,0.15949012364358275,0.020306932007905665,-0.05865335541251435,0.4003892323950482
214,0.7817500070034469,0.5286622027453417,0,1,0.7275632323215832,-0.03939544439802915,0.14291243833969333,0.1450058361311474,-0.3292685751077732,0.15429327809045015
215,0.7142591117937117,0.4860205764129323,0,1,0.7649741336501567,0.0005570968689489914,0.1370345463543131,-0.03798181604197988,-0.14827136735638136,-0.07777150118013447
216,0.6760563868886045,0.4756372065487683,0,1,0.7083691749834234,-0.00046766796204183113,0.10770092701125346,-0.216682623987022,0.1221708178861915,-0.1714822978681414
217,0.6707414878633831,0.49698564265414946,0,1,0.6507753323157146,0.04207067099399275,0.10772316786324794,-0.29002070760704446,0.09178867234677279,-0.22656767061674563
218,0.698989546161548,0.5466458466773105,0,1,0.6658012579916883,0.11282448121478007,0.09248799669278171,-0.46170278249362157,0.06401298080574036,-0.2571475313159299
219,0.7585019133544263,0.6188903594928735,0,1,0.6512287165141959,0.20944866477904892,0.08337750307186162,-0.712414724931455,-0.020181635798422446,-0.27417678331355544
220,0.8441825502102909,0.7065208626442556,0,1,0.6882843823960795,0.2083331486677122,0.06768117030705273,-0.9449346905887571,-0.012254626536129933,-0.1903995532204547
221,0.9485407739984054,0.8017813720633336,0,1,0.8637764713015464,0.13785015738227194,0.09234344367656712,-1.0917268500040969,0.07143448295080591,-0.11163543401694136
222,1.062307087646977,0.8971791383481358,0,1,1.1004321445343745,-0.006865117863057229,-0.01383157289278128,-1.017560873956334,-0.21314702020156706,-0.20395649708319327
223,1.1752241978156632,0.9860943070856233,0,1,1.263256203035616,-0.3112244747784733,-0.07851657625822296,-0.869938711657302,-0.5580406405634113,-0.36398076725620593
224,1.2769493584372822,1.0631406342120227,0,1,1.0843457571247457,-0.4349591090535147,0.10647889961773034,-0.3794370726116474,-0.3564162091274939,-0.4285098242802638
225,1.3579886169680884,1.1243232496587763,0,1,0.9916016227822735,-0.40178806685770296,0.7889613860094786,0.004072957650410516,-0.5469776048301148,-0.45704951406199396
226,1.410581911647001,1.16708901172079,0,1,1.32524807570929,-0.49652757502609013,0.7675111695289547,0.4677746540041334,-0.4088829627552703,-0.8657443430894797
227,1.4294632663023992,1.1903536460898196,0,1,1.181597014841588,-0.28530411752477075,0.5450393294021397,0.648541378972944,-0.331817667064669,-1.3320815136549624
228,1.4124263329112758,1.19452510316544,0,1,1.0846865259957683,-0.13060195647946315,0.7524233878845212,0.2826635979902088,-0.38547509143065717,-1.3378912656567183
229,1.3606324718557834,1.181471910204594,0,1,1.3934147351446797,-0.12395595523936442,0.6828659307173472,0.6254662175667907,-0.5592206092180967,-1.2371152235742424
230,1.2786068542885083,1.1543626767617101,0,1,1.7096863400194104,-0.048472134826095796,0.5118428120017647,0.5677374812832248,-0.09164061030459711,-0.8784199279311178
231,1.1738815195081629,1.1173436509359027,0,1,1.1761625263605435,-0.16714791802853693,0.4223086988982512,0.46709320662561254,0.786606648412744,-0.4013720095937599
232,1.0562786911213253,1.0750932607884136,0,1,0.9400837083123651,-0.1645794825125654,0.32024917997265695,0.5787845581605544,0.5274415165104213,-0.19897770303356382
233,0.9368941982512947,1.0323472209354865,0,1,0.650135806772123,-0.20291665465621156,0.22112683256748164,0.7171176641215476,0.595669338101476,-0.10339811204205279
234,0.8269194726346114,0.9934949896059112,0,1,0.43658470942742506,-0.14111986508154598,0.16647159944935067,0.8698065735362362,0.07456995535207991,-0.040357855143692445
235,0.736488427523869,0.9623102431800485,0,1,0.5095116438584857,-0.06865182095394226,0.08950592115356519,0.9097450037521465,-0.39313631868524995,0.16433438421115115
236,0.673723951048159,0.9418190344192957,0,1,0.5659895913789781,0.02357645049455057,0.11380019792855701,0.9916073367019141,-0.38966924007198955,0.30280634606418677
237,0.6440934754179273,0.9342577026207027,0,1,0.7087909392285386,0.08267793312057345,0.12169375637951779,0.9676189242361442,-0.31361262019340086,0.40939413257303686
238,0.6500950602108437,0.9410483783687092,0,1,0.7857209650566395,-0.02249163441662551,0.07306948622534017,0.8979400480674468,-0.041144754629713155,0.4475267788231828
239,0.6912213121179486,0.9627300024831331,0,1,0.9263354022977902,-0.1168428433447476,0.09279518786799375,0.8917983231302694,0.019067947922384386,0.4795528695214581
240,0.7641142495012616,0.998819544608647,0,1,0.9411031319184641,-0.06180686320881151,-0.007728631756872847,1.0246519275426422,-0.17357442126667486,0.3972695325167847
241,0.8628371734957191,1.0476248008780351,0,1,0.8231152370721291,-0.023009601973240885,-0.03382002068683412,1.0335472360649265,-0.19879051785889154,0.13945671153785008
242,0.9792382681510671,1.1060727218348645,0,1,0.7102410655644446,-0.019760095678230158,-0.010854948477442382,0.9079498019081939,-0.005012322639132877,-0.17934246683261562
243,1.1034379391895273,1.1696488249564447,0,1,0.6171059912923736,-0.017691672025778482,0.1300520593966976,0.8725709663916285,-0.11465759487198134,-0.29623734816135305
244,1.224501846368818,1.232556419474962,0,1,0.933516267922531,0.19765664566043836,0.1007007413050597,0.646119616807595,-0.6765491821242778,-0.1510812309202173
245,1.3313356946512032,1.2881860495824908,0,1,1.3657926742337667,0.3810928412212341,0.5796269037254843,0.03236587467807307,-0.5445325769294319,0.11385853698363184
246,1.4137580069005198,1.3299230395726767,0,1,1.5597745061587303,0.8454914123673525,0.9243643614783517,-0.5648425235501631,-0.3826473957231032,0.9889157504077084
247,1.4636155148139458,1.3522118758324153,0,1,1.0748457315075985,0.5296202832590534,0.4736592316851403,-1.5274081047989294,-0.03120284817485598,1.5648721257594687
248,1.475759287069382,1.3516640778382034,0,1,1.1899992975637137,-0.272823679012129,0.5814978492735173,-1.3243583237990741,-0.514963330037273,1.6154208903801788
249,1.4487192359741659,1.3279046178843654,0,1,1.63629901315654,-0.6442810577565199,0.5252328514026461,-0.7272065828555513,-0.5154500423619585,1.5861414885440368
250,1.384969473700016,1.2838749039485362,0,1,1.7980528901901056,-0.6521644217404491,0.5519296522993784,0.043822766919180384,0.7103906309803742,1.1083820834159124
251,1.2907333776882393,1.2254629943864324,0,1,0.93663747533595,0.11320432923375633,0.5051323701710035,0.22346311607646285,1.0178183038988415,0.6273026334547859
252,1.1753401447967018,1.160543625498072,0,1,0.7766356635155535,0.34570110785456853,0.2762283039620446,-0.0011401052848551644,0.32066778358454023,0.5380979175721036
253,1.050224357075482,1.0976815868266065,0,1,0.76763552595464,0.39776663158187736,0.22899009351956218,-0.2960927215683779,0.03140743639048179,0.32986540060333136
254,0.927726985998426,1.0448185057992383,0,1,0.7592918766275614,0.18431660956791945,0.02798437436628584,-0.828869372611964,-0.2624985052562364,0.10699219405927721
255,0.8198684430798481,1.0082153771374514,0,1,0.9107387106193254,-0.08083508603968317,-0.05808858286825647,-1.071912381662188,-0.22436029464596977,-0.2478231828828043
256,0.7372220144952432,0.9917961260537551,0,1,0.7747369683833144,-0.18915187285019713,-0.017496352771483824,-1.043117931968483,0.13940636944882456,-0.5117636266068322
257,0.6879589315614819,0.9968974098030725,0,1,0.7079080359086206,-0.20607687114914333,-0.004739016989877032,-0.7695910097466335,0.23090649125091667,-0.7011834546956377
258,0.6771004161813682,1.0223397884247498,0,1,0.6903225838858343,-0.0722315996918702,-0.04369231357659039,-0.783382254927612,-0.03958803640530932,-0.7446981074297419
259,0.7060061185128956,1.0647150819323812,0,1,0.6557329627821543,0.17598868401388018,-0.014058546274551087,-0.893012390369409,-0.19421950373746272,-0.5621618701170937
260,0.7721405728536316,1.118809288520884,0,1,0.5845754267299281,0.30365357462605624,0.04584705039711774,-1.0683234088146023,-0.00611717375751155,-0.18711108092589215
261,0.8691720486789544,1.1781142912204543,0,1,0.530963000217109,0.07554834640062752,0.10798323470403749,-1.0945108788554312,0.3102698292178892,0.13399747358152594
262,0.9874558483356883,1.2354045327333185,0,1,0.4564596767193762,-0.21991747339245935,0.05665753862014725,-1.2063611430865508,-0.3749248542987582,0.29798797027952306
263,1.1149227988414248,1.2833639314459369,0,1,1.042392215710896,-0.6941952155564478,-0.11754246939803174,-1.1880036224930506,-0.7665357702388522,0.049949078130514996
264,1.2383262097196608,1.3152496561858205,0,1,1.079674805553998,-0.5952291176300636,0.6410509666837378,-0.48746385835214295,-0.08006163214937469,-0.41642743217450573
265,1.344711846288708,1.3255763663743305,0,1,0.96371078708606,-0.6822200019636913,1.1472309750814547,0.46857392177237056,-0.5882122408582344,-0.9423249426315401
266,1.42290525289676,1.3107866476794672,0,1,1.2636114044732047,-0.6887617201407683,0.5021887968057831,0.5540135812147854,-0.597451773224101,-1.533783999274447
267,1.464795113820407,1.2698288697616358,0,1,1.40128025486431,0.009628992726426922,0.520686091039584,0.4569652251129226,-0.48655113959221374,-1.665587279017076
268,1.4662313872679393,1.2045142602426315,0,1,1.6496463872467895,0.36910349398201964,0.6340535404168628,0.5267032566741393,-0.8952281823528895,-1.2635720532433905
269,1.4274252125733304,1.1195249650010044,0,1,1.6534834143665753,0.0616312017216773,0.31708892460654503,0.14686280549572694,-0.34296970761939305,-0.7502605738252555
270,1.3528115182058806,1.022022726842972,0,1,1.3186363010831657,-0.34407878031780287,0.25408382014634445,-0.19778193735825572,0.3451547501088882,-0.6402572367507369
271,1.2504122557022717,0.9209234966224636,0,1,1.0216238880206054,-0.3820260697286499,0.21963025915298032,0.0020950195724284424,0.49890960314130306,-0.6092102365005175
272,1.1308167401230935,0.8259829392049564,0,1,0.7856504487498173,-0.3011982429826883,0.14427356579363793,0.453728466642273,0.13108435381056335,-0.5745769273536966
273,1.0059561396351644,0.7468430278380261,0,1,0.7679803193677586,-0.0944992305134631,0.11653761770520976,0.5749133171519455,-0.1010353351321789,-0.4552763042939959
274,0.8878651712363054,0.692141503400528,0,1,0.6913960356205174,-0.005735967049846658,0.04866823257863995,0.6639816252600663,-0.3354953290735052,-0.169671402492894
275,0.7875869732760303,0.6687293028025628,0,1,0.7928997502537042,0.04838662648575753,0.039184796224116414,0.7734981761751477,-0.31962637767932217,0.13156080401334386
276,0.714304321300319,0.6810069914513323,0,1,0.8779885510628465,0.05922588490319044,0.021688873669457865,0.6969572710675537,-0.1344242979836246,0.29724166541456076
277,0.6747038659235696,0.7303884756714714,0,1,0.907997703695744,-0.04024999185474952,-0.03269935624217066,0.6086287567158798,-0.018237097136392922,0.36583565495296433
278,0.6725313357255209,0.8149232878989029,0,1,0.8879923013978054,-0.05514296365955357,-0.0836414506241351,0.5524578585931249,-0.08761491040800472,0.37165925709566044
279,0.7082933017350609,0.929141077935146,0,1,0.6746758651706845,-0.20014747044698988,-0.08390857260812609,0.5921361502996692,0.006525618262260635,0.22867730370582875
280,0.7791025723712589,1.0642002617403254,0,1,0.5078445231676519,-0.22523457243136702,-0.020774543532909712,0.8308926181854365,0.4804369091377049,0.01522824987109773
281,0.8787244284594365,1.20840881004562,0,1,0.3066784305361072,-0.22686770936349887,0.13789204891375648,1.1897027137696208,0.2827241529233163,-0.1562150557713797
282,0.997920775908982,1.3481389164882318,0,1,0.5932939680239085,0.11405152042994526,0.04624022227842272,1.1813451113096045,-0.6400606640348753,-0.23508739384009192
283,1.1251741190905837,1.4690978591293344,0,1,0.994358762180803,0.13182757154130925,0.23730287339382444,0.5247066280416993,-0.7435517711804613,0.10498722182885514
284,1.2477937485844353,1.557863314715987,0,1,1.1168999741565124,0.19960366048044184,0.9681339413537755,0.44069032491221627,-0.6406356657566321,0.9341503209268421
285,1.3532913203618908,1.6035381921730893,0,1,1.589550715523267,0.6541254550412187,0.7869942167940108,0.3540582251026267,-0.7797140076109659,1.968154719520185
286,1.430818008673569,1.599312723957161,0,1,1.2252632627306734,0.35475362650030623,0.5255539134075375,-0.4618342431765843,0.6878060593407158,2.2097719316049362
287,1.4724286288184967,1.5436588898650234,0,1,1.3038963725803558,-0.45509212345274236,0.6112489339144306,-0.35324433354557444,-0.3843638088980258,1.8967598558212189
288,1.4739838620682075,1.4408835435874705,0,1,1.6523365493275075,-0.6878601694786141,0.31582083776679243,0.5833177839776187,-0.5264498053023638,1.275104598931032
289,1.435582278026137,1.300869379738404,0,1,1.3726631732825518,-0.27340107407434494,0.3499146005966509,1.1652767760581968,0.32963508766433625,0.8947223193683129
290,1.3614911980031643,1.1380023071134229,0,1,1.4780320921670578,0.15989343748454904,0.23880324064781272,0.9708051615032468,0.030231253722080922,0.631784643238201
291,1.2596105915310134,0.969447017190648,0,1,1.0536610900659347,0.40699988631270695,0.21209775756987848,0.3579201593566075,0.49402527881327785,0.5349602723584544
292,1.1405611905106625,0.813043801494314,0,1,0.7562110566878574,0.23952871442843227,0.209135178920576,0.026276846934144567,0.04549133514932654,0.4765078888732927
293,1.0165290358926158,0.6851519780282626,0,1,1.0644815998735817,-0.07265040365471245,0.09760796398021769,-0.04371608059281358,-0.31460092702802717,0.3058417520397063
294,0.9000088500567069,0.5987619149122541,0,1,1.0060772559600482,-0.28889618647134163,-0.0428859804903915,0.04355260471436318,0.017101945674910208,0.15750670570901054
295,0.8025678313244102,0.5621406131684044,0,1,0.7467296052384997,-0.33150226464292026,-0.055610509549871914,0.3177766113478068,0.09374559994609136,0.01684331566669636
296,0.7337219106750226,0.5781748308206838,0,1,0.6629047036209507,-0.19846373219263852,-0.07544806745218109,0.5445641019647259,-0.25490765443913943,-0.08063969859108348
297,0.7000030075994452,0.6444524786353651,0,1,0.5960566422711411,0.0037553674325394295,0.0016710327379433824,0.6464763813351672,-0.36150552036501704,0.0500654890887738
298,0.7043002725993881,0.7540073478607132,0,1,0.48917369961977686,0.11841314637214194,0.09546906967214731,0.6821145496327902,-0.21754932222025553,0.3179405000703158
299,0.7455607387455475,0.8965722695389263,0,1,0.39505290576409624,0.0487555128844587,0.11771370671800548,0.49532711412065844,-0.09314985206948419,0.6795961596605815
300,0.8189146123627419,1.0601517319123435,0,1,0.5064202010616782,-0.3449476929335868,-0.017910885933653548,0.28297148047111403,-0.37285481493214256,0.9805829532971266
301,0.9162393628383231,1.23272249688911,0,1,0.9644250618394737,-0.588033505172271,0.11722763427884623,0.5060790404440694,-0.31188625264212666,0.9175504931824074
302,1.027102563023933,1.4038753790944694,0,1,1.0535698701006542,-0.5093926128604288,0.46981600978974924,1.0574988584157257,-0.16035490293253246,0.5039282564716612
303,1.1399521322850752,1.566206606180712,0,1,0.7757041946660808,-0.33467245126723305,0.667116767863871,2.1922973230401275,-0.16884243302507274,0.17603196031038126
304,1.2433863422632168,1.7162543031199164,0,1,1.202618897115531,-0.2597546106901972,0.6349391750344794,2.39560410200161,-0.8585482888179268,-0.5789340169961212
305,1.3273455568003172,1.8547820339578145,0,1,1.3446645451576191,-0.06337807197734392,0.4655560300971807,1.8878331326871423,-0.4012481912588585,-1.072016905175684
306,1.3841047363914822,1.9862828035812787,0,1,1.1836266500147226,0.12611653535602355,0.4870715601805267,1.8692582484709077,-0.1419538967810412,-0.7829056160754463
307,1.4089854931280967,2.117732643761695,0,1,1.3259257888915217,-0.06896893075693512,0.5123740106994763,1.8026767617466954,-0.7073835216637769,-0.5557732846570771
308,1.400737306247914,2.256816764632308,0,1,1.687192473430895,-0.3317508669953891,0.3339674225006419,1.4823200607623042,-0.20559471889374442,-0.29829179302878434
309,1.3615599499025515,2.409998505146739,0,1,1.2906971265853195,-0.5528928186715022,0.28582083223291416,1.7671881555669202,0.5090360887828828,0.022034257919760644
310,1.296762729619559,2.580839488934669,0,1,1.1417296552358955,-0.5307265845774005,0.23727674424700498,2.2607516022024163,0.3334772159512977,0.2794359580115123
311,1.2140924862182263,2.76889834457047,0,1,1.057317814586506,-0.3879635812900143,0.1740863118212019,2.631822277605805,0.26380343302990034,0.5232548522145136
312,1.1228086564983633,2.9693736119244885,0,1,1.0024335925853514,-0.2805404697611511,0.13166868756014574,2.901975278041188,0.18076498609739822,0.8415101704810702
313,1.0326201819895275,3.173480880324019,0,1,1.0214735569731717,-0.16931189592760706,0.07201024029265347,3.0886480004049117,0.17150603975443965,1.0772361321232402
314,0.9526105461155479,3.3694241775865827,0,1,0.9391420798396913,-0.08612664674150383,0.03268347584669722,3.3539832329069825,0.2165045115039497,1.194252307533287
315,0.8902678066308899,3.5437605431120156,0,1,0.8240875554392972,-0.06720975578375393,0.055739409399685434,3.4344442233149763,0.25014496000524955,1.2520180633659674
316,0.8507199490918876,3.6829550090194627,0,1,0.6848782240685607,-0.11939904991354645,0.06017155911416626,3.4136636751274945,0.21001149175903172,1.2340850768152802
317,0.8362591447617259,3.774957227412212,0,1,0.5911383244445474,-0.19005610360845882,0.06740606221705542,3.4072856164931413,0.07849967617488109,1.1162261415761872
318,0.8462163925180567,3.810672976678963,0,1,0.5928986961438263,-0.2919545745249642,0.07703381507766026,3.4162768866120183,-0.06266510648136972,0.9892393647446739
319,0.8772106765681704,3.7852261083857757,0,1,0.7414845240321553,-0.3499862017281851,0.18809380304385492,3.6161195975069065,-0.16852561006170824,0.9222414867942361
320,0.9237414374323802,3.698892999401428,0,1,0.9691756206569969,-0.21812617032775997,0.16046652395358424,4.086912368846849,-0.2593484345601787,0.9737183781444265
321,0.9790310481445592,3.5575537870410945,0,1,1.1891857178654839,0.0906967525634545,0.18066744114179079,4.109492702342274,-0.08644886651102424,1.2423900311130605
322,1.0359766215995265,3.372486330767754,0,1,1.1203594615305619,0.3209281200792434,0.30999885332398786,3.665370150945203,0.16932580370222308,1.5224451560872765
323,1.088057305619941,3.15938327333587,0,1,0.9627545836936656,0.37828474702084103,0.3477457421322628,3.1031536935585944,0.2973932930699771,1.3479152898882996
324,1.1300684101047511,2.9366196981579975,0,1,0.9809800385614452,0.3869522762532964,0.41139134833383206,2.4092252215866075,0.30097207944444976,0.9249541878700716
325,1.1586021433338993,2.7229978865931406,0,1,1.1813031928247124,0.3333044909797436,0.4084061479994733,2.037599482500947,0.2658246569518251,0.6295738368424453
326,1.172243755886176,2.535363101598637,0,1,1.2882356027431534,0.31704560949762917,0.2532140403029912,1.8086395860072144,0.18572479650898474,0.6239722601385128
327,1.1714904346383337,2.386544473768378,0,1,1.0985282034585049,0.04002038817530455,0.1545045567265123,1.6352031701451482,0.08822103681575397,0.6700501077784339
328,1.1584334165401795,2.284001749476941,0,1,0.9794671414236003,-0.2083403178744686,0.17434455400398602,1.7844221133660465,0.006135478042675064,0.7387505247820808
329,1.1362758241689406,2.229381085945648,0,1,1.0141651304468087,-0.18373775300223374,0.1328283705051262,2.1530923173324163,-0.015161202128569575,0.9383641163083741
330,1.1087798892387712,2.218963672942101,0,1,1.0646313462983237,-0.07854766209456666,0.14079586418137865,2.3671867852408153,-0.012655073551762246,1.1036896035479118
331,1.079734705104979,2.244799943108751,0,1,1.0653621369703246,0.07253706397808782,0.14941521972057292,2.3862165292850994,-0.07104295921401375,1.1515801025245105
332,1.0525117177902708,2.2962166064276155,0,1,1.034066418526875,0.1336472187821021,0.14023523594830503,2.303844744501228,-0.10220875224448961,1.0446701929016973
333,1.029745704978544,2.3613856658399395,0,1,0.952787785625803,0.10456812960032416,0.16129521174013656,2.1787972445063675,-0.11227002729305911,0.9170470492080962
334,1.0131569123963375,2.4287287957604424,0,1,0.9297204131742963,0.09038330465970261,0.14900379818055864,2.1747622782663822,-0.20376864926713448,0.8538136022606926
335,1.003515911858388,2.488040734139087,0,1,0.9389696820024449,0.09894230919612648,0.1334453417892435,2.2386156077878776,-0.26414745121303956,0.8334282770929522
336,1.0007396830331907,2.53129966460389,0,1,0.9828405546503521,0.1325565315011784,0.12502542607576986,2.3738626407389676,-0.3085231187719596,0.8476412429060318
337,1.0040905916135652,2.553169877772655,0,1,1.02137725013211,0.1603922094434866,0.14715365268354655,2.479709734705555,-0.259583283304904,0.8751982850886265
338,1.0124316562357583,2.551203793913612,0,1,1.0640625440535034,0.21595253842890255,0.13550082472754654,2.543874474536969,-0.2754229445321622,0.8586559339301155
339,1.024479122888887,2.52574367162376,0,1,1.081590824328831,0.33201707253159374,0.11963033234469723,2.558745730007505,-0.3910834191799333,0.7932162547615704
340,1.0389939279254934,2.4795311216188236,0,1,1.08104477680665,0.3500100807953985,-0.01277577832885728,2.392838866939549,-0.569128953586375,0.7552041342447117
341,1.0548700266898352,2.417063521542909,0,1,1.0449693657070651,0.373794007798703,0.16223573771018943,2.12749032185604,-0.3893841934783817,0.8109813413141638
342,1.0711074673563634,2.343782996572293,0,1,0.8059120260295306,0.29234046246426043,0.6018873988360094,1.9693534412233626,-0.35789663402465366,0.8394418043373957
343,1.08669434555367,2.26522587084379,0,1,0.9650843343894874,0.06412976920626724,0.43279475528874617,1.8725865834405433,-0.42137765292989987,0.7229382734005544
344,1.1004543295747238,2.1862759654792274,0,1,0.9794185211716929,-0.09125218641696445,0.33763681865499356,1.9326977864399415,-0.19361204448358307,0.5340579121669417
345,1.1109360761517604,2.110642021855323,0,1,0.7465309098599536,-0.18486084143535544,0.4299899034479687,1.8761102535420224,-0.24182818034308212,0.3967951097108301
346,1.1164216553350164,2.0406232875377595,0,1,0.6072927195113036,-0.30447212483774877,0.46137827655395885,2.0581232659390167,-0.3476816975546627,0.31887062430239943
347,1.1151085518715633,1.9771559734925346,0,1,0.7381517384759908,-0.31309709191577256,0.39394192920481935,2.041326810729761,-0.4780957241866543,0.15422166759684455
348,1.1054698068275315,1.9200693601252954,0,1,1.2306718286602534,-0.25217408366734934,0.22720899368775588,1.9160917492374059,-0.7890867583597265,0.0017300529679990725
349,1.0867246627883385,1.8684439878086476,0,1,1.6101055679392677,-0.1761954184307148,0.23224895681531965,1.9630875392007412,-0.4157453337221494,0.1945221462797037
350,1.059284676504206,1.8209656754022636,0,1,1.2922364459827778,-0.07260715584225279,0.2542867248728839,1.7761963419006006,0.0635203909752284,0.37942627958942715
351,1.0250193055692387,1.7762021499211404,0,1,1.010773839709609,0.07677299751277902,0.1404140502716064,1.78722611051599,-0.294501997177291,0.31508291304703456
352,0.9872330349443532,1.7327759371160492,0,1,0.9386282936766486,0.1942332751144152,0.09035532141593154,1.719736295458999,-0.07890002472904536,0.32994131693190065
353,0.9503397910553761,1.6894496937058716,0,1,0.7815102134216534,0.1888090427341279,0.16271481582101738,1.4283808136064604,0.011905091601078041,0.44682827132082664
354,0.9193076044906598,1.645167639905702,0,1,0.7682212955018061,0.053149784441777405,0.19708230069509763,1.3643676052117932,0.01001179641916187,0.5167595803836343
355,0.8989901578535813,1.5991033907041317,0,1,0.8230644157019698,-0.09020018723419929,0.18988845728957074,1.427230616030028,0.07415526568989098,0.4876473697480065
356,0.8934599885831873,1.5507459517616136,0,1,0.9416872281985872,-0.10654229914795457,0.13214337989670405,1.474791574707398,0.07117175783136678,0.5397987324707434
357,0.9054304965088585,1.500015226488236,0,1,0.8852908405126008,-0.04933590906033843,0.10809893622787287,1.5577497486703789,0.1422419543574948,0.6696149525742278
358,0.9358230911155263,1.4473540428143028,0,1,0.8825950325048991,0.014558056002616457,0.09790352040814836,1.5453645766677926,-0.09700937535884549,0.7208766910050161
359,0.98351571554004,1.3937214739111743,0,1,0.9595360947289697,0.11146072041528442,0.026032653273306686,1.4960422044523822,-0.10272537947745261,0.6246345741936988
360,1.0452999192319132,1.34043020010096,0,1,0.9057714722322208,0.12256015328988747,0.02793024206578326,1.302472450642602,-0.01336821718339784,0.4835380890113249
361,1.1160663651921918,1.2888275036553618,0,1,0.968622507818307,0.10154987261617704,0.035828152844895635,1.0288998992390797,-0.3122257142226384,0.35786896214009595
362,1.1892237349548933,1.2398933695252936,0,1,1.1880512373808643,0.19140705234734687,0.008907168102300328,0.9488106526542718,-0.42288412892116817,0.35632343286798757
363,1.257329702496575,1.193887549626807,0,1,1.1893160806673453,0.10447586784421106,0.06712029255507791,0.6061241582796135,-0.35514232492334563,0.3090015281444065
364,1.3128785517358625,1.1501927807405619,0,1,1.2840557495836418,-0.036321441510056576,0.4954392134016957,0.32285033663655466,-0.48371475208279285,0.4019060639457062
365,1.3491576871490167,1.1074610841161587,0,1,1.2914481139619767,0.11251778478093849,0.6218444210640427,0.21753605884560712,-0.2974548029278039,0.8978751759038355
366,1.3610648408331656,1.0640782356033922,0,1,1.2331401478710196,0.10286681277512072,0.7119661265472854,-0.2015944210324127,-0.0626393029048628,1.2123496175959156
367,1.345774689009237,1.0188415200727305,0,1,1.3334009864911702,0.02559330196612767,0.749162386070134,-0.114369711034693,-0.19386998184850465,1.4239399200186915
368,1.3031587023101372,0.9716422047196176,0,1,1.3415285115763325,-0.1003976252646558,0.5716413388616528,0.16581526944805697,-0.09203816910806555,1.5266097508405168
369,1.2358941093968356,0.923906575381552,0,1,1.231296945731962,-0.07342892778047792,0.526363413060143,0.35050006397006545,0.441881545912868,1.3093475814338003
370,1.1492440580993353,0.8786049995390738,0,1,0.8369570402579367,0.10327446609102009,0.5148561236089563,0.1880557583477468,0.36335006715159146,0.9300431135897506
371,1.0505438393439674,0.839774691328031,0,1,1.0386518381530092,0.0328755989383543,0.318005687723787,-0.0918683462151029,0.16949602584441958,0.4860811958744414
372,0.9484728024199355,0.8116692655345795,0,1,0.71114912613312,0.19508796962429042,0.24664617495490077,-0.2302855620058481,0.28619680231299055,0.17008275665915631
373,0.8522136924374045,0.7977796339014193,0,1,0.8093243259834246,0.06903368683919031,0.14704962399261218,-0.23231544640114427,-0.19896219342524862,-0.0551630611168301
374,0.7705970801220569,0.800012570711614,0,1,0.8346864936402004,0.042267118141298986,0.10613309431911377,-0.22879894117263172,-0.3238778763993753,-0.33502467208378617
375,0.7113077910783794,0.8182532328917838,0,1,0.6994392315491182,-0.016592539649955725,0.11904057620515565,-0.46968446449157997,0.037815359154314464,-0.5456385286780221
376,0.6802073690293877,0.8504087123335972,0,1,0.5687786271236962,-0.039774052541117155,0.12378973982945085,-0.5643878747748102,0.02109498305911305,-0.666200087805312
377,0.6808117834068329,0.8928855175471454,0,1,0.6256178774382855,0.035912492171967625,0.0998069536263738,-0.8021982183121091,-0.10383638261231834,-0.7183254151751292
378,0.7139560454276309,0.9413421144219488,0,1,0.6842502865647995,0.14255982174554646,0.08256229971005591,-0.9711220331670612,-0.030054352737454475,-0.7355942097289266
379,0.7776687694090846,0.991503866325048,0,1,0.7860287431223874,0.23418445305702593,0.03340560170610705,-1.0968182499981043,-0.029756452013362997,-0.6392932485308187
380,0.8672660572633292,1.039836071755258,0,1,0.8259222546526394,0.1655630668671741,-0.042405689909454376,-1.1603288469424942,0.02435769173267436,-0.4492939891446838
381,0.9756604113924118,1.0839304979521727,0,1,0.8817813836099615,0.027890454396381527,-0.018314469726837992,-1.063336254233403,-0.0497727668271286,-0.34175523673336894
382,1.0938715544213193,1.1225509220671805,0,1,0.9800584400138503,-0.22780637944649132,-0.046030050506857385,-1.2494677404631789,-0.3816175432344437,-0.32691559970363365
383,1.2117187780037177,1.1553787039228125,0,1,1.1625867511187806,-0.6331511582793303,-0.12560244296729303,-0.8518123949254812,-0.3797493369988919,-0.42411337330136506
384,1.3186623148843133,1.182579656678332,0,1,0.986378270539718,-0.4548809944281795,0.2161170253143273,0.012085844831951704,-0.2899830348111582,-0.5137084806352643
385,1.4047435275560638,1.2043620906854469,0,1,0.8026430916473516,-0.2345904592499744,1.0299957527286496,0.0197007211751508,-0.5201417937997137,-0.5062587170894488
386,1.4615537410766275,1.2206923482395342,0,1,1.2171596686042627,-0.5074538122403973,0.9412025893254882,0.10249348429685276,-0.4686776459589062,-0.99015964701041
387,1.4831404764023444,1.2312624249984612,0,1,1.3596488499918804,-0.49681559126989466,0.5666594335012269,0.22794774617736907,-0.25340661362553524,-1.5646925718161053
388,1.4667409803935487,1.2356835625099956,0,1,1.1552351402382548,-0.25893689369596823,0.811852570762294,0.6229083642958851,-0.4913620327073419,-1.4351574143385295
389,1.4132264092639482,1.2337725551200105,0,1,1.653947715924314,-0.02073604474933272,0.764473590616904,1.0856164588363661,-0.8303338093624383,-1.1340679568457335
390,1.327154953989444,1.2257686622018829,0,1,1.7309967594133888,-0.02208224354749258,0.3721111370587004,0.8439115418083972,-0.11778416443106526,-0.5538849426321119
391,1.216373315532907,1.2123835485493029,0,1,1.2353922487591695,-0.17219901344324337,0.34190609583378656,0.5043844252945456,0.8252903016411024,-0.09961468559746307
392,1.0911781660980162,1.1946980261481484,0,1,0.8247421993032231,-0.30323413328046245,0.2991318113977727,0.4939302303853292,0.7401617511848452,-0.03087985331817229
393,0.9631463502443024,1.174004300178853,0,1,0.5121066969427259,-0.24918966182967814,0.15565089973114904,0.8750595072904443,0.436894223938905,-0.11760586143405773
394,0.8438307326052502,1.151703519843057,0,1,0.5320833246292536,-0.07798938153295093,0.09442930568497902,1.0958904691466433,-0.04752642627677741,-0.04612751790331037
395,0.7435524171887,1.1293117067910683,0,1,0.46813126421220846,-0.031065271295572683,0.07797218809863471,1.2070075668348155,-0.35010351468905854,0.2846587044818822
396,0.6704799180783381,1.1085456667234208,0,1,0.5375723876108768,0.08870868166240274,0.16241251782191904,1.165877713860264,-0.3528611285822317,0.5299312181648399
397,0.6300911782577493,1.0913996342913197,0,1,0.7187971215938878,0.08119369650201563,0.12561251838736315,1.0515587643849316,-0.3716346506254226,0.670035422610968
398,0.6250056242030296,1.080109175051987,0,1,0.8764105816585896,-0.07103295310035136,0.05811285545650756,1.0164561315744391,0.11698920984594666,0.6466138737371011
399,0.6550899852917593,1.0769329712327491,0,1,0.8960226143668596,-0.09999185548361632,0.046640126415094185,0.9756190038384532,0.09105200020491935,0.560611350425123
400,0.7177091759464795,1.0837476961898207,0,1,0.8587508730883929,-0.08608874440810435,-0.03130097838455986,1.0400223574015002,-0.14920318185422443,0.3892103119339649
401,0.8080176877729006,1.1015209853524726,0,1,0.8075615212866504,-0.06574846152399805,0.004616420679912705,1.0169046272207902,-0.18543404791258758,0.08289674779139197
402,0.919250400314327,1.129782690707984,0,1,0.6637084856118086,0.033667034071779296,0.07345884206560513,0.8769266647243722,-0.2919966905607912,-0.17396109404295793
403,1.043040947056386,1.166244819080149,0,1,0.7355626554119027,0.24036010571045627,-0.0746289041598526,0.5902571865416544,-0.7207218860291118,-0.13817232644642563
404,1.1698361120301985,1.206720376867695,0,1,1.1622067571215056,0.3059382643593542,-0.05760193614545974,0.10729314789778495,-0.7669381865162742,0.16530439751361406
405,1.2894678327158922,1.2454553263265455,0,1,1.051985878828645,0.11098547764743916,0.43683645109772556,-0.5263014694941619,-0.20361077565358673,0.35127054302355537
406,1.391898380256446,1.275910058644189,0,1,0.8925577803071223,0.15910076444035182,1.0044050089826997,-0.5790180531453513,-0.31342253346112114,0.7926848148698592
407,1.4680954239229762,1.2919062318733643,0,1,1.2073449518003194,0.6396193659189982,0.7381405393523031,-0.6345211764652993,-0.5001067165772476,1.5756019736412274
408,1.510944733955367,1.2889114431266213,0,1,1.326446467285071,0.3392336990420712,0.6510331052989828,-1.568774420362291,0.18203063989748874,1.90716753203903
409,1.5160778546314828,1.265125812922715,0,1,1.3979642428019758,-0.5193783462363989,0.6980895941834426,-1.17522328475628,-0.4916420924923434,1.5944808510663495
410,1.4824819709536687,1.2220395077071973,0,1,1.855540898003589,-0.822779135684557,0.3419766574201317,-0.0896581726544715,-0.626574781574418,0.8855454262563186
411,1.412773652709235,1.1642825238535157,0,1,1.331342727559052,-0.22915632402392155,0.384969465379637,0.48760258693134995,0.6047950550174246,0.48286040146384235
412,1.3130641200707385,1.0988249442322935,0,1,1.1866988216424703,0.31515095881160793,0.27214677175969765,0.1622347282863287,0.08303683612606194,0.46711476436657906
413,1.1924186664222027,1.0337824038054455,0,1,0.9079831551134679,0.45334664343390574,0.19898508037919435,-0.45647517013173666,0.36922881179576506,0.3906221239835738
414,1.0619916124854314,0.9771472674155844,0,1,0.7694416743119513,0.27927858736218814,0.1318992812987522,-0.8606100291855411,-0.10254346207425699,0.21578422605277545
415,0.933964175406159,0.9357021551865692,0,1,1.099137800533461,-0.09636560402991969,0.034506607681877535,-1.0505894459235408,-0.26918662984090735,-0.11636724223768234
416,0.820410701117944,0.9142470805457089,0,1,0.8360023842515905,-0.32174810602591486,-0.01960811746598116,-1.0004809193597866,0.1833933060747268,-0.33350505372815914
417,0.7321883014680967,0.9151613375226645,0,1,0.6598002118350488,-0.33072982181505983,-0.0021567687997024955,-0.6310679612743904,0.5142062050511799,-0.5093193743044657
418,0.677919364916777,0.9382688514942499,0,1,0.5967038597476535,-0.15570412934783864,0.03066810924941566,-0.3325448438890981,0.20008038821211308,-0.6583118992043011
419,0.6631327132982475,0.9809761916994577,0,1,0.651925003162973,0.14762747415051353,0.043457775432857976,-0.3457287096604404,0.01669526072422303,-0.6323183124292026
420,0.6896389601771669,1.0386689183397813,0,1,0.49951026333946946,0.3581159687849264,-0.014183860533360262,-0.7133090205390691,0.2342722736702929,-0.3465370728163861
421,0.7552215143358849,1.1053459764585838,0,1,0.41285893257296946,0.32636049147123575,0.06693753216883015,-1.0837920663827347,0.4856871287888403,0.05695840279237741
422,0.8537166433290315,1.1744302509729094,0,1,0.37314663457456015,0.143302422352556,0.21675088721575192,-1.3828787376254577,0.10675830111665184,0.25048205408101887
423,0.9755281857349712,1.2396366613346006,0,1,0.709533341897079,-0.24808614135773963,-0.11389095795434233,-1.5855652516488297,-0.8510168403221015,0.18841077472288278
424,1.1085672232441992,1.2957475961800182,0,1,1.3191756398940342,-0.6930290234126674,-0.14835759028950216,-1.0691957199075721,-0.46375782857150927,-0.330013147684212
425,1.2395272650202094,1.3391689619540526,0,1,0.941544174147867,-0.5467343516827267,0.565234821808921,0.2769488113810488,-0.15243875344230537,-0.867076932009924
426,1.355328917913228,1.3682088615311083,0,1,1.0380507407464825,-0.5525178600263275,1.0383462735433477,0.355747451199708,-0.8185910820665655,-1.094380206297375
427,1.4445313737031271,1.3830869018645173,0,1,1.4088746108415093,-0.7598423473664712,0.6205329851385796,0.09079004419882584,0.0446906404944879,-1.6157551623284918
428,1.4985245046060762,1.3857051949274122,0,1,1.15905300346755,-0.3190267945231553,0.5521528641957861,0.5645348109848998,0.11206902420455193,-1.6040186911456507
429,1.5123673908788748,1.379204769542722,0,1,1.4052777071240155,0.08135489253029368,0.7071400975092174,0.7300695573244815,-0.8101722149079814,-1.0710749450712866
430,1.4851990348574053,1.367340801507162,0,1,1.7936790898906376,-0.06545248317783138,0.39690530179247596,0.9822764653323164,-0.7808022009934282,-0.5718241858938019
431,1.4201969660570932,1.3537605613718242,0,1,1.575703418944328,-0.2717309783451164,0.17213020985423227,0.7767186417039819,0.03454977554849353,-0.28978860228963443
432,1.3241016905618548,1.3413334359375946,0,1,1.1998995083153725,-0.42549576169585585,0.21948683790327947,0.49566652135756667,0.6588489272136734,-0.2346610540189677
433,1.20637482734039,1.331711589965796,0,1,0.8941960260651733,-0.4017009150607957,0.17622771442809157,0.9499528264843567,0.38640513539447907,-0.25492083183776704
434,1.0781173462149323,1.3252557868216892,0,1,0.7927702508916018,-0.22145309298749236,0.10178033700598411,1.2489608433370836,0.06811472477517012,-0.271798682259372
435,0.9509157567572086,1.3213485958530604,0,1,0.7039011663704748,-0.022760407816762487,0.05521471220292412,1.499206758260528,-0.2113052881986337,-0.12713849903547095
436,0.8357801349721484,1.3189837874537016,0,1,0.7857236043433045,0.08055589332102171,0.05395373977849392,1.6561052246660637,-0.3799296365590267,0.10360370402397663
437,0.7422862860961776,1.317425525906662,0,1,0.8210059236281082,0.07544331959065691,0.0771831584414286,1.6995409992863921,-0.24398492097331423,0.2978086674810942
438,0.6779600241061156,1.3167119700219563,0,1,0.7691169706109688,0.06353462454546557,0.01541633356376016,1.5082903874986395,-0.1296281257485206,0.37844782461705845
439,0.647878077562191,1.3178385088854587,0,1,0.7687331096114927,-0.02246193191085712,-0.038632110135996565,1.2903859513514053,-0.11636375469967691,0.3327010113760011
440,0.654430498539162,1.3225691110358886,0,1,0.8008094223357972,0.004129996481963443,-0.033392703432746126,1.0909849362734354,-0.1681359336374133,0.31438757220207386
441,0.6971971270318494,1.332944759651795,0,1,0.7171826114252311,-0.12083853999196596,-0.029193593532212517,1.0814519064432522,-0.06398923134643382,0.24483398204210277
442,0.7729240534274164,1.3506411387859896,0,1,0.6286381406834293,-0.23116548232050957,0.0407867543556135,1.1911795045950986,0.22467322220446484,0.09516655574854442
443,0.8756274527236693,1.3763507471178664,0,1,0.5274119870030722,-0.25695737680033215,0.15682080251227698,1.3772094860663389,0.14872083125525642,-0.003949475277759368
444,0.9968817587018926,1.4093354500445527,0,1,0.7234835618567449,-0.10706183006229837,0.15354770308065974,1.3614806688700256,-0.4779831687118277,-0.022564019678075656
445,1.1263482494110977,1.4472436092696026,0,1,1.1776694342843508,0.1656989114413376,0.0037246633468846326,1.067431934974478,-0.7338653981946112,0.1966725145978317
446,1.2525618586526812,1.4862392073435275,0,1,1.0726169427034369,0.17768390083873065,0.4379532829330653,0.6381543706108624,0.07273615871919739,0.5802980143130847
447,1.363932553012544,1.5214526667658068,0,1,1.0942553295710296,0.2787143657439332,0.9804290786716146,0.852947583559483,0.1561092174546168,1.1588963951124231
448,1.4498607453919636,1.5477135799294652,0,1,1.308080227192875,0.7996986230931635,0.6172207233189602,0.4824045595739018,0.22740622942370137,1.7561026926225376
449,1.5018359248587247,1.5604505685229573,0,1,1.1706959247077118,0.13919315388465806,0.53813780281655,-0.38353145831690844,0.6356065561497202,1.9325732471753645
450,1.5143879023486473,1.5565696338038986,0,1,1.346751704131348,-0.5020959796143661,0.6691832432986135,0.4254094051132102,-0.3701801764750105,1.592041186564667
451,1.485778709753835,1.5351012483684525,0,1,1.63195987531152,-0.5094628421111626,0.3838115319082294,1.0898299811478405,-0.2602931756500401,1.0783788259752247
452,1.4183449029135193,1.497459682459168,0,1,1.6058251441593245,-0.20645393736915332,0.2752618092820735,1.7076914438039603,0.46843763627801455,0.6945597307413144
453,1.3184234224859321,1.447256193980464,0,1,1.2990033753340238,0.39401313250007486,0.26992771236977453,1.3656909765282066,0.4907591118497479,0.6423080841535395
454,1.1958324065956865,1.3897096945026437,0,1,1.0991690576126283,0.3996648497226592,0.23566343192132239,0.8927889755894104,0.5941018311513087,0.7786314101968864
455,1.062936005410349,1.3307877830102446,0,1,0.9246307854454797,0.17160923953217327,0.24293987050232418,0.5772725036282795,0.2397709850386103,0.6087265202769779
456,0.9333820519219749,1.2762800428549446,0,1,1.0162529268335183,-0.10703411908002654,0.17325180917699157,0.57623261044716,0.17227281743368975,0.45618681100121244
457,0.8206420663292094,1.2310294929890078,0,1,0.8854514810315408,-0.27310126631292203,0.06915060825297407,0.8645657807168826,0.2519538266755429,0.3235179223613118
458,0.7365015509879138,1.1984999112961665,0,1,0.663362731399432,-0.2216799451511946,0.010398005317491528,1.217366326834834,0.07827697851134974,0.2532851743091903
459,0.6896585578378581,1.1807431326622242,0,1,0.5614026774581193,-0.058714233766173414,0.03867213268901469,1.3639095550943776,-0.15241853568408245,0.28593891188775566
460,0.6845999071617392,1.1786998582415311,0,1,0.36817710898093264,0.012939335075653985,0.0832574903412763,1.321683073721943,-0.23465665899638158,0.457939134581451
461,0.7209287218126323,1.1926785949106338,0,1,0.29111641314252085,-0.01075815609636312,0.11308870934930221,1.1144468134100285,-0.2200089528641248,0.6682984470387024
462,0.7932931419795876,1.222839401030574,0,1,0.27193729170304587,-0.0339766830122198,0.2628823257520726,0.8938002132222885,-0.2327534660370607,0.8573358987466193
463,0.8919974946068323,1.2695495191215365,0,1,0.4846178358971039,-0.11587405004102112,0.45830437166573906,0.8037156370992186,-0.37256110759279354,0.8950568537628097
464,1.0042639833604223,1.333540539018501,0,1,0.809258885479195,-0.23124478991428032,0.7060083031461467,0.9479508318355269,-0.37925655925137086,0.7455835439633286
465,1.1159775477972866,1.4158491443255423,0,1,1.5968196414670228,-0.5310326155304292,0.4631058134039482,1.217002768546033,-0.9896905954067835,-0.022607167759606948
466,1.2136316687140682,1.5175532621224634,0,1,1.4436594112538994,-0.3764073340989391,0.22925634493670627,1.5081567440515107,-0.034803817046736775,-0.6092432777905796
467,1.2861455247636153,1.639330514477623,0,1,1.08408641130436,-0.04396967324883552,0.5674681706919034,1.812860828171661,-0.42289764717228157,-0.5450606898235365
468,1.3262627016160842,1.7808852828595563,0,1,1.5140571836011842,-0.10848238204259102,0.4409681723061527,1.755931772708258,-0.7793557116548889,-0.3713347116994771
469,1.3313412335712445,1.940329928415522,0,1,1.58153817429225,-0.17017665794220246,0.43000314242559207,1.3674359261999551,0.3382157335963148,0.013164323664324698
470,1.3034549724555207,2.1136605050523247,0,1,1.388882081056859,-0.30513126139392965,0.48098500645974157,1.537544892335146,0.4332615943714503,0.3532968013478717
471,1.2488228927447378,2.2945053676864395,0,1,1.1563260608824286,-0.35167838462459877,0.32496668913383997,1.8373844073819712,0.485023143289732,0.6133130458932751
472,1.176672285286745,2.474303507256721,0,1,1.027483801190296,-0.25934553302241004,0.23987762498680484,2.156921170165294,0.5039214903185769,0.8038850463549988
473,1.0977258178396625,2.6429749706225336,0,1,0.8884246149147219,-0.15624992242152283,0.20957174994961014,2.5038533741353985,0.5631076985343799,0.9088210750299712
474,1.0225628980994512,2.790014285441371,0,1,0.7096378300692713,-0.19375613697144436,0.1974321433123671,2.7351607880988107,0.5987631935915677,0.8888018833134296
475,0.9601229442009911,2.905825881741592,0,1,0.5202305113070141,-0.23263800568821297,0.18262682062944527,2.887711940348707,0.5382482109736153,0.7506299495244285
476,0.9165866160311531,2.9830632665734447,0,1,0.47011711895942326,-0.2138930919742287,0.24336798696934225,3.0164598673597696,0.4171276337404857,0.6792567112091077
477,0.8947959583187194,3.0177327432713614,0,1,0.5306336244113337,-0.20428484736673277,0.3302003694076927,3.194503709447814,0.4259151097198936,0.7032607561280072
478,0.8942658652979606,3.0098614000845143,0,1,0.8887560661730016,-0.13806734564446507,0.4501779541983667,3.337786465922984,0.4213164894893302,0.75278880591906
479,0.9117163985874968,2.963594707630578,0,1,1.2956279618676398,0.19745183341544328,0.48271104333040815,3.121037266320888,0.42673849221367405,0.897482166519813
480,0.9419516113339307,2.886680118909898,0,1,1.0412656615416376,0.42787064488928295,0.4274288148285821,2.868430117296773,0.525054321519769,0.8714498013294771
481,0.9788640647567826,2.789409271086127,0,1,0.8027529619797578,0.2953435687086517,0.30736785129354655,2.3373333728852437,0.5006579534550093,0.536432597240019
482,1.016371557188821,2.6832138443376783,0,1,0.9170501063355614,0.08936963320650886,0.3302803242360188,1.939866709716251,0.45695554552556467,0.3865779156411922
483,1.049167750835948,2.579196245520756,0,1,1.0195245761231273,-0.024859472207165185,0.324594214902873,2.1348607752541993,0.2286270821775663,0.5597931181771576
484,1.073241463132486,2.4868812067742856,0,1,1.123410339272957,0.03968452402045261,0.29422130230803306,2.2561100137553085,0.061430455922952536,0.8260456144398693
485,1.0861602561871568,2.413387139855531,0,1,1.1386380844741273,0.12038970953008675,0.26865738335388906,2.234148196051428,0.09053929030563374,1.0351373080265631
486,1.0871300840637883,2.363076786289475,0,1,1.0842859156477938,0.09124686455895219,0.24048162846407223,2.1515815372242875,0.10201215391252305,1.1590914185520493
487,1.0768562102262798,2.337620145565289,0,1,1.0255908498996287,0.07816130795193697,0.2055703333566227,2.1604952908364323,0.043999381581434356,1.258219393926994
488,1.0572508330956951,2.336332127508134,0,1,0.9535064386010706,0.07720170793207992,0.18751542666712864,2.183874302856069,-0.01887721722609869,1.2646099751326683
489,1.0310528877426752,2.35663691418961,0,1,0.8502675590648388,0.08383755083561217,0.23864694110628254,2.178592853963227,-0.02958210766063475,1.171618069383308
490,1.0014332832158295,2.394542818467025,0,1,0.8547413613018465,0.1626976339728408,0.2701645368430787,2.2168324115919456,-0.11587411335088686,1.0523328026515264
491,0.9716474201716236,2.4450651505561014,0,1,0.9390403266767068,0.24615404354163917,0.2897160512775617,2.152451234801661,-0.10585074377245447,0.9961783698807325
492,0.944768813281896,2.5025914357151144,0,1,0.9227142537915347,0.23836655955619387,0.2648728190909229,2.0695811125156145,-0.10233787020315918,0.9885455377440079
493,0.9235048629858935,2.5612247058878386,0,1,0.8991796560354917,0.17345762594203804,0.2220435112143088,2.1253218113408594,-0.1759995891572786,0.9865704619741096
494,0.9100727461454335,2.6151511503730642,0,1,0.8886895260210531,0.1586751492044957,0.22175657153951225,2.325796945152453,-0.24085240934884938,1.0117141549617445
495,0.9061069263110205,2.6590530630597518,0,1,0.8926239382558663,0.17183503881295692,0.19302102561683274,2.565635697347047,-0.21889860831160238,1.060454220941911
496,0.9125759143244345,2.6885387417950164,0,1,0.930062938631947,0.21069381793567077,0.1395891691522522,2.6442045629983157,-0.27927585895651713,1.1276285010878428
497,0.9296969965446528,2.70051498604406,0,1,0.9591517546487203,0.2948704489847094,0.10289390486212618,2.587361258078438,-0.35480652735927276,1.1995093417375444
498,0.9568503600188981,2.6934125848181205,0,1,0.8747968381680712,0.33910589502841126,0.07972991180515408,2.485797634942682,-0.35965219027334133,1.3148865190559191
499,0.9925089125754896,2.6672007267361346,0,1,0.7659706682705372,0.3120916260289215,0.28955230128910703,2.2346090251496307,-0.44515319364224887,1.428744187847974
500,1.0342151939024633,2.6231806007529443,0,1,0.7889627552273203,0.2374950517435195,0.4770632976066964,2.0177407114548833,-0.5376601641009789,1.4347565308931394
501,1.0786446503718534,2.563607789330567,0,1,1.010560759840959,0.0811196036204702,0.45548850008716335,2.076323905153826,-0.6542044768254428,1.193352935072391
502,1.121788248468889,2.491235364928355,0,1,1.0058464749758649,-0.10465096846786308,0.3702122536764892,2.1315480977620007,-0.5517381614061674,0.9149341316409615
503,1.159268883005022,2.4088830399250822,0,1,0.8810461319959452,-0.13457378590818236,0.40668151006661596,1.9635251694913956,-0.4804210758044694,0.7431222158414884
504,1.18678325195045,2.319121606168196,0,1,0.8588123177530724,-0.32658489634301985,0.5069417755591905,2.0390408702155414,-0.5449240899568784,0.5453315965358285
505,1.200635863902064,2.2241216728304734,0,1,1.045538259452089,-0.40618790536144744,0.37177349905179796,2.110998407941155,-0.824365906444372,0.33555673401955377
506,1.1982998132424967,2.125660295624728,0,1,1.4928782461421413,-0.2637466565811991,0.2579872793791023,2.2064187418512162,-0.8160531896874189,0.40375960241579584
507,1.1789037680208039,2.0252257587448947,0,1,1.5195689013351277,-0.19174547595233074,0.2978438212015139,2.1412545534302936,-0.18430050550458613,0.691335628984906
508,1.1435284312821807,1.924134879808692,0,1,1.133950708151415,-0.10935045574566785,0.2699947321407906,1.925358027407411,-0.02484144072039716,0.5687007724763838
509,1.0952228670519837,1.823595681444596,0,1,1.018288483455741,0.12176426585466349,0.143255440417406,1.7212792025852597,-0.11445243190350723,0.3062734999411512
510,1.0387194155042103,1.7247018578363995,0,1,0.9626600261894418,0.21274831012324574,0.10345339922620435,1.5000002422385634,-0.06842739041977544,0.2193700465260948
511,0.9799018202361789,1.6284018556482571,0,1,0.8670324529693451,0.1375501437536471,0.14673992309958042,1.3367905185044373,0.029071657374391737,0.28291046587414553
512,0.9251285817227277,1.5355108369195944,0,1,0.8443647600624693,0.044810780973669945,0.16059896816197672,1.3028395977569351,0.04525305651590248,0.42957401336152995
513,0.8805222492503114,1.4468130224527527,0,1,0.7884721541942772,-0.009011299557620034,0.17006182687686017,1.3873059208405196,0.04482953278188737,0.5636339839693665
514,0.8513178411370588,1.3632447147628015,0,1,0.7811470505649251,0.017929451749294906,0.15127951429836028,1.4826060894779707,0.012862348456553723,0.5965078588432227
515,0.8413353069260365,1.286084194251092,0,1,0.8372272687068715,0.08337285934654712,0.15166610912150907,1.4354711533936,-0.024129385771965307,0.6093728251253024
516,0.852611359307273,1.2170387510480303,0,1,0.8697615340714798,0.06678273017701919,0.13294246683088298,1.3033625083776352,-0.07693910752216496,0.602353556764544
517,0.8852011054958725,1.1581333247870025,0,1,0.8979669641202449,0.06554918196788595,0.11689333412595973,1.160356302478812,-0.04780990989943526,0.515964787467419
518,0.9371444545628622,1.1113662962719506,0,1,0.9299012035805599,0.04677290527333432,0.10493838257104428,1.011074631760117,-0.0024128816293128193,0.38660211995006455
519,1.0045877244296963,1.0781809520504755,0,1,0.9287137098810954,0.002816288636853727,0.09518543756604639,0.8818014458508042,-0.10325633312036347,0.28784291832162345
520,1.0820531138578686,1.0588743739809108,0,1,1.0221831614367227,-0.011702236657828442,0.052628487138367715,0.8106375579713694,-0.2329192043085789,0.24144222412155714
521,1.1628498457086593,1.0521051162573583,0,1,1.1535946585497268,0.06975036486897289,0.07581751517911142,0.8161327418140648,-0.3414653254483702,0.26751608407673744
522,1.2396144766819097,1.0546581256792196,0,1,1.1343319904141023,0.11865109190172173,0.08458262164718207,0.5596900064853637,-0.30848167097300355,0.33632604554731255
523,1.3049533382389538,1.061584361582187,0,1,1.2071740326422469,0.06319381905920327,0.42685473182259603,0.17230307562705763,-0.43465873687718,0.4525084711923885
524,1.3521409500978887,1.0667617919916013,0,1,1.333303543188374,0.1416173816183624,0.5231290473551832,0.06257829811586402,-0.47363747841185944,0.8404477083582538
525,1.3758091587573102,1.06382969379894,0,1,1.2354137250279578,0.0724061109974317,0.6023428350847789,-0.17884765955758075,-0.22155527758536045,1.213128978455476
526,1.3725479771230915,1.0473416998639813,0,1,1.3515025295415855,-0.032758685502530666,0.743457165231213,-0.01901943144553569,-0.10028837056485808,1.3746961217489557
527,1.3413368739011287,1.0138954668716442,0,1,1.322608647366384,-0.10247890712916459,0.6276588589443582,0.31343399456148097,0.0706666608231176,1.4470730342682314
528,1.2837392711556153,0.9629672819706606,0,1,1.3062009119528217,-0.14062827016884327,0.584575691684981,0.5061506041478572,0.31849242624265417,1.2738705322216843
529,1.203824052917917,0.8972297305323307,0,1,0.9485571888621168,0.09001209347220022,0.5591616996665094,0.5967962216950771,0.5370892791571907,0.9209243611426652
530,1.1078211510918805,0.8222500369727529,0,1,0.9731981916326157,0.14258876777982557,0.4395297046819053,0.29285772530007564,0.18100630654497846,0.6458697351602739
531,1.003561502729377,0.7456212268620033,0,1,0.9304748529293,0.13984055926558658,0.2635821640092696,0.029454118516245638,0.22033816362334674,0.3401581489747113
532,0.8997796180414037,0.6757194739074676,0,1,0.6931301946421552,0.1037723299488937,0.19109856468619624,-0.24628660671643626,-0.0026221526803564803,0.20043061660369932
533,0.8053619784599731,0.6203616108188964,0,1,0.8734093525312403,-0.07935649520237774,0.0785440139102799,-0.12317808428998873,-0.45719029602875205,-0.016911332052002872
534,0.7286107086369547,0.5856331836780985,0,1,0.7757422331247695,-0.09851979989053757,0.09588348052083027,-0.14687283972134832,-0.16502154681740144,-0.29014024361274454
535,0.676570678146492,0.5750842642790207,0,1,0.6175715356338626,-0.11883645570921714,0.09017287757896182,-0.07461616850808066,-0.03508418483537987,-0.46986442262021283
536,0.654451350474703,0.5893871939192068,0,1,0.6103978567027853,-0.01524982659908392,0.10670054986943163,-0.15895622519126845,-0.13749273539699272,-0.5244500755828044
537,0.6651683064915515,0.6264530544134461,0,1,0.6565793362595019,0.06508679689305572,0.08118083314408496,-0.31266075822380707,-0.13020950156737884,-0.5214697242540127
538,0.7090294172426251,0.6819288358011295,0,1,0.7286555102344805,0.21129134145915413,0.02331205590979847,-0.5272363055568817,-0.14227410836061985,-0.48113948820931124
539,0.7835898931874227,0.7499489484391094,0,1,0.740227524144159,0.2626232208953415,0.014339134738917068,-0.7865856332323067,0.04536374109279782,-0.3608387134748322
540,0.883698086825503,0.8239923557929327,0,1,0.760631032762126,0.2291804913955563,0.04564464913241011,-1.0027470546509014,0.04582264993300218,-0.19947636565655147
541,1.0017528370759785,0.8976988102511134,0,1,0.7588951106358602,0.1899026169442948,0.17227604215724263,-1.064506056529081,-0.0808996162109104,-0.1296017838695461
542,1.12818991067152,0.9655243079482924,0,1,0.9954815533941224,-0.13536657056734588,-0.015959451418829092,-1.272414399460595,-0.4468925489293073,-0.11261856244195842
543,1.2521997523846506,1.0231670167454525,0,1,1.2265247162527069,-0.7115803978184578,-0.16052257483695284,-0.4903416569119184,-0.2394293455091717,-0.3135049885578785
544,1.3626467175093147,1.067763426310185,0,1,0.8435901231364574,-0.45931142530679275,0.4805691860846103,0.2545576742271898,-0.5470527206958916,-0.45459771777567504
545,1.449120173980807,1.0979162888802203,0,1,1.1407703413106265,-0.31033173822834303,1.0868435403499606,0.18550746277174054,-0.6682483896765157,-0.6151616000361324
546,1.5030140702970385,1.1136361507444779,0,1,1.3536508007252512,-0.2036581420372876,0.714815269203554,0.418611449624752,-0.3009210263584298,-1.0374742759026407
547,1.5185098214671386,1.1162418742317513,0,1,1.4030385316802487,-0.10229020277566764,0.6605524115535328,-0.18126459330354558,-0.43473942509498825,-1.3578897223707782
548,1.4933284335693295,1.1082009871453076,0,1,1.464246816402727,-0.16590834621305703,0.9257870469637766,-0.032705409229536235,-0.3740811795022142,-1.42180747708139
549,1.429125220020616,1.092851074574304,0,1,1.7480225935707596,-0.10180339622101495,0.6392345131611398,0.1344497993108411,-0.21158568369966657,-1.2701628876427709
550,1.3314310689002211,1.073963804324297,0,1,1.4475512609822712,-0.21343942733401064,0.46325146515113724,0.16822283584397088,0.507094482306312,-0.7149282108810748
551,1.2091049504326075,1.0551859588715353,0,1,1.0415588913840566,-0.2992213886842286,0.38200628125745767,0.25965644699828166,0.6352346785735147,-0.33487050768956417
552,1.0733514552809524,1.0394733633787572,0,1,0.8170994530841208,-0.2876069701614319,0.29948725347685434,0.4000994823339075,0.5843506095743717,-0.1327899331017082
553,0.9364516995495806,1.0286729571807054,0,1,0.5544812621263474,-0.2831482069079425,0.17347249373139925,0.6663603729744929,0.35710451719368447,-0.008879483820203005
554,0.8104181921977105,1.0233798304648654,0,1,0.5341589788311828,-0.14159659782580278,0.09997810192888668,0.857554736442787,-0.1649906915207535,0.18995274389372935
555,0.705788371929548,1.0231117458916177,0,1,0.5631634948585158,-0.08305335474950051,0.07423480485849,0.9408158218737495,-0.5083934648576113,0.49645306784843796
556,0.6307201223504795,1.026739915884569,0,1,0.4856445346838067,0.029191389860468688,0.14378967464839526,1.008198143865159,-0.419513362226053,0.6430418646228866
557,0.5904695231630575,1.0330322806274783,0,1,0.5371575897040998,0.04861814410508327,0.09747085120180049,1.073016189995015,-0.38483863368936266,0.6222839628558114
558,0.5872445287146824,1.0411339643835942,0,1,0.7204659697888284,-0.01697871128223704,0.06317689746272934,1.1106611379458442,-0.06792221155029762,0.5369118745827577
559,0.6203591977523375,1.0508372246136872,0,1,0.8259454165146526,-0.08170903462964509,0.06368817575883368,1.079760315998368,0.015479547169817039,0.4585214032493889
560,0.6865744239156253,1.0625647939810305,0,1,0.9493128773908683,-0.08936693559986383,0.012164748084631636,1.0951843408711601,-0.2443982044828762,0.25613242360294614
561,0.7805110286030857,1.077078340849257,0,1,0.8741998982925074,-0.04676855952546706,-0.025974668952967035,1.0084835316406875,-0.1679273993569143,-0.014225627495799566
562,0.8950602586759842,1.0950027101239208,0,1,0.7183204591075979,-0.08264192905846461,0.018484605947825715,0.821415958280004,-0.061451939943270494,-0.3225998731636646
563,1.0217800332598888,1.1163102351003789,0,1,0.7092082321010419,0.02636253132490221,0.0023581974043465313,0.8219019272006476,-0.42349183711053395,-0.36116561833797634
564,1.1513211341750298,1.1399282695915596,0,1,1.0056704800785683,0.292927547337913,-0.11059805067269614,0.7427730630230774,-0.6424520170956569,-0.058321708455279155
565,1.273944094665849,1.163614059423211,0,1,1.1751048210387547,0.3313533431175523,0.26439099146089323,-0.07842258418251541,-0.3637574026850098,0.21298921705852114
566,1.380156495268283,1.1841857148463644,0,1,1.0992685743159067,0.18649733291316825,0.9586315888546489,-0.6155932071734451,-0.3974548182956877,0.5666462627031886
567,1.4614445439156531,1.1981063519811355,0,1,1.1809112621898257,0.537396279379326,0.807079338590008,-0.5419670974517116,-0.3586563705806258,1.2698419240344005
568,1.5110261353696959,1.2022961366042593,0,1,1.2047928059231727,0.2831626589944259,0.49142861628949525,-1.182054355011359,0.023876169203767797,1.706296552350148
569,1.5245321298152816,1.1949318928879296,0,1,1.393809562856494,-0.39791156806348554,0.708638087914993,-1.0930569691527579,-0.4464656216110699,1.6312662122139665
570,1.5005213401469206,1.1759575004214364,0,1,1.6379278281663145,-0.7258939727014654,0.47062505315522724,-0.2654814774507264,-0.7276794029497599,1.131239948307013
571,1.440740947199938,1.1471205049200626,0,1,1.7055394826501669,-0.37218264127754563,0.48582656890225145,0.43999745639728954,0.2524268581020535,0.5192890507068626
572,1.350063445667879,1.1115400324624067,0,1,1.0777376667077145,0.331112297404186,0.4236064972044357,0.19215764995456452,0.5206539600146607,0.3315702752928073
573,1.2360796164915464,1.0729948284957214,0,1,1.0391579585885244,0.4623354630161586,0.24535227799994436,-0.3881327400700055,0.3572037656478815,0.30681818174813735
574,1.108399121659503,1.0351991437186954,0,1,0.7374500140729155,0.4040559389121179,0.2828226612076281,-0.7115981052267858,0.36815103504848823,0.0776144027719497
575,0.9777710743937779,1.0012831014594623,0,1,0.7544581846925837,0.09539305775896625,0.1331503931335473,-1.1066200861249293,-0.2016664063169756,0.017278177184216197
576,0.8551530993311892,0.9735637203251203,0,1,0.9719078275036581,-0.21457581783611693,0.03964562719076015,-1.1647424772520176,-0.1916872015647601,-0.2145110342050986
577,0.7508278000855955,0.9535608376045595,0,1,0.7742624630008564,-0.290583731539455,0.05989909730315393,-1.065362276460199,0.2872760178723416,-0.44011140658553877
578,0.673617781620205,0.9421368655679777,0,1,0.6479570408433402,-0.20843086627638063,0.06240817876136754,-0.7635145452550351,0.507777945708099,-0.5806323178218165
579,0.6302162614116917,0.93963752193237,0,1,0.6189301753932409,-0.011113275196816097,0.08890922297771087,-0.5675859148595899,0.26100554839407203,-0.6179916717922224
580,0.6246435378488321,0.9459610374268924,0,1,0.7129116757440933,0.03625676505081423,0.060994478350981915,-0.6097665883730159,0.05898271756306915,-0.6232909088907892
581,0.6578516944090042,0.9605463172287423,0,1,0.6186050914686204,0.14365935443763908,-0.05734029818016809,-0.7500229617545371,0.13017125216275957,-0.4892234795059583
582,0.7275160429074419,0.9823133816609209,0,1,0.5757873133591643,0.22598886821552572,-0.10189656615084529,-0.9566479913374163,0.37999856451453606,-0.20267570317570227
583,0.8280637634693705,1.009602087637343,0,1,0.5247448629745658,0.0678201267229307,0.131224599849745,-1.0063965309356757,0.27234549661195534,0.044110991134329244
584,0.950991470532098,1.0401495426434801,0,1,0.6157137310724112,-0.3049510425831472,-0.05490780385088038,-1.0778296339323352,-0.4116258168806288,0.18048880218316599
585,1.0855028676588327,1.0711414558973151,0,1,1.018827583161571,-0.7096988588707942,-0.20908837323719828,-0.5257238108505948,-0.4087329434927373,-0.020404559419213257
586,1.2194492364812157,1.0993744358578261,0,1,0.8999002497663786,-0.36003099050614984,0.33028400115362144,0.1296599734076023,-0.5091501648224872,-0.4190618218112905
587,1.3404916285805197,1.1215596157816792,0,1,0.9703688087637666,-0.2793846492065377,1.171019674573828,0.38519466900514493,-0.6239885560493748,-0.7229173769052087
588,1.4373493760987688,1.1347581566032012,0,1,1.3664781835403992,-0.5696385947792181,0.7330702770560358,0.3233932328135239,-0.5002285486993424,-1.4906811792118289
589,1.5009737626610755,1.13686563556763,0,1,1.4415323560591484,-0.2551854844803154,0.4030871362017012,0.15463886674686375,-0.024065533150262542,-1.6939019672783222
590,1.5254928783754138,1.1269992734794125,0,1,1.4056936678946528,0.13442729764413783,0.7511294977871508,0.3251891343695275,-0.4201143234963741,-1.1817600460018476
591,1.50880751857049,1.1056473642381381,0,1,1.6752804321678663,0.03280846491598007,0.5405895167932235,0.5527108465136863,-0.9983455848297919,-0.690250843621414
592,1.4527661491145343,1.0745285110028413,0,1,1.6271765599360906,-0.20171105010885215,0.2091464969060594,0.3714060371899592,-0.16760857849363486,-0.345593979761896
593,1.3629003025998006,1.036232067104469,0,1,1.2847233296263445,-0.39730771203260185,0.2840334439224402,0.10266743985994903,0.5976237551350982,-0.29378951949289694
594,1.2477601526499116,0.9937986489558456,0,1,1.0362203898767615,-0.3937466091511164,0.20946844252870722,0.44681599059263555,0.47004117587610234,-0.3025716155742073
595,1.1179506722259982,0.9504034085324428,0,1,0.9205764151580039,-0.2082998244857845,0.14559580807424957,0.8185131511629179,0.19773049886405084,-0.246595475341103
596,0.9850149916013891,0.9092277119607053,0,1,0.7911016143609112,-0.06367932199685297,0.14857456279213976,0.9816344889557632,-0.035022238676232484,0.001605589134704033
597,0.8603236246075259,0.8734925875894856,0,1,0.7266353029107108,0.06179196187219413,0.12961701630951802,1.1624355954774974,-0.1031548415431946,0.28400119739115043
598,0.7541016196870088,0.846536168397653,0,1,0.6462779104180334,0.11192682958574968,0.12232766387279526,1.111395187773721,-0.01240316580761315,0.4357582277501582
599,0.6746732956491155,0.8317846788716877,0,1,0.705694090138237,0.01767826030890728,0.0894532739946796,0.9715637085432905,0.058955359227842535,0.479911694024052
600,0.6279458273081242,0.8325015614834149,0,1,0.7725455751183624,0.05710538926898862,0.02797219500890677,0.7991650432437762,0.03602366446384084,0.46528212765502114
601,0.6171068254815608,0.851286253140386,0,1,0.7910428970002278,0.062283920773161944,-0.06874283556180777,0.6069563203255045,-0.17551402444704278,0.38734060015251026
602,0.6424909561552691,0.8893985263785178,0,1,0.7244882839019833,-0.040621127130548,-0.11394760165122525,0.5964269139040876,-0.25141381176523997,0.20446694971473126
603,0.7015824195288788,0.9460669263585532,0,1,0.6166760584300295,-0.12873093729823396,-0.05560828796332389,0.747546206083334,0.07429009340708337,-0.05917649983876711
604,0.7891561459299388,1.0179737036721865,0,1,0.42820821417764626,-0.1390867738198606,0.135156485121673,0.7588506199449797,0.14193723856030424,-0.28761194014812785
605,0.8975979803741473,1.0990891194092902,0,1,0.540367907354448,0.06639812229299688,0.10107704020634074,0.7529897950574345,-0.5387058234561822,-0.3997854525677125
606,1.0174532672795802,1.1809695215854445,0,1,0.9461148823794673,0.2101356724151636,0.07359184094754875,0.404832786365096,-0.568958319029547,-0.12397497717766191
607,1.1382161099299122,1.2535545424953436,0,1,1.01689865954411,0.0965113251046911,0.7564414492969979,0.03763620304016107,-0.46895709712036454,0.5360661169609157
608,1.2492995537730656,1.306405337232706,0,1,1.4138892247989718,0.43646516320426837,0.8179274041561062,-0.06054098544498703,-0.7313000649669941,1.5179882119198618
609,1.3410597179084858,1.3302166161796238,0,1,1.132764261941718,0.35362325284582086,0.42176372953732916,-0.5989931594939014,0.2420781529593814,1.8746956436900535
610,1.4057245517402586,1.3183313648071868,0,1,1.1766658599276127,-0.33648388180916294,0.5723965620757347,-0.559388282167442,-0.17226968334696274,1.6795069750878513
611,1.4381072312559995,1.2679431246032522,0,1,1.5013460784612984,-0.6413842741442056,0.35396936721679567,0.39291946402685357,-0.7460107882238678,1.2051629619821012
612,1.436036492264658,1.1807291339844335,0,1,1.4155769895288315,-0.35308149173603004,0.34865484480177283,1.0102961991498585,0.03137621566691551,0.7379320477362307
613,1.400481545312491,1.0627980648243267,0,1,1.2294783987329203,0.06487470407372452,0.37104850314873233,0.9900684073663171,-0.13069400670317197,0.6255782966276271
614,1.33538255843089,0.923991602408188,0,1,1.4225721143032108,0.344108574132476,0.2155052672419548,0.4896279442528163,-0.12887246842828745,0.5407105329853775
615,1.2472256978865486,0.7766952776780058,0,1,0.9977742578340806,0.3922941321672058,0.25924313099606616,-0.0634203307961252,0.3350494515465434,0.4199649052913051
616,1.144422815381891,0.6343738481897804,0,1,0.9261393358470938,0.16913617354818739,0.19770794909939035,-0.4030582036169073,-0.12906544064691827,0.31397959848527507
617,1.0365633591931809,0.5100541742257726,0,1,1.17922377889836,-0.10868064292480209,0.11394424633878339,-0.44068897807375,-0.22063087500169562,0.1735468292950185
618,0.9335980967923079,0.4149460303362545,0,1,1.038472534008339,-0.2817982377253296,0.029803422114354643,-0.2662625638493155,0.053868311502983324,-0.025176293688224348
619,0.8449980560286019,0.3573393309862114,0,1,0.8529130421691997,-0.2775014399234159,0.043776286556156535,0.09145667094371632,0.18730092272366497,-0.19156041739333599
620,0.7789239176003541,0.3418658969295349,0,1,0.7645490797121061,-0.1774437895591835,0.01217594447050684,0.2343802751359648,-0.0057297965426316416,-0.2691699620803536
621,0.7414533208853885,0.36917343163266875,0,1,0.6806720358554579,-0.040133266552619305,-0.017222580501014703,0.2215418189186733,-0.1314986325583753,-0.1688314543369901
622,0.7359397802293721,0.4360266513396858,0,1,0.5757130011181026,0.06710748299997991,0.0034567218360460426,0.3132335739230887,-0.08836204452928033,0.0058966902963031136
623,0.7625971579803666,0.5358228260394777,0,1,0.4800330638227571,0.09709922146961411,0.05707342131962586,0.26990356369026464,0.11055625624948856,0.2745260960539219
624,0.8184006572063544,0.6594830573616348,0,1,0.5037026746254354,-0.15972336699097275,0.1250261292039595,0.046732752748681675,0.038497721978803384,0.5577127448024968
625,0.8973611187297933,0.7966499256916371,0,1,0.7636620468082903,-0.5388732124600171,0.16024675769766294,0.196619339398956,0.021307979880814502,0.6671098470600648
626,0.9911667118786901,0.9370821718752816,0,1,0.9319394964869334,-0.5849890000485956,0.3839935006068182,0.6396861977813955,-0.04858586123160156,0.4047252662544075
627,1.0901127282357073,1.072089574418407,0,1,0.794400525525099,-0.26095102044329915,0.5949842017346093,1.0558265194706113,-0.12249610175862324,0.1427474133458981
628,1.184184632218606,1.1958021374335872,0,1,1.3039638312779351,-0.3259196560405772,0.6629973598346822,1.8013441075183474,-0.3946729593925531,-0.4896200336596835
629,1.264141644970435,1.3060315446720947,0,1,1.2277858941961517,-0.146827716817661,0.3931839569551708,1.9462700514202478,-0.4981166269084248,-1.0858181212582356
630,1.322466519523969,1.4044934518557295,0,1,1.2031995224606606,0.3082062461290669,0.32262714280702226,1.4559782985547132,-0.12491337731486586,-1.0058113072663115
631,1.3540864978791243,1.4962582758231553,0,1,1.1873240598092125,0.27958424167151164,0.4801354609105044,1.2351834505084762,-0.22372092138438265,-0.8468131340118707
632,1.3568124177956413,1.5884884906915002,0,1,1.3760874273004995,-0.14070740553810032,0.31506117407890843,0.6951868671858579,-0.23708612090484188,-0.5874009782804966
633,1.3314728204970518,1.68873435112816,0,1,1.572814745869891,-0.527418057503234,0.23958827027846746,0.6851808380117486,0.30053000530064683,-0.4484837083722009
634,1.2817368478569018,1.8031939029099138,0,1,1.0771643007610525,-0.6099735921102026,0.3027584898797226,1.336546658682916,0.6197063949582152,-0.1388858458087677
635,1.2136392668002038,1.9353312069519062,0,1,1.0412102675827881,-0.42521846104539884,0.17453883439149734,1.831567353406271,0.2007002473859842,0.058920171590619935
636,1.1348556856907326,2.0851048560277796,0,1,1.022794717905742,-0.23242489205807165,0.1029970024644956,2.148926410578699,0.1068840553085367,0.32539119168502534
637,1.0538161324524091,2.2488680623797763,0,1,0.9839243060407962,-0.12597582791987227,0.12426132664850842,2.314974577750808,0.18166466104843138,0.5826770272391216
638,0.9787683122184827,2.4198482970789232,0,1,0.9623280176625857,-0.08805600457626951,0.13039971912961423,2.3094085453429605,0.2204692366787555,0.696779091610749
639,0.9168988479431881,2.5890384923773597,0,1,0.8618687550978695,-0.08786764877995154,0.07957191727878438,2.5295963215636483,0.22031124214362285,0.7727068506819352
640,0.8736017716721101,2.7463209373137945,0,1,0.7940259558604,-0.09596306525679427,0.099147591624788,2.694317862215334,0.21626551594218135,0.8502277032900782
641,0.8519620259166453,2.8816660013452986,0,1,0.7784336385961218,-0.11517955923756873,0.10683200124326532,2.782265294271121,0.17147026223044176,0.8737872162860413
642,0.8525020727926821,2.9862762969871373,0,1,0.7808619069887884,-0.04790831478611949,0.09695572244471587,2.9178519975228645,0.10182429762365891,0.8108023958316158
643,0.8732190316569758,3.053574508555883,0,1,0.703079636611818,-0.1510748103633383,0.13239157415516065,2.975414670123761,0.019306027088466644,0.7246113988796214
644,0.9099147704334479,3.0799586226405147,0,1,0.7509670613636024,-0.2369557495387012,0.18144013740961262,2.9576996607807065,-0.050719838252562,0.688904064673697
645,0.9567904310310645,3.065269315342156,0,1,0.8679763437301308,-0.27311093879202136,0.1907655608483608,2.9472836500396546,-0.12067162340904389,0.7539123453389868
646,1.0072400418321172,3.012927585884486,0,1,1.0055908543350551,-0.188612408907808,0.12265988703869096,3.131409550382587,-0.11975601743884788,0.7743136368974801
647,1.0547396044348587,2.9297077229872013,0,1,1.2372629290817738,0.0033886051777492084,0.170417546202894,3.109926106529302,-0.044279795882598984,0.8357432888301162
648,1.0936991950622588,2.825122251887686,0,1,1.3371225882181446,0.11943610478090441,0.23334860870503113,2.9507930543672076,0.056658287471468956,0.9104507228602492
649,1.1201402237262161,2.710429225819293,0,1,1.2558626264053734,0.13129633075898012,0.30116453644389557,2.712101871283767,0.2516692228588839,0.8219680877975432
650,1.1320878809574242,2.5973378458762593,0,1,1.0932971893465577,0.17487888873382104,0.31152285433196825,2.36140200182646,0.48343906630448796,0.5182772794065629
651,1.1296272742296125,2.4965736353855976,0,1,1.0258020833786432,0.22849605560729425,0.35934964447719936,2.041243252854252,0.6452160965279161,0.21467599811048346
652,1.1146425602700933,2.4165366544604145,0,1,1.0563200429181554,0.27391450839584003,0.33908855665389676,1.893230369617699,0.5988304169006292,0.19907038969776544
653,1.0903175361273616,2.3623092377825246,0,1,0.9724651313464897,0.14906821088457906,0.21348312479731163,1.7682190044345996,0.43875651116498665,0.41387392145391794
654,1.0605098194639977,2.3352220610041345,0,1,0.8462488319450632,-0.12263855458941368,0.1295740367922208,1.89219991757294,0.19391116811432293,0.5395701830939792
655,1.0291187456598643,2.3330723245668152,0,1,0.8672407673040433,-0.24979233621129132,0.09114966095561147,2.3085624688823003,0.04257449688051278,0.5677581103920073
656,0.9995528944802036,2.3509332991791196,0,1,0.905093983579281,-0.16979327061207508,0.08452875807922465,2.5962993530325646,0.17510839865766567,0.6742281799960198
657,0.9743690462585222,2.3823465102909167,0,1,0.9766943279435246,0.0030156998046203844,0.0687072487312614,2.721106451081548,0.18680544507337482,0.7806632198473433
658,0.9551078523395364,2.420597633371881,0,1,1.026951000959464,0.1695935402259292,0.060986013281694694,2.669475872066992,0.13253944790898228,0.8537196725895209
659,0.9423077479847218,2.4597779861130014,0,1,0.9446150224932154,0.24319203181978577,0.06925997563502795,2.55133847816138,0.06643692644500136,0.8792976045812768
660,0.9356519525888142,2.495421117787996,0,1,0.880815545529929,0.18910794345748885,0.09450663557974058,2.4619527030721007,-0.061433628525020496,0.8033248871097768
661,0.9341976263107726,2.52464006774735,0,1,0.8828126991958722,0.15253989553242753,0.11565782787992292,2.3661260407214146,-0.19694289698454942,0.7202289734362066
662,0.9366433536156996,2.545826687829372,0,1,0.9322548911953382,0.1511494495522551,0.10044246613647555,2.2927827065000383,-0.2472102591642827,0.6825499597486606
663,0.9415989107464048,2.5580736103519683,0,1,0.9917729298339981,0.1360899066948965,0.11359696544290031,2.2205376196285243,-0.20907097984148457,0.6672328213551957
664,0.9478240309057512,2.560525624130557,0,1,1.0198027478025171,0.13512003500001576,0.12229937976392972,2.1686301542539486,-0.19253272728646645,0.6984442359042059
665,0.9544049580623228,2.5518598626558995,0,1,0.9716681027171926,0.10139579091542843,0.12232670998881874,2.216173386439881,-0.13742389348964812,0.7873415077352405
666,0.9608465345473972,2.5300423765432742,0,1,0.9282418839734192,0.09007137464944537,0.1331963769000505,2.263105701019447,-0.1422205123205162,0.8710466993454109
667,0.9670748776153864,2.4924282466121657,0,1,0.9066752023635986,0.08682959193591813,0.18507121596171167,2.3020470979667658,-0.16327666049143966,0.921220734188185
668,0.9733645970869689,2.436184550877062,0,1,0.90878815517388,0.09907085939057834,0.2098081838573396,2.26979008743433,-0.24460812035776483,0.9317687231731397
669,0.9802160340016248,2.358941353492687,0,1,0.9368956089651204,0.051144776723030826,0.27277370255869066,2.1619733855088836,-0.3289506657682825,0.9356217361268082
670,0.9882085644636021,2.259528451585933,0,1,1.0177076346450051,-0.021392378973269194,0.26386124393975846,2.128121786647865,-0.38667273930911905,0.8935069323459651
671,0.9978496917660639,2.1386363377605133,0,1,1.00621833151344,0.011632420649959733,0.20476013315019434,2.2071643067379787,-0.3886982226872951,0.8035976841896028
672,1.0094343845421068,1.99924449174991,0,1,0.9298168985392153,0.1120125757156625,0.19379599686622223,2.211412453377466,-0.4511300732424282,0.7388792612143684
673,1.0229299641862755,1.8466889661325758,0,1,0.8957046880925766,0.22048115706738722,0.18515108988891651,1.9860353565631408,-0.5634873981584254,0.6862479310261277
674,1.0379060543039573,1.6883012131144688,0,1,0.9457627054403773,0.24113089358170095,0.22786249026250383,1.5634952786706469,-0.5847789932996394,0.5789912693105402
675,1.053528455753413,1.5326428359411455,0,1,0.9948118263605111,0.2044026282537287,0.31317256030234797,1.1358016044578108,-0.47369867443133745,0.41099672616089544
676,1.0686255054013187,1.388467293924942,0,1,1.026745786625786,0.08238647469927267,0.34064121349616283,0.8737994799855849,-0.4494666113562177,0.20686386736614248
677,1.0818197741987317,1.263620050485158,0,1,1.0707056081608362,-0.08306534595439458,0.361835830841147,0.8439214247635288,-0.35379181845281293,0.0005936933469672459
678,1.091705865049285,1.164105308077593,0,1,1.0148302116593027,-0.23022295277231913,0.3244534954395893,0.9019545597142542,-0.18992736352243286,-0.1665190623596248
679,1.0970518921952912,1.093490061776084,0,1,0.9042114101743496,-0.28455853040917556,0.27840292884985673,1.026456502436939,-0.08294460915294734,-0.26843972232659946
680,1.0970053463805955,1.0527095028066775,0,1,0.9019723455469739,-0.21390441831197646,0.2769184910981628,1.1442038215228316,-0.22785352804288025,-0.2391027800138584
681,1.0912845407436822,1.040226213778281,0,1,1.1207081715490812,-0.13405582928340998,0.23347539912550797,1.246252525803988,-0.6331093839593369,-0.08184878115796508
682,1.0803267537802186,1.0524207717438208,0,1,1.3082567573762802,-0.06395251791802248,0.17624528821065588,1.1596188478903837,-0.49633570572511015,0.1696852445519236
683,1.0653474335984108,1.084076696460198,0,1,1.2511490015160684,-0.08139745206555059,0.1998003254581601,0.9182679337321814,-0.07304932883462219,0.3500888378048477
684,1.0482597207934603,1.1288645524206287,0,1,1.0807916528907988,-0.12850957124741322,0.207363696545314,0.8849888905423939,0.025872447862059854,0.4036395551498041
685,1.0314275913627697,1.1797969927122516,0,1,0.9869451023929877,-0.12067677700155655,0.19240778254137866,1.000578542865518,0.014537037864240245,0.4452711791571175
686,1.0172762418669365,1.2296762772425085,0,1,0.903269512481514,-0.13559996670209606,0.17827268955847272,1.069246479900256,-0.011160504621656873,0.4744879267558093
687,1.007836550649589,1.2715644713599434,0,1,0.8169598902131616,-0.14069374316312852,0.15582053343223567,1.0954387784955946,-0.11001248920513863,0.47435335294835235
688,1.0043316102671245,1.2992815676044167,0,1,0.802298318052058,-0.12105585794486698,0.1547558633230799,1.1994751692595067,-0.19642169060457598,0.4528242753201133
689,1.0069111013636556,1.3079008025092234,0,1,0.8488680250932794,-0.07708602125630891,0.17855513120736452,1.4058820241502235,-0.26075715225645457,0.3868695288905384
690,1.014606115251834,1.2941816251622562,0,1,0.9221531864328226,-0.029761012775404525,0.22834668338618705,1.4280533162118483,-0.20268706886447468,0.2520384783759128
691,1.0255235025453449,1.2568702161325966,0,1,0.9684683170364502,0.05852409362307548,0.2557806561008939,1.2921599936238994,-0.09332703818094508,0.12277397613353819
692,1.0372397204601311,1.196811601526415,0,1,1.085743412468024,0.12184841504195928,0.260938650273046,1.1687280389871595,-0.09595992268047317,0.0938913386207476
693,1.047304726424129,1.1168524390331813,0,1,1.1647655100168057,0.1038491106814332,0.2971747012889201,1.0533082339777473,0.004521553634944612,0.24113597404406645
694,1.0537386131749054,1.0215530131167656,0,1,1.153124466978665,-0.005720501415224435,0.4244816619052456,0.8874848551531098,0.2445741203812684,0.3635504958581216
695,1.0554042494150677,0.9167532486100303,0,1,1.1305488937697032,0.09088796157800015,0.5095854584418158,0.6691242674749375,0.49847503063364196,0.37293814514088225
696,1.0521694166364444,0.8090450639966743,0,1,1.1253427758215733,0.2975893335072621,0.4435959001426802,0.38773683437025075,0.6014145417127622,0.4208830237371935
697,1.044826721348066,0.7051989125115159,0,1,0.9017345820656668,0.21838372257443,0.30980826398172917,0.17029315017110358,0.5764174077045576,0.44580608527137255
698,1.0348069470829588,0.6115861890480345,0,1,0.6739707933717045,-0.04881065519147263,0.22105974161202357,0.06115170035605905,0.4487949068805347,0.4189962506709165
699,1.023781555018625,0.5336376645734224,0,1,0.7594676789981399,-0.19444106864513508,0.1517305596784711,0.15016680897638873,0.15604358464890847,0.27116579692130993
700,1.0132775371199116,0.47538019170003526,0,1,0.9471638944068058,-0.10745773051686226,0.11538848046627678,0.42946184990980896,0.0905539974328403,0.16180301106916617
701,1.0044071020529421,0.4390922980636729,0,1,1.0542333373176511,0.04019972583094642,0.08496626164153714,0.6369000686010143,-0.005295299501340394,0.17248708033784282
702,0.9977570803895329,0.4251095261186425,0,1,1.1125646488799534,0.1546838954747646,0.07327211652611566,0.4043946441130676,0.018123508044076406,0.1253614938144341
703,0.9934225360522653,0.43179994135783395,0,1,1.002050668384874,0.15575344655550696,0.09973692318622435,0.048877107736001575,0.10546687323207321,-0.024863564215217505
704,0.9911357508707416,0.455728740223102,0,1,0.8982046805099004,0.10622509590670948,0.14918552377842623,-0.1406971806639671,0.11510844951536267,-0.16719314886294379
705,0.9904400700825541,0.49202961599656064,0,1,0.8579211978963415,0.09293764357900693,0.28094332723798,-0.19080723601321534,0.24573031658979202,-0.22360711812809797
706,0.9908705511083824,0.5349766433609908,0,1,0.8929884533972479,0.005277304982944199,0.5437629470130033,-0.23005222662285973,0.4786841385999637,-0.22652028396214768
707,0.9921104111355431,0.5786976067565439,0,1,1.0296789661111427,-0.1987559703087,0.6892103513321788,-0.4763607411449591,0.7018453927028319,-0.2780211969644429
708,0.9940911264150238,0.6179127459877136,0,1,0.9519408195118076,-0.3395308629700321,0.5965734799087935,-0.37720357090350304,0.7727532208809778,-0.4117934003710569
709,0.99700999143264,0.6485582554514497,0,1,0.5875965983279345,-0.07498567208526069,0.4076209508463863,-0.006745673480124541,0.49350392683824695,-0.36456560761817564
710,1.001264640741524,0.6681804296633855,0,1,0.6235611616255574,0.18753746660692044,0.2712983531587725,0.2718302629105271,-0.4309046183897394,-0.31176023399873365
711,1.0073365970531474,0.6760506296536785,0,1,1.0557546214688485,0.23961316875048458,0.23926517710227918,0.12484094793051105,-0.7475619208179145,-0.16006268413417707
712,1.0156651134004135,0.6730179178304281,0,1,1.221436059410193,0.07361941790680487,0.09901971000249174,-0.6309169499546193,-0.24283256880819076,-0.028750005844126996
713,1.0265289209283344,0.6611587969886302,0,1,1.2255002791137801,-0.28168392769723094,0.07134997176722914,-0.6948347552139095,0.3184279073689506,-0.06852621874336513
714,1.0399261218249607,0.6433032439796207,0,1,0.9880486372555894,-0.30850564827067967,0.13715077356537908,-0.11901147849747531,0.37591648245586234,-0.10857089340372462
715,1.0554470676563916,0.6225267686781731,0,1,0.7316725875651825,-0.2497952686634739,0.22671816302970657,0.3448486164413104,0.156496665879802,-0.032822957452795024
716,1.0721719043025184,0.6017004068442922,0,1,0.6229183268126202,-0.0999384490334542,0.3634318454278568,0.49150185466303603,0.18547661121046555,0.16124833238530736
717,1.0886573317403638,0.5831720992010381,0,1,0.653023520579994,-0.1849378670671824,0.6935658953179936,0.36135030223366665,0.24768171046889875,0.3907693714839645
718,1.1030689515267837,0.5686099120714052,0,1,1.0631411292004538,0.2638176900164768,0.5291434347320488,0.2827160351219331,-0.2941040609802214,0.5527088440999691
