id,ASVM,GSVM,walking_nonwalking,normal_abnormal,ax,ay,az,gx,gy,gz
1,1.0104119163889917,0.41827789996897036,0,1,0.8748807969279379,-0.06974971648274793,0.3159476027421992,-0.3385596851953632,0.35443089984850906,-0.17947812199359803
2,1.0208804121502202,0.44219810304587037,0,1,0.9692090204350128,-0.05807094945991475,0.33174256594491836,-0.3846642783940208,0.32983342654040604,-0.2588738410472956
3,1.03123777348445,0.45828561017633146,0,1,1.0368032192435759,-0.017490364915959837,0.21784535170850192,-0.3550333902589072,0.2738384289158957,-0.29350481075234053
4,1.0403445446991126,0.46653922910820467,0,1,0.9744954364574949,-0.013664433145461952,0.24026318875228855,-0.316720073278758,0.3591654748868648,-0.2943622228382067
5,1.0470253010779613,0.467600517779808,0,1,0.9948314528817345,-0.03899582541108301,0.24428223470756968,-0.24329025932382406,0.19221684687407717,-0.28285398244427584
6,1.0502219069233953,0.46253196175926264,0,1,1.0367269887426827,-0.07528924095158517,0.22851761151266672,-0.21856874619212618,0.15027667171735112,-0.2125563826554332
7,1.0491505899156293,0.45254972631289947,0,1,1.0581121165859881,-0.0686575609896693,0.22686570827507394,-0.23735692842168707,0.14832268327784862,-0.09295149307624709
8,1.0434383418776279,0.438788666751442,0,1,1.083500886638688,-0.028823749968115677,0.20409641734505596,-0.2420504481924369,0.19166865705009284,0.05056578328476243
9,1.0332132263520617,0.42216495847699925,0,1,1.0556139633904535,-0.038343338439875106,0.21610328696844616,-0.25054181890167143,0.26520363391978335,0.14774507130730608
10,1.0191284061821082,0.4033659695607712,0,1,1.0170634323801546,-0.05046084261433878,0.21975246923034777,-0.25090464339333757,0.32665805488832717,0.17269309056943027
11,1.0023122019004573,0.3829517217567019,0,1,0.9631885048511043,-0.022249279020678588,0.20408619718797147,-0.2586836633661522,0.3575029652882749,0.15418862098851027
12,0.984252792392132,0.3615155169639802,0,1,0.9298685177377976,-0.0280857423288483,0.19874560419455592,-0.26415919980560054,0.3700613542740817,0.10784272465247546
13,0.9666402503100496,0.33983589622614674,0,1,0.9038103093190223,-0.05383300617060949,0.20111033057374314,-0.22521913079330505,0.3367614787296339,0.06195346145946593
14,0.951195301775435,0.31896053446462747,0,1,0.8956310200111351,-0.05842020449215588,0.2120443378923695,-0.19188783818019686,0.3002203081349779,0.018596361602286938
15,0.9395118030558204,0.3001882239467582,0,1,0.9099588948068865,-0.050365118470395806,0.20215242151791418,-0.15004384443869143,0.27336501252064066,-0.01981519311233047
16,0.9329306603243045,0.28494678600132406,0,1,0.914530323111568,-0.0480359764019074,0.18482962931108568,-0.11866765987131989,0.25559511221406694,-0.045252890049293434
17,0.9324513032907711,0.27459271300374954,0,1,0.9184837618509075,-0.042523421684995066,0.18807921322834611,-0.06853059669666939,0.2313019927273022,-0.0606940654099602
18,0.9386771790309719,0.2701770443999274,0,1,0.933914625079161,-0.03365607736698853,0.16848371712275936,-0.04386580567194126,0.1781416010284591,-0.05918503663881637
19,0.9517863642914081,0.27222987214913835,0,1,0.9621850764496024,-0.03920125635438949,0.17701116316113327,-0.0508426821256346,0.20950435113954505,-0.0477719022512957
20,0.9715175238275741,0.28061303421891937,0,1,0.988065711739688,-0.07005845220826849,0.20912370640735417,-0.041642227162790695,0.23479393293855272,-0.04804123406120419
21,0.9971645323926746,0.29447793561660457,0,1,0.9654059911681617,-0.1290767665940206,0.21389891029112815,0.04119184608097088,0.22825136512845745,-0.04919634297939564
22,1.0275795910587637,0.31234586907325185,0,1,0.9615869854457535,-0.15791120552573534,0.2417966658676783,0.15228852001424173,0.2023402900429822,-0.01441442030870988
23,1.0611930197050352,0.33230570724458014,0,1,0.9855123439067125,-0.12422053582226526,0.25091688713652294,0.2875689800429555,0.11303858560764196,0.026606638056311572
24,1.0960644536398372,0.35230121560671696,0,1,1.0039125773256299,-0.09174953746572288,0.22949507509552716,0.34574935718230015,0.030514714217758695,0.0639341615802156
25,1.1299806178628984,0.3704591865921348,0,1,1.057239964596449,-0.07629510032563465,0.1967950442851391,0.4435599947617285,-0.08003708009634064,0.10445845608731519
26,1.1606070379066382,0.385393518931803,0,1,1.1675641537716368,-0.09992855986877389,0.19119258148162685,0.5303105090977143,-0.14200110737627453,0.11001008341736526
27,1.1856866133451225,0.39641577643029596,0,1,1.1994304414673558,-0.06941652969743325,0.11684575287273431,0.5422846227088021,-0.11679230573821232,0.0861737164052871
28,1.2032621777737993,0.4035968961374906,0,1,1.1978637297246657,0.019471155796343387,0.09683023554476333,0.40932409682106025,-0.10493748905569825,0.09263545063071933
29,1.2118892423313627,0.4076597403134775,0,1,1.218182473061419,0.08362661649007257,0.08257939722008553,0.3474194315818414,-0.19377256177719782,0.12175831297046695
30,1.2108019850903635,0.4097298264198439,0,1,1.2390120416257429,0.06934168867166224,0.20635118471306438,0.24157873810637917,-0.14503731362553096,0.10483001053910179
31,1.1999986810654015,0.4110148087832076,0,1,1.2975981129749572,0.0301732200212059,0.33281257493920363,0.09127223132878251,-0.1558076482945148,0.08668610084368061
32,1.1802208840865271,0.4125051629186799,0,1,1.2433715645191477,0.05268257596972634,0.4457615118115749,-0.15044199911109732,0.18006928850460666,0.1310158804117788
33,1.1528168975392836,0.41477997030746827,0,1,1.0284172329736156,0.07068179841600807,0.591361039299993,-0.25414413523299473,0.12820786952623314,0.2511472191759229
34,1.119508180073335,0.4179648974826007,0,1,0.7916747194071024,0.08233348142417908,0.47711578881101174,-0.14972561404034337,0.08464572924623796,0.35821212573003247
35,1.0821124123647847,0.4218379547057033,0,1,0.643298433376425,-0.028381920058642037,0.6356045170083926,0.118101984370466,0.09004723044625415,0.4511113142513412
36,1.0423018614020705,0.4260316844456829,0,1,0.6291979919075916,-0.14689761676919694,0.5754327110755592,0.33631464377920656,-0.012502437488247144,0.5001933137693598
37,1.001471414999203,0.4302534853514427,0,1,0.7091531841743917,-0.18349718470975332,0.5922593711662695,0.3608181829696923,-0.02404737030074831,0.47045667357573545
38,0.9607528008813916,0.4344459050184427,0,1,0.8907512894811334,-0.11373562910331127,0.47001039047016074,0.2509845400685131,-0.11717201519996652,0.42744624111483936
39,0.9211556686956952,0.43883540770572005,0,1,0.9984691914262303,-0.06292852112474594,0.47188568112871265,0.14154548466653716,-0.02488871428806739,0.3335303365801287
40,0.8837680292087263,0.44386164431062064,0,1,0.9795531909159393,-0.09239992786810586,0.33768251032696184,0.21073061327940062,-0.05719017094040171,0.18567700401069612
41,0.8499291287346792,0.4500203791401643,0,1,0.8689522631273616,-0.04988969401850606,0.33137296891434986,0.3425824714500984,0.32301776452946457,0.08272795799978108
42,0.8213038910062017,0.4576732529559558,0,1,0.6944085139234882,0.0779944029837605,0.36555998566541786,0.43933037776473943,0.3402838035283753,0.06284213958206511
43,0.7998290025091747,0.46687358061468875,0,1,0.5970513644006523,0.1657139535546909,0.37233623502166874,0.4323726601531823,0.1724232411999008,0.06701846793138302
44,0.7875447641978764,0.4772444675470458,0,1,0.6497250890576918,0.15696568772798528,0.32073636665101574,0.2843532111826404,-0.17380319874506564,0.034580738889407305
45,0.7863543004905175,0.48793909755085635,0,1,0.7626654375037164,0.07834144044981212,0.23542790935090763,0.0800361594316544,-0.3620763060727006,-0.032267836835997855
46,0.7977565263372517,0.49771122095677967,0,1,0.8051803473789604,0.0006748185486067281,0.21088195693638562,-0.034340888808942614,-0.41735298093585865,-0.08077822712131355
47,0.8225898972394162,0.5051125700757506,0,1,0.8325136784181874,-0.053497008958006444,0.13905716612552477,-0.049126661348047176,-0.4408176157448527,-0.09652308205864314
48,0.8608140808579072,0.5088062172462192,0,1,0.826622008437057,-0.055440580417183916,0.13771508635573781,-0.11319711342029293,-0.414049818023571,-0.09971513055002482
49,0.9113541168032548,0.507948093871277,0,1,0.8345906995983999,-0.04122341347578895,0.1601910259308507,-0.27382686356380653,-0.5354381532283725,-0.13811502973948417
50,0.9720342888054426,0.5025554603736366,0,1,0.8827062333060685,-0.023660206311667008,0.20119258862834394,-0.4096730580850441,-0.4976253024766386,-0.1354353331592376
51,1.0396291020221866,0.4937614371414392,0,1,0.9664055786299925,0.04431847150503431,0.1928135686155717,-0.42465393912981947,-0.591746229594459,-0.004565743164474728
52,1.1100502050849528,0.48385800262709733,0,1,1.0117577093184267,0.11238513166991201,0.15593599392873592,-0.36120449801910204,-0.5765770298960387,0.18328189367753656
53,1.1786698439840544,0.4760629781542874,0,1,1.0558576613713584,0.010273995400617153,0.2624253409185168,-0.28026300582403585,-0.3817393474043595,0.3375988948795882
54,1.2407563556489176,0.4740077163327518,0,1,1.266486908823459,-0.1646289483606296,0.18555328461791318,-0.26579479334728373,-0.2888332206558116,0.4044899359210279
55,1.2919695154736337,0.48101847461782016,0,1,1.3603121607823183,-0.353025774140229,0.0924465123862432,-0.10931819535733907,-0.060980126762889324,0.2920270017324433
56,1.3288397496616127,0.49933540744885524,0,1,1.3812790204442407,-0.4594384214681232,0.10821294559884223,0.011887561186879166,-0.040208473650696526,0.07193608639444128
57,1.3491452335492895,0.5294559504776998,0,1,1.4395946411335743,-0.3105521043269956,0.010616235729743332,0.13930051476496177,0.001021717791522274,-0.09013235936531983
58,1.3521130649317468,0.5697832409715582,0,1,1.4312546679070368,-0.06912123967251896,0.18821675659199089,0.24878016596624764,0.19821845287155354,-0.20639336747060524
59,1.3384045039442531,0.6166960318501375,0,1,1.3390031343401898,-0.030791347083124723,0.3108328650268821,0.32578945208010524,-0.005454851970885135,-0.34059634983211057
60,1.3098900182638182,0.6650489293519172,0,1,1.2069750406726683,-0.045194825669397504,0.5014808382612732,0.5760217056954107,0.08817083443648344,-0.6027554249297146
61,1.269265016614334,0.7089969754044259,0,1,0.9832034849341419,-0.062458397547654136,0.7612181787588825,0.6864143457299902,0.057322360627638305,-0.8421795508661208
62,1.2195916603528854,0.7429568923900826,0,1,0.6826445436110534,-0.13001314338247125,0.7456402807574066,0.37219462081656723,0.1023836566008365,-0.8884052051796973
63,1.1638692109057984,0.7624957224076135,0,1,0.5579332771065634,-0.024214525078904706,0.7056717103008917,0.0217589032020166,0.10356973629309377,-0.8400833529492625
64,1.1047290482698207,0.7649789871031507,0,1,0.7270316764093012,0.15731674321834782,0.5937265503226886,-0.03186527117337012,0.042513521819628156,-0.8201454399200538
65,1.0443159992335656,0.7498907048202982,0,1,0.9518504797313361,0.3092707110870902,0.52058228656901,-0.14343965269169895,-0.1645964118922355,-0.7312739821000565
66,0.9843593196035042,0.7188197864471476,0,1,1.0950878625286047,0.3435217046144181,0.3099290438934678,-0.2948127613722101,0.0287161241439747,-0.5792202360686658
67,0.9263755967608572,0.6751658805972373,0,1,0.9269995537845732,0.26651182074495966,0.37034329366618407,-0.36315412817592896,0.39129590526060887,-0.39888112415439936
68,0.871910758864526,0.623647396661778,0,1,0.8262669813806038,0.12140208248696834,0.3028301031041279,-0.4880777983934194,0.13185104514299417,-0.22056398077498734
69,0.8227334316468036,0.5697014591021836,0,1,0.8100979680696454,-0.07417736353605187,0.24829611837283194,-0.5161156026150162,0.18737541140493297,-0.11893930771274365
70,0.7809253504202355,0.518858319572407,0,1,0.7239779229533054,-0.23595953700220054,0.21622586327203877,-0.45446229001376215,0.2045165908236491,-0.11056191541647425
71,0.7488523050121966,0.47615904459152014,0,1,0.6027319854828885,-0.3319815177966154,0.20606445590765568,-0.36591161036973935,0.29987888118994704,-0.17774176987278478
72,0.7290253081313756,0.445671547957271,0,1,0.5890385376228295,-0.27232741804379584,0.24100778381439325,-0.26547470335960976,0.0702292322085223,-0.18321440559320917
73,0.7238740771087747,0.4301493744647371,0,1,0.7410311718114533,-0.1355823650065026,0.16692227069416393,-0.11228347720344732,-0.25558930858657275,-0.07976980532864746
74,0.735457684089515,0.4308670502382829,0,1,0.8446881376354681,-0.02529731182589783,0.09043410409931973,0.1366844745825891,-0.2577670398946356,0.024101328422629166
75,0.7651367368716304,0.4476469964681703,0,1,0.8156090938234024,0.020360537579297247,0.047122792380410804,0.3991264853944826,-0.15958202430131246,0.0739321637175208
76,0.8132358663116714,0.4790605648657097,0,1,0.7774868304806579,0.010934528516660581,0.10552594095803498,0.5601543350439637,-0.13721184748915374,0.12567319985099976
77,0.8787394161110561,0.5227461950802238,0,1,0.731878281719691,-0.06345556195416778,0.1674340505036201,0.5917543397672569,-0.21751160502461314,0.130767984217667
78,0.959081425938628,0.5757580322698566,0,1,0.7604304870643762,-0.1558311193026322,0.19508694601135249,0.6161281263534958,-0.3849550418891893,0.044368129259308664
79,1.0500988643350944,0.6348542562576706,0,1,0.8122522591708399,-0.13213971314774878,0.19427098650382216,0.6469802876166296,-0.4888217361215431,-0.10192617451726506
80,1.1462018339475448,0.6966601745896802,0,1,1.0631015598884381,0.010731146613455868,0.22236313608654315,0.6442595293643526,-0.5460073649232603,-0.21051202827855922
81,1.240774289664403,0.7576905968078091,0,1,1.3498224967695582,0.1762786428291265,0.12314206228898866,0.5689747072359472,-0.5448250361341489,-0.2013440772487993
82,1.3267654696677784,0.8142782716066641,0,1,1.4011374344302012,0.2729648216376231,-0.011415389471420822,0.2723366921970935,-0.4050153355487583,-0.008485485425025821
83,1.3973867377314857,0.862514260217861,0,1,1.3332326090383044,0.20571925267278662,0.20482870336538297,0.06762471892033609,-0.2664549320669987,0.19604263619552686
84,1.4468083785071482,0.8983360652576116,0,1,1.3963760963536862,0.240622072015449,0.3762176163006348,0.0815012032049365,-0.32596511354538893,0.36070279035205915
85,1.4707570230100966,0.9178708128431208,0,1,1.449468460468093,0.2871516368884871,0.9464019193244264,-0.324740350754823,0.3946920302181469,0.6233765768626485
86,1.4669351962114778,0.9180449155098129,0,1,1.298477097388203,0.5544281250217096,1.0054215698174715,-0.6297948105721725,0.06831488015799099,0.9412226322871787
87,1.4352144492834789,0.8973395425436154,0,1,0.8771373924332194,0.4472487350935382,0.6574843319522214,-0.9959909818466847,0.17083648375810356,1.1638619728915265
88,1.3775963531764552,0.8564645569334296,0,1,0.7844182170248089,-0.14239087448523421,0.856631854320055,-0.7533502736631765,-0.2920131396344711,1.08529384026373
89,1.297983231078442,0.7986999137442721,0,1,1.1150316443342545,-0.44349210653780236,0.37393311092982173,0.00024002107708692914,-0.23364616958750004,0.9184859225059452
90,1.201826447226152,0.7297313799771448,0,1,1.0476345074923186,-0.5120217002662683,0.5241550954113141,0.2493785623847546,0.5210357697093772,0.7584528442385006
91,1.0957083871340616,0.6569545756535974,0,1,1.0453841111496538,-0.3431396694712346,0.4411525535036147,0.161206899863962,0.17788397463248876,0.4293737542334203
92,0.9868823390083857,0.5883765312571636,0,1,1.0080471331832415,-0.11306748605831185,0.29711640669338507,0.06221519568540901,0.19131463125353418,0.09111411242822177
93,0.8827739538942617,0.5313535506158213,0,1,0.8787582075448181,0.15645206285801758,0.2227458535358649,-0.06254848452053816,0.1574112437848048,-0.04992409471006145
94,0.7904528266262496,0.49144062007042866,0,1,0.7003957283556013,0.25655113420158204,0.1844890165452808,-0.14019823726604244,0.3483532905403769,-0.03219650571683736
95,0.7161041627160407,0.4715892880859476,0,1,0.5081443361754042,0.2932719379355084,0.2399893411007979,-0.1356709876921186,0.25558535454436576,0.01717346488049334
96,0.664551957213388,0.4718401283957031,0,1,0.4258250213282101,0.2966250628585699,0.20359494219224927,-0.2144492863143857,0.07691560493040323,-0.022311575228283715
97,0.6388940425779077,0.4895478323140514,0,1,0.46230598319157007,0.15767294605596616,0.16412687820424535,-0.3434902653979131,-0.1783201149117658,-0.11571175433607592
98,0.6403000229493322,0.5200773579261571,0,1,0.5998734283680076,0.0015148972318592792,0.11827821539862562,-0.4310289223126899,-0.4435356452243025,-0.18239134084737224
99,0.6679969375217802,0.5578271442095794,0,1,0.7248283307909598,-0.06454465658229414,0.04917353834885139,-0.4999346214060145,-0.5270272572965301,-0.08489191730482948
100,0.7194332150331078,0.5973768426170274,0,1,0.7552784246145928,-0.08081238655917955,0.01108421332705548,-0.5456419351215854,-0.43936411879132753,0.11936429175504877
101,0.7905822299606315,0.6345341757151352,0,1,0.7598958117462635,-0.04865111118977818,0.15180594472812348,-0.6454755403026952,-0.38330020393386155,0.3105663847089616
102,0.876332577734391,0.6670735025653843,0,1,0.9164262470012481,-0.017168077258783342,0.2636806799921282,-0.8636760711355336,-0.276843930328925,0.49928264550407675
103,0.9709136419102407,0.6950101407686172,0,1,1.0322049366698198,0.05474041750347212,0.16100666248227097,-0.9220163457306335,-0.34855367368742585,0.6266546469463032
104,1.0683160419392659,0.7203326362233657,0,1,1.0216059080069837,0.056839829206525416,0.056205449134626495,-0.8680873246275618,0.009838362114149794,0.5283135419061594
105,1.1626815140978444,0.7462213745409031,0,1,0.9478060766262986,-0.22357916794307048,0.07793868149299628,-0.4647527393658832,0.11856340916434847,0.18537215641542898
106,1.2486504968695493,0.7759100746475714,0,1,1.2729636299252,-0.4477772183650776,0.06088432433188812,-0.1265174082333186,-0.5000372502812185,0.007507774095564126
107,1.3216607695491085,0.8114646003996059,0,1,1.3887410800572544,-0.4321299497598973,-0.005612805358485666,-0.1905641444319382,-0.1728188571504892,0.021155972712436095
108,1.3781847267516905,0.8528124160146675,0,1,1.3031458997575949,-0.15455978946971594,0.06812529829965819,0.07580591289243883,-0.04285460051172152,0.002395962595154553
109,1.415886001280824,0.8973209972827159,0,1,1.2761842479137557,0.02006386359638803,0.27442645581946545,0.297232179227228,-0.2484863295882931,-0.13979499191663625
110,1.4336781019848055,0.9400917345052242,0,1,1.468654078911279,-0.1473282997158876,0.5775847896739228,0.5755276368099256,-0.37406885273365115,-0.5142749841809737
111,1.4316755069140257,0.9749366068119226,0,1,1.4627628988407222,-0.5253481804476314,0.9018704729588274,0.8886973950340448,0.30623888930591264,-1.0703122607105098
112,1.4110367337755279,0.9957969622221883,0,1,0.83660955539376,-0.5788268080696074,0.8657080704481065,0.9693332386348548,0.4351386311506661,-1.3653800887195076
113,1.3737178093545672,0.9982229394755925,0,1,0.5653758009607371,-0.05215354319639708,0.8480137606662856,0.7841899866151278,-0.20802828868939993,-1.287296912693514
114,1.3221879732541797,0.9805165645009734,0,1,0.8476167214095178,0.236878842691829,0.6142627923908314,0.39967523026067475,-0.5639894444548897,-1.0974709768518582
115,1.2591847745060596,0.9442556220971537,0,1,1.121627999868533,0.3275371874664703,0.3527255636974818,0.2999661389397493,-0.6320572864540371,-0.8570903478203349
116,1.1875709621091148,0.8941062670107564,0,1,1.2917364619837728,0.26913915047392395,0.27792984248966274,0.3601818273284909,-0.1384233700836776,-0.5278017520896187
117,1.1103009378732271,0.8370238765934367,0,1,1.2339570306967844,0.08150187159634172,0.3860198465435158,0.4829736199568492,0.05784755901226354,-0.20200490782322197
118,1.030447903059871,0.7810734525518994,0,1,1.1164303667207547,-0.04917389997715888,0.246932154629938,0.5252640146743817,0.1106890353331772,0.059356384033154505
119,0.9512223395410849,0.734146321768278,0,1,0.865161612097148,-0.15234545961847734,0.30437705141934374,0.5530848464822496,0.3337619050845533,0.18079725395837506
120,0.8759344769249269,0.7028171587885618,0,1,0.7440760630765285,-0.1736133561384795,0.27252982133108855,0.5745595438872044,0.21053893864225054,0.1470976766694116
121,0.8078950017712188,0.6915089367916772,0,1,0.6555149070409249,-0.17158984193281243,0.25624198079594784,0.4986485740114084,0.22422405590448266,0.08607736416838464
122,0.7502807413002842,0.7020523349828176,0,1,0.5984085211654336,-0.1593196475586931,0.22126297732339334,0.530018464242972,0.05182832479056162,0.04377284345789652
123,0.7060000773296039,0.7336598642370273,0,1,0.6432961184158461,-0.055252717774016726,0.18505177530617123,0.6290250720511449,-0.1089377376803788,0.06853093033173256
124,0.677578196262976,0.7832801924018352,0,1,0.7557908506752554,0.007658937479673526,0.13037441308376027,0.8416296929975103,-0.15353333197943034,0.09903590575007873
125,0.6670572461363604,0.8462473462654136,0,1,0.7947391519748841,0.008001100943076959,0.07499978721014869,0.9902624226728176,-0.06207309426022613,0.059519918032629404
126,0.6758866138504426,0.9170974496547508,0,1,0.7484491695608831,-0.023526554966887436,0.076196598098238,0.9937630009956301,-0.006062086848696556,-0.030146750797032364
127,0.7047765496394796,0.9904061343216701,0,1,0.733224366897155,-0.06142514535678862,0.12238498176701038,1.048870764303781,-0.027817035375002592,-0.13134209099758212
128,0.7535073430683062,1.0615094496222144,0,1,0.7189964412888001,-0.1131641562486252,0.12355328206262753,1.1410756787063026,-0.10779100463360003,-0.20487842589875133
129,0.8207171636296472,1.1270024021407994,0,1,0.6926631824066724,-0.11870814320737184,0.09471845100129646,1.2661167239559914,-0.2035857108007453,-0.20330201240814996
130,0.903719420394323,1.1849499711633036,0,1,0.8477558375869401,-0.026245966171455717,0.2304273377190159,1.430962975721492,-0.11739936114203957,-0.1678371253332531
131,0.9984134455612356,1.2347918690472115,0,1,0.9764920327665451,-0.05939493810587445,0.30786100332681465,1.3631477582190201,-0.20777766254328486,-0.1586603403853502
132,1.0993482484568524,1.276978797929205,0,1,0.9663799823860489,-0.071404545944638,0.18468481060586917,0.9756306195326895,-0.1819413240083123,-0.10642644546990021
133,1.1999840575555825,1.3124422122567097,0,1,0.9216354721003474,0.10579779639517974,0.058115884112024264,0.8516913092208481,-0.3177773163475899,0.028721666615605622
134,1.293175153313198,1.3420499371818788,0,1,0.9886409590928295,0.12917308298267205,-0.12587414666092808,1.0463621501132643,-0.5084169675132131,0.13303388268432784
135,1.3718641195424202,1.3662048286753026,0,1,1.2190840753682735,0.08394746949464418,0.15640116445229535,1.3140996787278856,-0.4002709779860715,0.17336237835739668
136,1.429921328506096,1.3846919415413308,0,1,1.4552821741861195,0.20832938516878013,0.7146412392253926,1.2336117323969906,-0.07298414424913717,0.2819493182228305
137,1.4629891066642609,1.3967961617573885,0,1,1.9435689466263217,0.7454273732813694,0.9209147720195048,0.8269087614382243,0.18997427922475058,0.6227018312473215
138,1.4691317197196025,1.401632829869814,0,1,1.796624973510302,0.9992881859970845,0.45284961969620274,0.5782664433485053,1.4670328723977721,1.1870456703905745
139,1.4491007279558143,1.3985762069500465,0,1,0.7777712699993404,0.5575691215701626,0.8939524875699684,0.1917035511294051,1.0381398599801466,1.4436214111385237
140,1.4061267139612024,1.3876432067909599,0,1,0.7281906368529726,0.07000647236235526,0.4972789121129174,0.22788942797199965,-0.45716671245523244,1.2572946113191625
141,1.3453047327655236,1.3697085589866873,0,1,0.9794789039843754,-0.2199308822086136,0.3944361989113107,0.7578520438470502,-0.17172591663148581,1.005433132603723
142,1.2727632355519005,1.3464938334113368,0,1,1.1369487589747869,-0.16920710886327825,0.4781421975051096,1.2283721567035097,0.37027213249770957,0.7636830487448579
143,1.1948293314440621,1.320352351529289,0,1,1.0540763325602427,-0.12948874375738129,0.4637450366937125,1.106446685235019,0.3967879076836911,0.4384383168052185
144,1.1173403995943556,1.2939257327397555,0,1,1.0255447579103876,0.030110293635967487,0.3435264985820275,0.9962484287531571,0.24035519565169147,0.2554473836100089
145,1.0451666062384584,1.2697666483037369,0,1,0.979528796195474,0.16359543521881134,0.31557392333904305,0.9550885229107405,0.2607461233021688,0.29486872696023536
146,0.9819475962717014,1.2500140757902989,0,1,0.974082085849104,0.24079584923393532,0.23359210775888348,1.0415127788078942,0.39948788935908486,0.474288534072987
147,0.9300158769165685,1.2361741374545194,0,1,0.8226568986225704,0.266152698194973,0.34788065692932546,1.2132717157138773,0.7623594553411286,0.6347620798462238
148,0.8904675504375772,1.2290097170842238,0,1,0.708498074166567,0.27724760433670176,0.40048464375225123,1.2202643724544542,0.5887910424789825,0.6272428421837501
149,0.8633388973086958,1.2285044549288835,0,1,0.7194987954897089,0.18207984610553513,0.34203983670362864,1.0330934284377902,0.3269735074159169,0.47359601320589473
150,0.8478487824998999,1.2338708636997822,0,1,0.8444494794425882,0.043262164145141155,0.32474500333767803,0.9177386658926157,0.14928034637694895,0.306209251051561
151,0.842666877860411,1.2436137833446987,0,1,0.9295716397697622,-0.012066473479245502,0.25845639866554504,0.9324048960567897,0.08706932933176313,0.2938571847311938
152,0.8461665341077533,1.255698815232267,0,1,0.8942434695850444,0.015680690767535192,0.18852178034909506,1.0453813100622535,0.24528471324898513,0.40591509355186817
153,0.8566258681623078,1.2678716003820187,0,1,0.8035412049651729,0.0547034894925887,0.28711244176357537,1.139072213828128,0.27548802820673807,0.5474607811164856
154,0.8723570733901125,1.278124970782934,0,1,0.7689846776707138,0.049170710118312914,0.3336380907024432,1.169113056976747,0.09731902477722551,0.6358983091780567
155,0.8917679920218139,1.2852474645158622,0,1,0.7852849043580935,0.05576829993421094,0.28267850980514125,1.2094235018246802,-0.041065331907057016,0.6757685905426148
156,0.9133798322706892,1.289341972259223,0,1,0.8085462904582776,0.09050604297617475,0.2695881175041086,1.2445029465709958,-0.08488740911866316,0.7038665002917177
157,0.9358312995889712,1.2921920732693764,0,1,0.8202024991167427,0.13705229144816766,0.2765589796141339,1.2343185732799329,-0.1478723655163141,0.7451967918261004
158,0.9578914072661049,1.2973730750871648,0,1,0.8671028254695632,0.16896169246573176,0.42580776985128627,1.271625690611723,-0.09407108439437839,0.7610161945277093
159,0.9784864126525966,1.3100465436960573,0,1,0.9263833986745523,0.07257915424402057,0.5903029224367833,1.2060914799471156,-0.2473871251149897,0.721346300849668
160,0.9967297348661046,1.33643387663913,0,1,1.0518822534021068,-0.0016119475104664567,0.45147150245709927,1.2716267922808246,-0.2773233588442213,0.5089713733038795
161,1.0119380064162096,1.3830284614969142,0,1,0.9269533112334549,0.05290070268633402,0.36948813926970303,1.2905290849723383,0.056628247109272785,0.18493789252389442
162,1.023628487487701,1.4556658591410847,0,1,0.7408987580783936,0.04937045112154552,0.30441098161947183,1.1850072864658225,-0.0399749611075809,-0.009740434257439525
163,1.0315168784920783,1.5586118429684388,0,1,0.7413900831363958,-0.09321767579382209,0.20464955925837197,1.1727442838711253,-0.18563314431849143,-0.024534882758602748
164,1.0355490694589773,1.6938322843148457,0,1,0.8756920768425407,-0.21738257814577097,0.2807278024328949,1.4833004048464442,-0.1522023937520899,0.043033650915374776
165,1.0359843001319546,1.8605666707876924,0,1,1.1256954336627218,-0.33203537371395875,0.34242565045281015,2.004931738727853,-0.28963425685847194,0.1307925195986914
166,1.033501543098403,2.055247542686549,0,1,1.3907182215123253,-0.36151889886999466,0.25251030905453253,2.2135842425038055,-0.1314669597948263,0.2668181258948807
167,1.0292559647452049,2.271724529875368,0,1,1.2104478761785369,-0.2374918405099494,0.13778247516392952,2.333164682581387,0.3389969149757396,0.5110678913180762
168,1.0248072517192413,2.501703684482596,0,1,0.9072419099966036,-0.1413170956439977,0.22069685150591387,2.433826094073501,0.3756489849699201,0.7701972078313186
169,1.0218905886221716,2.7353169848996335,0,1,0.7941590884758358,-0.09855619176268533,0.23209596477522362,2.4962366794166453,0.15411950117841772,0.8981547807338528
170,1.022077090032722,2.9617759830556687,0,1,0.8133784279863034,-0.13325643443671428,0.20599429732858668,2.566421137159353,0.055847769186419455,0.9522196825298197
171,1.0264259465968357,3.170103538693013,0,1,0.8848056835143169,-0.1612705021173611,0.1828426534541837,2.7822834857806886,0.05083330587619476,0.9911433696902563
172,1.035236168625681,3.3499499208555297,0,1,0.8981535960920675,-0.2319510371371142,0.23244815373013783,3.0493401907889983,0.1429485969418027,1.036314204241759
173,1.0479679503661854,3.4924731112120764,0,1,0.9302451765382409,-0.18902519346709634,0.2375903563974541,3.36135442904686,0.06885078662313796,1.0655085141311667
174,1.0633482663781209,3.5912076167261957,0,1,1.0692367367607216,-0.09693381719960502,0.1551648920399233,3.6472288115998897,-0.043085533715261685,1.1116904007064332
175,1.079624433140298,3.64278805977518,0,1,1.2235004430876224,-0.033812208561912985,0.17772140751085116,3.7345569269943546,0.15526213624457072,1.2625203312330837
176,1.0948944086397718,3.6473643569845535,0,1,1.1851603377689863,0.06870521807977455,0.2695120700844787,3.68528013286939,0.6329854413393508,1.514671427911723
177,1.1074298745083668,3.6085660165787257,0,1,1.0700312983488645,0.34650648750787866,0.28042829844929873,3.5311856720488515,0.7879800464566186,1.7258861366572813
178,1.1159205534438235,3.532948630348655,0,1,1.0251990777876059,0.5179851878038068,0.30044240037860226,3.1393308508020956,0.6797856706146261,1.7681768637473254
179,1.1196005037390486,3.428973184617401,0,1,1.0498542588335045,0.39011244133590095,0.20189998295006975,2.7303246887496906,0.35315911214806933,1.6025705590636836
180,1.1182562117247483,3.305698549138917,0,1,1.0016625443894087,0.13011990177150862,0.15492792155873794,2.3943384433151764,0.14323570013032422,1.2490261697537974
181,1.1121488759972038,3.171464305941689,0,1,0.9598505775370592,-0.0336453159065628,0.08895950217952943,2.4025657722591727,-0.13952839033884246,0.8920295060658247
182,1.101900275884808,3.0328580992906606,0,1,1.0405355439551038,-0.04727239748920152,0.04427776562994043,2.725897852680704,-0.07752815533454221,0.6897933727928497
183,1.0883879302139723,2.8941788305910805,0,1,1.114009703330512,0.046656509882873405,0.08008456644648224,2.8933935073842814,0.004106935664317711,0.6693944239957753
184,1.0726728277283728,2.7574533514066752,0,1,1.1423248541799984,0.13667870660194886,0.09149731024471777,2.842545798871495,0.015202949787887866,0.7668387177679385
185,1.055954294001957,2.6229067424598567,0,1,1.0967031100441322,0.19296196574128135,0.06529529575597513,2.6864597389007248,0.08006362539743107,0.897941419595455
186,1.0395281923576931,2.4896870588175886,0,1,1.0309900295960897,0.22811191239031015,0.059371342747184606,2.4898757337060693,0.18386413824310704,0.9812021657712087
187,1.0247250553265028,2.35662623873162,0,1,0.9848953234367136,0.2640215949899544,0.12456384995149947,2.3270676980535265,0.18133705801467373,0.9699699799656406
188,1.0128192205672808,2.2228616686683664,0,1,0.9440609535636628,0.29680019027119436,0.1372845372811212,2.1761449415246927,0.0867255149724538,0.8765156652297205
189,1.004917350276927,2.0882158292685964,0,1,0.9074590371818461,0.3107754747528003,0.16274112388836726,1.995691505303641,0.02286617989866459,0.7392514358248483
190,1.0018461231573206,1.9533090065476622,0,1,0.891525728490409,0.30218151340342086,0.15793039340539744,1.777429245830515,-0.020371693927182105,0.5985394673205247
191,1.0040614566651218,1.8194460033224393,0,1,0.9267699697868909,0.25617528607546036,0.17414961111945435,1.624991727416428,-0.0009021412287241928,0.495685969510344
192,1.0115962317813276,1.6883609176922532,0,1,0.9906995501324617,0.2034484240781374,0.1937958865426113,1.5307245892923906,-0.02727031704187825,0.44799537771673836
193,1.0240530241500825,1.5619177093854602,0,1,1.0188195203942239,0.15909382516347398,0.1844492021595787,1.4166357703014398,0.015121000718923049,0.43659879987112804
194,1.040637399363314,1.4418498630763514,0,1,1.0241252401499423,0.19657909858637593,0.19090444209903354,1.2679150002067177,0.0559553720128239,0.47574279937959074
195,1.0602208257622747,1.3295897657825702,0,1,1.0184263101709237,0.23369345872181943,0.15778885748800853,1.2082050752708422,0.032065213682692786,0.5222802693325339
196,1.0814222359921013,1.2262000381177904,0,1,1.0220086717618961,0.2363346379519615,0.18086743536688873,1.2095756512899456,0.07821254245723526,0.5148584004148024
197,1.1027014000644286,1.1323855193812746,0,1,1.0537720881742052,0.24504783845236255,0.20699918313462837,1.1243111337722898,0.13967992834933765,0.45346690093943526
198,1.1224612162869643,1.0485443225071818,0,1,1.0668603969188886,0.27045640938301574,0.22582498856400787,1.0293197982336677,0.17660569290462128,0.3903992907114898
199,1.1391571501816513,0.9748150830507265,0,1,1.061918156677861,0.32688695543860863,0.20344516315301772,0.9364682827223921,0.14327015822444408,0.3286247824113759
200,1.1514107020768491,0.9110940749763197,0,1,1.0639021047243817,0.31261208271602564,0.18969580013608983,0.8092514229794121,0.13712202705745447,0.2734918674149699
201,1.158121335804346,0.8570206705934558,0,1,1.0911520915129507,0.27787686749870555,0.12297755513944739,0.7296585365967836,0.0007091619029190096,0.23623580519525744
202,1.158567929386293,0.8119497284300526,0,1,1.135983506021296,0.294387885649029,0.20324274511172855,0.7621144351935447,0.06464477489487201,0.22849547689825847
203,1.1524861555086627,0.7749358842233646,0,1,1.1564701443886107,0.2533104619439149,0.27531492366375104,0.7501256122376921,-0.08317579578339995,0.17844094711725367
204,1.1401040473931097,0.7447470185636557,0,1,1.1303783520334567,0.18078010686805626,0.23616154814931906,0.7695420651409195,-0.019413992543936227,0.0791200864668822
205,1.1221185832447653,0.7199102749473206,0,1,1.0493803103224697,0.12809815677797454,0.48917816461585434,0.7857283102122268,-0.01323230838295506,-0.04760898147092503
206,1.0996044013549446,0.6987842052032202,0,1,1.0474673888182262,0.04948341713699509,0.3887447686229744,0.6936200721543722,-0.18525915218456931,-0.09510991301799625
207,1.0738603028661102,0.6796507691446986,0,1,0.9998008550317372,0.016094909947853505,0.5068171776900781,0.6114749129396828,0.1630990516151292,0.01689452882889275
208,1.0462158751138617,0.6608294561339839,0,1,0.9119410066099826,-0.02575570280910096,0.5045679382985592,0.44290408888872834,0.17085619627762427,0.15593370071884352
209,1.017835992144185,0.6408243946981461,0,1,0.7376585774108225,-0.07385917505946722,0.4588199710218803,0.39208025609295644,0.33469923524972006,0.1968588277081289
210,0.9895719034689596,0.6185126693898496,0,1,0.6471838759519885,-0.1129880903867683,0.48586598282859883,0.5159509573989538,0.21383300188205503,0.16878973074426762
211,0.9619076884321016,0.5933620231724325,0,1,0.679205209869292,-0.09839209419698115,0.466473315673664,0.6487117054774217,0.11669181291170394,0.16027604364399603
212,0.9350319817949717,0.5656350922680364,0,1,0.8522799355765662,-0.03645620027517649,0.42456394536897085,0.7390249423002929,-0.01798533633372145,0.1933553262493557
213,0.909026362519438,0.5365126129867779,0,1,0.9890583088660114,0.01127691001536581,0.40754125421963017,0.684997335481249,0.0920390101139518,0.23767182453622474
214,0.8841172621525688,0.5080673493609774,0,1,1.0007271951902608,0.08342497235622139,0.31153756116958314,0.41938661576834135,0.20346269055514943,0.2757611769855915
215,0.860910154784391,0.4830503269271698,0,1,0.9030019756474321,0.10399784445974744,0.34951351132608366,0.18268955146481963,0.3692357385117697,0.3121796082219113
216,0.8405290559577181,0.4645015595177012,0,1,0.7611714410970194,0.03965637773025849,0.3310630595403467,0.11873164043310384,0.29830727134160695,0.28831179488786346
217,0.8246183526858675,0.455248644591396,0,1,0.6660365396202655,-0.011664779778292785,0.294789656424303,0.16771138583393144,0.23915962401985594,0.2050686689303797
218,0.8152082364063735,0.45739071418768024,0,1,0.7274192614291017,0.01964491034528572,0.27530982593863235,0.23351049158585155,-0.02786452722116075,0.1752408064761153
219,0.8144771100266366,0.47187457253658494,0,1,0.8260467924162033,0.021298970109854137,0.23033015553347025,0.2427387837003739,-0.13308351882040073,0.21998171218196982
220,0.8244541381641597,0.49825433398275526,0,1,0.8260397974405477,0.004020166337879721,0.18309965907542036,0.2739179237323913,-0.21015718379859014,0.23882512510476414
221,0.8466993764904915,0.5346898573044995,0,1,0.866190138072493,-0.011417247594922107,0.1339229846472846,0.27581138390231746,-0.25553823421826277,0.23904152541850374
222,0.8819920808887173,0.5781915174121101,0,1,0.8857690563251256,-0.05153074487145267,0.12497098529621749,0.3771948998810338,-0.2284202985619412,0.2187044272435291
223,0.9300585677255246,0.6250697883507466,0,1,0.8961977516074379,-0.04700559848890471,0.1697212369212777,0.6163926533380784,-0.16648490315730202,0.21433430396289677
224,0.9893779707656292,0.6715053787300523,0,1,0.8888413933640555,-0.02784993012883474,0.20757035329060158,0.7980619568007371,-0.18731592139465672,0.1985396087548901
225,1.0571107240024067,0.7141254048330551,0,1,0.8928080183983862,-0.008785778551444657,0.24012495189810665,0.8294508809740911,-0.3065404315950763,0.16008001920921505
226,1.1291932643321516,0.7504620559204404,0,1,0.8888030485546569,0.021964201154852706,0.26566874357086173,0.794903284050439,-0.4442212668336429,0.0850128392099641
227,1.200626570911888,0.7791906558529942,0,1,1.0448584826848106,0.09460163804718316,0.1908279360184766,0.8006061951704609,-0.5977464396691764,0.010611873582692066
228,1.2659516850618184,0.8000937278099001,0,1,1.3348482545242686,0.17241707044389276,0.1547370568643735,0.7509604277873653,-0.5090577031880748,0.010002662367782114
229,1.3198563027787888,0.8137665783213609,0,1,1.4993456194116517,0.3227727379762565,0.0978924773652711,0.6313058746198139,-0.450715870618461,0.08038458484078369
230,1.3578093829817957,0.8211528149508359,0,1,1.4773270181368885,0.3274030129656947,0.22380956592696127,0.33782927163983717,-0.09819803777295398,0.20529584867920747
231,1.3765989552268911,0.8230552540653103,0,1,1.4686114715288705,0.3088134296604545,0.38965403784221286,0.19736671302407674,-0.1537359956122493,0.35013975789469354
232,1.3746666052407586,0.8197838453061751,0,1,1.418547386025556,0.29197279358636674,0.4880256062436764,-0.12932993909351712,0.09327986872210023,0.5815173930991143
233,1.3521853332354927,0.8110592550433303,0,1,1.0499229883971906,0.13042940158275573,0.7907896307740744,-0.46202341264306435,0.21687414656788698,0.7609396814383877
234,1.3108957606677252,0.7961978090285493,0,1,0.8433631492666929,0.1284210360727205,0.6494527125564862,-0.4352118268083893,-0.02155403074642458,0.8497258065705754
235,1.2537753574729398,0.7745012742236144,0,1,0.6873602541717315,-0.05419970486583029,0.7727726841951165,-0.30178667897017597,0.03221031308902802,0.890994940035972
236,1.1846449283696703,0.7457098796366951,0,1,0.8290419731636154,-0.2615304828739344,0.676694801671439,0.07728636960126284,-0.15295210437579437,0.8638013253066253
237,1.1078039994496698,0.7103694232627494,0,1,1.015940243764357,-0.2871587730154973,0.5535166566222598,0.3971143185695321,0.158730769188189,0.7717617466951209
238,1.0277405704206872,0.6700019715611774,0,1,0.9871035740616533,-0.19960658549076918,0.5733186500664983,0.45809210788444976,0.3223550469804375,0.6360906038365263
239,0.9489093669085116,0.6270312942703387,0,1,0.9101618139086889,-0.1514764293924686,0.450408906253869,0.38946052287947,0.26195844248586375,0.38146496677330477
240,0.8755450734958381,0.5844810496813113,0,1,0.8220831963569335,-0.08889261564197949,0.35468446797459163,0.3636943737319696,0.20403845368942858,0.15178180908892172
241,0.8114820709857214,0.5455227918824334,0,1,0.7049950237035857,0.0231763793801528,0.31446722510456104,0.3741513692692808,0.1047256239007763,0.040014793068274455
242,0.7599771132751408,0.5129874109918822,0,1,0.5910418157039112,0.13197295204323964,0.25584400437053406,0.3909027139410201,0.200413554551164,0.058696156563504076
243,0.7235552560782995,0.4889564105458725,0,1,0.5368712582200373,0.21853205842155785,0.26279851568840634,0.3710620177717088,0.15158878334689477,0.07011063949300454
244,0.7039072692570159,0.474521241699893,0,1,0.5761017992682278,0.23191882690485868,0.24937011833897565,0.26815861097746585,-0.12619863169194942,-0.03094410432670328
245,0.7018554066176628,0.46975443119626237,0,1,0.706921815330019,0.13346588703680742,0.24551850230535094,0.11135543859452074,-0.4428488069895241,-0.12563518546291494
246,0.7173812485848733,0.47388896400345937,0,1,0.816695561230785,0.017335582047432997,0.17636415643718698,-0.022142394205322262,-0.49926474832770495,-0.14805289223979737
247,0.7496883711064024,0.48565930828688497,0,1,0.8154158987251942,-0.05698026000957894,0.116539102878113,-0.21214086779654895,-0.4049324128536357,-0.036902972257094144
248,0.7972668454134122,0.5037242569077236,0,1,0.7912740286932958,-0.046465462875631185,0.11214761174942381,-0.39030901962127496,-0.34453396194733277,0.06197288203536138
249,0.8579398691764253,0.5270735029519535,0,1,0.8042858093532884,-0.0013873799847992057,0.1662396175243221,-0.5217696652140736,-0.4323299935432466,0.09584053499518472
250,0.9288970117692753,0.5553171002149732,0,1,0.8702788529778166,0.05235222880525486,0.17978548407287828,-0.6322798542560867,-0.4608210727726423,0.15487842875426466
251,1.0067395275175777,0.5887694003479461,0,1,0.8877600232338415,0.07331569701566419,0.1713348056532282,-0.5204075877648158,-0.5804117883961616,0.24826436681688144
252,1.0875705783009317,0.6282718750838132,0,1,0.9884753427538695,0.05591376899458134,0.1763725012526523,-0.3359957457403832,-0.6558777609379706,0.3413120375917375
253,1.1671546880391654,0.6747575164807229,0,1,1.1496132178932237,-0.06360328409499245,0.21745665414318538,-0.27900740603512875,-0.4847555516073342,0.36463023101574144
254,1.2411502255325502,0.7286363787524679,0,1,1.2789495693848816,-0.29020396724367936,0.10877180535482414,-0.1267943151714005,-0.3990934286432952,0.18844004949866064
255,1.3053943820901601,0.7891550516801666,0,1,1.2985727398855529,-0.3941179836319464,-0.0065659838960805674,0.10465531834910821,-0.4271535343690767,-0.06326681811400575
256,1.3562026284299138,0.8539226560131036,0,1,1.2900310416718894,-0.21116320430634716,0.08356166620426318,0.330595723174269,-0.2871481697147538,-0.18399478984163128
257,1.3906408025368737,0.9187789421157182,0,1,1.328156192874261,-0.0310033695153371,0.1937566264748442,0.36146323412817505,-0.5247377722684687,-0.2269983821177822
258,1.4067345264658764,0.9781027929341106,0,1,1.5333514443360492,-0.10157989106502589,0.2927654897560166,0.42901964490489947,-0.5145510592140127,-0.4343576986165419
259,1.403588995129654,1.0255419562880552,0,1,1.472553273900538,-0.23245945057578826,0.7346876915689196,0.7990019659924892,0.04497921509433173,-0.8941982365979697
260,1.3814018146774665,1.055022120795511,0,1,1.0304760468238041,-0.4322041999394482,0.8215001236497131,0.7566244856038172,0.3277478980757465,-1.2961234870485414
261,1.3413724257345518,1.06180418837234,0,1,0.5706524225828431,-0.15651438214107774,0.854823629886291,0.4871819080646647,0.23639991752015263,-1.387108908182601
262,1.2855457678286604,1.0433360691138596,0,1,0.5970591738370647,0.2750557720970763,0.7549016289600748,0.2080374754578725,-0.0496600177034843,-1.3069232167767275
263,1.2166537282469883,0.9997035957482902,0,1,0.8950738833309955,0.4613713641287422,0.5462716620198869,-0.05723664764200557,-0.3292925051075801,-1.0351549996516762
264,1.1380067806439298,0.9336051485709033,0,1,1.249540880448841,0.4756244471974858,0.3380934349988624,-0.18464299308923984,-0.40876050271813935,-0.6196245571498553
265,1.0534388652857936,0.8499087863254685,0,1,1.1940476772558972,0.27609658004441123,0.31737667354047894,-0.34534218367486696,0.23547737420087467,-0.2296099694280513
266,0.9672561362103161,0.7549476711282741,0,1,0.9741730559574743,0.1347703695241657,0.3112872119784909,-0.511005057243126,0.22840192540486742,-0.04305899261005611
267,0.8841242893550681,0.6557385026062708,0,1,0.8703563872852292,-0.02984215818051821,0.21476297488736112,-0.604643013457337,0.36155644552187743,0.028985189706123585
268,0.808857709916465,0.5592708886080076,0,1,0.6959671865369256,-0.15319464917034423,0.23082385654191975,-0.5054745668705346,0.32720091662119294,-0.002885107501799418
269,0.746121374986881,0.47194619194494497,0,1,0.5974628631721557,-0.1949834324581226,0.18645250913695383,-0.4037449089994559,0.14788307400158038,-0.0316038033960451
270,0.7000923939295098,0.39918372521344764,0,1,0.49402045724571336,-0.24313693977086934,0.182753653044048,-0.3291270845901793,0.03544699009755302,-0.07336373426339242
271,0.6741375664878884,0.345180012303959,0,1,0.5750853464106747,-0.17998516611567456,0.17201959259541047,-0.2051520678844297,-0.22901334381518562,-0.09523801741469777
272,0.6705485850763088,0.31279491839259155,0,1,0.7837039244683408,-0.07154294810594942,0.0842776681390791,-0.010409537756816791,-0.4793587399734864,-0.018696712549925925
273,0.6903493177481139,0.30353206336900335,0,1,0.8643133471948992,0.010023198059715945,0.014834654028302321,0.18007400717652897,-0.28800391504484085,-0.007418950547432288
274,0.7331671277714781,0.31757833790556395,0,1,0.7661584896229345,0.03320401233425568,0.02904551505600934,0.24123395708851997,-0.09415783388311653,-0.06738984430115033
275,0.797158021635167,0.35387456947781115,0,1,0.6779305510585738,-0.030473468594270532,0.07720050241526985,0.13353374507368543,-0.17597518523858277,-0.1294258534524935
276,0.8789952152262086,0.4102038588310413,0,1,0.6800119082813124,-0.1086333519164909,0.167030313596564,0.14662996935810413,-0.30668566500858246,-0.2067277451535363
277,0.9739549393396653,0.4832933600871555,0,1,0.8164865235923968,-0.09241036700066751,0.22481243750151275,0.36549897522542607,-0.5059131145494061,-0.27781295094623676
278,1.0761384107395324,0.56892347479475,0,1,1.0683168875055826,-0.04108013548144933,0.22150999877210076,0.48599036853343613,-0.5820847449243094,-0.278646770939158
279,1.1788460344678384,0.6620373485374963,0,1,1.230307217493546,0.00247873090182827,0.23675590649971678,0.23913592451576235,-0.46881302562108973,-0.16112344743001678
280,1.2750819773262645,0.7568604676490676,0,1,1.2873405147906898,0.1592248290662512,-0.0382260305937829,0.06703247271225574,-0.6833721937993918,0.11526685037461575
281,1.3581360551261685,0.8470744569102816,0,1,1.2622072893393135,0.12745160186118418,-0.03445601115777325,0.20436669308766922,-0.2555242143706559,0.29928408447693644
282,1.4221768553334277,0.9261161485586278,0,1,1.276539736646454,0.08479968559202107,0.3129403831625174,0.4479506944476026,-0.4022794882140924,0.436920402349137
283,1.4627887259005676,0.9876632788200252,0,1,1.494772164312396,0.09293595117921033,0.6379944829224119,0.10114575351841179,0.00010995638953788349,0.6273663844273749
284,1.4773833270077443,1.0263109168104503,0,1,1.5676868114853093,0.44476578985750637,1.0903090856058006,-0.3793469551761832,0.3659751449816888,0.9848441006038746
285,1.4654163190980374,1.038352501888909,0,1,1.2962015227089865,0.834071957974399,0.6712599184688572,-0.5906297282590448,0.4025452990756246,1.4144195440208314
286,1.4283626298046335,1.022491612523516,0,1,0.6897262248606224,0.3680625146856704,0.7288639402028707,-0.6053634666892438,0.25564430298847446,1.3476860310752075
287,1.3694621556934163,0.9802716134205021,0,1,0.7651526875669876,-0.29033623215198284,0.6080529353881676,-0.3998541929385743,-0.7021814182590311,1.0360565474909662
288,1.2933153750930295,0.916053899354272,0,1,0.9805165535989877,-0.5976337318203214,0.3344037479733052,0.2379844573629759,-0.34638436532715783,0.8056771940387538
289,1.2054351824368101,0.8364938551560229,0,1,1.1547383098037174,-0.6179409101536086,0.35308372856890785,0.6091151177137476,0.08107951245918274,0.45740441794405534
290,1.1118274162050417,0.7496059097718848,0,1,1.1638421917908122,-0.2936968683164262,0.3862992640535294,0.43538947793669736,0.07570148099263786,0.04761400309475191
291,1.0186120352795296,0.6636153054882795,0,1,1.0631404220578569,0.12118492487404549,0.1985821364503685,0.2941915670958323,0.10077244243631288,-0.15354239086122007
292,0.9316600212800621,0.5858308510383976,0,1,0.9138844967010672,0.2868019096917412,0.1857364761245933,0.306274408757736,0.3777451535473787,-0.20069574880080726
293,0.8562268333514673,0.5217412897716238,0,1,0.7065451350682981,0.36389642254021765,0.19134398777305578,0.2847740557774187,0.4626907883827396,-0.11411292646311323
294,0.7965943275047774,0.47446490888300635,0,1,0.5798273382432788,0.3016647926361595,0.21535513831085826,0.10545374039460952,0.33260599460430057,0.03599369057597678
295,0.7557623727482933,0.44460379089191837,0,1,0.5516757904390057,0.23886955855906383,0.20771316606556567,-0.09984700578090801,0.10238564579918294,0.13102773016892771
296,0.7352420041661908,0.43049332712833105,0,1,0.6447053894013862,0.15320799289087716,0.15198011737225503,-0.3268197253619866,-0.1794694281905247,0.14903049639779156
297,0.7349900643840196,0.4287911199173825,0,1,0.7672712484491361,0.04797191858440943,0.10308198161728191,-0.42297327712013455,-0.1816444310055706,0.13074173128700373
298,0.7534977417434509,0.43530438326387494,0,1,0.7926309054275695,-0.05154479811580772,0.06733698268049221,-0.42098481580221614,-0.22556831674051925,0.18057848236037807
299,0.7880160729639505,0.4459131621542702,0,1,0.7811336640656878,-0.0703305791161488,0.021114194526918983,-0.41603277474838285,-0.2766452106039894,0.2759621312345103
300,0.8348831095046232,0.4574234529371209,0,1,0.7610993061060047,-0.06109646901761952,0.1022273647795297,-0.42694325708997527,-0.30634032501336855,0.34968455048549907
301,0.8899126721025269,0.4681900116470939,0,1,0.8326272343436798,-0.09303720808827057,0.13044012330189997,-0.425972916198451,-0.4373210095224299,0.4045298962888887
302,0.9488053736567067,0.47838263363425054,0,1,0.9850911337409223,-0.09012611479274614,0.13886338542094093,-0.43397685477149023,-0.44502268344326396,0.46929302898163827
303,1.0075400058734625,0.4898285934992605,0,1,1.1257173949225843,-0.07711839225757296,0.17877607754403949,-0.38481009079844564,-0.29074011141822015,0.4862570620649596
304,1.0626981871762595,0.5054451757328928,0,1,1.1734880496300784,-0.08391113869683912,0.14904333940728173,-0.12632040223983806,-0.14122947123346807,0.393726353008399
305,1.1116775795622702,0.528370683156407,0,1,1.1610398631016168,-0.12650372006824215,0.15777078997340557,0.21701572719774587,-0.018749588525842697,0.18493491475331275
306,1.152768025208533,0.5609874726717744,0,1,1.0922529980846316,-0.16063678202504908,0.1255479170569887,0.2978375603377105,-0.008153175290246959,0.020759218047507362
307,1.1850980320997253,0.6040766185968427,0,1,1.0582409501603933,-0.06910967454446261,0.009152625235969755,0.20059855015686762,0.025547785249644867,-0.017926538441843578
308,1.2084916855051533,0.6563301254054134,0,1,1.0647867462927323,0.02450194673746246,0.07065977106725554,0.15679912908307905,-0.03466044994005328,-0.049510818038252094
309,1.2232912543837424,0.7143718405654769,0,1,1.1193698981864553,-0.0832868013625308,0.0309530303391028,0.2897618867981227,-0.477199657170726,-0.18891622316909668
310,1.2301898878703756,0.7733170526274016,0,1,1.3099012704146302,-0.16982184307719822,0.28725823835058434,0.6220613270822695,-0.32086141368240834,-0.4106315653153487
311,1.2300880484633558,0.8277602994682696,0,1,1.4048136228634174,-0.23789584792278165,0.44831508249430185,0.9479996961471833,-0.2667322799575162,-0.6379814975687101
312,1.2239570032064095,0.872960414084488,0,1,1.268229124205984,-0.3397544470979497,0.48453200325428164,0.9880717828377714,0.06814259304377135,-0.862605712404807
313,1.2126871029862578,0.9059324276904474,0,1,0.8871380613679346,-0.2448407272801966,0.6296959199309083,0.8379908507081555,0.35709091953777944,-0.9975628880279663
314,1.196927432235601,0.9261804362357648,0,1,0.6720001746732633,0.02751718752037583,0.5321873397462392,0.5746197175151601,0.11216785964749648,-0.9458612939876041
315,1.1769677367416966,0.9359056396555965,0,1,0.7430218629630733,0.19493868897702668,0.42377415569060783,0.45358959460219134,-0.13721251761895573,-0.7477482367439101
316,1.1527347467819895,0.9396630618485335,0,1,1.015416243427513,0.24390667353949957,0.3488160572276153,0.607632467769717,-0.44052185938653005,-0.47325720800139903
317,1.1239462925983132,0.9435705068633987,0,1,1.2557703975920094,0.16996352579222843,0.27047838185199397,0.7879724803979914,-0.23695301206714797,-0.20687588901025722
318,1.0903987677196567,0.9542571729517615,0,1,1.2666594808069032,-0.028020833842085882,0.38243141635614675,0.7492035521099124,0.11726570039129011,-0.023396517526352797
319,1.0522984957880233,0.9777670316887261,0,1,1.2094591357522149,-0.1338554253395382,0.2604021420385164,0.6258584456699435,0.33562900955544667,0.10518589417266536
320,1.0105251457211402,1.018614077997461,0,1,0.9960488807220061,-0.18734434461632746,0.28406814930189866,0.661820291734808,0.6163431214921938,0.1895012494728422
321,0.96674448029384,1.07913710347074,0,1,0.8253309010814469,-0.19163399526219724,0.27821719139363565,0.8076621363487273,0.4269100901041663,0.2094896574410832
322,0.9233456003480852,1.159233110836288,0,1,0.7878368945944338,-0.18557873483010295,0.24594937842107845,1.0165659604609716,0.3789132791178293,0.24924332391646586
323,0.8832307914969222,1.2564750090279735,0,1,0.7921778037315532,-0.14364735261860612,0.26142622631165974,1.1878017785518948,0.3073781183994218,0.3123712977301514
324,0.8495122443318794,1.366555125409897,0,1,0.846847977696642,-0.10351935797612097,0.21942895391781964,1.3481280247182852,0.2904841177358659,0.3817062993023752
325,0.8251689972259485,1.4839507674043575,0,1,0.8707482892302278,-0.06323395702875152,0.16745827058155852,1.504197033233734,0.42256705062371797,0.38404712019458964
326,0.8127045825454012,1.6026858534833257,0,1,0.8017227748212626,-0.05019493552687894,0.11052103248066719,1.5905196267743775,0.4821590278490844,0.3065173964842285
327,0.813837062530066,1.7170642467812514,0,1,0.7258538411696212,-0.06735796112342243,0.15754956733917633,1.6747036950252883,0.3871666086773707,0.21944694516484423
328,0.8292536137178235,1.8222717362157523,0,1,0.6827606611268902,-0.10623324994349667,0.15079780190234035,1.8652898486853624,0.18559201242815598,0.17632602182654267
329,0.8584643148988264,1.9147753185957288,0,1,0.734216599190484,-0.12825918940852582,0.17568980896668365,2.0621994625828126,0.07884086579823119,0.16661958556801484
330,0.899782773360661,1.9924816739874986,0,1,0.8851575770244015,-0.135053036870042,0.179412201928224,2.1747503547122022,-0.04011706734307583,0.15775028199054236
331,0.9504400038571451,2.0546506264723856,0,1,0.9923280682709337,-0.18163662576823664,0.2308449360095938,2.107158936926484,0.044796153511344555,0.18908251677105653
332,1.0068101238823104,2.1015996173757654,0,1,1.082342992680386,-0.13145637861560833,0.2755784270621237,1.9117204834811545,0.04758683923458585,0.3149472344283915
333,1.0647070646984225,2.1342812603417287,0,1,1.1231526351239176,0.021554959399388642,0.2014473799052355,1.8150342533599624,0.19521293146335789,0.4632940801915118
334,1.1197121292476313,2.153851840797827,0,1,1.0337016044099319,0.018604458777559573,0.2113346009185954,1.8009562277271516,0.24528645556435444,0.5635519926484628
335,1.1675116110590649,2.1613511497943345,0,1,0.9548478438932299,-0.04297701743300466,0.1918157582295897,1.9561665677297329,0.30460625557394294,0.6566831165049732
336,1.2042468258150743,2.1575737322864335,0,1,0.9221756836465037,-0.08532761925167533,0.2955376540767465,2.1466474439797976,0.18429229381363346,0.7327902075891889
337,1.226884850443092,2.143144121675057,0,1,1.1142955088787083,-0.03663813719567441,0.24975417100246047,2.0737533349099704,0.04784870165245159,0.7391668336937772
338,1.23359370038012,2.11874554739241,0,1,1.3012451020985139,0.23603175284825437,0.5297276891716809,1.9246168992551964,0.457641553638303,0.7186782440766166
339,1.2240579470119248,2.0854173095890034,0,1,1.6006007261971964,0.5970560070866291,0.428684640980975,1.777284568053148,0.28075349381038667,0.8340888988434723
340,1.1996308808746083,2.0448310557908265,0,1,1.526414038566759,0.5592155812924023,0.1740599026081051,1.6133520905168053,1.1265893283021664,1.1504491274131654
341,1.163226879034551,1.9994647460878043,0,1,0.8604913482654074,0.2280535354184133,0.42003485519827793,1.4943993851443547,1.0580137035670008,1.3478055160051154
342,1.118929503236467,1.9526068775308028,0,1,0.6580575788442944,0.018886021541886955,0.28940469361282506,1.5366849513782919,0.1658937326768134,1.2671680108628636
343,1.0713956934611824,1.908151281361256,0,1,0.756949327959894,0.012051112685668679,0.25359523231655234,1.6380358733171718,0.16169796177194598,1.0727809500369956
344,1.0252092210079085,1.87019179152371,0,1,0.8851204701011685,0.12413420084244309,0.29725571465036604,1.5895202231611407,0.12020567944221947,0.8710626451615273
345,0.9843325850935091,1.8424838974996534,0,1,1.0277206595675985,0.1657337747974409,0.2660235737145669,1.5378793691353976,0.12392683221362101,0.6373092877393092
346,0.9517397425228163,1.8278832847660051,0,1,1.0431713597045298,0.18915141269054273,0.23767423846074182,1.5237632281510785,0.31124236456281906,0.518612308045358
347,0.9292357599677145,1.8278825529176694,0,1,0.9233548782277597,0.13730281214670853,0.2550070644593253,1.555693638046523,0.4007317515397911,0.5381034681056335
348,0.9174270056480873,1.8423446775310437,0,1,0.82621861514803,0.08724381839239542,0.2804734435290093,1.6571765263371543,0.3211821955774607,0.6201990423437298
349,0.9158034481589302,1.8694834606531656,0,1,0.7688758321368575,0.09116375632275411,0.2860402915574616,1.70014650793949,0.2287137520714241,0.7242653434901417
350,0.9229117435689407,1.9060840362629303,0,1,0.7544079224484737,0.07926924251360402,0.31890540816307533,1.793291761285305,0.1729659003938997,0.7949885608494784
351,0.9366087088539234,1.9479087024775956,0,1,0.8760038644087633,0.07438175583848329,0.33547234143198623,1.801201932795362,-0.02630636579044664,0.8467053251018919
352,0.9543777310899276,1.9902061143411778,0,1,0.9909483676471765,0.0649552073927697,0.2945037970629347,1.8229792264691638,-0.06835491696224821,0.9240260971792508
353,0.9736712472093989,2.0282363591271,0,1,1.0382674449400404,0.05207952460543849,0.30259511400548256,1.8771723918576986,0.0498643473100904,0.9964806476937734
354,0.9922261447728504,2.0577354899589118,0,1,1.0136280731918188,0.0736160198765451,0.3188879091851833,1.8784692089614814,0.15057786456308858,1.0356519785514895
355,1.0082991413603746,2.075264825412502,0,1,0.9702974046888929,0.1464479534613298,0.34921065705655757,1.8498818428433885,0.16015308403093878,0.9999221122658059
356,1.0207881358397324,2.07841867632751,0,1,0.9394854115619038,0.19123259440315693,0.3580797118276997,1.8399473642635884,0.06462688652106552,0.8829315907788108
357,1.029234350606238,2.0658945527590813,0,1,0.9281349126436456,0.17529992848790685,0.3452135740015431,1.830271321716299,-0.07044975623007249,0.7427088383872549
358,1.0337266295336314,2.0374543726019745,0,1,0.9357813692395369,0.16499378443722598,0.3012670416388995,1.8387498110866238,-0.14668055817446604,0.6704322701658513
359,1.0347455439553253,1.9938150529953973,0,1,0.9512769263149771,0.15294218442912028,0.2973416559352712,1.8786058355617035,-0.10616283585329235,0.7124517279109683
360,1.032989263042103,1.9364996425748144,0,1,0.9467183086886432,0.167853041262564,0.3029055029618218,1.8568043951122926,-0.09514484229508538,0.7912247456092975
361,1.0292180144866196,1.8676635350023372,0,1,0.9167805300504864,0.19181316971242568,0.3105908864447524,1.7389162124512239,-0.07577835011561329,0.8218305412983253
362,1.0241433546389203,1.7898979226875096,0,1,0.9000276566095508,0.2256595484799014,0.32044168407686696,1.620738462463706,-0.09554655214786223,0.7903992598314277
363,1.0183753856755537,1.7060139364471614,0,1,0.9095117639655652,0.2532187376259205,0.3375446659543596,1.5182598117545743,-0.11350100987867846,0.7193459271016706
364,1.0124268014946591,1.6188239770631396,0,1,0.9163918159424516,0.27195558464814346,0.3469330064233332,1.3983032061307663,-0.10816183494160735,0.6418340167719168
365,1.006758326172319,1.5309509632754505,0,1,0.9302646802581888,0.2801748511768756,0.3975610792744084,1.3313770038273491,-0.09334631351169032,0.5742007386964988
366,1.001838457713422,1.4447008986657601,0,1,0.9596668949621718,0.24091184455568096,0.39643700843721946,1.276343425429649,-0.15886476711514663,0.5062830892756389
367,0.9981854245251054,1.3620247072517644,0,1,0.9767384744197869,0.1897049777766733,0.39930075355748357,1.222812106763054,-0.12882952928461702,0.44712808198207005
368,0.9963640171289038,1.2845739347466625,0,1,0.9505865241563877,0.14754297357825713,0.39025985030276744,1.1864270000335595,-0.1915219854879515,0.38325517038243034
369,0.9969246900409217,1.2138280683814002,0,1,0.9193747926758488,0.08096194562827583,0.2999903532296386,1.2015549678227926,-0.2465462920494064,0.3275158810783376
370,1.0002931823229593,1.1512465112067993,0,1,0.8913109388143977,0.052523630972150195,0.3139752521328172,1.2491590792655431,-0.22024495824315685,0.3134240053928312
371,1.0066383811277873,1.0983835231372587,0,1,0.8944089229199961,0.06285012369808969,0.3431688245222976,1.199763546236685,-0.25227338533108984,0.32359386126351414
372,1.0157563710952295,1.0569076677973004,0,1,0.935672539850171,0.08859220227532016,0.34149567995187136,1.0871302016394186,-0.16249352790808475,0.32362144007273047
373,1.0270062136160178,1.0284930465520443,0,1,0.9258785689579941,0.05009626827732201,0.35610478960412667,0.9932280888847324,0.001860551371171169,0.2576344560540034
374,1.0393210719220742,1.0145928802327973,0,1,0.8989459584888716,-0.019173755895976342,0.3996299940650655,0.841878089208307,0.16546642315781931,0.1628113078637164
375,1.0513026571979822,1.0161506824042943,0,1,0.9322327528414394,-0.10982457152093723,0.37975408542715244,0.8067466511123964,0.1331604475542624,0.09159793069163236
376,1.0613909320882782,1.0333301736458018,0,1,0.9944905812307065,-0.16889942971218116,0.31073101431076855,0.9287442472477418,0.1323630232294962,0.1390535799741236
377,1.0680848866332675,1.0653396098427217,0,1,1.050153287352817,-0.2145277034900821,0.30059989670852094,1.0441911523660574,0.12224353701845662,0.280209126653365
378,1.0701753261975289,1.110392930998944,0,1,1.1380328244367355,-0.25453984298897336,0.24786986881381012,1.101782381164996,0.13229720942810727,0.4212541844112499
379,1.0669420264750984,1.1658079019541678,0,1,1.1290046251412305,-0.24799619342034573,0.2808035627407217,1.0546326520201081,0.3138285293674424,0.5352436702141475
380,1.0582720494350009,1.2282119173805857,0,1,1.0322208179856962,-0.19025688823917955,0.26200767526982366,0.9843256541524483,0.3006221485633214,0.5983262342321259
381,1.0446764265116155,1.2938187609504548,0,1,0.9226118861245093,-0.12481672817400832,0.2484520773875479,0.9919776803286313,0.2705031846716461,0.610180691743485
382,1.0272127575581174,1.3587465106324765,0,1,0.8865193999663713,-0.09933982331056444,0.21159396709980313,1.1894619738672632,0.09057971216442234,0.6025715745501669
383,1.0073470851262878,1.4193522221386108,0,1,0.9370667768631572,-0.1292540291454016,0.21203313041536245,1.3101625617511987,0.06778642809974847,0.6536321053960877
384,0.9867960827275164,1.472554022293353,0,1,0.9846784607665718,-0.11615955763583864,0.22056322247252946,1.3438627214406085,0.06332902410712773,0.7415264891279284
385,0.9673785427113042,1.516100515106569,0,1,0.9914973299944536,-0.06046379099438469,0.17881682382264907,1.3426536299831628,0.15903627032022502,0.7993684333763207
386,0.9508850438960712,1.5487426922067986,0,1,0.952194390250059,-0.029379021216667515,0.17878535223807687,1.3856958191956716,0.24657286005286,0.8093366260173387
387,0.9389609021039267,1.5702719588396274,0,1,0.9149999461096738,-0.016094212043779293,0.19994584382813768,1.4694933907780663,0.2416382410777576,0.7730939151587332
388,0.9329957753490412,1.5814083384804019,0,1,0.8887395672025398,-0.0025875216470464457,0.216513361498991,1.4529633032201172,0.17650305998764368,0.7161692951258946
389,0.9340191533138626,1.5835509095152354,0,1,0.8939659597061501,0.07016117581537208,0.22180444347064712,1.4024405918047214,0.11832347063035216,0.654721788930831
390,0.9426068008107463,1.5784331595876628,0,1,0.9272963861985819,0.1166179747077003,0.21711411437005404,1.3736496482297267,0.07875099944073108,0.595894904865078
391,0.9588051332496407,1.5677520510123957,0,1,0.9550101382892626,0.09604431237232104,0.20246728031096764,1.364686933040264,0.06226787216184133,0.5264984726116905
392,0.9820797417356878,1.5528519996834989,0,1,0.9723240526485825,0.055986262278166936,0.21773987098065997,1.35153237217428,0.05903421763660109,0.4818828048183566
393,1.0112944035680684,1.5345375531902874,0,1,0.9768775849127764,0.023485007244223748,0.21991210643173104,1.3162708701283325,0.04686509074951474,0.4745598861115312
394,1.044729806524896,1.513061776190052,0,1,0.9641414884388012,-0.000520060827003728,0.23087190474959185,1.310924369982811,0.027761908714955593,0.4849028405497458
395,1.080155030261999,1.4882965197456473,0,1,0.9815350590938814,-0.010309256389794168,0.21234903072684708,1.415340895245702,-0.0527525566021253,0.488383680561759
396,1.1149648991752157,1.4600435153081035,0,1,1.0485993453650206,-0.016303021339457224,0.22883598404321379,1.5087615306963946,-0.0912436713738914,0.5095857872743809
397,1.1463884408902176,1.4284023963242123,0,1,1.120452346766751,0.022848781362347914,0.20352343026053307,1.505896610854719,-0.10166869812944812,0.558016740644639
398,1.17175770432837,1.3940874370782421,0,1,1.137913309184733,0.07644852363073815,0.24324008049732326,1.3849708801052738,-0.04808510374091965,0.6110162719028613
399,1.1888069234789251,1.3585903830799562,0,1,1.1740701855714164,0.1457774835691395,0.1904597797945539,1.3664160081046843,-0.13884493601299724,0.6332927867355653
400,1.1959560109672867,1.324122666074263,0,1,1.2382779289983195,0.20538337205791352,0.2346447672854489,1.3605026340695852,-0.0767656668262079,0.6022107543231687
401,1.1925242486623318,1.2933261406154055,0,1,1.302011036104451,0.24849017438755622,0.3405945811678093,1.175248965636164,-0.12402537275631682,0.5975603603781041
402,1.1788230361237324,1.2688038555433716,0,1,1.2055097020571546,0.22752526146483326,0.4546640435232359,0.8414280386395312,0.04041197428509843,0.6106960450855629
403,1.1560945709593649,1.2525778632076232,0,1,1.0361514422300344,0.13628985144412328,0.5747755832675815,0.6899548297873108,0.05310541762417894,0.5985082059815562
404,1.126297734290303,1.245611835477411,0,1,0.8651840984203826,0.012272418480292195,0.5452861985817032,0.8011203437684509,0.052391861387970556,0.5747925017290306
405,1.0917852496370313,1.2475232488137806,0,1,0.7563082142244029,-0.12232646656249441,0.6043843864049182,1.0772260745215247,-0.04283687714171838,0.6154100587886019
406,1.05495007737533,1.2565498418606602,0,1,0.6837723830114091,-0.17595402298231005,0.5555271387985016,1.265127435849864,-0.08971427915727606,0.7125580204123423
407,1.017927752348229,1.2697527777079753,0,1,0.6730694479856169,-0.16975337986895214,0.5737593487409902,1.2659170726457805,-0.06661180332276198,0.7561424631196597
408,0.9824204443355202,1.283375744911824,0,1,0.7880753305125667,-0.08525652115779585,0.5145044376508772,1.103287621583969,-0.2214514856241956,0.7491172436703951
409,0.9496665037468501,1.2932638166549961,0,1,0.9110702168974787,0.022376711589245625,0.4523006493637288,0.976162347233193,-0.1929292259146655,0.7070577770213047
410,0.9205321377603918,1.2952742716382422,0,1,0.9761868804149423,0.023859660885252133,0.4022755776490897,1.0292071298859624,-0.22874784744654708,0.6211476889351115
411,0.8956667582952541,1.2856538624735525,0,1,0.9593230655929272,-0.06540074682494829,0.308467907141674,1.114327608870305,-0.08150160003494379,0.4520225418151407
412,0.8756529198725721,1.2613830941301547,0,1,0.8468579414674875,-0.05459515300095141,0.35424957950183517,1.219789116405414,0.032518084833536826,0.3045105624013569
413,0.8610977290171236,1.2204878322348889,0,1,0.764706414353797,0.005093230391888365,0.32988437594345077,1.2347246498633688,-1.5972706773261826e-05,0.2645620012088564
414,0.8526450179932815,1.1623018301530734,0,1,0.727183935042636,0.026971740922672037,0.331617605244711,1.1575648052295997,-0.13823048206411623,0.27978664730191377
415,0.8509195983785882,1.0876469659680097,0,1,0.7505378690670695,0.04323536010360176,0.28921283498297934,1.072344307024122,-0.3193865308940397,0.28605426380004606
416,0.856433020945974,0.9988922742906441,0,1,0.7921161815151901,0.040171741791253504,0.2928695644069054,0.972192994686002,-0.4148607561437504,0.2858222507438435
417,0.8694812019463466,0.8998610347095752,0,1,0.8643070138345753,0.06279803613229547,0.2292815793783275,0.8483815563218345,-0.4664045800002674,0.286038901382014
418,0.8900544424191765,0.7955752159038503,0,1,0.8959862081141811,0.11991207441362632,0.2095622071210908,0.6487427996394379,-0.3321339360397422,0.28122007345859246
419,0.9177697831136703,0.6918546872747557,0,1,0.8700363854792499,0.15643147883994749,0.21339216747257145,0.3965767251916402,-0.2921524820685669,0.26676624892236367
420,0.9518312032250562,0.594817414203966,0,1,0.8570100846196267,0.13670752818779494,0.22698440826323882,0.19471065521602038,-0.381402960184059,0.23387073520603943
421,0.9910248030800107,0.5103442619334637,0,1,0.8939381422401633,0.12415301806638154,0.20576931353828495,0.06891696984429761,-0.4616285899390274,0.2125302038286876
422,1.0337576920462763,0.44356867679190287,0,1,0.9945732021808052,0.14959895788830163,0.19881611894083112,0.05356417542712294,-0.4228340775899797,0.21732311328118337
423,1.0781444471130244,0.39843107177696435,0,1,1.0929278108860472,0.15355819987322183,0.1897297173709683,0.046467574987801866,-0.4215335785209763,0.25442963859140855
424,1.1221334481311724,0.37731603273652153,0,1,1.1082517264662823,0.05015422724184403,0.23749917196600767,-0.028239769700484765,-0.29676568186227076,0.26105322318043833
425,1.1636535970961832,0.3807822508358009,0,1,1.1740640657799697,-0.08262920951817074,0.19803332873612767,-0.05972778921833028,-0.3260378660036901,0.23479546876090407
426,1.2007569315775386,0.40740306009556143,0,1,1.2329461423476287,-0.15338769886668324,0.1340359483984236,0.041533307706402484,-0.260801899847088,0.17781020655796861
427,1.231736287523108,0.453750686776399,0,1,1.2100614300105468,-0.15554112033759002,0.10156225634623338,0.12809799814206968,-0.27677485701874815,0.07650549815615415
428,1.255206470452666,0.514566560095547,0,1,1.191333420727679,-0.0687754499838298,0.003007285494204656,0.2064663602605991,-0.3097024559595204,-0.0066536014713795095
429,1.2701476223840633,0.5831523681744337,0,1,1.2432734541974697,0.05051055131462309,0.13558116655502767,0.17995194830509068,-0.3740741260343463,-0.08808118885280179
430,1.2759156381714096,0.651987241475464,0,1,1.3119308268441567,-0.01577776791919557,0.19083152631249187,0.19643180323699286,-0.339650746741902,-0.26416720232155405
431,1.2722240054739238,0.7135280474028496,0,1,1.2794591760581138,-0.10098155785870502,0.5392598733131606,0.4616295518454009,0.06511287929101695,-0.571993192157367
432,1.259098486027434,0.7610913908476838,0,1,1.1029920573832166,-0.2676602403317206,0.7896254246845781,0.713731867310771,0.19055214062370013,-0.9517527935962908
433,1.2368103450790815,0.7896650647925747,0,1,0.689639947178206,-0.3528592769110757,0.7671892297083244,0.6750873075995498,0.22581987112103216,-1.0309532945988737
434,1.2058103332698735,0.7964809780241457,0,1,0.5012315406304164,-0.05852772203466595,0.7418581317930643,0.3672647820251106,-0.04145598865524404,-0.8726897248187826
435,1.1667037802581586,0.7812252808073991,0,1,0.7267239378054227,0.22049498884780366,0.6575892616313488,0.13216457369926957,-0.10130790780567833,-0.6931232377581035
436,1.1203046056639634,0.7458587119647804,0,1,1.0614269795278821,0.40924376933454176,0.532461278868364,-0.004384218956432603,-0.3456128439920759,-0.5024624882957984
437,1.0677708157017913,0.6941280793319909,0,1,1.1834466134728694,0.4514451140519875,0.3229339818878986,-0.21564974631903996,0.07044772207863398,-0.3204407768408262
438,1.010773868638272,0.6309178404374496,0,1,0.9555046224313022,0.29194645872648656,0.442438198576353,-0.3405237234281297,0.3461633547656159,-0.20243770257258997
439,0.9516250794313122,0.5615964671804955,0,1,0.8902804146964723,0.14337804535127224,0.3222639930378673,-0.4700157686217793,0.029640007077646403,-0.14281949380802844
440,0.8932935980552801,0.49146796270647486,0,1,0.8512115174342911,-0.03159025184840716,0.27427030209797515,-0.537783402793458,0.1174278930332742,-0.09635588048416208
441,0.8392890601645684,0.42537545008938255,0,1,0.8171478787061038,-0.1481928482394755,0.23221725028021567,-0.47006619300450253,0.03800859739620908,-0.09258476094912355
442,0.7934203918625362,0.3674512681689442,0,1,0.7182835050924123,-0.24163855056259503,0.2070374399781341,-0.3987855641511503,0.11568368685235589,-0.08945343576468455
443,0.7594654806984459,0.32098247914874717,0,1,0.6080910757966863,-0.2901960309726282,0.20580745190026872,-0.2714317451322524,0.11269525444049103,-0.11649419847630482
444,0.7407958831911534,0.2883605104302462,0,1,0.6457720368290627,-0.21578870017914617,0.21220464916095008,-0.13327529665534596,-0.04876023672981824,-0.11813475557370123
445,0.7400017948524827,0.27109553272315284,0,1,0.7585211928422846,-0.0747750165313832,0.14395318184307646,-0.006218655113067408,-0.24245145975286914,-0.059209473425228296
446,0.7585579312030932,0.26988487011488005,0,1,0.7916722346249782,0.05659791509683326,0.05572755169110162,0.1772428664398054,-0.16806191694305375,-0.019656951553375532
447,0.7965641405284579,0.2847218165623513,0,1,0.7583505728135266,0.12309705544076557,0.09383580764541546,0.3323885854184776,-0.07064907410731287,-4.1850807357625715e-05
448,0.8525905673637679,0.31501929176903126,0,1,0.7407397834743131,0.05276760247155408,0.15360579165703597,0.34591840128122375,-0.15108996637907474,-0.007845926102703725
449,0.9236570592767123,0.35971181874394365,0,1,0.7595761800384693,-0.05595186214247299,0.20463205599998108,0.2521634275296335,-0.29341317990250226,-0.07148129647982626
450,1.0053734744811993,0.4172982977797919,0,1,0.8473307943244343,-0.1155068006609007,0.22835658487233365,0.2236068236353123,-0.48568208257823986,-0.17201701501245603
451,1.0922521281874835,0.48580003262472793,0,1,1.0716830791972525,-0.024850614248513005,0.2454003154697564,0.3843871363015558,-0.49402388872125036,-0.2827306841000064
452,1.1781732548879595,0.5626331761947175,0,1,1.2783038997969678,0.10261960604039203,0.19710015244716164,0.3931658743669755,-0.36949310130558455,-0.31432711038710265
453,1.2569483889823745,0.644431963032284,0,1,1.3169654140169325,0.2074150179509574,0.13696248839961575,0.24436129915896537,-0.34535439641153814,-0.1953324555435211
454,1.3229015134950985,0.7269036496322973,0,1,1.354358503865991,0.2196366141614551,-0.007305970716562903,0.056499193342493245,-0.40890668802623625,0.023269762574889274
455,1.371385404073444,0.8048297924338168,0,1,1.3361745148037765,0.12777374664322913,0.1711373387539814,0.006868546077918606,-0.3713038492180318,0.18593285970474435
456,1.399168455843826,0.8723245491312807,0,1,1.4380616181524395,0.16866185582444246,0.21611508741849578,-0.032106743636688966,-0.38089067577163754,0.3966119340354487
457,1.4046528110020724,0.9234024617179354,0,1,1.3595212552062457,0.13865402777161792,0.7976580656921762,-0.4912528686057021,0.5013349524354905,0.6584118637353695
458,1.3879087379446,0.9528052578315619,0,1,1.1295109985498597,0.34795317574302215,1.00667257971613,-0.7614018608699127,0.1093677022003546,0.937624273539147
459,1.3505355519420414,0.9569260085741347,0,1,0.8455961369119485,0.47079842427918656,0.5473195465248246,-1.0119585001642668,0.18293713183493074,1.0853195319468265
460,1.2953910186974449,0.934598306514066,0,1,0.6753638684983891,0.011793241159324116,0.7657192697143503,-0.8268112314180187,0.06188487905849433,1.030032132148765
461,1.2262597878606052,0.8875249973850942,0,1,0.9729904929224311,-0.3806949498270158,0.523425404649089,-0.08586085892355767,-0.27025779118117965,0.8999116021818924
462,1.1475344543078307,0.8202078872083194,0,1,1.0183703344883945,-0.4942306219523436,0.41732400092608135,0.3440070356434073,0.4108920997227143,0.8200447295297233
463,1.063950616129337,0.7393712049641032,0,1,1.0070944484418876,-0.4544813882660903,0.47884582534867437,0.25697808650591736,0.3612376997119907,0.5867097531786191
464,0.9803702433452829,0.6529975101852774,0,1,1.014051212436055,-0.18781454428065683,0.308770472097713,0.1071729734215024,0.19629064802185167,0.2605931593055851
465,0.9015786145128852,0.569180262295761,0,1,0.872666363782621,0.12797035774663792,0.2711593255749738,-0.07450198770254249,0.16870798321998015,0.03574879256084666
466,0.8320638928700504,0.4950281784778086,0,1,0.7546501791555,0.28097159663833166,0.17269772468131456,-0.23670752096251593,0.24115198234759652,-0.09456615648029723
467,0.7757745607259329,0.43582959760957724,0,1,0.6038489072782358,0.31006240584432526,0.20738706000877813,-0.15257009770845043,0.36321991217172395,-0.08501787154553557
468,0.7358777015047347,0.3946106115015007,0,1,0.5568055615862986,0.2709032328652266,0.21522061113009117,-0.11412426400567822,0.1252895019895167,-0.06590583693885994
469,0.7145554461801803,0.37212671064820324,0,1,0.6117851499932118,0.09949736602538523,0.1784596209968008,-0.23219943297940274,-0.08285012869218725,-0.08070207394655547
470,0.7128733820774421,0.3672425552652011,0,1,0.7316990477807734,-0.07037838255278386,0.11513381796545155,-0.3173910403914907,-0.36608337828383813,-0.10245865303645386
471,0.7307376744810189,0.37758883406173943,0,1,0.7893558474770644,-0.1164563929205186,0.040650104967793345,-0.3310532223985085,-0.3863463778954985,-0.0507845994913592
472,0.7669370553626126,0.4003402323115131,0,1,0.7750034665452507,-0.1500839486320843,0.0029550828854248367,-0.41461038731076255,-0.368928975040586,0.03699136739188406
473,0.8192527443435111,0.4329410624745913,0,1,0.7714152182652045,-0.10468296913433237,0.07490180712495287,-0.4069709953227915,-0.3667888614262401,0.15916692595769566
474,0.8846186590807653,0.4736215153710611,0,1,0.7959867370454097,0.008973902010880863,0.2323017143201274,-0.4044808261654502,-0.32336977547961154,0.28825716058789164
475,0.959320648753417,0.5215921479175244,0,1,0.918059583979385,0.06115881260909937,0.2681607404714837,-0.5262921743797802,-0.4599157077278956,0.42720007194972304
476,1.0392270426041799,0.5768649829676104,0,1,1.0598303144454904,0.12829189764273713,0.16624271394831705,-0.6496567431043484,-0.45536286042364776,0.504425691834756
477,1.1200391163267482,0.6397213690927849,0,1,1.0598837701933983,-0.08521392134647822,0.1056187304570796,-0.44085719041321453,-0.3028007931671339,0.3711493986248697
478,1.1975431196058022,0.7099314186805732,0,1,1.2578113268542996,-0.29168508720634895,0.04485922918561194,0.04977204751325309,-0.4321874795121783,0.18137107771622063
479,1.267841657090865,0.7859192531047006,0,1,1.346498855561304,-0.42131497069675333,0.014573194640121289,0.21914716799868114,-0.19588386988339712,0.04190057663769591
480,1.3275453943552373,0.864131609791731,0,1,1.197504581520287,-0.2519670656932818,-0.12438452320898921,0.2327471911804951,-0.03351220640208654,-0.10557306058067276
481,1.3739173642416629,0.9388640171363416,0,1,1.0986432603973448,-0.0038302470524280473,0.1584307956057197,0.19241782003698404,-0.18628961452778667,-0.2692479531587473
482,1.4049760129941715,1.0027067514141135,0,1,1.3124181063770992,-0.016042220028178834,0.16357049081638472,0.36023924126200774,-0.5097267260240855,-0.46054767129809854
483,1.419565010360506,1.047605746913497,0,1,1.5392762980442791,-0.12433473450300943,0.946023962566967,0.9170212855089178,0.06853338601406864,-0.8974181305560217
484,1.4173801099646632,1.0663387374807196,0,1,1.4507850648599532,-0.6556789317128526,0.8225579984411459,1.084630597247068,0.20838604145861242,-1.3520583144683023
485,1.3989257133683295,1.0540517886875547,0,1,0.6098863644347223,-0.4523672603052389,0.9517528352701569,0.9864263771500112,0.8311392571655541,-1.4044408948420355
486,1.3653887816650934,1.009450769627422,0,1,0.45357674483277716,0.1762653027080834,0.8568901302652432,0.5206130658331847,-0.31759403808395353,-1.1922186929269476
487,1.318465742191795,0.9353256836410673,0,1,0.8134113014335702,0.450292733133136,0.5241735706623596,0.15902630375186214,-0.4706439875107504,-0.8778064639053197
488,1.2602147115234046,0.8382736344682796,0,1,1.175428561518241,0.5745590841879756,0.3244265828984379,0.047496853402731125,-0.7891972304572146,-0.5740334753307337
489,1.192989366580445,0.7277022369163357,0,1,1.2726571009361767,0.37394192615708155,0.3060062766049052,-0.10595815494723698,-0.037055501236570636,-0.2610629555441709
490,1.119452305143276,0.6143627724532803,0,1,1.1660428349452945,0.12503892524845525,0.4008783045656293,-0.11661350973213185,-0.01810016737364494,-0.10240836153972417
491,1.042613314547338,0.5087406961888045,0,1,1.0731379773187135,-0.11119057592965159,0.25821946327804113,-0.24649327300523982,0.2079496474126635,-0.0791389865102444
492,0.9658268993755305,0.4196160748375284,0,1,0.9050503129012958,-0.23044786157883398,0.28008804878010446,-0.1885985913334809,0.3117245655935891,-0.09282103255603884
493,0.8927098068927403,0.3530210160735652,0,1,0.7692901052145854,-0.2122872057150265,0.2709683650958882,-0.06833455939849947,0.24079711987603386,-0.08973082194302716
494,0.8269768643448878,0.31170879345956787,0,1,0.7087159049764189,-0.17047020810603478,0.2612797539964687,0.0004071096474732175,0.1509919815155158,-0.023166974355241433
495,0.7722201196256055,0.2951520109787703,0,1,0.6647217344813521,-0.16999212533493246,0.2778577696420477,0.07674542804742304,0.14651427876019793,0.07935835387957389
496,0.7316644794881085,0.30001799265423934,0,1,0.7163074267098091,-0.15403475570869823,0.2092671926573239,0.22031026773186418,0.048190438222069795,0.14430569224510903
497,0.7079268907302787,0.3210173795792084,0,1,0.7724664622804128,-0.03855522380486025,0.13310494177722834,0.3919146138162444,0.12807188502690778,0.13733709225103521
498,0.7027958418727248,0.35197771169550496,0,1,0.732027090866304,0.0660703353493274,0.1059350474994018,0.4819693227876585,0.0737554660954707,0.061062065722402976
499,0.7170438511378279,0.386963853138221,0,1,0.6351852478853239,0.09291917299975586,0.08137510693158378,0.511469043199511,-0.10746941759300192,-0.007656272671711092
500,0.7502912002411755,0.42126331913427745,0,1,0.6005715992435908,0.0546395795311118,0.11191210335167284,0.4921351523674661,-0.3600416058566043,-0.036662233395463636
501,0.800947567628662,0.45208088940614244,0,1,0.6945045649663546,-0.025188144030799997,0.09395425335918316,0.37102648241936653,-0.5750996035093916,-0.0524795883970965
502,0.8662566596662676,0.4788378339217219,0,1,0.8792387249863843,-0.04542513074463014,0.17481270080342304,0.2896612352041132,-0.49793883510222525,-0.09258768469784295
503,0.9424507263800643,0.5030381377402131,0,1,1.0376703473614235,0.08595110553481912,0.24831135974102683,0.35729844141480777,-0.44629428629206613,-0.22115097708056666
504,1.0249950337000544,0.5277387854142449,0,1,1.1273101679931268,0.1950104441283882,0.17072935099597092,0.1767024485960151,-0.38463388560558576,-0.31717647472233057
505,1.1088851067239458,0.556732812407152,0,1,1.0680394308668657,0.14003674921267958,0.11967101563413572,-0.07373538870840643,-0.3225285255830699,-0.2578562317488103
506,1.1889645089998218,0.593609711942684,0,1,1.0977422655005689,0.05378398095172845,0.03187259618029,-0.04781187309195076,-0.3573364631417437,-0.14894818269963014
507,1.260252821465204,0.6408857244295098,0,1,1.014591994294931,-0.02489707110437926,0.1911866785997032,-0.10640465539724984,-0.143847234646998,-0.11117129657881805
508,1.318291659301155,0.6993862404176112,0,1,1.0608021560921752,0.038651577657588046,0.20565862156167636,-0.05489902742149419,-0.4148318670915745,-0.04999209872654058
509,1.3595099103218522,0.7680077823005769,0,1,1.116672875535175,0.13292098901221464,0.9685210130951052,-0.380703154949933,0.43404814300188777,0.14720367492464195
510,1.3815730241401287,0.8438920559740968,0,1,1.5930764773265034,0.5473768707467943,0.9850521471153618,-0.41761166723574267,-0.44315651687936397,0.5947973424894176
511,1.3836368844641131,0.9229307165009801,0,1,1.6140572851164696,0.7631420537804862,0.24920125411455266,-0.7189379028071543,0.7549365588436835,1.165319156361955
512,1.3664164538597805,1.0004246884548058,0,1,0.6910963557709378,0.1610096359586053,0.8260308948462386,-0.7483127524893736,0.7179505298556313,1.2097467728079463
513,1.3320308504996319,1.0716900394657725,0,1,0.8103767734523237,-0.23086550042433776,0.3798805896102288,-0.32437743361329174,-0.7613590136235733,0.9387140482951019
514,1.2836751514911258,1.1324601324977017,0,1,0.9749610170433755,-0.3273700960360138,0.32061491498288397,-0.21114266151077607,-0.08118716045546748,0.6567249389745975
515,1.225229000377508,1.1790602214759236,0,1,1.2343184087457146,-0.23976560101262998,0.3889032060507182,-0.7114638831482311,-0.24181222926457333,0.1680650271294154
516,1.1608999217280427,1.2084539262423224,0,1,1.3060081779281614,0.0016357513891853425,0.31298432191631614,-0.9756871673526095,-0.1525664697631482,-0.335014459872123
517,1.0949375853989693,1.2183070646120824,0,1,1.0896298711979113,0.28507914436952314,0.22417309037219418,-1.0154510699249408,0.08896964305927917,-0.5585081246706406
518,1.0314017121493992,1.2071673709300461,0,1,0.9272431294133854,0.29251463136910766,0.23883565898239048,-1.0942463567639136,0.27820384281326016,-0.5933274411190291
519,0.9739540605015289,1.1747657015045676,0,1,0.8418851776110153,0.2716672290820588,0.3331011768764133,-1.0255993447700467,0.32435340847568894,-0.559257763871241
520,0.9256632371222239,1.1223644447174035,0,1,0.8374485064573005,0.22864184278339328,0.3202334113385422,-1.075235757417351,0.1508092420273962,-0.5543921705395082
521,0.8888319920540451,1.053040037104404,0,1,0.846801285441575,0.060541694302127316,0.26889816255115595,-1.108301680592225,0.22295371000097108,-0.5003769658547191
522,0.8648651809747039,0.9717860305717512,0,1,0.7727709185897088,-0.09063100112294699,0.28648175114116503,-1.032045517002705,0.19910347126485098,-0.4250864642970936
523,0.854194974873287,0.885349809034686,0,1,0.7956222841049262,-0.2110113956705448,0.23358343814638796,-1.0279163565144744,0.1084995985403317,-0.33290519864502754
524,0.8562750697777882,0.8017628903906715,0,1,0.7916177673446774,-0.2611723252390246,0.2355288746289513,-0.8874122021179952,0.1719347459497354,-0.23513297404757758
525,0.8696506944116094,0.7295869245518782,0,1,0.7444230085554383,-0.2042994524530385,0.27417761761950493,-0.6362045253533009,0.1088937586708157,-0.1026254962191917
526,0.8921062713204708,0.6769655824280398,0,1,0.7370749839438234,-0.14315230795926326,0.26085117993453644,-0.4561775535181473,-0.193771242357254,0.05982258247413918
527,0.9208863580091123,0.6506299536995828,0,1,0.8586021047606669,-0.08606430498378788,0.2050390061146308,-0.2830724595526205,-0.34240652641897074,0.20713291730329086
528,0.952975078483985,0.6550329871806855,0,1,1.0298270762887174,-0.053759372103905995,0.15784263593875128,-0.08148368948217777,-0.37433206942573727,0.33114357407039824
529,0.9854038906460838,0.6917768273781018,0,1,1.1083140519580421,-0.05834570620137499,0.11485231779032296,0.10186969785411626,-0.23447170694913883,0.4151370393818511
530,1.0155440351793357,0.7594508536810631,0,1,1.0050660050705786,-0.12678598512905373,0.16169298150749944,0.3058766207579056,0.013485593299764358,0.4087197084555925
531,1.0413392634111582,0.8539311434901377,0,1,0.9159175440188964,-0.20983869546993392,0.2818699862766662,0.5981510863151794,0.00029225632161647056,0.3328038895471195
532,1.061449192337858,0.9691138020068092,0,1,0.9344573785022257,-0.34302872167079607,0.38194320046516916,0.8751876137277759,-0.16994411790611866,0.2628835690981771
533,1.0752935945460222,1.0979715223429325,0,1,1.0121552467600667,-0.39430084286510464,0.3121301080122287,1.2994362088607534,-0.20015964009285095,0.14452170688661684
534,1.083001042435529,1.233747541539059,0,1,1.073094893702233,-0.31258963402088574,0.39572428515180247,1.6223960121334682,-0.0663936579774808,0.007165548284025291
535,1.0852712540752314,1.3710567907675997,0,1,1.0760793750441406,-0.12103177988035502,0.38249284442080944,1.735093167428659,-0.032448723710985984,0.012152500764040374
536,1.083168879048376,1.5066739635332342,0,1,0.9823880128454646,0.08448142563174936,0.32361959009880836,1.7466471893978182,0.1565633699938521,0.1224416012496122
537,1.0778833714776612,1.6398594868654592,0,1,0.867412597226575,0.12085275401134164,0.32072956889385645,1.6170976736607068,0.27754151481657824,0.2062511322669666
538,1.0705085519944437,1.7721875072715367,0,1,0.8186945774774502,0.015466017560504485,0.23969525849135273,1.543927097986049,0.16770316812814004,0.19694498541894803
539,1.0619011141715469,1.9069552695634209,0,1,0.8984467004226129,-0.13310358947780362,0.26747914612344276,1.668616712317287,0.21202812892464692,0.12962732398662632
540,1.0526573445109664,2.0483302063945024,0,1,1.039012820222268,-0.24102263115390543,0.32109817095681825,2.0138926764595864,0.23976512822451448,0.10685329475782826
541,1.043203839409592,2.200409822853596,0,1,1.1556690968347183,-0.23453220037780648,0.261461732360276,2.17732402642288,0.22070985712855878,0.16491595389720254
542,1.0339502239456815,2.3663408906424244,0,1,1.1709361403140148,-0.190144753412841,0.21535504070394354,2.234924948772076,0.32107959175552486,0.3304298035811357
543,1.0254254748783764,2.5475988192545387,0,1,1.114827031185265,-0.1936504536187876,0.18199221649575797,2.4414187101604283,0.42169899075398554,0.5495020958582827
544,1.0183291832706025,2.743489949297243,0,1,0.9800471008753217,-0.21634149951615406,0.2083800365581879,2.5895299061862436,0.49099318621136306,0.7000367499761566
545,1.0134691033620125,2.950914278714341,0,1,0.8903996318384255,-0.2198930260436291,0.18096090852960378,2.7184198532258184,0.44687696097993274,0.7953122733836385
546,1.0116054678014244,3.1644077584111083,0,1,0.8623843217210349,-0.189697701614501,0.17389554469132612,2.8926358629245685,0.34351317733801173,0.8955767331244228
547,1.013258054282861,3.37646544136569,0,1,0.9141785815852638,-0.15037883494548887,0.12207977575784053,3.1528975829566432,0.19727482634157076,1.0335410744264841
548,1.0185411253430823,3.5781248570926625,0,1,0.9592664963821377,-0.14082699054229847,0.11846603820871571,3.385870336234338,0.21182817164736717,1.1428942968120264
549,1.0270756206984326,3.759761380940786,0,1,1.030917087233644,-0.14900412017708675,0.1598747973638446,3.544324582755707,0.2766520095250975,1.1809011035136432
550,1.0379995053394675,3.9120183468495715,0,1,1.0325400894953032,-0.1570161093964618,0.18073228639616518,3.6224962213040692,0.45580914682750556,1.2276906845463278
551,1.0500703957276138,4.026771103039491,0,1,0.9796970001656136,-0.05937077333695319,0.10273688785429497,3.8350913100058195,0.4252720681906562,1.305117499015343
552,1.0618379057467802,4.098009036277943,0,1,1.0187709910462426,0.06727156874487275,0.11578193837219752,4.050317845098492,0.32019648280131885,1.419491510988696
553,1.0718554263704823,4.122513441716867,0,1,1.1066884430611752,0.042284165495630764,0.20273041780869305,4.111885652700816,0.2578311781090628,1.494326890074179
554,1.0788960445868914,4.100218208650288,0,1,1.1433303678287168,0.0026843240504622135,0.24446518280349047,4.01589996359809,0.43234932689546934,1.4632572718049373
555,1.0821329634255905,4.034175324243881,0,1,1.0969589482412374,0.19495701349574474,0.28990089050395035,3.8688837504334916,0.6439573064695734,1.4058196298826449
556,1.0812465974975611,3.930110967823813,0,1,1.0972837368978365,0.30700371160088746,0.23138231238139353,3.7048190204346945,0.49857108159809943,1.3410334504172572
557,1.0764345100998356,3.7956376427879808,0,1,1.086341247875557,0.24309876641798808,0.11564713091218451,3.440152144981859,0.4872048775326818,1.2644694529181546
558,1.068325399690984,3.6392611209423857,0,1,0.933890386734388,0.18182178256644552,0.08363854277448157,3.1000596660013224,0.3821070366033418,1.170554560763516
559,1.0578260128358044,3.4693665427550786,0,1,0.9020115319347154,0.15187533316429938,0.05561315931126565,2.9365927162965386,0.22648974495765278,1.0369674227222265
560,1.0459483194913466,3.293369998261044,0,1,0.9643035315150676,0.16739328494165415,0.09550046401433421,3.004827313608216,0.16692688869222608,0.8554607216701551
561,1.0336634204566586,3.117174467606481,0,1,1.0592993686441814,0.1439889509630029,0.12268522625503926,3.030575991595614,0.1491131697862351,0.7239973335757499
562,1.0218079100077755,2.944984285159192,0,1,1.1187803585859062,0.13601233411680064,0.09533573632163407,2.891332010941368,0.23064144245023877,0.724396661465154
563,1.0110408335205856,2.779440623467699,0,1,1.0327505280037943,0.14520124736717535,0.09005372925083381,2.736212058818977,0.337327038027813,0.8061142715970036
564,1.0018329199673568,2.6219739356756353,0,1,0.9250454441800615,0.14896123308033626,0.11038214555010056,2.5822225103097405,0.2186360497067517,0.8972205007717919
565,0.9944719420246421,2.473242811950754,0,1,0.9157245420512671,0.2035373098600459,0.09021320185517338,2.4297877616970607,0.11016710456235318,0.946166040902554
566,0.9890802422287397,2.3335381180936947,0,1,0.9203824397979585,0.25550605073733396,0.13299486388868084,2.2997763588643765,0.11419941151993303,0.9038916985070606
567,0.985647939855098,2.203064930983391,0,1,0.9555554421061249,0.27339122301131435,0.18026445798352467,2.1580872706233785,0.07624400670271388,0.7939290695822908
568,0.9840816253594729,2.082062245792287,0,1,0.9654496998672426,0.31207861396875136,0.18371821902187196,1.9384828620059997,0.027263989772196878,0.6931179622660535
569,0.9842590905725308,1.9707722197635689,0,1,0.9666968265954939,0.2901356720920229,0.1627813119832163,1.71924332380078,-0.01451208086737372,0.6657800773336118
570,0.9860755424961614,1.8693150448775617,0,1,0.9272289270199248,0.22602360117017514,0.16443599349368038,1.5888616126192256,-0.020461321094399926,0.676300110380617
571,0.9894701895105888,1.777549158220101,0,1,0.9179772921074234,0.1728044267091155,0.1759394618869141,1.5226066806780327,-0.056854774683891385,0.6981992277603236
572,0.9944305509430675,1.6949912972646715,0,1,0.9621960846116931,0.14639789300387393,0.20856954552617593,1.4944770538325787,-0.04074457086863496,0.7220626559166876
573,1.0009783271496608,1.6208405610667451,0,1,0.9999960710014651,0.14646454544167292,0.22010573048098148,1.4284620182613268,0.0156596305244405,0.742307003256378
574,1.0091415784290951,1.5541093543280915,0,1,1.0029327203972114,0.13333907417959817,0.19182455271191737,1.3793215688795242,0.017473071344128913,0.7416416179145557
575,1.018916016067822,1.49382765280887,0,1,0.9786258100143289,0.13775571498374992,0.1774099676650605,1.402761650498833,0.048464991900116064,0.7553700630397924
576,1.0302183144547028,1.439265083065994,0,1,0.9761452489961806,0.1924028991041063,0.2230776525922186,1.3353904428834067,0.07904414573444839,0.7647286497344632
577,1.0428376125982914,1.3901109346020635,0,1,0.9977142856902336,0.2382225325597404,0.22812787805396176,1.2168727524011833,0.044876865853794294,0.7366651184693908
578,1.0563947809842924,1.3465645224549483,0,1,0.994705295502116,0.2610130983889237,0.22521245937752113,1.1451396771304547,0.04606368736511662,0.6948969998430595
579,1.07032008838386,1.3093121277110544,0,1,0.9943985400114772,0.2648963102001709,0.22264899115636078,1.150310967691577,0.03548107605341264,0.6531728672649235
580,1.0838589285849871,1.2793926014999968,0,1,0.9960726767907712,0.23873736963000294,0.22686004393717965,1.1370289371880462,0.03584746409537404,0.6341314289644996
581,1.096113065614278,1.2579732541027069,0,1,1.0216926481746194,0.21027360452672622,0.2000517959367101,1.1066491432807546,0.005381971001775916,0.6443499156838584
582,1.1061206096058755,1.2460693475204094,0,1,1.0712973053421355,0.18771389348626824,0.21291863131373445,1.0548414145218816,0.07386366300182891,0.643325656147839
583,1.1129706228973533,1.2442480547120147,0,1,1.0817853989307538,0.20812046769950848,0.22284861656712557,1.0617069798991128,0.10820126049490915,0.6037667835794049
584,1.1159391207434248,1.2523637539044477,0,1,1.0722934554126409,0.25055859950172954,0.20440560684364883,1.0641952312500622,0.16107631080185447,0.5420534780478716
585,1.1146255441767556,1.269374658605185,0,1,1.055115928569535,0.28658446401456955,0.1709188869726153,1.026636049788231,0.18625164775880748,0.5095496182192977
586,1.1090649278288347,1.293287477483184,0,1,1.0655970198105222,0.2942111773422132,0.16172753090296207,1.057218523126392,0.12903208783747114,0.499632021643299
587,1.0997905742604936,1.3212634505871212,0,1,1.1157499801545914,0.2190638171783002,0.21323071797798626,1.1254563064987233,0.05598580086915875,0.47180508627795154
588,1.0878237850302732,1.349893630579294,0,1,1.1644721214750933,0.1325380903600477,0.2133401430547539,1.2293158779997053,-0.031707957660963175,0.41843097742991775
589,1.0745723472539765,1.375615426598243,0,1,1.13414635619775,0.12601365510872492,0.26170831987033544,1.3931943260986268,0.09674903721567783,0.3608825816622929
590,1.0616320971566275,1.395203768506993,0,1,1.0044391554823622,0.03694452381866363,0.3709079960874621,1.5023171639809105,-0.08002061085236378,0.3015062747246513
591,1.0505082966964077,1.4062412068124566,0,1,0.9454309963380735,-0.0746704035567407,0.31106403504052155,1.6162317192758673,-0.22452196008447187,0.28045113921978565
592,1.0423012264796179,1.4074650720111823,0,1,0.8911980905652988,-0.04131927495073321,0.3961534708169752,1.5432091236459917,0.03547586210911064,0.3002348334875428
593,1.037422580660799,1.3989144895015737,0,1,0.7985582600611059,-0.06481697687738186,0.5279781880932037,1.3436883337727716,0.12148312006367545,0.2894577179293663
594,1.0354159765822974,1.381851666815813,0,1,0.6906892103134802,-0.03245671885866407,0.5018047244680464,1.1986872872106238,0.1941372155009216,0.2511943713494431
595,1.0349425704809534,1.3584916241193208,0,1,0.7084636087322365,-0.03965061034396811,0.5356973323881372,1.2092345701180378,0.1945215617153925,0.20864704827342334
596,1.0339627891410532,1.331616403130757,0,1,0.8034285424585093,-0.0033483683048396353,0.51808466297078,1.2456339391993667,-0.022762849979791538,0.24116515477352954
597,1.0301009662605347,1.304157540749337,0,1,1.0138614443228873,0.006629687079191638,0.45330688474714953,1.2962249797787544,-0.13567876638532947,0.3233229082316875
598,1.0211292433605372,1.278809338841521,0,1,1.1975172119189565,-0.0350770059412155,0.4179115831255099,1.2744302635204818,-0.025918883379619024,0.41343701846045716
599,1.0054667388033447,1.2577057136981449,0,1,1.182743516439132,0.012423871254977074,0.3532704768693372,1.1037901426829337,0.3186900953722268,0.5153298017042389
600,0.9825793837532378,1.2421742238572806,0,1,0.9835114401029533,0.05073882550010092,0.3485047170261818,0.9858582948712147,0.47086345813899955,0.6144192857849683
601,0.9531944986972551,1.232577933959252,0,1,0.7938538834156569,-0.0073046885157554454,0.35272930519395124,0.9289589577454896,0.4366179161730398,0.6217843518968563
602,0.9193004781703875,1.2282621845803048,0,1,0.7180643688506679,-0.11502467816784717,0.383709225733512,0.8903466108911923,0.34354717399588164,0.5858782212014281
603,0.8839574577877445,1.2276280912521027,0,1,0.7588076997204694,-0.09594136691932158,0.29606311428083937,0.903641744303104,0.1901779796947239,0.5733248813386759
604,0.8509742462484564,1.228348921932108,0,1,0.8724692893010574,-0.0035809233289471735,0.2624465994337662,0.9364449201331911,0.08494921673112604,0.6467941985366881
605,0.8245057187610959,1.2277249088245175,0,1,0.8867852157765888,0.00011221796244254752,0.20022958237691707,1.0396751011119896,0.06091522067449012,0.7189134421225236
606,0.8086092348504202,1.2231388642105077,0,1,0.7958155201078254,-0.007781976349363949,0.16499450604952465,1.1422882380466581,0.036222500269479235,0.6874952973175864
607,0.8067884984265514,1.2125406528980271,0,1,0.7755039000889306,0.03419959844778713,0.1648139141715395,1.1588343314110983,-0.07296326717602676,0.6180090022050451
608,0.8215568263651086,1.1948690079909858,0,1,0.7801850861070441,0.04536190727040498,0.13217682669829606,1.120291190610518,-0.21945886226886896,0.5390604153846613
609,0.854062701339239,1.1703237580473052,0,1,0.7907118805833776,0.08410762986327779,0.11054331454386528,1.1046033837077216,-0.30705770614269523,0.4821719175913159
610,0.9038276138444112,1.140427020278764,0,1,0.8021274011214198,0.13087466365917427,0.14506536978466536,1.1213890538611961,-0.3841513335967952,0.4122875516716357
611,0.9686432278740298,1.107847763755991,0,1,0.8372901824554124,0.11728537336298062,0.17484331758964608,1.0490030553314618,-0.46018588816917366,0.3057716268048207
612,1.0446609952775117,1.0760022185810647,0,1,0.8944090365076659,0.06684214061372329,0.24232197609348918,0.864639089113493,-0.5649932495958058,0.1629706027809354
613,1.126683281235807,1.0484795963565015,0,1,1.0870551935539041,0.16047343159481656,0.21517903218102205,0.8081951562428854,-0.6939624972809266,0.02268665684476398
614,1.2086329457927871,1.0283751885401264,0,1,1.3018364164695149,0.2655210857416573,0.17760796935057577,0.8577041065139803,-0.5529634147460206,-0.023876691289488675
615,1.2841450822404559,1.017636042490336,0,1,1.3521064778394773,0.19005094016355845,0.12822242417223176,0.8235451421095711,-0.4416481130344942,-0.008252644158234741
616,1.347202383628633,1.0165348363450823,0,1,1.2809458237185403,0.12534083107177682,0.0778624700770101,0.693875451517645,-0.37957307988030875,0.008089414629940745
617,1.3927333565717264,1.023383935008454,0,1,1.3223411929584292,0.0735449762370745,0.14695423147030418,0.7446137545956022,-0.39878438894490614,0.053299224174736405
618,1.4171056789004262,1.0345799135695426,0,1,1.3584414709922454,0.036190423584430836,0.3708467524334559,0.6964128257485013,0.011475506015424965,0.2498552710042817
619,1.4184606105416042,1.0450230652883274,0,1,1.4432420536563952,0.084313513229983,1.2435412615629033,0.2563494382375522,0.42908015254795534,0.6510787441805843
620,1.3968430472465518,1.0488855928031395,0,1,1.3467345406560256,0.5810254604097297,0.8356015050138813,0.04888190611936385,-0.009883803545273389,1.1685683607391046
621,1.3541013988305328,1.040616522065139,0,1,0.5571877419820266,0.43978931667037574,0.6402527839969634,-0.12329631934968939,0.5323376890223082,1.2840265395689148
622,1.2935793649482576,1.0159947848879711,0,1,0.50853594528395,-0.2519264234915294,0.8675033860839239,0.1600223937212016,-0.5006289973858871,1.0751860417376757
623,1.219682293600658,0.9730057962333105,0,1,0.8363916879086565,-0.48763255390903765,0.33825867629887024,0.8693167489429301,-0.2919040759025921,0.8762653359748526
624,1.1374288112214868,0.9123409117703534,0,1,0.9535649555409397,-0.4609031790264555,0.542661762184703,1.046556016969208,0.3098762164791817,0.763550331439114
625,1.0520682162371384,0.8373973519744544,0,1,1.1032077488055827,-0.3092195035542246,0.49729068653510416,0.7281777140617977,-0.029074122026661504,0.518773500196146
626,0.9687810923354023,0.7537657840623696,0,1,1.0272327240091976,-0.02910050856474672,0.3071522546023104,0.6590281302352862,-0.09999100283192494,0.19173251097314728
627,0.8924332547287178,0.668308196366253,0,1,0.8586544347640545,0.16915972148275116,0.2519572432848569,0.40677542923133175,0.0012248922863087937,0.00882928460090168
628,0.8273474388912482,0.588021859110539,0,1,0.695924016423575,0.24266049965402997,0.22745602951170557,0.27323561150776815,0.22169590866330943,-0.005595180589875987
629,0.7770827912991607,0.5189286926360269,0,1,0.5542753671822358,0.2835259115976375,0.2930036525724741,0.26020251980316506,0.22510141522375574,0.0382485335575075
630,0.7442413933842927,0.4652123635818624,0,1,0.5508549057064827,0.2998440993146272,0.2688595856400962,0.110576708950553,0.04336213842078889,-0.01624752181657534
631,0.7303327448403788,0.42875977458377384,0,1,0.6112768844543895,0.18631379870219122,0.26763864102741153,-0.07380207441861657,-0.16862389715853615,-0.1296768319209161
632,0.7357177921642437,0.4091709529737845,0,1,0.7571575331633505,0.03389219143864199,0.22375368699426157,-0.15320513920998455,-0.4397906198378032,-0.21802251084558275
633,0.7596333785707557,0.40420113447025335,0,1,0.8429771259182033,-0.08814188282420903,0.12282534036928248,-0.2550158799295848,-0.39029073664031905,-0.21606482820270762
634,0.8002797684670663,0.4105109269678127,0,1,0.8253432191600012,-0.13491975433005376,0.08576671460297473,-0.36388220559227785,-0.24198352687995364,-0.1696279749563188
635,0.8549487135299896,0.4245459777620589,0,1,0.8018931498928444,-0.08622368705859693,0.1595563946190908,-0.44106857749662226,-0.24731976958270385,-0.13884553482600953
636,0.9201790766877653,0.4433561008913199,0,1,0.8349479258964051,0.0022191169145076147,0.20648399190909858,-0.5292923622930048,-0.4037147565193999,-0.06972754632972664
637,0.9919427613383416,0.4651867488579359,0,1,0.8812456917651537,0.06017780387018845,0.19387252291546136,-0.5086635379598361,-0.5522063488148361,0.05678598853243323
638,1.0658726642847902,0.4897206442892097,0,1,0.964499405462889,0.07997441104894755,0.19978786422154785,-0.39114369333961785,-0.5419427611913833,0.23321690507891876
639,1.1375384888244977,0.517911527649353,0,1,1.12604629535637,-0.07161395770050481,0.20239636424137508,-0.3109119034795695,-0.48953759235801564,0.3592424694274684
640,1.2027570268889558,0.5514354087256085,0,1,1.3030419354184466,-0.23392424500565812,0.1285865543877687,-0.07639574698835044,-0.4513963383115466,0.3454077537566687
641,1.2579007594933864,0.5918774830736606,0,1,1.3219403408562775,-0.3035439447001444,0.0680829584204993,0.012357503885763326,-0.284989639538538,0.18498106647610232
642,1.3001557115164935,0.6398532587714423,0,1,1.307008566835266,-0.20633945671022175,0.021542156853456625,0.027611343535473322,-0.1089463633059101,0.004777323518793577
643,1.3276854124191035,0.694303053302558,0,1,1.2734399386184763,-0.005716072451225787,0.13055472557971914,0.04384447822827712,-0.17002872266082197,-0.12084766505648487
644,1.3396794684065776,0.752175291671679,0,1,1.3328325522748068,-0.01585473954330265,0.13429757577816376,0.07182744473402723,-0.4650167762112764,-0.30637124605837357
645,1.3362893861240843,0.8086187068269611,0,1,1.4026009451638721,-0.0457205038867882,0.37478841309619143,0.3166743837492477,-0.2955628684561408,-0.5960839416134924
646,1.3184703983011112,0.8576606728240213,0,1,1.2599627533892175,-0.19984710657065682,0.6843547782268781,0.5062304002396694,0.011288832233507193,-0.9859363535904773
647,1.287758567724108,0.8932083235544658,0,1,0.8725325055175127,-0.38894109137752103,0.7256479463187487,0.35605454016251126,0.27320675946143463,-1.2519247786856489
648,1.2460265779874338,0.9101211127666909,0,1,0.5478886601750923,-0.10486712353359151,0.7908724017533818,0.11410292478523866,0.19634109976477881,-1.2628002474767213
649,1.1952780560198064,0.9050961686366388,0,1,0.6495289937340998,0.19567430966022098,0.6433599816357053,-0.15089761909629357,-0.026049077239005024,-1.1240230328674954
650,1.137540912387579,0.8771790335219918,0,1,0.9437639665041482,0.3278583041434036,0.4908022381232674,-0.2513097443151248,-0.3086853580277175,-0.8685164920615364
651,1.0748876396726563,0.8278321474882856,0,1,1.2314990960232297,0.31485238529008214,0.29183450394080707,-0.20979677743171038,-0.165138684875682,-0.5436370203508025
652,1.0095525051373417,0.7606158623939934,0,1,1.1575653206825747,0.20735282519091924,0.3261612266221516,-0.33215077899522527,0.3142551770883909,-0.2249656008656889
653,0.9440660090704875,0.6806194164986021,0,1,1.0237804249676536,0.09887092304263782,0.25352486098061633,-0.4875343431140504,0.27844589664953046,-0.032392902546657096
654,0.8813182774214116,0.5938005612918251,0,1,0.8706670044982258,-0.08166751921031469,0.23766177329150664,-0.519687308341266,0.3604303450648241,0.011197105102997944
655,0.8244985681569528,0.5063602969554284,0,1,0.7103723821367337,-0.18601928174336058,0.20708192150796154,-0.4390202449929553,0.26093948819216045,-0.035792964598339666
656,0.7769126091042409,0.4242245465523942,0,1,0.5970638246956245,-0.2301033039328459,0.18548991399023623,-0.31829885986301926,0.19069454007825645,-0.07505943241449932
657,0.7417224522140645,0.3526592599206389,0,1,0.5552619256995429,-0.20846508034093367,0.183377095453842,-0.21775860981894,-0.002387892442690711,-0.08669195305574165
658,0.7216682274658397,0.29601993825212236,0,1,0.6743005382754199,-0.12962999287477553,0.16684677360937372,-0.10824465380338699,-0.27512644351654164,-0.058097451567574086
659,0.7188182804641157,0.2576214076247218,0,1,0.8344053920678517,-0.012222316657694677,0.07579882892755842,0.03499626236831423,-0.41379175419854997,-0.013742211790293099
660,0.7343670450498734,0.2396992753156526,0,1,0.8639596734194508,0.04867985351050475,-0.005335440006732237,0.1233493480016151,-0.20044138817998258,-0.02609168275962743
661,0.7684780405845277,0.24342432972743835,0,1,0.7736121676061671,0.04025648446342267,0.025325094371364903,0.21654862801679745,0.0014725120888945764,-0.09191151289391675
662,0.820167454694782,0.2689332274034045,0,1,0.7133485506527497,-0.022726859693510845,0.100786428873995,0.13885776530822974,-0.07537669172634255,-0.1381538864185739
663,0.8872408744953614,0.315350846891045,0,1,0.7312759897993255,-0.10314724396433635,0.14812173222629385,0.11813412312533585,-0.2893517969889901,-0.19255942858565916
664,0.9663146076748022,0.3807906955774998,0,1,0.8492932957902363,-0.11168167178763092,0.1935645691017651,0.2866229330888542,-0.41016916128201353,-0.25311670003156367
665,1.05295454701461,0.4623256555568442,0,1,1.0119775095938575,-0.039625308764972327,0.2672905187935723,0.3971344650798675,-0.4189788612800401,-0.26559554740421004
666,1.1419446252109757,0.5559317042995929,0,1,1.1941997259802832,0.054438582750581006,0.22858038625065263,0.09648029851024433,-0.4978121386484196,-0.18751022478378268
667,1.2276653118585557,0.6564334824767311,0,1,1.2741138007747186,0.20223362531971834,0.06540261646147724,-0.1822759823871037,-0.5654600891729595,0.0066602163497234265
668,1.3045381049835962,0.7575196258428298,0,1,1.2734108778778597,0.20474820866701182,-0.13613259496395014,-0.04835773567331489,-0.44560957965550757,0.17604205022983438
669,1.3674848482214723,0.8519271481510207,0,1,1.2064990675124552,0.010122635480718,0.22239555972826774,0.22194038225127355,-0.20537496636470762,0.23754524901966534
670,1.4123567884824453,0.9318917995822573,0,1,1.3004167525169539,-0.01823184134137893,0.22587566981159105,0.1982600659802498,-0.30682027729934946,0.37014937372596435
671,1.436293379284567,0.9899073436433975,0,1,1.303557639129723,0.04356299936593671,1.1554749958996757,-0.39904946826315624,0.46185631680055433,0.6853342886233131
672,1.4379663763535404,1.0197322698518492,0,1,1.513888057569968,0.6363689944155793,0.9138407775605119,-0.6176435660106848,-0.41624992044590836,1.2068519006563128
673,1.4176629666537712,1.0174580467139058,0,1,0.985833019301565,0.7681387680300835,0.46848140894898843,-0.9730571110465492,0.5500866271575294,1.4448432839074399
674,1.3771869941271482,0.9823667222232045,0,1,0.552843013193934,0.0131580846995849,0.7605803920794751,-0.781210314827876,-0.3362645279444341,1.1394001296165595
675,1.3196117275434585,0.917314669369621,0,1,0.9205185627750349,-0.5006051111464802,0.3527515001983357,-0.08347705480184117,-0.6565198310080197,0.7860847359380958
676,1.2489628501411454,0.8284962645195865,0,1,1.083155833611323,-0.6644111693215703,0.31912275072702184,0.5091093141777293,-0.03779939214487834,0.5313546675212226
677,1.1699049260372534,0.7246165091586328,0,1,1.2513683585319428,-0.5785800612665888,0.40777524845615065,0.42438617706477527,0.12888651304205745,0.2481190477589277
678,1.087454539594157,0.615655628907882,0,1,1.1058854548727495,-0.15280756514448807,0.36851186297100935,0.2949624992903841,0.10979166511517195,0.08720277672427826
679,1.0066971983588633,0.5114865162338837,0,1,0.9669630494725195,0.150023962872707,0.25134136568031995,0.284276292869538,0.057889447254814035,0.07088634336016258
680,0.9324803651923391,0.4206005908066066,0,1,0.8170100988020462,0.26578966638187385,0.2586119272803173,0.30355037230872617,0.21476392731455182,0.077828474333666
681,0.8690852808515024,0.34913554074781916,0,1,0.6984213186656923,0.2591462520431347,0.2526419507961088,0.15756983911331002,0.17992558893940175,0.12195016578497701
682,0.8199139089155842,0.30031527922727225,0,1,0.6642786410807163,0.21025794619600566,0.228472058907037,-0.003895869267874351,0.15188268276624842,0.1210496105391453
683,0.7872412615103873,0.27433659906746627,0,1,0.6896385196705762,0.16534212046917435,0.21614363062332295,-0.13303027844171142,0.06184891478029899,0.08945545875741553
684,0.772074606020694,0.2686791177959751,0,1,0.75808912380068,0.034657208285772095,0.18524236143761194,-0.24281212429927984,-0.03720690398421132,0.019353791579054057
685,0.7741387865606353,0.2787705617892858,0,1,0.7979423816410212,-0.0665409425587414,0.1314403262650266,-0.25966196534799507,-0.09736331706831763,0.020218520943610464
686,0.7919830851031724,0.29890187208583857,0,1,0.7741581282675228,-0.06800593160617294,0.08934322873323054,-0.27760828802194004,-0.09699567639895433,0.12118946708721656
687,0.8231888561939747,0.32325690313614186,0,1,0.753993661318234,-0.05467930108251131,0.10897530638037749,-0.27662339688279225,-0.2017384124907414,0.21678894473432977
688,0.8646505698623898,0.34690456527141506,0,1,0.7983850361678053,-0.06876671577016118,0.1380391041969102,-0.2787642528319279,-0.3196850261472737,0.26566000060648576
689,0.9129002389446397,0.366600750426733,0,1,0.9351987597099067,-0.05937676018715078,0.1944629300206369,-0.38492787187962907,-0.30147206471047217,0.30283362995940105
690,0.9644397940345062,0.3812659485823534,0,1,1.0747325563698789,0.03255215214105558,0.14118348397168654,-0.4779861783025034,-0.2790023105501231,0.3600007578359911
691,1.016038557519961,0.39204554468223574,0,1,1.094773545197748,0.04870050101476749,0.17054446170678023,-0.5237731152313764,0.023254094313243216,0.36660024218815246
692,1.0649525011822547,0.4019252796509169,0,1,1.1041845717013121,-0.055007318871459945,0.1715886001720755,-0.32203511590960066,0.09312824880704149,0.27407036797225387
693,1.1090365086494902,0.4149590514842096,0,1,1.1203446733161337,-0.17067397881878923,0.13570958158478186,-0.11965819552894366,0.19066480575634304,0.13605704221856796
694,1.1467486911034446,0.4352531394894095,0,1,1.060460567837134,-0.22577445890741307,0.15755730054730238,-0.0897748529208346,0.2772426980837611,0.004313792480899036
695,1.1770762337640004,0.4659142701116903,0,1,1.0064221249180654,-0.18337210256210018,0.02719247473616975,-0.1041907090257266,0.04852926786492443,-0.07832467318730207
696,1.1994326998889209,0.5081867530525572,0,1,1.0707062742306384,-0.034791383728194146,0.06452716014654078,-0.02008034625960141,0.06274395985272851,-0.11769258490529584
697,1.2135778090110996,0.5609689772384131,0,1,1.119452406974556,-0.009853203149103108,0.1212596255411352,0.07276136665659992,-0.2774613207393255,-0.19179896509903577
698,1.2195893154915591,0.6208188921400553,0,1,1.2519329250313562,-0.14946648868666776,-0.0003151252913212886,0.24334902754044724,-0.3379921881489401,-0.35112555038657006
699,1.2178794374780457,0.6824490289620805,0,1,1.330667529724767,-0.19670158880942107,0.39233428729976005,0.47545523893660496,0.016043735574043424,-0.5513858143607944
700,1.2092122595029553,0.739600504809668,0,1,1.4224676369175384,-0.26871335060167256,0.42051242929725985,0.4631941671154839,0.06014251391658029,-0.7377450755839449
701,1.1946646225238347,0.7861013367064532,0,1,1.1722791804420176,-0.27341337978774516,0.5204790553216139,0.523559132846853,0.6598671019573168,-0.8505743751668458
702,1.1754950797179362,0.8168781490171955,0,1,0.7924666372749797,-0.18488241656466314,0.6465854761633624,0.3459259448265128,0.6574828546393515,-0.9197080930115297
703,1.1529383019615786,0.828710841708626,0,1,0.6004460838162692,0.022916107087680007,0.6141611433882426,0.12746104660288002,0.420675793041374,-0.912324017895276
704,1.1279976619461287,0.8205941197786376,0,1,0.618722001654515,0.2263411345819731,0.5249596971655034,-0.023039810092857063,0.12532313053242228,-0.7993239383958154
705,1.1013297962241786,0.7936786650836236,0,1,0.8411269828280568,0.27947268090685945,0.46071773264425303,-0.046727814043579445,-0.11829263473635308,-0.64309735419939
706,1.0732828999822366,0.7508721507199408,0,1,1.1081373138081414,0.2167967006252898,0.3892235178039791,-0.15808362475300464,-0.11269315140629813,-0.46249479482506967
707,1.0440804109565047,0.6962490753766281,0,1,1.244946159724541,0.09747137856384064,0.37911615681612365,-0.34058531187482377,0.0494468333997311,-0.27925790867302447
708,1.014073236312374,0.6344295049839898,0,1,1.1979469394097435,0.033532234761039635,0.25128957054845763,-0.4283734560777439,0.28442296074595586,-0.1511676222509894
709,0.9839546675674276,0.5700456676555694,0,1,0.9727699275759025,-0.08215543894460939,0.3257931261436929,-0.4912735138038911,0.5530424202248129,-0.11886446130449776
710,0.9548550070861268,0.5073469009981272,0,1,0.8042382065555426,-0.15964819789465756,0.3152148731030057,-0.4633051622399269,0.39566743462255943,-0.14991485899253093
711,0.9282889306389102,0.4499322839086362,0,1,0.7381786528173317,-0.18387647971162846,0.32527312675683606,-0.38476790497159324,0.3568213884991598,-0.16334887661670688
712,0.9059832535315678,0.4005740273550423,0,1,0.7659747090224923,-0.18880874577476553,0.3354778447656943,-0.27252257027175886,0.23845744297757931,-0.15004098698890514
713,0.8896402254421989,0.3611071122304883,0,1,0.8635778688069885,-0.13779298051043115,0.2978866036187653,-0.09706571955941652,0.1315468725264514,-0.08311842874786476
714,0.8806890128596812,0.3323907089743888,0,1,0.908635945228581,-0.06900979443897817,0.2072522553229586,0.12327275419366884,0.05699372461180553,0.03345790156007312
715,0.880061412982883,0.3143656229657786,0,1,0.859241304238256,-0.039751594444128124,0.18065508555935236,0.2534434483526405,0.153543549987284,0.06969491223397405
716,0.8880151122021694,0.30622199471200656,0,1,0.8044807328747483,-0.0567192377428878,0.24816895078105122,0.3116157902741162,0.12655844269391106,0.0516426746846244
717,0.9040257003143439,0.30665697515230805,0,1,0.7594031801611862,-0.08348260495749066,0.2436081657738841,0.4047555027433333,0.004830965396356555,-0.008152541251745965
718,0.9267708088547033,0.3141645481475453,0,1,0.7799733633939853,-0.07320162122250404,0.30247821254850726,0.4540836978847631,-0.09120453605540807,-0.08224981079521267
719,0.9542250905713986,0.3272814306697634,0,1,0.8702999792400723,-0.02945926198808166,0.3308269088227953,0.36505059463108464,-0.1994287358195199,-0.14431221509094766
720,0.9838676941773944,0.3447232655575952,0,1,0.9676891236040314,0.03558450510339784,0.31243088857528717,0.3174614033485357,-0.2260712698488645,-0.17149698987814435
721,1.0129786742004383,0.36537930541041985,0,1,1.0344902045753086,0.09816129966418123,0.2362712662309275,0.3239847521773422,-0.1897572878021359,-0.13436430040292502
722,1.0389781885601355,0.3881792269030527,0,1,1.019106703730939,0.07351514412898609,0.3166968844154519,0.3117587183474672,-0.004930841076874155,-0.0681206595070248
723,1.0597517149850604,0.411888687980282,0,1,1.0289250226248283,0.01802711806485221,0.3090189320558303,0.29676638651830234,-0.12789065315691503,-0.017971140947228553
724,1.0739076276863084,0.4349186428160255,0,1,1.0753589786636388,-0.06739318155085197,0.3533586115371601,0.19030314532558104,0.06945500731125659,-0.003603247246462894
725,1.0809254833016169,0.45523866472938385,0,1,1.071903980140432,-0.07624883573516449,0.4828837794885661,0.23363844697687777,0.06941282434237003,0.02295422978014161
726,1.0811694269406638,0.4704619575509613,0,1,1.1024504813530676,0.04501017378681737,0.4288517980718887,0.30702316879647135,0.09740514007639303,0.1594464011511636
727,1.0757611340699242,0.47812050655920435,0,1,1.0118224940160352,0.09270801991997384,0.4404834863569509,0.30608491644895147,0.19997300438460053,0.3944254166741804
728,1.0663326768757158,0.47608400632815695,0,1,0.8650965510672792,0.044538550216170855,0.4300086487784295,0.4067956060717013,0.18525354200366778,0.5598025306665039
729,1.0547087410948957,0.46301813524209345,0,1,0.7876506817735555,-0.026665788224629835,0.4334352239819588,0.4072674998083584,0.014069224195742639,0.5707551635744659
730,1.0425888075546734,0.43875198318149444,0,1,0.8475468729473169,0.03721103108068579,0.3515836293509508,0.34849093065230424,-0.03518111496974447,0.49471022284874844
731,1.0313003648419015,0.404444857108291,0,1,0.9071231660956536,0.1418687908133951,0.41730654059887445,0.22507353741732364,0.00999348773585218,0.40181585901609507
