id,ASVM,GSVM,walking_nonwalking,normal_abnormal,ax,ay,az,gx,gy,gz
1,1.3505,0.9399,0,0,-0.012420654296875,1.2864227294921875,-0.7834625244140625,0.06016373634338379,-0.9769920706748962,0.017402958124876022
2,1.2931,1.3082,0,0,-0.2094268798828125,1.21588134765625,-0.584503173828125,-0.07216793298721313,-1.1894441843032837,-0.07996620237827301
3,1.2475,1.6537,0,0,-0.425506591796875,1.1024017333984375,0.0982666015625,-1.6149368286132812,-0.011987687088549137,-0.3318122923374176
4,1.2094,1.9548,0,0,-0.515167236328125,1.0885162353515625,0.723663330078125,-3.5527234077453613,1.6801475286483765,-0.886962354183197
5,1.1757,2.1961,0,0,-0.6348419189453125,1.151824951171875,0.2170562744140625,-3.5540683269500732,3.030130386352539,-1.6953009366989136
6,1.1447,2.37,0,0,-0.5462799072265625,1.1779022216796875,-0.4239654541015625,-0.5038120150566101,0.8033121824264526,-1.5246706008911133
7,1.1162,2.4759,0,0,-0.194183349609375,0.9925384521484375,0.1374969482421875,0.4846833348274231,-1.3959145545959473,-0.5794450044631958
8,1.0907,2.519,0,0,-0.046661376953125,0.836578369140625,0.08514404296875,0.40734219551086426,-1.1499981880187988,0.12077781558036804
9,1.0694,2.5077,0,0,-0.0532073974609375,0.8281707763671875,0.3383026123046875,-0.5538589358329773,0.18312880396842957,0.3069884479045868
10,1.0531,2.452,0,0,0.0961456298828125,0.88031005859375,0.2900238037109375,-1.4702457189559937,1.3238906860351562,0.6481537222862244
11,1.0421,2.3611,0,0,0.1462249755859375,0.9595184326171875,0.239532470703125,-1.897460699081421,2.1246981620788574,0.9433257579803467
12,1.0361,2.2438,0,0,0.245574951171875,0.9610443115234375,0.245391845703125,-1.7838300466537476,2.284076690673828,1.1588410139083862
13,1.0336,2.1081,0,0,0.2728424072265625,0.9405059814453125,0.209716796875,-1.3200700283050537,2.1429059505462646,1.3046125173568726
14,1.0328,1.9613,0,0,0.2348175048828125,0.94232177734375,0.220550537109375,-0.9029980301856995,1.955500602722168,1.2147234678268433
15,1.0317,1.8104,0,0,0.177001953125,0.9666748046875,0.149383544921875,-0.644885778427124,1.2601135969161987,0.8926151394844055
16,1.0284,1.6618,0,0,-0.1692962646484375,0.9816741943359375,-0.995574951171875,0.9381317496299744,0.35353168845176697,0.09791697561740875
17,1.0216,1.5209,0,0,0.090118408203125,0.994110107421875,-0.3229522705078125,1.0711537599563599,-0.006899717729538679,-0.1507093459367752
18,1.0107,1.3913,0,0,0.1777496337890625,1.0080718994140625,-0.0003204345703125,-0.39824751019477844,0.8375524282455444,0.12761281430721283
19,0.9962,1.2751,0,0,0.2060394287109375,1.0290985107421875,0.1781158447265625,-1.3002727031707764,1.098286509513855,0.226992666721344
20,0.9795,1.1725,0,0,0.16815185546875,0.9590301513671875,0.138275146484375,-1.3476582765579224,0.9651972055435181,0.19072680175304413
21,0.9623,1.0824,0,0,0.114776611328125,0.817962646484375,0.0615386962890625,-0.7773825526237488,0.7443956136703491,0.08370741456747055
22,0.9471,1.0026,0,0,0.0875244140625,0.8295135498046875,0.05657958984375,-0.39130356907844543,-0.03881290927529335,-0.04233946651220322
23,0.9359,0.9304,0,0,0.11846923828125,0.9079742431640625,0.0007171630859375,-0.457013875246048,-0.9027564525604248,-0.021145498380064964
24,0.9307,0.8633,0,0,0.1009979248046875,0.9260101318359375,-0.3166351318359375,-0.8810924291610718,-0.6993077397346497,0.02937386743724346
25,0.9328,0.7991,0,0,0.080413818359375,0.918914794921875,-0.2613677978515625,-0.9718053340911865,-0.0007422229973599315,-0.008167382329702377
26,0.9428,0.737,0,0,0.10791015625,0.94598388671875,-0.0981597900390625,-0.5780380368232727,0.36748772859573364,0.0067907944321632385
27,0.9605,0.6773,0,0,0.0801849365234375,0.9420166015625,0.0283203125,-0.2878246009349823,0.38257932662963867,-0.07755125313997269
28,0.9851,0.6221,0,0,0.09747314453125,0.9163665771484375,0.0501251220703125,-0.38536205887794495,0.2662505805492401,-0.11224744468927383
29,1.0151,0.5753,0,0,0.121917724609375,0.8989715576171875,-0.013580322265625,-0.539304792881012,0.47573670744895935,-0.1489631086587906
30,1.0484,0.5421,0,0,0.2219085693359375,0.969482421875,0.029571533203125,-0.5066149830818176,0.5926851630210876,-0.0995500236749649
31,1.0828,0.5292,0,0,0.3043212890625,1.0500946044921875,0.1084747314453125,-0.41546669602394104,0.414045125246048,-0.024718662723898888
32,1.1161,0.5438,0,0,0.328582763671875,1.21820068359375,0.06976318359375,-0.4183703660964966,0.38889262080192566,0.08984733372926712
33,1.1464,0.5931,0,0,0.240936279296875,1.2342529296875,-0.041168212890625,-0.5439155101776123,0.6091104745864868,0.1159801334142685
34,1.1726,0.6833,0,0,0.15240478515625,1.1497344970703125,-0.193756103515625,-0.5278627872467041,0.9305425882339478,0.1494866907596588
35,1.1939,0.8181,0,0,0.1580963134765625,1.1994171142578125,-0.188629150390625,-0.08395934849977493,0.733123779296875,0.1399347335100174
36,1.2103,0.9981,0,0,0.231292724609375,1.2534332275390625,-0.0899505615234375,0.32760608196258545,0.29603779315948486,0.10195112973451614
37,1.2224,1.2196,0,0,0.299713134765625,1.2135162353515625,0.0020599365234375,0.4750346839427948,-0.09384659677743912,0.08563500642776489
38,1.2308,1.4743,0,0,0.3414459228515625,1.176788330078125,-0.0200347900390625,0.7014337778091431,-0.4076026678085327,0.17135204374790192
39,1.236,1.7501,0,0,0.2884521484375,1.13348388671875,-0.0164947509765625,1.118818759918213,-1.0112171173095703,0.26807671785354614
40,1.2382,2.0315,0,0,0.063568115234375,1.069091796875,0.0034942626953125,1.6120928525924683,-2.007896900177002,0.12500585615634918
41,1.237,2.3016,0,0,-0.049560546875,1.0699615478515625,0.047332763671875,2.106003522872925,-2.12070369720459,0.037153229117393494
42,1.2313,2.5444,0,0,0.050872802734375,1.0834808349609375,0.180267333984375,2.3107666969299316,-1.4042664766311646,0.1899409145116806
43,1.2194,2.7458,0,0,-0.059295654296875,1.2165374755859375,0.196502685546875,2.2778050899505615,0.8807017803192139,0.2258770763874054
44,1.1997,2.8956,0,0,-0.3155059814453125,1.3842620849609375,0.0555419921875,2.4823687076568604,2.376040458679199,-0.24097399413585663
45,1.1706,2.9882,0,0,-0.34466552734375,1.3314056396484375,-0.0125274658203125,2.7745184898376465,2.120556116104126,-0.671120822429657
46,1.1312,3.0222,0,0,-0.2012786865234375,1.1342315673828125,0.103607177734375,2.6525180339813232,0.976641058921814,-0.5515633225440979
47,1.0817,3.0005,0,0,-0.213775634765625,0.9457550048828125,-0.106231689453125,2.7725887298583984,0.04211176559329033,-0.4469529986381531
48,1.0232,2.9289,0,0,-0.1384429931640625,0.8646240234375,0.0591888427734375,2.5490036010742188,-1.0039176940917969,-0.5207332372665405
49,0.9582,2.8152,0,0,0.1771240234375,0.941253662109375,-0.0886688232421875,2.20357084274292,-1.2763148546218872,0.03170493245124817
50,0.8902,2.6681,0,0,0.2324981689453125,1.003570556640625,-0.1472320556640625,1.9447944164276123,-0.638384997844696,0.5451101660728455
51,0.8239,2.496,0,0,0.20135498046875,0.9702911376953125,-0.1541595458984375,1.7017202377319336,-0.8479097485542297,0.7342073917388916
52,0.7645,2.3068,0,0,0.1518402099609375,0.8227996826171875,-0.124176025390625,1.4647250175476074,-1.6544113159179688,0.6178645491600037
53,0.7172,2.1081,0,0,0.0973358154296875,0.6963043212890625,-0.0599517822265625,1.1506954431533813,-2.3312795162200928,0.3793286681175232
54,0.687,1.9069,0,0,-0.0141448974609375,0.619049072265625,-0.0693511962890625,0.8160886764526367,-2.446371078491211,0.09390518814325333
55,0.6779,1.7104,0,0,-0.1173858642578125,0.53668212890625,-0.091583251953125,0.5046637058258057,-1.9885759353637695,-0.15721039474010468
56,0.6921,1.5258,0,0,-0.2029266357421875,0.5111083984375,-0.147491455078125,0.1645713746547699,-1.423808217048645,-0.24304434657096863
57,0.7302,1.3604,0,0,-0.281951904296875,0.4919891357421875,-0.237213134765625,-0.19352339208126068,-0.8616598844528198,-0.18640422821044922
58,0.7901,1.2212,0,0,-0.355377197265625,0.5003814697265625,-0.3758544921875,-0.5709702968597412,-0.286209374666214,-0.1639505922794342
59,0.8682,1.1142,0,0,-0.335723876953125,0.571990966796875,-0.533172607421875,-0.961830198764801,0.16084454953670502,-0.20711909234523773
60,0.9586,1.0445,0,0,-0.2465057373046875,0.674957275390625,-0.6334991455078125,-1.3168572187423706,0.5707865357398987,-0.3101882338523865
61,1.0548,1.0152,0,0,-0.149932861328125,0.8011016845703125,-0.6910552978515625,-1.341916799545288,0.7165929675102234,-0.3418119251728058
62,1.1494,1.028,0,0,0.0045166015625,0.9051513671875,-0.6875,-1.1116862297058105,0.3085799515247345,-0.20941448211669922
63,1.2355,1.0822,0,0,0.17437744140625,1.0171051025390625,-0.72894287109375,-0.9080047607421875,-0.35287976264953613,0.04254905879497528
64,1.3073,1.1747,0,0,0.332550048828125,1.1488189697265625,-0.8736724853515625,-0.6577946543693542,-1.1143217086791992,0.28576037287712097
65,1.3605,1.2992,0,0,0.3065185546875,1.3687896728515625,-0.8977813720703125,-0.2778041958808899,-1.2691733837127686,0.292707234621048
66,1.3926,1.4469,0,0,0.0726318359375,1.43475341796875,-0.7308349609375,0.004595017991960049,-0.12342819571495056,0.036821398884058
67,1.4032,1.606,0,0,-0.10198974609375,0.8440399169921875,-0.9175872802734375,0.6409791707992554,-0.1859608143568039,0.3151797950267792
68,1.3936,1.7631,0,0,-0.44140625,0.629364013671875,-0.5644378662109375,0.03597185015678406,-0.9958035945892334,0.309628963470459
69,1.3667,1.9047,0,0,-0.5721893310546875,0.9173583984375,0.23907470703125,-2.229105234146118,0.16339638829231262,-0.3440939784049988
70,1.3263,2.019,0,0,-0.55413818359375,1.220611572265625,0.7185821533203125,-4.371316432952881,1.4867850542068481,-1.1948341131210327
71,1.2767,2.0974,0,0,-0.4267425537109375,1.4681549072265625,-0.1105804443359375,-3.58937668800354,1.7981668710708618,-1.4372206926345825
72,1.2226,2.1356,0,0,-0.3828125,1.4575958251953125,-0.4737396240234375,-0.06530123949050903,-0.07328566163778305,-0.6641066074371338
73,1.1685,2.1335,0,0,-0.0504302978515625,1.0652618408203125,0.122802734375,0.7402458786964417,-1.0858341455459595,0.28288015723228455
74,1.1184,2.0943,0,0,-0.0257415771484375,0.782623291015625,-0.10546875,1.0771245956420898,-0.2121838927268982,0.6136301159858704
75,1.0752,2.023,0,0,-0.08551025390625,0.7671966552734375,0.3709564208984375,-0.08584167063236237,0.9112546443939209,0.24984605610370636
76,1.0407,1.9254,0,0,0.0743255615234375,0.8940582275390625,0.259307861328125,-1.154889702796936,1.3665164709091187,0.3211926817893982
77,1.0155,1.8075,0,0,0.08538818359375,1.0827789306640625,0.242523193359375,-1.7198065519332886,1.2977097034454346,0.5505691170692444
78,0.9987,1.6755,0,0,0.2505340576171875,1.1039581298828125,0.2451324462890625,-1.8668535947799683,1.0533819198608398,1.0695332288742065
79,0.9887,1.5358,0,0,0.2772674560546875,0.9610595703125,0.1851348876953125,-1.526405692100525,0.7103068828582764,1.4462016820907593
80,0.9831,1.3956,0,0,0.24169921875,0.800537109375,0.1353302001953125,-1.0271551609039307,0.21874380111694336,1.3913501501083374
81,0.9798,1.2619,0,0,0.1147003173828125,0.768951416015625,0.0396270751953125,-0.6256404519081116,-0.27801403403282166,0.9154336452484131
82,0.9765,1.1419,0,0,-0.295013427734375,0.9119110107421875,-0.9789886474609375,0.5337094664573669,0.4733166992664337,-0.03945606201887131
83,0.9718,1.0414,0,0,-0.0474853515625,1.020599365234375,-0.1372528076171875,0.08094038814306259,0.5480449795722961,-0.17540857195854187
84,0.9652,0.9644,0,0,0.05096435546875,1.010650634765625,0.1238555908203125,-0.7696511745452881,0.45965972542762756,0.11181947588920593
85,0.957,0.9122,0,0,0.2041015625,1.013671875,0.182464599609375,-0.8683569431304932,0.4613971710205078,0.28721314668655396
86,0.9483,0.8835,0,0,0.196197509765625,0.8697967529296875,0.1515655517578125,-0.6165982484817505,0.29772621393203735,0.28345274925231934
87,0.9408,0.8741,0,0,0.1512603759765625,0.7882843017578125,0.1102447509765625,-0.45991912484169006,0.0015763250412419438,0.10382387042045593
88,0.9363,0.8781,0,0,0.1585693359375,0.8294219970703125,0.087860107421875,-0.5819113254547119,-0.36929893493652344,0.006392385344952345
89,0.9367,0.8882,0,0,0.15625,0.8964080810546875,-0.044769287109375,-1.066521406173706,-0.6007050275802612,0.04457945376634598
90,0.9429,0.8976,0,0,0.06744384765625,0.931976318359375,-0.1599273681640625,-1.4588044881820679,-0.43097829818725586,0.06353849917650223
91,0.9557,0.9004,0,0,0.030242919921875,0.953857421875,-0.1068572998046875,-1.0812252759933472,-0.2627794146537781,-0.0481875017285347
92,0.9749,0.8928,0,0,0.06689453125,0.9664764404296875,-0.0289154052734375,-0.5337116122245789,-0.18682527542114258,-0.060503825545310974
93,0.9993,0.8742,0,0,0.0172119140625,0.913238525390625,-0.0092926025390625,-0.4356380105018616,0.10061874985694885,-0.03380883112549782
94,1.0277,0.8468,0,0,-0.0052642822265625,0.963531494140625,-0.0046539306640625,-0.6993066668510437,0.5954740047454834,-0.07810678333044052
95,1.058,0.816,0,0,0.0953521728515625,1.0864105224609375,0.01397705078125,-0.8095144033432007,0.7601111531257629,-0.07699651271104813
96,1.0884,0.7899,0,0,0.2115936279296875,1.124267578125,0.016326904296875,-0.6837165355682373,0.8132369518280029,-0.08273429423570633
97,1.117,0.7785,0,0,0.286285400390625,1.1808013916015625,0.0055084228515625,-0.5709007978439331,0.9339703321456909,-0.16500386595726013
98,1.1425,0.7931,0,0,0.31634521484375,1.1837158203125,-0.0294189453125,-0.4621830880641937,0.9840731620788574,-0.19049884378910065
99,1.1642,0.8439,0,0,0.2443389892578125,1.133544921875,-0.1299285888671875,-0.3965601325035095,0.8480356931686401,-0.04568306729197502
100,1.1818,0.9391,0,0,0.1805267333984375,1.1549072265625,-0.20208740234375,-0.19345255196094513,0.6539857983589172,0.07741595804691315
101,1.1957,1.0831,0,0,0.1871337890625,1.275390625,-0.1529388427734375,0.23112855851650238,0.3249993920326233,0.17789143323898315
102,1.2065,1.2748,0,0,0.1294403076171875,1.20025634765625,-0.1060333251953125,0.5762300491333008,0.23887144029140472,0.10279801487922668
103,1.2147,1.5074,0,0,0.1423187255859375,1.1526641845703125,0.0011749267578125,0.9000877141952515,-0.15086860954761505,0.05331328883767128
104,1.2207,1.7686,0,0,0.1184844970703125,1.105987548828125,-0.088592529296875,1.4361317157745361,-0.6844968199729919,0.026342391967773438
105,1.2242,2.0415,0,0,0.1023101806640625,0.985870361328125,-0.0290374755859375,2.0862481594085693,-1.083257794380188,0.06763630360364914
106,1.2244,2.3073,0,0,0.1484375,1.1243438720703125,0.087646484375,2.4382243156433105,-1.0256797075271606,0.42572227120399475
107,1.22,2.5468,0,0,0.14947509765625,1.1667633056640625,0.1627655029296875,2.5298547744750977,-0.21096843481063843,0.7836210131645203
108,1.2093,2.7434,0,0,-0.0059814453125,1.2941741943359375,0.1297760009765625,2.4342474937438965,1.4019649028778076,0.6389716863632202
109,1.1908,2.8851,0,0,-0.1929779052734375,1.442352294921875,-0.0468597412109375,2.6960904598236084,2.592994451522827,-0.04450887814164162
110,1.1632,2.965,0,0,-0.16302490234375,1.2847747802734375,-0.0744171142578125,2.919346332550049,2.1584858894348145,-0.42509615421295166
111,1.126,2.9826,0,0,-0.057373046875,1.090789794921875,-0.016326904296875,2.836146354675293,0.5710104703903198,-0.2586837410926819
112,1.0798,2.9424,0,0,-0.11407470703125,0.9602508544921875,-0.0360260009765625,2.545901298522949,-0.6866345405578613,-0.20227107405662537
113,1.0259,2.8529,0,0,-0.073089599609375,0.890899658203125,0.047210693359375,1.9074821472167969,-2.1143126487731934,-0.3249778151512146
114,0.9666,2.7252,0,0,0.1141357421875,0.912322998046875,-0.1773529052734375,1.5260661840438843,-1.8346349000930786,-0.018729479983448982
115,0.9052,2.5703,0,0,0.17437744140625,0.926513671875,-0.205108642578125,1.3974660634994507,-0.6650437712669373,0.4302445948123932
116,0.8455,2.3989,0,0,0.10638427734375,0.959381103515625,-0.17462158203125,1.2770214080810547,-0.6922767162322998,0.5420560836791992
117,0.7918,2.2195,0,0,0.065948486328125,0.8936004638671875,-0.0732879638671875,1.0574283599853516,-1.8853979110717773,0.41577136516571045
118,0.7485,2.0392,0,0,0.020751953125,0.774627685546875,0.0214385986328125,0.7313322424888611,-2.7104477882385254,0.2978404760360718
119,0.7199,1.8634,0,0,-0.1186676025390625,0.6805572509765625,-0.013519287109375,0.5511385202407837,-2.6648764610290527,0.05054573342204094
120,0.7095,1.697,0,0,-0.253021240234375,0.600555419921875,-0.0678558349609375,0.6045788526535034,-2.1049880981445312,-0.34145161509513855
121,0.7196,1.5445,0,0,-0.3674468994140625,0.5548553466796875,-0.154815673828125,0.6926684975624084,-1.2434176206588745,-0.6020941138267517
122,0.7511,1.4102,0,0,-0.4130859375,0.51092529296875,-0.18841552734375,0.4330582320690155,-0.5230344533920288,-0.6166712045669556
123,0.8031,1.2982,0,0,-0.401153564453125,0.479461669921875,-0.2817230224609375,-0.18042783439159393,-0.04312829673290253,-0.4678593575954437
124,0.8728,1.2118,0,0,-0.331085205078125,0.5248870849609375,-0.4443359375,-0.8218048810958862,0.47432470321655273,-0.34983018040657043
125,0.9559,1.1537,0,0,-0.2298736572265625,0.6588592529296875,-0.57293701171875,-1.297829508781433,0.9846763610839844,-0.28874391317367554
126,1.0465,1.1252,0,0,-0.0904083251953125,0.819580078125,-0.6728057861328125,-1.262192726135254,1.1503723859786987,-0.19300568103790283
127,1.138,1.1268,0,0,0.1364593505859375,0.9914093017578125,-0.709625244140625,-0.8614721298217773,0.6142823100090027,0.10665720701217651
128,1.2239,1.1578,0,0,0.3356170654296875,1.048126220703125,-0.731353759765625,-0.43406355381011963,-0.3592817187309265,0.48032346367836
129,1.2979,1.2163,0,0,0.5210113525390625,1.0234222412109375,-0.7186431884765625,-0.43883195519447327,-1.0253838300704956,0.8925514817237854
130,1.3551,1.2988,0,0,0.4716796875,1.0850067138671875,-0.6682586669921875,-1.002789855003357,-0.6808536648750305,0.9530636072158813
131,1.3919,1.4007,0,0,0.0746612548828125,1.1929931640625,-0.7757720947265625,-1.1523172855377197,0.42296937108039856,0.2820335626602173
132,1.4067,1.516,0,0,-0.0332794189453125,1.0088958740234375,-1.0217132568359375,-0.29505881667137146,0.010979946702718735,0.08274707943201065
133,1.3997,1.6377,0,0,-0.214385986328125,1.0601043701171875,-0.799560546875,-0.06904644519090652,-1.4138075113296509,0.24552561342716217
134,1.373,1.7585,0,0,-0.390594482421875,1.308837890625,-0.1488494873046875,-1.581779956817627,-0.7424919605255127,-0.2062985748052597
135,1.3303,1.8713,0,0,-0.4740447998046875,1.2993316650390625,0.582244873046875,-3.5069048404693604,0.32526305317878723,-0.9218659996986389
136,1.2763,1.9699,0,0,-0.602020263671875,1.3090972900390625,0.1685333251953125,-3.0374209880828857,0.6670448780059814,-1.40805184841156
137,1.2166,2.0497,0,0,-0.53863525390625,1.08392333984375,-0.3848114013671875,0.036920465528964996,-0.16582012176513672,-0.9840348362922668
138,1.1564,2.107,0,0,-0.31103515625,0.823822021484375,-0.001495361328125,1.2222635746002197,-0.5508860349655151,-0.3041548430919647
139,1.1006,2.1389,0,0,-0.13385009765625,0.7192230224609375,-0.1102294921875,1.3794082403182983,0.33692502975463867,-0.028553081676363945
140,1.0527,2.1431,0,0,-0.10772705078125,0.9064178466796875,0.4069671630859375,-0.1909819394350052,1.2262216806411743,-0.15442445874214172
141,1.0149,2.1176,0,0,-0.000885009765625,1.05303955078125,0.3206634521484375,-1.3727232217788696,1.6155602931976318,0.1369546502828598
142,0.9879,2.061,0,0,0.074676513671875,1.071441650390625,0.219940185546875,-1.8650604486465454,1.6474425792694092,0.6501404643058777
143,0.971,1.9738,0,0,0.133056640625,0.997467041015625,0.22802734375,-1.9537428617477417,1.7633864879608154,1.0926427841186523
144,0.9624,1.8588,0,0,0.2435760498046875,0.8777923583984375,0.2711639404296875,-1.6724907159805298,1.4034019708633423,1.4778131246566772
145,0.9598,1.7215,0,0,0.20220947265625,0.81231689453125,0.2340850830078125,-1.1939667463302612,0.7446965575218201,1.4783552885055542
146,0.9606,1.57,0,0,0.1187591552734375,0.8322906494140625,0.1971435546875,-0.911106288433075,-0.17746320366859436,1.0255814790725708
147,0.9622,1.4139,0,0,0.0131683349609375,0.9622344970703125,-0.3690338134765625,-0.49093377590179443,-0.4850998520851135,0.296365350484848
148,0.9628,1.2633,0,0,-0.10931396484375,1.0507354736328125,-0.59844970703125,0.24302250146865845,0.9863682985305786,-0.20208944380283356
149,0.9612,1.1271,0,0,0.037811279296875,1.0300140380859375,0.117889404296875,-0.7966225743293762,0.4311644434928894,0.034875690937042236
150,0.9573,1.0121,0,0,0.0996246337890625,0.9864349365234375,0.1543426513671875,-1.1237082481384277,0.17796839773654938,0.09214191138744354
151,0.9516,0.922,0,0,0.1383819580078125,0.916046142578125,0.10791015625,-0.7670646905899048,-0.01059219054877758,0.0014974954538047314
152,0.9457,0.8573,0,0,0.1418304443359375,0.800567626953125,0.035064697265625,-0.4583587944507599,-0.006709834095090628,-0.1346353143453598
153,0.9411,0.8156,0,0,0.192962646484375,0.84619140625,-0.1188507080078125,-0.5715804100036621,0.30176064372062683,-0.19525045156478882
154,0.9396,0.7922,0,0,0.155792236328125,0.9300079345703125,-0.1045989990234375,-0.9049333333969116,0.13573811948299408,-0.10082221776247025
155,0.9428,0.7812,0,0,0.0740814208984375,0.9297027587890625,-0.040283203125,-0.9371301531791687,-0.4357474744319916,-0.041259557008743286
156,0.9514,0.7767,0,0,0.0343170166015625,0.9430389404296875,0.0015716552734375,-0.798136830329895,-0.7364916205406189,-0.05315243452787399
157,0.9659,0.774,0,0,-0.0243072509765625,0.926055908203125,-0.04693603515625,-0.809261679649353,-0.4576610326766968,-0.08500383794307709
158,0.9859,0.7702,0,0,-0.081512451171875,0.9337158203125,-0.1236572265625,-0.8549172878265381,0.16908542811870575,-0.19492927193641663
159,1.0103,0.7651,0,0,-0.0274200439453125,0.9583587646484375,-0.06072998046875,-0.4993951618671417,0.5182788372039795,-0.2612760663032532
160,1.0377,0.7609,0,0,0.1020660400390625,0.9983062744140625,0.069183349609375,-0.22116966545581818,0.4931449890136719,-0.24007011950016022
161,1.0663,0.7622,0,0,0.178741455078125,1.0660858154296875,0.08892822265625,-0.3025928735733032,0.5197225213050842,-0.15521489083766937
162,1.0945,0.7752,0,0,0.2247314453125,1.1748046875,0.08953857421875,-0.5236738920211792,0.5956332683563232,0.03381362184882164
163,1.121,0.8071,0,0,0.1851348876953125,1.222015380859375,0.0355987548828125,-0.5649352669715881,0.7047643065452576,0.12046942114830017
164,1.1448,0.8651,0,0,0.1255645751953125,1.1571807861328125,-0.11712646484375,-0.5276579856872559,1.0699390172958374,0.10790090262889862
165,1.1656,0.9554,0,0,0.1115264892578125,1.110015869140625,-0.2048492431640625,-0.35397565364837646,1.3386019468307495,0.12583915889263153
166,1.1834,1.0819,0,0,0.1883392333984375,1.2062530517578125,-0.129608154296875,0.012798086740076542,0.9508368968963623,0.15177755057811737
167,1.1989,1.2457,0,0,0.2971343994140625,1.2277374267578125,-0.083984375,0.3071620762348175,0.6748895049095154,0.15859124064445496
168,1.2125,1.4439,0,0,0.3176116943359375,1.2011871337890625,-0.034027099609375,0.5247972011566162,0.2751873731613159,0.11618492752313614
169,1.2245,1.6694,0,0,0.2971343994140625,1.135528564453125,-0.1459808349609375,0.949501633644104,-0.2565138041973114,0.1298235058784485
170,1.2348,1.9114,0,0,0.14453125,1.0814056396484375,-0.1283416748046875,1.7244199514389038,-1.1653785705566406,0.12407428026199341
171,1.2425,2.1565,0,0,0.00518798828125,1.03271484375,0.1016845703125,2.0852599143981934,-1.6299842596054077,0.2509150505065918
172,1.2461,2.3899,0,0,0.075836181640625,1.06683349609375,0.1825103759765625,2.1612305641174316,-1.9582759141921997,0.4387962520122528
173,1.2435,2.5975,0,0,0.0091552734375,1.1601104736328125,0.1174468994140625,2.242713212966919,-1.0199486017227173,0.5552546977996826
174,1.2323,2.7675,0,0,-0.1277618408203125,1.3594207763671875,0.1128997802734375,2.3209316730499268,1.0775845050811768,0.3103877007961273
175,1.2105,2.8914,0,0,-0.3320159912109375,1.48992919921875,0.041259765625,2.359616279602051,2.6569061279296875,-0.23075838387012482
176,1.1767,2.9646,0,0,-0.2789459228515625,1.33953857421875,-0.0300750732421875,2.7009291648864746,2.3194355964660645,-0.4980979263782501
177,1.1305,2.9865,0,0,-0.133514404296875,1.0716094970703125,0.0518951416015625,2.5935661792755127,0.718708872795105,-0.2113037258386612
178,1.073,2.9599,0,0,-0.190216064453125,0.9048309326171875,-0.0802764892578125,2.6395606994628906,-0.42990291118621826,-0.15823091566562653
179,1.0066,2.8902,0,0,0.0493927001953125,0.8762664794921875,-0.0396270751953125,2.243445634841919,-1.7390388250350952,-0.024820128455758095
180,0.9349,2.784,0,0,0.2293243408203125,0.942901611328125,-0.1527252197265625,1.9412356615066528,-1.6070493459701538,0.4858812093734741
181,0.8622,2.6482,0,0,0.209747314453125,0.9226837158203125,-0.1292266845703125,1.6029928922653198,-0.7950302958488464,0.7378228902816772
182,0.7939,2.4894,0,0,0.1364288330078125,0.8556060791015625,-0.0963134765625,1.288334846496582,-1.2069989442825317,0.6241258978843689
183,0.7354,2.3138,0,0,0.133209228515625,0.7784881591796875,-0.0802764892578125,1.0506881475448608,-2.2582337856292725,0.4300118386745453
184,0.6919,2.127,0,0,0.053070068359375,0.6868743896484375,-0.070587158203125,0.8955643177032471,-2.7162997722625732,0.2862871587276459
185,0.6681,1.9348,0,0,-0.1080474853515625,0.5998992919921875,-0.05426025390625,0.7706234455108643,-2.5085175037384033,0.042805518954992294
186,0.6672,1.7435,0,0,-0.258697509765625,0.5356597900390625,-0.09698486328125,0.5997923612594604,-1.921950101852417,-0.22485575079917908
187,0.6909,1.5603,0,0,-0.3608245849609375,0.5008087158203125,-0.1766204833984375,0.22538624703884125,-1.241285800933838,-0.3388238549232483
188,0.739,1.3927,0,0,-0.408721923828125,0.471466064453125,-0.25787353515625,-0.3265051543712616,-0.508237898349762,-0.26469531655311584
189,0.8091,1.2484,0,0,-0.4168853759765625,0.44854736328125,-0.3992767333984375,-0.8884062767028809,0.22542566061019897,-0.1821112185716629
190,0.897,1.135,0,0,-0.354827880859375,0.5315704345703125,-0.5045318603515625,-1.2461583614349365,0.5898718237876892,-0.3429027497768402
191,0.9967,1.0591,0,0,-0.1966552734375,0.6961822509765625,-0.56842041015625,-1.3593724966049194,0.7151806950569153,-0.3735160529613495
192,1.1012,1.0258,0,0,-0.070220947265625,0.9109344482421875,-0.646575927734375,-1.0618587732315063,0.8155451416969299,-0.32506704330444336
193,1.2028,1.0389,0,0,0.108245849609375,1.0526123046875,-0.73394775390625,-0.5087791085243225,0.1791236847639084,-0.07545134425163269
194,1.2944,1.0996,0,0,0.2870330810546875,1.0869293212890625,-0.8132781982421875,-0.053105562925338745,-0.9474155306816101,0.2441125363111496
195,1.3696,1.2065,0,0,0.4035797119140625,1.116668701171875,-0.9114837646484375,-0.04867113381624222,-1.5818790197372437,0.4800880551338196
196,1.4237,1.3553,0,0,0.4400634765625,1.292694091796875,-0.7178192138671875,-0.6853187084197998,-0.6679626107215881,0.5724733471870422
197,1.4539,1.5384,0,0,0.150665283203125,1.2025604248046875,-0.8069915771484375,-0.734462559223175,0.24190956354141235,0.4859113097190857
198,1.4596,1.7459,0,0,-0.0318450927734375,0.9469146728515625,-1.1251678466796875,0.22001466155052185,-0.5336633920669556,0.6621529459953308
199,1.4418,1.9654,0,0,-0.2278900146484375,1.0397186279296875,-0.55181884765625,-0.485584557056427,-1.3060029745101929,0.4254615604877472
200,1.4038,2.1841,0,0,-0.31658935546875,1.1460113525390625,0.379119873046875,-2.779191493988037,-1.269758939743042,-0.18342842161655426
201,1.35,2.3896,0,0,-0.5278778076171875,1.342926025390625,0.7607421875,-4.379194259643555,0.3297960162162781,-1.107256293296814
202,1.286,2.5709,0,0,-0.7876129150390625,1.459014892578125,0.0646514892578125,-2.471672534942627,1.755865216255188,-1.9065407514572144
203,1.2177,2.7195,0,0,-0.6691436767578125,1.16046142578125,-0.048858642578125,0.36453667283058167,0.30828726291656494,-1.40579354763031
204,1.1509,2.8289,0,0,-0.3961334228515625,0.7740020751953125,0.069549560546875,1.541189432144165,-1.6633750200271606,-0.5461477637290955
205,1.0905,2.8942,0,0,-0.1931915283203125,0.6064300537109375,0.0375518798828125,1.5737146139144897,-1.2354623079299927,-0.13073724508285522
206,1.0401,2.9117,0,0,-0.13775634765625,0.7456512451171875,0.42431640625,-0.08424137532711029,1.0873441696166992,-0.17753563821315765
207,1.0018,2.8791,0,0,-0.03497314453125,0.9495697021484375,0.3449859619140625,-1.575478196144104,2.8307266235351562,0.1322062462568283
208,0.9756,2.7957,0,0,0.0425262451171875,1.0777435302734375,0.23651123046875,-2.268903970718384,3.0889971256256104,0.6887840032577515
209,0.9605,2.6637,0,0,0.0958251953125,1.0642547607421875,0.219207763671875,-2.4631433486938477,2.572756290435791,1.228033423423767
210,0.9541,2.4888,0,0,0.18804931640625,0.9620819091796875,0.25836181640625,-2.319225788116455,1.66315495967865,1.7074780464172363
211,0.9535,2.2806,0,0,0.1359405517578125,0.866241455078125,0.186126708984375,-1.7825865745544434,0.5815480947494507,1.667452335357666
212,0.9559,2.0519,0,0,0.0977020263671875,0.7944488525390625,-0.5302276611328125,-0.09422104060649872,0.5826802253723145,1.0080045461654663
213,0.9588,1.8173,0,0,0.186798095703125,0.9319000244140625,-0.3385772705078125,0.9620118141174316,1.4834321737289429,0.2965485751628876
214,0.9602,1.5916,0,0,0.1531829833984375,1.0437774658203125,-0.149139404296875,-0.16814826428890228,1.2574474811553955,-0.16480040550231934
215,0.9593,1.3878,0,0,0.1266632080078125,1.000335693359375,0.0099029541015625,-1.1550893783569336,0.582196831703186,-0.040406543761491776
216,0.956,1.2156,0,0,0.084716796875,0.9798126220703125,0.081268310546875,-1.125488042831421,0.03862196207046509,0.04457519203424454
217,0.9513,1.0802,0,0,0.0231781005859375,0.8787078857421875,0.0044097900390625,-0.6339436769485474,-0.07311549037694931,-0.13560229539871216
218,0.9466,0.9821,0,0,0.098052978515625,0.8607025146484375,-0.1218719482421875,-0.4220663011074066,0.2113865464925766,-0.27792561054229736
219,0.9439,0.9176,0,0,0.2182769775390625,0.9586181640625,-0.1414337158203125,-0.6834217309951782,0.3096790313720703,-0.1923593282699585
220,0.945,0.8796,0,0,0.1793212890625,0.977020263671875,-0.0741119384765625,-0.8780918717384338,-0.16975681483745575,-0.03527409955859184
221,0.9516,0.8595,0,0,0.06268310546875,0.9423675537109375,-0.0036163330078125,-0.7426794767379761,-0.8098744750022888,-0.0030029804911464453
222,0.9648,0.849,0,0,0.0012359619140625,0.84881591796875,0.0346527099609375,-0.720494270324707,-1.0324913263320923,-0.11978046596050262
223,0.985,0.8419,0,0,-0.0280914306640625,0.835296630859375,-0.020782470703125,-0.8728361129760742,-0.6202659010887146,-0.16667526960372925
224,1.0119,0.8356,0,0,-0.03387451171875,0.9331207275390625,-0.10205078125,-0.9484464526176453,0.2336455136537552,-0.13932833075523376
225,1.0444,0.8317,0,0,0.0210113525390625,1.09771728515625,-0.08111572265625,-0.903104305267334,0.8681742548942566,-0.17853058874607086
226,1.0808,0.8359,0,0,0.123931884765625,1.1310577392578125,-0.0316925048828125,-0.7434853315353394,0.9182169437408447,-0.2641829252243042
227,1.1192,0.8574,0,0,0.26458740234375,1.1597900390625,-0.0513916015625,-0.5876699090003967,0.8767451047897339,-0.2793616056442261
228,1.1578,0.9069,0,0,0.35430908203125,1.2094268798828125,-0.1242828369140625,-0.3340243101119995,0.8840197920799255,-0.20913749933242798
229,1.1946,0.9947,0,0,0.247528076171875,1.206695556640625,-0.22442626953125,-0.0920468345284462,0.6109296679496765,-0.005170793738216162
230,1.228,1.1282,0,0,0.1909027099609375,1.2480621337890625,-0.2526397705078125,0.22736497223377228,0.130304217338562,0.287102609872818
231,1.2569,1.3101,0,0,0.195709228515625,1.312225341796875,-0.1959686279296875,0.6067432165145874,-0.15640053153038025,0.5283083319664001
232,1.2799,1.5372,0,0,0.09478759765625,1.1739349365234375,-0.08349609375,0.9645963907241821,-0.16984602808952332,0.39932554960250854
233,1.2958,1.8,0,0,0.0098419189453125,1.112945556640625,-0.00341796875,1.3362807035446167,-0.2641181945800781,0.20154856145381927
234,1.3035,2.0833,0,0,-0.0689544677734375,1.0852813720703125,-0.0409698486328125,2.1522886753082275,-0.8640192151069641,0.03741421550512314
235,1.3015,2.3683,0,0,0.114044189453125,1.1402740478515625,0.216461181640625,2.2830183506011963,-1.6630103588104248,0.3492932915687561
236,1.2885,2.6345,0,0,0.1198883056640625,1.262451171875,0.1797637939453125,2.326476573944092,-1.3841369152069092,0.905417799949646
237,1.2635,2.8621,0,0,-0.0861968994140625,1.430511474609375,0.1538543701171875,2.438734531402588,0.08077660202980042,0.7589114308357239
238,1.2262,3.0347,0,0,-0.292083740234375,1.479522705078125,0.14013671875,2.307788848876953,2.301603317260742,0.025780463591217995
239,1.1772,3.1409,0,0,-0.4146575927734375,1.3748779296875,-0.23583984375,2.8438472747802734,3.302429676055908,-0.6020853519439697
240,1.1182,3.1752,0,0,-0.1766357421875,1.083770751953125,-0.0363616943359375,3.0161569118499756,1.9011014699935913,-0.5310947895050049
241,1.0519,3.1385,0,0,-0.0208282470703125,0.87164306640625,-0.063323974609375,2.8138558864593506,0.13220436871051788,-0.031315580010414124
242,0.9818,3.0373,0,0,0.011077880859375,0.7824249267578125,0.0900726318359375,2.059269428253174,-1.7143415212631226,0.11692901700735092
243,0.9119,2.8821,0,0,0.137603759765625,0.7881622314453125,-0.11761474609375,1.5744632482528687,-2.2109761238098145,0.4424562454223633
244,0.846,2.6864,0,0,0.04278564453125,0.7893524169921875,-0.1240692138671875,1.382199764251709,-1.6394786834716797,0.4301260709762573
245,0.788,2.4643,0,0,-0.003326416015625,0.8296356201171875,-0.071929931640625,1.3490023612976074,-1.5371280908584595,0.08514712005853653
246,0.7413,2.2296,0,0,0.048736572265625,0.8604736328125,-0.0312652587890625,1.1993324756622314,-1.673964262008667,-0.08618468791246414
247,0.7088,1.9947,0,0,4.57763671875e-05,0.8078460693359375,-0.0135345458984375,1.025790810585022,-1.8457642793655396,0.049074068665504456
248,0.6927,1.7702,0,0,-0.131683349609375,0.7149810791015625,0.000701904296875,0.7932630181312561,-2.1843039989471436,0.13013537228107452
249,0.6945,1.5643,0,0,-0.24505615234375,0.622344970703125,-0.04962158203125,0.533489465713501,-1.9982060194015503,0.06370095163583755
250,0.7149,1.3834,0,0,-0.30792236328125,0.5861053466796875,-0.1350555419921875,0.2429117113351822,-1.425079107284546,0.048584580421447754
251,0.7533,1.2316,0,0,-0.3542022705078125,0.5773773193359375,-0.2337188720703125,-0.0813388004899025,-0.626441240310669,0.11773356050252914
252,0.8082,1.1107,0,0,-0.3593597412109375,0.579498291015625,-0.309661865234375,-0.5515995025634766,-0.0226746853441,0.1637125015258789
253,0.8768,1.0207,0,0,-0.30804443359375,0.59979248046875,-0.4688873291015625,-0.8632295727729797,0.15509851276874542,0.015213840641081333
254,0.9552,0.9595,0,0,-0.212127685546875,0.7188720703125,-0.5705718994140625,-1.0101712942123413,0.4796028137207031,-0.1960723102092743
255,1.0386,0.9244,0,0,-0.1229400634765625,0.8607940673828125,-0.59503173828125,-1.1017686128616333,0.7953826189041138,-0.2194782942533493
256,1.1218,0.9116,0,0,-0.134368896484375,0.952880859375,-0.641876220703125,-0.9719706773757935,0.6123864054679871,-0.22383709251880646
257,1.1994,0.9179,0,0,-0.081787109375,0.98699951171875,-0.641387939453125,-0.8405964374542236,0.08930511027574539,-0.2640654742717743
258,1.266,0.9402,0,0,-0.0453033447265625,0.9837799072265625,-0.6350860595703125,-0.9328060150146484,-0.23620560765266418,-0.1743805855512619
259,1.3172,0.9761,0,0,-0.0504913330078125,0.9840087890625,-0.7070770263671875,-1.1567469835281372,-0.3870811462402344,-0.02087412215769291
260,1.3498,1.0236,0,0,0.0626678466796875,1.1038360595703125,-0.841888427734375,-1.0379313230514526,-0.3953784704208374,0.18450859189033508
261,1.3621,1.0806,0,0,0.1851348876953125,1.3266754150390625,-0.79718017578125,-0.4945748448371887,-0.006421680096536875,0.37651532888412476
262,1.3542,1.1452,0,0,0.046875,1.4569549560546875,-0.8270721435546875,0.16619376838207245,-0.19872215390205383,0.16917385160923004
263,1.3281,1.2148,0,0,-0.1188201904296875,1.3313140869140625,-0.38372802734375,-0.37886208295822144,-0.19569067656993866,-0.03446343541145325
264,1.2875,1.2867,0,0,-0.347137451171875,1.08282470703125,0.344696044921875,-2.1848320960998535,0.2154414802789688,-0.4307790994644165
265,1.2369,1.358,0,0,-0.504547119140625,0.9742584228515625,0.5063323974609375,-3.062870979309082,0.86724454164505,-0.8574491739273071
266,1.1818,1.4261,0,0,-0.638214111328125,1.0505828857421875,-0.085296630859375,-1.2604539394378662,0.7135314345359802,-1.061562418937683
267,1.1273,1.4883,0,0,-0.27783203125,0.9586029052734375,0.1065673828125,0.19623155891895294,-0.31519177556037903,-0.21293143928050995
268,1.0777,1.5416,0,0,-0.2132110595703125,0.8041839599609375,0.027923583984375,0.6324149966239929,-0.4120085835456848,0.1327713578939438
269,1.0359,1.5826,0,0,-0.1714019775390625,0.7872772216796875,0.1940460205078125,0.0964338630437851,0.19425202906131744,-0.1400953233242035
270,1.0036,1.6074,0,0,-0.0095672607421875,0.89483642578125,0.25531005859375,-0.8254419565200806,1.0269436836242676,-0.059306997805833817
271,0.9806,1.612,0,0,0.0546417236328125,1.036224365234375,0.226226806640625,-1.4224454164505005,1.419715404510498,0.3137635290622711
272,0.9658,1.5938,0,0,0.128387451171875,1.1032562255859375,0.2469940185546875,-1.8302209377288818,1.411273717880249,0.8039393424987793
273,0.9571,1.5522,0,0,0.1966400146484375,1.038421630859375,0.271148681640625,-2.050344228744507,0.9583174586296082,1.3518109321594238
274,0.9522,1.4897,0,0,0.1875762939453125,0.91265869140625,0.032501220703125,-1.6458995342254639,0.6167982220649719,1.545146107673645
275,0.9491,1.412,0,0,0.035919189453125,0.8340911865234375,-0.450225830078125,0.06770474463701248,1.1055599451065063,1.014309048652649
276,0.9461,1.3271,0,0,0.0263214111328125,0.9905548095703125,-0.1689605712890625,0.21304357051849365,0.30899032950401306,0.2463352084159851
277,0.9423,1.2439,0,0,0.03515625,0.9662017822265625,-0.1240386962890625,-0.5435266494750977,-0.050154514610767365,-0.04950390383601189
278,0.9377,1.1707,0,0,0.0484466552734375,0.9776611328125,0.010009765625,-1.0960332155227661,-0.17532788217067719,0.16602598130702972
279,0.9327,1.1131,0,0,0.0422821044921875,0.992034912109375,0.0999298095703125,-1.0208452939987183,-0.15599572658538818,0.1498110592365265
280,0.9284,1.0739,0,0,0.04278564453125,0.8593597412109375,0.0892333984375,-0.6306666135787964,0.2825416922569275,0.015206117182970047
281,0.9261,1.0521,0,0,0.034942626953125,0.7811737060546875,0.0358734130859375,-0.42540350556373596,0.7600805759429932,-0.07354239374399185
282,0.927,1.0434,0,0,0.057281494140625,0.8484954833984375,-0.0519256591796875,-0.5719641447067261,0.40522658824920654,-0.1320296674966812
283,0.9322,1.0417,0,0,0.0843505859375,0.9795379638671875,-0.039794921875,-0.8906598687171936,-0.6754905581474304,-0.2250767946243286
284,0.9423,1.0399,0,0,0.0791168212890625,0.9681396484375,-0.0078125,-0.9798842668533325,-1.2540721893310547,-0.14232757687568665
285,0.9572,1.0321,0,0,0.0224151611328125,0.9509429931640625,0.024383544921875,-0.8802673816680908,-1.1259163618087769,-0.1323561817407608
286,0.9765,1.0144,0,0,-0.0137786865234375,0.916473388671875,0.0181884765625,-0.8382754921913147,-0.6215232014656067,-0.17424024641513824
287,0.9996,0.9864,0,0,-0.048126220703125,0.9239349365234375,-0.013671875,-0.9127095341682434,0.26738137006759644,-0.15681783854961395
288,1.0253,0.9515,0,0,-0.078033447265625,1.054962158203125,-0.0432891845703125,-0.9638592600822449,0.8250622153282166,-0.25257793068885803
289,1.0523,0.9165,0,0,0.008575439453125,1.1400604248046875,-0.054290771484375,-0.7083310484886169,0.8458132743835449,-0.3050198256969452
290,1.0796,0.8911,0,0,0.10528564453125,1.1251220703125,-0.0508575439453125,-0.29363587498664856,0.8398840427398682,-0.2894720137119293
291,1.1063,0.8861,0,0,0.1875152587890625,1.1586761474609375,-0.0067596435546875,-0.10547502338886261,0.7344079613685608,-0.2388855516910553
292,1.1316,0.9123,0,0,0.165618896484375,1.111083984375,-0.0369873046875,-0.12549613416194916,0.7039387226104736,-0.057977281510829926
293,1.1552,0.978,0,0,0.121337890625,1.08880615234375,-0.127166748046875,-0.10796721279621124,0.812557578086853,0.14024898409843445
294,1.1767,1.0886,0,0,0.1492919921875,1.1734619140625,-0.124237060546875,0.058932825922966,0.9163566827774048,0.23397015035152435
295,1.1961,1.2442,0,0,0.2202606201171875,1.25177001953125,-0.1424102783203125,0.22848163545131683,0.9526209831237793,0.2795208692550659
296,1.2129,1.4402,0,0,0.17919921875,1.1904144287109375,-0.0619659423828125,0.605276882648468,0.46579113602638245,0.23963363468647003
297,1.2267,1.6668,0,0,0.182464599609375,1.0829010009765625,-0.1082916259765625,1.217669129371643,-0.007605188991874456,0.24254925549030304
298,1.2365,1.9105,0,0,0.1258392333984375,1.093719482421875,-0.0478057861328125,1.940789818763733,-0.46441933512687683,0.2814151644706726
299,1.2411,2.1552,0,0,0.0930938720703125,1.2032318115234375,0.1253662109375,2.212266683578491,-1.3950577974319458,0.5160990357398987
300,1.2392,2.3845,0,0,0.0748291015625,1.1855621337890625,0.09722900390625,2.330167055130005,-1.6870843172073364,0.762789249420166
301,1.2292,2.5837,0,0,-0.0468292236328125,1.259613037109375,0.101287841796875,2.2885658740997314,-0.527797520160675,0.71990567445755
302,1.2101,2.7409,0,0,-0.2161102294921875,1.3240509033203125,0.1315460205078125,2.105550527572632,1.5149236917495728,0.28947335481643677
303,1.181,2.8487,0,0,-0.3117218017578125,1.345489501953125,0.017242431640625,2.0850226879119873,3.150805950164795,-0.12760163843631744
304,1.1422,2.9043,0,0,-0.33697509765625,1.14990234375,-0.1039886474609375,2.6110615730285645,2.2082602977752686,-0.2754528820514679
305,1.0944,2.9089,0,0,-0.1658477783203125,0.933319091796875,-0.0545806884765625,2.587087392807007,0.3752974569797516,-0.17097094655036926
306,1.0395,2.8672,0,0,-0.1766510009765625,0.829925537109375,0.0739898681640625,2.2699027061462402,-0.8431873917579651,-0.26737311482429504
307,0.9799,2.7856,0,0,0.1121368408203125,0.9116363525390625,-0.030364990234375,1.733236312866211,-1.6885287761688232,0.038009434938430786
308,0.9188,2.6716,0,0,0.173370361328125,0.97283935546875,-0.125091552734375,1.5902293920516968,-1.4123153686523438,0.5087857246398926
309,0.8599,2.532,0,0,0.1051788330078125,0.9605712890625,-0.0476837158203125,1.360228419303894,-1.1852686405181885,0.5482351183891296
310,0.8071,2.3727,0,0,0.1126251220703125,0.93359375,-0.0440216064453125,1.2348347902297974,-1.7802187204360962,0.45179542899131775
311,0.7644,2.199,0,0,0.11083984375,0.8109588623046875,-0.02349853515625,1.0951459407806396,-2.3074018955230713,0.46885669231414795
312,0.7359,2.0156,0,0,-0.03656005859375,0.7091827392578125,-0.00384521484375,0.9197908639907837,-2.6053876876831055,0.30947715044021606
313,0.7248,1.8275,0,0,-0.147003173828125,0.65484619140625,-0.030731201171875,0.6828499436378479,-2.525754451751709,0.03371535241603851
314,0.7334,1.6403,0,0,-0.2554168701171875,0.622650146484375,-0.05364990234375,0.3288732171058655,-1.8577319383621216,-0.08817672729492188
315,0.7626,1.4603,0,0,-0.4116058349609375,0.581939697265625,-0.1193695068359375,0.012459865771234035,-0.8643592596054077,-0.1362353414297104
316,0.8117,1.294,0,0,-0.4961090087890625,0.5159149169921875,-0.169219970703125,-0.3484219014644623,-0.1162075623869896,-0.16111138463020325
317,0.8785,1.1481,0,0,-0.504638671875,0.49505615234375,-0.345947265625,-0.6907544732093811,0.43702074885368347,-0.11862731724977493
318,0.9589,1.0283,0,0,-0.4315643310546875,0.6089935302734375,-0.49285888671875,-1.0025246143341064,0.7086644768714905,-0.26479917764663696
319,1.0474,0.9396,0,0,-0.26434326171875,0.8076019287109375,-0.5742340087890625,-1.0955182313919067,1.1670317649841309,-0.44701769948005676
320,1.1381,0.8858,0,0,-0.14495849609375,0.9952239990234375,-0.7021331787109375,-0.7646979093551636,1.2195701599121094,-0.45172643661499023
321,1.2242,0.8695,0,0,0.0522308349609375,1.027862548828125,-0.791900634765625,-0.25584349036216736,0.1386156678199768,-0.23866291344165802
322,1.2996,0.8916,0,0,0.26251220703125,0.978515625,-0.7556915283203125,-0.15863172709941864,-0.5201464891433716,0.11921986937522888
323,1.3591,0.9511,0,0,0.376495361328125,1.0682830810546875,-0.7194061279296875,-0.5954508781433105,-0.28292757272720337,0.4024084210395813
324,1.3987,1.0449,0,0,0.40533447265625,1.255889892578125,-0.6425323486328125,-1.2130125761032104,0.24401798844337463,0.5458164811134338
325,1.4165,1.1679,0,0,0.30389404296875,1.1841583251953125,-0.8786163330078125,-0.7082021832466125,0.2076685130596161,0.4365626871585846
326,1.4123,1.3131,0,0,0.190826416015625,1.143798828125,-0.979217529296875,0.4324827194213867,-0.38879114389419556,0.4283420145511627
327,1.3882,1.4723,0,0,-0.188140869140625,1.26416015625,-0.33819580078125,-0.5379462838172913,-0.3214975893497467,-0.0892755538225174
328,1.3477,1.6367,0,0,-0.518463134765625,1.2064361572265625,0.4546051025390625,-2.779451370239258,-0.25180932879447937,-0.84027099609375
329,1.2958,1.7979,0,0,-0.764495849609375,1.24456787109375,0.4163360595703125,-3.295257091522217,0.2014545500278473,-1.6879469156265259
330,1.2382,1.9484,0,0,-0.7532958984375,1.17120361328125,-0.244903564453125,-0.7734706401824951,-0.28196510672569275,-1.532585859298706
331,1.1805,2.0819,0,0,-0.5595855712890625,0.8089447021484375,-0.0085906982421875,1.020950198173523,-1.1531234979629517,-0.5024242401123047
332,1.1277,2.1929,0,0,-0.330322265625,0.592498779296875,-0.1313934326171875,1.2917108535766602,-0.4925670921802521,-0.1898450404405594
333,1.0833,2.2766,0,0,-0.2715301513671875,0.696075439453125,0.2408905029296875,-0.012710202485322952,0.6344017386436462,-0.6320847868919373
334,1.0492,2.3283,0,0,-0.1209869384765625,0.9464263916015625,0.4153289794921875,-1.4710338115692139,1.497270107269287,-0.4905841052532196
335,1.0255,2.3442,0,0,0.004058837890625,1.109344482421875,0.3016204833984375,-2.1247029304504395,1.8785799741744995,0.1898636817932129
336,1.0109,2.3217,0,0,0.066070556640625,1.1602935791015625,0.252593994140625,-2.2922990322113037,1.6527827978134155,0.9436210989952087
337,1.0033,2.2605,0,0,0.111572265625,1.0728912353515625,0.27020263671875,-2.1371827125549316,1.2402464151382446,1.5021251440048218
338,0.9997,2.1633,0,0,0.1675262451171875,0.94171142578125,0.2849578857421875,-1.8422541618347168,1.0151722431182861,1.7025277614593506
339,0.9975,2.0358,0,0,0.1654205322265625,0.8695831298828125,0.217071533203125,-1.484409213066101,0.42583972215652466,1.496372938156128
340,0.9947,1.8864,0,0,-0.05938720703125,0.86328125,-0.7165985107421875,-0.03157523646950722,0.7552325129508972,0.6539570689201355
341,0.9898,1.7253,0,0,-0.0523681640625,1.00030517578125,-0.4219970703125,0.9555935859680176,1.773038387298584,-0.11881054192781448
342,0.9824,1.563,0,0,0.0550689697265625,1.0016021728515625,0.11376953125,-0.5648884177207947,1.2398591041564941,0.13893525302410126
343,0.9729,1.4092,0,0,0.0205230712890625,0.968414306640625,0.1508941650390625,-1.3028119802474976,0.8371108770370483,0.14578969776630402
344,0.9625,1.2713,0,0,0.055145263671875,0.9281463623046875,0.0844573974609375,-0.9212454557418823,0.6541855335235596,0.05274896323680878
345,0.9529,1.1538,0,0,0.06134033203125,0.8199310302734375,-0.0379180908203125,-0.28171876072883606,0.5738866925239563,-0.2224426567554474
346,0.9458,1.058,0,0,0.15185546875,0.8951568603515625,-0.0770416259765625,-0.2285410314798355,0.4924946427345276,-0.35902315378189087
347,0.943,0.9821,0,0,0.1930999755859375,0.959930419921875,-0.039703369140625,-0.6151849031448364,0.13151061534881592,-0.2596534192562103
348,0.9455,0.9218,0,0,0.1799774169921875,0.9372406005859375,-0.003662109375,-0.8348948955535889,-0.414237380027771,-0.10099878907203674
349,0.9542,0.8719,0,0,0.1032562255859375,0.924163818359375,0.0210723876953125,-0.8357800841331482,-0.8028314709663391,-0.04190217703580856
350,0.9691,0.8278,0,0,0.057952880859375,0.88201904296875,0.0411376953125,-0.9966933727264404,-0.7964712977409363,0.013610350899398327
351,0.9897,0.7865,0,0,-0.0661163330078125,0.9483795166015625,-0.0632781982421875,-1.213712453842163,-0.45475900173187256,-0.12376002222299576
352,1.0149,0.7481,0,0,-0.1036224365234375,0.9928131103515625,-0.1215667724609375,-1.007777452468872,-0.08863053470849991,-0.34389159083366394
353,1.0433,0.7159,0,0,0.005096435546875,1.0850982666015625,-0.0313262939453125,-0.4927079677581787,0.09123457223176956,-0.3702198565006256
354,1.0734,0.6962,0,0,0.061767578125,1.1443023681640625,0.0086669921875,-0.2885367274284363,0.34754490852355957,-0.34635475277900696
355,1.1038,0.6973,0,0,0.12261962890625,1.17999267578125,-0.0228271484375,-0.3916143774986267,0.6988491415977478,-0.22606535255908966
356,1.133,0.7284,0,0,0.1470184326171875,1.1808013916015625,-0.044281005859375,-0.44875890016555786,0.7875963449478149,-0.09076612442731857
357,1.1603,0.7973,0,0,0.1345672607421875,1.1063079833984375,-0.10198974609375,-0.29802608489990234,0.7172835469245911,-0.021313544362783432
358,1.1849,0.9098,0,0,0.133087158203125,1.0893096923828125,-0.1419677734375,-0.07617439329624176,0.5981723666191101,0.021144166588783264
359,1.2064,1.0672,0,0,0.17694091796875,1.2294464111328125,-0.124481201171875,0.14223304390907288,0.5310923457145691,0.0787467435002327
360,1.2243,1.2665,0,0,0.1955108642578125,1.2715301513671875,-0.107421875,0.4100370705127716,0.37748950719833374,0.20806877315044403
361,1.2383,1.4993,0,0,0.16912841796875,1.25115966796875,-0.032989501953125,0.8962186574935913,-0.21973635256290436,0.28738436102867126
362,1.2479,1.7534,0,0,0.0567169189453125,1.115875244140625,-0.095367431640625,1.5999773740768433,-0.647939920425415,0.14153368771076202
363,1.2523,2.0134,0,0,0.051910400390625,1.1781158447265625,0.0246124267578125,2.2955965995788574,-1.276383876800537,0.1858377754688263
364,1.2504,2.2634,0,0,0.070953369140625,1.1353759765625,0.1466827392578125,2.517902374267578,-1.9254915714263916,0.42667728662490845
365,1.2412,2.4882,0,0,0.01458740234375,1.144805908203125,0.183746337890625,2.4370949268341064,-1.3543894290924072,0.5725977420806885
366,1.2235,2.6754,0,0,-0.1466217041015625,1.2527923583984375,0.255279541015625,2.073887586593628,0.1874801516532898,0.37170350551605225
367,1.1965,2.8165,0,0,-0.312103271484375,1.32470703125,0.142852783203125,1.916129231452942,1.9184414148330688,-0.05356815457344055
368,1.16,2.9069,0,0,-0.348785400390625,1.31597900390625,-0.10302734375,2.39176607131958,2.7733139991760254,-0.2451045662164688
369,1.1143,2.9462,0,0,-0.230133056640625,1.10723876953125,0.0080413818359375,2.813188076019287,1.4583302736282349,-0.10858133435249329
370,1.0608,2.9372,0,0,-0.144256591796875,0.8856658935546875,-0.01708984375,2.7465572357177734,0.03577983379364014,0.10575039684772491
371,1.0017,2.8853,0,0,-0.0896148681640625,0.8412628173828125,0.0921630859375,2.3035168647766113,-1.1185190677642822,-0.01500904280692339
372,0.9397,2.7967,0,0,0.1617889404296875,0.9022979736328125,-0.1200714111328125,1.9235974550247192,-1.4229322671890259,0.30376413464546204
373,0.8783,2.6781,0,0,0.138275146484375,0.9311981201171875,-0.0809478759765625,1.5726932287216187,-1.247574806213379,0.5828964710235596
374,0.8212,2.5357,0,0,0.0951385498046875,0.9386444091796875,-0.092681884765625,1.3087689876556396,-1.4511308670043945,0.6172760128974915
375,0.7726,2.3751,0,0,0.087799072265625,0.8602447509765625,-0.034149169921875,1.1216245889663696,-2.048614025115967,0.5853950381278992
376,0.7362,2.2014,0,0,0.01544189453125,0.7593994140625,0.0156097412109375,0.8782990574836731,-2.5846481323242188,0.5175781846046448
377,0.7156,2.0201,0,0,-0.111358642578125,0.665283203125,0.029388427734375,0.6334112882614136,-2.767892599105835,0.29385027289390564
378,0.7135,1.8374,0,0,-0.2558746337890625,0.595947265625,0.0049896240234375,0.41331222653388977,-2.307373046875,-0.035536687821149826
379,0.7316,1.6605,0,0,-0.3332672119140625,0.5726318359375,-0.0703582763671875,0.11796285212039948,-1.6466045379638672,-0.13188906013965607
380,0.77,1.4973,0,0,-0.419677734375,0.560302734375,-0.1674652099609375,-0.2226589024066925,-0.9783532023429871,-0.03696254640817642
381,0.8275,1.3554,0,0,-0.4790802001953125,0.5410614013671875,-0.266754150390625,-0.6481518745422363,-0.1336723119020462,0.02714373730123043
382,0.9009,1.2422,0,0,-0.474822998046875,0.604583740234375,-0.41357421875,-1.0038237571716309,0.5539015531539917,-0.06000794470310211
383,0.986,1.1632,0,0,-0.36602783203125,0.7500762939453125,-0.4762420654296875,-1.2561193704605103,0.9801892042160034,-0.2803989052772522
384,1.0772,1.1221,0,0,-0.251861572265625,0.91455078125,-0.558349609375,-1.0732086896896362,1.05882728099823,-0.36030012369155884
385,1.1685,1.1199,0,0,-0.1919708251953125,1.03778076171875,-0.63531494140625,-0.5318050384521484,0.5974698066711426,-0.3682054579257965
386,1.2535,1.1554,0,0,-0.0456695556640625,1.0113372802734375,-0.698333740234375,-0.03850105404853821,-0.4456981122493744,-0.24964818358421326
387,1.3265,1.2248,0,0,0.2039947509765625,0.9827423095703125,-0.7691802978515625,0.09604557603597641,-1.3695130348205566,0.10856695473194122
388,1.3826,1.322,0,0,0.5329132080078125,1.0808258056640625,-0.792022705078125,-0.21526437997817993,-0.6702425479888916,0.7755178213119507
389,1.4181,1.4395,0,0,0.459075927734375,1.1790771484375,-0.64703369140625,-0.8539766669273376,1.3899437189102173,1.124870777130127
390,1.4315,1.5691,0,0,0.25,1.031158447265625,-1.033233642578125,-0.4118245840072632,1.246948480606079,0.7223547697067261
391,1.4228,1.7023,0,0,0.1075439453125,1.1930084228515625,-0.8663482666015625,-0.23476803302764893,-0.35258015990257263,0.2876448333263397
392,1.3944,1.832,0,0,-0.1557464599609375,1.3896331787109375,0.035003662109375,-1.9230648279190063,-0.847446620464325,-0.3414260447025299
393,1.3501,1.9526,0,0,-0.5185699462890625,1.321929931640625,0.6764984130859375,-3.6714813709259033,-0.6701011061668396,-0.9955244660377502
394,1.2951,2.0605,0,0,-0.7998046875,1.326202392578125,0.1032562255859375,-2.6037847995758057,0.13649046421051025,-1.5775173902511597
395,1.2357,2.1542,0,0,-0.863922119140625,1.05291748046875,-0.1436767578125,0.24689660966396332,0.025415344163775444,-1.2754802703857422
396,1.1775,2.2333,0,0,-0.5418243408203125,0.6592559814453125,0.0521697998046875,1.379508137702942,-0.953762948513031,-0.6551245450973511
397,1.1258,2.2973,0,0,-0.241363525390625,0.4456939697265625,-0.294708251953125,1.6150619983673096,-1.1044487953186035,-0.3402648866176605
398,1.0839,2.3452,0,0,-0.223785400390625,0.7060546875,0.327056884765625,-0.05515752732753754,0.1650366187095642,-0.6642011404037476
399,1.0535,2.3742,0,0,-0.0877532958984375,1.0029754638671875,0.40496826171875,-1.606506586074829,1.2568660974502563,-0.4045754373073578
400,1.0341,2.3805,0,0,0.019439697265625,1.1846160888671875,0.2858123779296875,-2.2510499954223633,1.5131117105484009,0.3191806674003601
401,1.024,2.3601,0,0,0.06365966796875,1.180755615234375,0.2365875244140625,-2.414294719696045,1.483668565750122,0.9800353050231934
402,1.02,2.3099,0,0,0.1429901123046875,1.0548858642578125,0.2515716552734375,-2.29013991355896,1.195707082748413,1.478957176208496
403,1.0189,2.2291,0,0,0.144866943359375,0.9388885498046875,0.2147369384765625,-2.0066823959350586,1.1393386125564575,1.6178088188171387
404,1.0176,2.1201,0,0,0.0467376708984375,0.9046783447265625,0.06689453125,-1.4290722608566284,1.0156723260879517,1.220223069190979
405,1.0137,1.9884,0,0,-0.1601409912109375,0.8207244873046875,-0.9811859130859375,0.9004853367805481,2.1753032207489014,0.27097371220588684
406,1.0058,1.842,0,0,-0.003997802734375,1.02545166015625,-0.14471435546875,0.6618050932884216,1.6274023056030273,0.014217818155884743
407,0.9939,1.69,0,0,0.0343780517578125,1.0430755615234375,0.165863037109375,-0.9342861771583557,0.6020525693893433,0.17229481041431427
408,0.9788,1.5415,0,0,0.0453338623046875,1.0243072509765625,0.1271514892578125,-1.4131529331207275,0.3229873776435852,0.2038538008928299
409,0.9626,1.4037,0,0,0.0104522705078125,0.923309326171875,0.011962890625,-0.9384105801582336,0.4981144368648529,0.06451081484556198
410,0.9477,1.2809,0,0,0.0172119140625,0.8051910400390625,-0.0880889892578125,-0.34289291501045227,0.8719018697738647,-0.12745197117328644
411,0.9365,1.1741,0,0,0.0610809326171875,0.79754638671875,-0.127349853515625,-0.26871293783187866,0.8804599642753601,-0.14163276553153992
412,0.9313,1.0812,0,0,0.04241943359375,0.9466094970703125,-0.034942626953125,-0.5949882864952087,0.30121204257011414,-0.21256525814533234
413,0.9336,0.9977,0,0,0.0618743896484375,0.984649658203125,0.058563232421875,-0.8268561363220215,-0.4337676763534546,-0.19467680156230927
414,0.9441,0.9182,0,0,0.045745849609375,0.9337310791015625,0.0603790283203125,-0.8942708373069763,-0.7078309059143066,-0.1260008066892624
415,0.9626,0.8384,0,0,0.0024871826171875,0.8693695068359375,-0.0110931396484375,-1.0778976678848267,-0.5948596596717834,-0.10321853309869766
416,0.9879,0.7562,0,0,-0.0343017578125,0.9084930419921875,-0.066375732421875,-1.2498515844345093,-0.2674168050289154,-0.13531494140625
417,1.0182,0.6732,0,0,-0.0217437744140625,0.9705963134765625,-0.0600128173828125,-1.056138038635254,0.03861556947231293,-0.21171198785305023
418,1.0512,0.5952,0,0,0.02960205078125,1.078857421875,-0.015289306640625,-0.6541173458099365,0.32343584299087524,-0.23638564348220825
419,1.0845,0.5318,0,0,0.1141357421875,1.161468505859375,-0.0070648193359375,-0.4501911401748657,0.5268494486808777,-0.17321865260601044
420,1.116,0.4954,0,0,0.149261474609375,1.21453857421875,-0.01324462890625,-0.35527315735816956,0.5138098001480103,-0.17648261785507202
421,1.1442,0.4989,0,0,0.1912078857421875,1.263214111328125,-0.0269012451171875,-0.24470748007297516,0.25974157452583313,-0.0905916839838028
422,1.168,0.554,0,0,0.121307373046875,1.1918792724609375,-0.1004638671875,-0.15635818243026733,0.1311636120080948,0.14452096819877625
423,1.1873,0.6687,0,0,0.041839599609375,1.1587066650390625,-0.099212646484375,0.050027213990688324,0.16072629392147064,0.2144281417131424
424,1.2023,0.8458,0,0,0.064605712890625,1.2030181884765625,-0.0353851318359375,0.2556847631931305,0.20317628979682922,0.26306837797164917
425,1.2135,1.0813,0,0,0.077667236328125,1.1718292236328125,-0.00860595703125,0.46488726139068604,0.27908650040626526,0.22407065331935883
426,1.2216,1.3646,0,0,0.05438232421875,1.1788482666015625,-0.0099334716796875,0.8383561968803406,-0.07394266873598099,0.17146070301532745
427,1.2267,1.6793,0,0,0.0195770263671875,1.1304779052734375,-0.1231689453125,1.655734658241272,-0.3146229088306427,0.043773312121629715
428,1.2287,2.0046,0,0,0.0544891357421875,1.162139892578125,0.072174072265625,2.2792751789093018,-0.9193660616874695,0.17314888536930084
429,1.2268,2.318,0,0,-0.0028076171875,1.105133056640625,0.1492919921875,2.461197853088379,-1.4080636501312256,0.4170398414134979
430,1.2197,2.5976,0,0,-0.070159912109375,1.1148223876953125,0.16217041015625,2.461636543273926,-0.6747946739196777,0.4748075306415558
431,1.2059,2.8247,0,0,-0.1804656982421875,1.2014007568359375,0.2406768798828125,2.134673595428467,1.0372663736343384,0.34852683544158936
432,1.1838,2.9855,0,0,-0.31640625,1.3189544677734375,0.0960693359375,2.1027870178222656,2.985335111618042,0.022129537537693977
433,1.1525,3.0724,0,0,-0.390045166015625,1.298614501953125,-0.1971282958984375,2.813162088394165,3.126784324645996,-0.24976348876953125
434,1.1117,3.0843,0,0,-0.178009033203125,1.084014892578125,0.021392822265625,2.9374239444732666,1.4334328174591064,-0.11682941764593124
435,1.0619,3.0261,0,0,-0.1553192138671875,0.973876953125,-0.01165771484375,2.743072032928467,-0.38738900423049927,-0.004565989598631859
436,1.0049,2.9072,0,0,-0.0103912353515625,0.901336669921875,0.041534423828125,2.116939067840576,-1.3268566131591797,-0.0605352483689785
437,0.9433,2.7401,0,0,0.1567230224609375,0.9395904541015625,-0.2158355712890625,1.9678951501846313,-0.7760826945304871,0.3919014632701874
438,0.8806,2.5381,0,0,0.032989501953125,0.8870391845703125,-0.11346435546875,1.6614912748336792,-0.5482455492019653,0.5105553865432739
439,0.8208,2.3144,0,0,0.0066680908203125,0.89959716796875,-0.0955047607421875,1.3640353679656982,-1.32444429397583,0.39231690764427185
440,0.7682,2.0807,0,0,0.014495849609375,0.826171875,-0.0701904296875,1.1126625537872314,-1.7631298303604126,0.443038672208786
441,0.7272,1.8472,0,0,-0.068572998046875,0.7374267578125,0.008392333984375,0.8185694217681885,-1.9137099981307983,0.45389506220817566
442,0.7016,1.6229,0,0,-0.1502532958984375,0.627532958984375,0.0216064453125,0.5193741917610168,-2.1880407333374023,0.272941529750824
443,0.6945,1.4162,0,0,-0.2228240966796875,0.55535888671875,-0.0657501220703125,0.4069238305091858,-1.9452202320098877,0.059185028076171875
444,0.7076,1.2348,0,0,-0.277618408203125,0.5605926513671875,-0.1649627685546875,0.33499476313591003,-1.3051211833953857,-0.06157920882105827
445,0.7414,1.0859,0,0,-0.317413330078125,0.58050537109375,-0.2368927001953125,0.00714712543413043,-0.8246304988861084,0.01870870590209961
446,0.7948,0.976,0,0,-0.3659210205078125,0.6356658935546875,-0.3956146240234375,-0.418342649936676,-0.29394081234931946,0.007860852405428886
447,0.8651,0.9106,0,0,-0.3050384521484375,0.673553466796875,-0.5055999755859375,-0.7444952130317688,0.09199916571378708,-0.14669756591320038
448,0.9483,0.893,0,0,-0.2167205810546875,0.6973876953125,-0.5252227783203125,-0.8867263793945312,0.3399602472782135,-0.3034650683403015
449,1.0394,0.9245,0,0,-0.2630767822265625,0.7976531982421875,-0.50921630859375,-0.8168021440505981,0.6982853412628174,-0.49783268570899963
450,1.1325,1.0038,0,0,-0.253265380859375,0.9194488525390625,-0.5390777587890625,-0.6826331615447998,0.69405597448349,-0.5706009268760681
451,1.2218,1.1267,0,0,-0.1831207275390625,0.910247802734375,-0.751068115234375,-0.4957948327064514,-0.46166348457336426,-0.4099920392036438
452,1.3014,1.2862,0,0,0.142242431640625,0.97454833984375,-0.9237060546875,-0.3831031620502472,-1.6643874645233154,0.05813946947455406
453,1.3664,1.4728,0,0,0.501708984375,1.2052154541015625,-0.86285400390625,-0.47264716029167175,-0.36190521717071533,0.7938116192817688
454,1.413,1.6749,0,0,0.2875213623046875,1.360809326171875,-0.719635009765625,-0.6030331254005432,1.3623738288879395,0.9182935953140259
455,1.4389,1.8791,0,0,0.3180999755859375,0.882965087890625,-1.0775299072265625,0.2397739738225937,0.4040529429912567,0.8026471734046936
456,1.4432,2.072,0,0,0.199432373046875,0.7079925537109375,-0.8524627685546875,0.1437627673149109,-0.9903760552406311,0.5395916104316711
457,1.4271,2.2412,0,0,-0.0827178955078125,1.10455322265625,0.097320556640625,-2.1334245204925537,-1.213552713394165,-0.22123225033283234
458,1.3927,2.3769,0,0,-0.41107177734375,1.2890472412109375,0.8201446533203125,-4.642521381378174,-0.201119527220726,-0.9128783345222473
459,1.3441,2.4729,0,0,-0.757720947265625,1.59185791015625,0.3466949462890625,-4.0263895988464355,0.626576840877533,-1.4745209217071533
460,1.2861,2.5277,0,0,-0.9063262939453125,1.610198974609375,-0.4163970947265625,0.08063199371099472,0.6092519164085388,-1.0695757865905762
461,1.2241,2.5435,0,0,-0.498687744140625,0.95977783203125,-0.0402984619140625,2.071410655975342,-0.43760716915130615,0.03719956800341606
462,1.1638,2.5254,0,0,-0.331085205078125,0.5756988525390625,0.004425048828125,2.294095039367676,-0.9949074387550354,0.03707732632756233
463,1.1097,2.4797,0,0,-0.2216949462890625,0.52374267578125,0.2517852783203125,0.7216034531593323,0.23376721143722534,-0.4825296401977539
464,1.0652,2.4126,0,0,-0.18353271484375,0.7845611572265625,0.4302520751953125,-1.1355161666870117,1.573703408241272,-0.710638701915741
465,1.032,2.3293,0,0,-0.128387451171875,1.03759765625,0.2557373046875,-1.912397861480713,1.4233653545379639,-0.2341376692056656
466,1.0101,2.2338,0,0,-0.040191650390625,1.219573974609375,0.219757080078125,-2.1991817951202393,1.0256173610687256,0.38970035314559937
467,0.9979,2.1296,0,0,0.1113433837890625,1.129241943359375,0.302764892578125,-2.332566738128662,0.6726348400115967,1.1212557554244995
468,0.993,2.0196,0,0,0.1658935546875,0.99346923828125,0.283782958984375,-2.356930732727051,0.4365999698638916,1.6692330837249756
469,0.9925,1.9074,0,0,0.07501220703125,0.8737640380859375,0.1170196533203125,-1.896532654762268,0.4840018153190613,1.5192161798477173
470,0.9934,1.7965,0,0,-0.0181121826171875,0.8089752197265625,0.00469970703125,-1.1947236061096191,0.4114200472831726,0.9076796174049377
471,0.9936,1.6907,0,0,-0.2440643310546875,0.8552398681640625,-0.910736083984375,0.5684341788291931,0.7467591762542725,-0.11607733368873596
472,0.9913,1.593,0,0,-0.022247314453125,1.0596923828125,-0.253936767578125,1.0168545246124268,0.9788895845413208,-0.36432603001594543
473,0.986,1.5048,0,0,0.077239990234375,1.034698486328125,0.08380126953125,-0.23197171092033386,0.9415595531463623,0.08385361731052399
474,0.978,1.4261,0,0,0.005157470703125,0.942626953125,0.1348419189453125,-1.041837453842163,1.0502785444259644,0.14351721107959747
475,0.9685,1.3545,0,0,0.0521240234375,0.9180450439453125,0.0858001708984375,-1.1190272569656372,1.1214743852615356,0.1126951202750206
476,0.9591,1.2867,0,0,0.066619873046875,0.89556884765625,0.0081634521484375,-0.7965948581695557,0.9699885249137878,0.1216108500957489
477,0.9519,1.2181,0,0,0.11614990234375,0.90032958984375,-0.1222991943359375,-0.6543130874633789,0.7160254716873169,-0.032278046011924744
478,0.9488,1.1448,0,0,0.184783935546875,0.8929595947265625,-0.1842193603515625,-0.9074732065200806,0.6208704710006714,-0.1898554265499115
479,0.9514,1.064,0,0,0.17401123046875,0.9451751708984375,-0.1556396484375,-1.0362894535064697,0.09589297324419022,-0.157875657081604
480,0.9605,0.9749,0,0,0.054595947265625,0.9224853515625,-0.02203369140625,-1.002555251121521,-0.8147733807563782,-0.11801265925168991
481,0.9764,0.8802,0,0,-0.0230712890625,0.899078369140625,-0.0531768798828125,-0.8268105983734131,-1.1124356985092163,-0.16548269987106323
482,0.9989,0.7853,0,0,-0.08526611328125,0.9315185546875,-0.0737457275390625,-0.6530241370201111,-0.6148993968963623,-0.2986964285373688
483,1.0267,0.6992,0,0,-0.051239013671875,1.035614013671875,-0.0081329345703125,-0.5269396901130676,-0.08394177258014679,-0.34592491388320923
484,1.0584,0.633,0,0,-0.0322265625,1.152801513671875,0.0057830810546875,-0.5183960199356079,0.327261745929718,-0.2665579319000244
485,1.0923,0.5988,0,0,0.003265380859375,1.1637420654296875,-0.0110321044921875,-0.5911807417869568,0.45543596148490906,-0.2294110804796219
486,1.1265,0.6084,0,0,0.0802764892578125,1.132720947265625,-0.0186004638671875,-0.4343421161174774,0.40885087847709656,-0.19274841248989105
487,1.1593,0.6713,0,0,0.0848846435546875,1.1024017333984375,-0.1114654541015625,-0.1729547381401062,0.5080832242965698,-0.08854983747005463
488,1.1893,0.793,0,0,0.101104736328125,1.1664886474609375,-0.0731048583984375,-0.025364212691783905,0.5439565181732178,0.07670596241950989
489,1.2152,0.974,0,0,0.20758056640625,1.356292724609375,-0.03448486328125,-0.06888692080974579,0.48520371317863464,0.2048918902873993
490,1.2362,1.209,0,0,0.19384765625,1.2679290771484375,-0.1046905517578125,0.19943773746490479,0.463960200548172,0.23203882575035095
491,1.2516,1.4868,0,0,0.081756591796875,1.1787109375,-0.125,0.9770663976669312,0.07422709465026855,0.20572227239608765
492,1.2607,1.7917,0,0,-0.0383758544921875,1.119659423828125,-0.0884246826171875,1.8952816724777222,-0.18888363242149353,0.1259898841381073
493,1.263,2.1046,0,0,-0.0269012451171875,1.2420501708984375,0.1413726806640625,2.401944398880005,-1.0794103145599365,0.14046843349933624
494,1.2578,2.4056,0,0,0.05804443359375,1.1455078125,0.217803955078125,2.4652576446533203,-1.7658320665359497,0.523389995098114
495,1.2445,2.676,0,0,-0.0570526123046875,1.1288909912109375,0.1469573974609375,2.3951125144958496,-1.0691899061203003,0.6917270421981812
496,1.2225,2.9005,0,0,-0.1992950439453125,1.241363525390625,0.1425628662109375,2.27610182762146,0.8224738836288452,0.3752630949020386
497,1.1916,3.0679,0,0,-0.29302978515625,1.3179168701171875,0.123382568359375,2.123708486557007,2.7078819274902344,-0.0033513219095766544
498,1.152,3.1725,0,0,-0.2983245849609375,1.3209228515625,-0.1317596435546875,2.4403178691864014,3.7082743644714355,-0.09234724193811417
499,1.1046,3.2135,0,0,-0.2060089111328125,1.0549468994140625,-0.0146331787109375,2.8277266025543213,1.9737688302993774,0.08286132663488388
500,1.051,3.1945,0,0,-0.2035980224609375,0.862518310546875,0.0424652099609375,2.6037864685058594,-0.13136760890483856,0.1507333219051361
501,0.9935,3.1222,0,0,-0.0214080810546875,0.8309326171875,0.1086883544921875,1.9314708709716797,-1.6723644733428955,0.07520314306020737
502,0.935,3.0045,0,0,0.2337799072265625,0.948883056640625,-0.1421661376953125,1.7327148914337158,-1.6465901136398315,0.4997301995754242
503,0.8788,2.8496,0,0,0.2610015869140625,0.9901123046875,-0.069854736328125,1.5023863315582275,-1.2219903469085693,0.8766737580299377
504,0.8285,2.6651,0,0,0.2055511474609375,0.973846435546875,-0.0833282470703125,1.3007824420928955,-1.6406289339065552,0.9102063775062561
505,0.7878,2.4579,0,0,0.1604461669921875,0.825408935546875,-0.064788818359375,1.131373405456543,-2.166323184967041,0.8552952408790588
506,0.7601,2.2347,0,0,-0.0686187744140625,0.6425018310546875,0.011871337890625,0.8178647756576538,-2.52852463722229,0.5093681812286377
507,0.7482,2.003,0,0,-0.2441864013671875,0.557098388671875,0.0809173583984375,0.4087137281894684,-2.8648314476013184,-0.012796754948794842
508,0.7539,1.7714,0,0,-0.372100830078125,0.551239013671875,0.0913848876953125,0.05296601355075836,-2.5898799896240234,-0.4105590283870697
509,0.7779,1.5505,0,0,-0.5254974365234375,0.55914306640625,-0.017578125,0.014928615652024746,-1.527156114578247,-0.778923749923706
510,0.8195,1.3517,0,0,-0.5496063232421875,0.5441436767578125,-0.0939178466796875,0.032036229968070984,-0.428318589925766,-0.9718964099884033
511,0.8766,1.1866,0,0,-0.497039794921875,0.5518341064453125,-0.2812347412109375,-0.032766200602054596,0.13417458534240723,-0.7613967061042786
512,0.9463,1.0655,0,0,-0.4633026123046875,0.706085205078125,-0.4677886962890625,-0.34080153703689575,0.05843774229288101,-0.45778459310531616
513,1.0245,0.9959,0,0,-0.3212127685546875,0.902862548828125,-0.6529693603515625,-0.7908499240875244,0.32595759630203247,-0.33884382247924805
514,1.1069,0.9815,0,0,-0.1415557861328125,0.99169921875,-0.8065185546875,-0.657810389995575,0.788568913936615,-0.13483931124210358
515,1.1889,1.0216,0,0,0.0442657470703125,0.9874267578125,-0.7946319580078125,-0.12401915341615677,0.25676679611206055,0.1862654834985733
516,1.2659,1.1109,0,0,0.28875732421875,0.8797760009765625,-0.6629486083984375,0.0771336629986763,-0.6542174816131592,0.5676823258399963
517,1.3338,1.2408,0,0,0.5049591064453125,0.86431884765625,-0.544525146484375,-0.5474851727485657,-0.5084970593452454,1.047762155532837
518,1.3891,1.4001,0,0,0.496124267578125,1.017547607421875,-0.592132568359375,-1.6030000448226929,0.6302857995033264,1.248666524887085
519,1.4288,1.5763,0,0,0.341156005859375,1.1719970703125,-0.8441314697265625,-1.7382484674453735,0.8690874576568604,0.9163468480110168
520,1.451,1.7577,0,0,0.2785797119140625,1.14996337890625,-1.0663604736328125,-0.5025837421417236,-0.7425119280815125,0.580264687538147
521,1.455,1.934,0,0,0.0987548828125,1.2269134521484375,-0.7493896484375,0.17331266403198242,-2.3418703079223633,0.29290884733200073
522,1.4411,2.097,0,0,-0.2796783447265625,1.3503570556640625,-0.1910400390625,-0.8350277543067932,-1.5111098289489746,-0.28699368238449097
523,1.4112,2.2414,0,0,-0.592376708984375,1.290069580078125,0.481170654296875,-2.5673828125,0.1936831772327423,-0.9870511293411255
524,1.3684,2.3643,0,0,-0.889739990234375,1.1892547607421875,0.5339813232421875,-2.8481547832489014,1.0887329578399658,-1.618531584739685
525,1.3165,2.4648,0,0,-1.2470703125,1.1109161376953125,-0.2629547119140625,-0.32875126600265503,0.1435350626707077,-1.721049189567566
526,1.2602,2.543,0,0,-0.8144683837890625,0.8050384521484375,-0.14068603515625,1.4885739088058472,-1.4188640117645264,-0.8941291570663452
527,1.2038,2.5992,0,0,-0.3219146728515625,0.5188446044921875,-0.30804443359375,1.8191152811050415,-2.2965664863586426,-0.2217712700366974
528,1.1513,2.6327,0,0,-0.2514801025390625,0.73699951171875,0.26690673828125,0.11230044066905975,-0.6011963486671448,-0.5523744821548462
529,1.1055,2.6419,0,0,-0.017486572265625,1.0681610107421875,0.4918670654296875,-1.728598713874817,0.9402101039886475,-0.20567646622657776
530,1.0679,2.624,0,0,0.1674652099609375,1.201324462890625,0.37518310546875,-2.617868661880493,1.3620010614395142,0.7210095524787903
531,1.0389,2.5761,0,0,0.1973114013671875,1.0924072265625,0.2645263671875,-2.764385938644409,1.4478999376296997,1.4729725122451782
532,1.0175,2.4966,0,0,0.251068115234375,0.9561309814453125,0.214569091796875,-2.401754140853882,1.3230233192443848,1.877432942390442
533,1.0023,2.3859,0,0,0.20672607421875,0.8649444580078125,0.146270751953125,-1.7446269989013672,1.354784607887268,1.8193597793579102
534,0.9914,2.2471,0,0,0.056121826171875,0.857208251953125,0.09063720703125,-1.0644785165786743,1.3785704374313354,1.1487209796905518
535,0.9826,2.0864,0,0,-0.0626220703125,0.8846435546875,-0.2781524658203125,-0.18994463980197906,1.5064159631729126,0.23007634282112122
536,0.9744,1.9119,0,0,-0.1564483642578125,1.0531005859375,-0.7695465087890625,1.3648312091827393,2.1744189262390137,-0.36676308512687683
537,0.9658,1.7329,0,0,0.00091552734375,1.0772552490234375,-0.085693359375,7.98948312876746e-05,1.346998691558838,0.05884760245680809
538,0.9565,1.5584,0,0,0.0016021728515625,0.982147216796875,0.1342926025390625,-1.2348930835723877,0.7095174789428711,0.19470423460006714
539,0.9471,1.3958,0,0,0.03680419921875,0.9778594970703125,0.1353607177734375,-1.3249071836471558,0.4728120267391205,0.06276457756757736
540,0.9389,1.2502,0,0,0.0744476318359375,0.8491058349609375,0.0689697265625,-0.8248603343963623,0.2969725430011749,-0.03705282509326935
541,0.9335,1.1237,0,0,0.079620361328125,0.7848052978515625,-0.0298919677734375,-0.4055701494216919,0.16414259374141693,-0.16252686083316803
542,0.9324,1.0151,0,0,0.0988006591796875,0.8691558837890625,-0.1210174560546875,-0.4312717616558075,0.053955111652612686,-0.21842794120311737
543,0.9369,0.9215,0,0,0.0790252685546875,0.9465179443359375,-0.045501708984375,-0.8258654475212097,-0.36806535720825195,-0.1346358358860016
544,0.9478,0.8386,0,0,0.0190582275390625,0.9440765380859375,0.0285186767578125,-1.1340115070343018,-0.7399867177009583,-0.07194396108388901
545,0.9651,0.763,0,0,-0.0057830810546875,0.90362548828125,0.0406951904296875,-1.1636799573898315,-0.6939795613288879,-0.06450922042131424
546,0.9882,0.6935,0,0,-0.0196075439453125,0.8932647705078125,-0.058929443359375,-1.0559513568878174,-0.26053011417388916,-0.11515375226736069
547,1.016,0.632,0,0,-0.018310546875,0.9823150634765625,-0.095733642578125,-0.931211531162262,0.18354293704032898,-0.1670433133840561
548,1.0469,0.5839,0,0,-0.0023956298828125,1.1025848388671875,-0.07037353515625,-0.6101959943771362,0.3778943121433258,-0.22206395864486694
549,1.0793,0.5578,0,0,0.0244293212890625,1.184814453125,-0.05511474609375,-0.3121749460697174,0.3563717007637024,-0.21139054000377655
550,1.1117,0.564,0,0,0.0833282470703125,1.2296600341796875,-0.054107666015625,-0.24419856071472168,0.534819483757019,-0.139105424284935
551,1.1429,0.6131,0,0,0.1434326171875,1.2129669189453125,-0.0527496337890625,-0.16552504897117615,0.6621792912483215,-0.10526863485574722
552,1.1722,0.7136,0,0,0.1434173583984375,1.1262969970703125,-0.1456451416015625,-0.009431318379938602,0.5641709566116333,0.028664933517575264
553,1.1989,0.8701,0,0,0.111419677734375,1.150054931640625,-0.15936279296875,0.13692162930965424,0.35871848464012146,0.1598154902458191
554,1.2227,1.0819,0,0,0.1091461181640625,1.26788330078125,-0.1342926025390625,0.24847133457660675,0.15426945686340332,0.201738178730011
555,1.2433,1.3424,0,0,0.051422119140625,1.2157135009765625,-0.1611785888671875,0.6862731575965881,0.2083635926246643,0.1662512868642807
556,1.2599,1.6388,0,0,0.0050048828125,1.1110687255859375,-0.107696533203125,1.3523918390274048,0.17171183228492737,0.1949700266122818
557,1.2715,1.9536,0,0,-0.1230926513671875,1.1007080078125,-0.128936767578125,2.272019386291504,0.20051366090774536,0.0564318522810936
558,1.2765,2.2661,0,0,0.0273590087890625,1.190765380859375,0.2091064453125,2.5824882984161377,-0.7794142961502075,0.3158884644508362
559,1.2733,2.5554,0,0,0.08209228515625,1.1605377197265625,0.18963623046875,2.5728580951690674,-1.396180510520935,0.9049447774887085
560,1.2601,2.8021,0,0,-0.081451416015625,1.3101959228515625,0.0865631103515625,2.5500361919403076,-0.3111938238143921,1.0290182828903198
561,1.2353,2.9908,0,0,-0.250213623046875,1.3831329345703125,0.081634521484375,2.3239448070526123,1.6585536003112793,0.5765519738197327
562,1.1982,3.111,0,0,-0.3301849365234375,1.406829833984375,0.0045928955078125,2.164642572402954,3.284287214279175,0.19529998302459717
563,1.1492,3.1584,0,0,-0.3200225830078125,1.2359771728515625,-0.16754150390625,2.5923900604248047,2.7381463050842285,0.05453434959053993
564,1.0897,3.1342,0,0,-0.1421051025390625,0.956817626953125,-0.0471649169921875,2.541316509246826,0.6004229784011841,0.2611413300037384
565,1.0223,3.0447,0,0,-0.12921142578125,0.79071044921875,0.1158905029296875,2.0661306381225586,-1.4794983863830566,0.14045511186122894
566,0.9506,2.8998,0,0,0.0584716796875,0.8515625,-0.1746826171875,1.8518612384796143,-2.0630524158477783,0.20421065390110016
567,0.8787,2.7116,0,0,0.1209869384765625,0.8945159912109375,-0.116424560546875,1.8348798751831055,-1.391219139099121,0.36559581756591797
568,0.8115,2.4931,0,0,0.0255126953125,0.9161529541015625,-0.0901641845703125,1.808228850364685,-1.2108746767044067,0.2852080464363098
569,0.7535,2.2574,0,0,-0.036773681640625,0.8837890625,-0.1097869873046875,1.8079452514648438,-1.4364984035491943,0.14473587274551392
570,0.7094,2.0167,0,0,-0.090118408203125,0.7410736083984375,-0.09442138671875,1.6584223508834839,-1.720905065536499,0.23417948186397552
571,0.6829,1.782,0,0,-0.188751220703125,0.610321044921875,-0.0762176513671875,1.1795177459716797,-1.881909728050232,0.2607167959213257
572,0.6768,1.5627,0,0,-0.264739990234375,0.53985595703125,-0.0868682861328125,0.4952627420425415,-1.6393815279006958,0.15900616347789764
573,0.6927,1.3668,0,0,-0.346954345703125,0.5145111083984375,-0.115325927734375,-0.11636149883270264,-1.0591533184051514,-0.019871709868311882
574,0.7303,1.2,0,0,-0.37762451171875,0.47247314453125,-0.1767730712890625,-0.5280486345291138,-0.4840793311595917,-0.13248667120933533
575,0.7876,1.066,0,0,-0.3771820068359375,0.4940185546875,-0.2542877197265625,-0.8330621123313904,-0.025827867910265923,-0.22233426570892334
576,0.861,0.9664,0,0,-0.3323974609375,0.6015625,-0.3577728271484375,-1.0041472911834717,0.19653142988681793,-0.43457621335983276
577,0.9454,0.9006,0,0,-0.266632080078125,0.7644805908203125,-0.4807891845703125,-1.0307631492614746,0.41521158814430237,-0.6275020241737366
578,1.0349,0.8665,0,0,-0.14776611328125,0.9132537841796875,-0.647674560546875,-0.8821427822113037,0.3651729226112366,-0.59453284740448
579,1.1233,0.8609,0,0,-0.0213623046875,1.010894775390625,-0.8158111572265625,-0.47775912284851074,-0.007443535141646862,-0.36577320098876953
580,1.2044,0.8796,0,0,0.119110107421875,1.0130157470703125,-0.8746337890625,-0.08126209676265717,-0.5057172179222107,-0.09746583551168442
581,1.2729,0.9178,0,0,0.277496337890625,0.908447265625,-0.80426025390625,-0.2847755551338196,-0.7664036750793457,0.1263110637664795
582,1.3249,0.9709,0,0,0.2827301025390625,0.9072113037109375,-0.6570892333984375,-1.085652470588684,-0.3555370569229126,0.09429480880498886
583,1.3576,1.0345,0,0,0.124755859375,1.0912322998046875,-0.582916259765625,-1.728217363357544,-0.09329372644424438,-0.004697549622505903
584,1.37,1.1045,0,0,-0.0255584716796875,1.2430267333984375,-0.7584075927734375,-1.230515480041504,-0.2448616772890091,-0.026675019413232803
585,1.3627,1.1776,0,0,-0.1415557861328125,1.29931640625,-0.728179931640625,-0.044679585844278336,-0.6451132297515869,0.015001586638391018
586,1.3381,1.2511,0,0,-0.2761688232421875,1.3929290771484375,-0.3585205078125,-0.023486683145165443,-0.47019413113594055,-0.02275431528687477
587,1.2995,1.3226,0,0,-0.5038909912109375,1.2011871337890625,0.077301025390625,-1.2703635692596436,0.28876256942749023,-0.14205621182918549
588,1.2517,1.3901,0,0,-0.737579345703125,1.001953125,0.3045654296875,-2.1828925609588623,1.24143648147583,-0.6675242781639099
589,1.1997,1.4522,0,0,-0.9084930419921875,0.992279052734375,-0.14556884765625,-1.2088154554367065,1.057904839515686,-1.2922719717025757
590,1.1483,1.5072,0,0,-0.4423675537109375,0.890045166015625,-0.17120361328125,0.2105412632226944,-0.6237349510192871,-0.6654696464538574
591,1.102,1.5536,0,0,-0.0680389404296875,0.803009033203125,-0.1715545654296875,0.2357051968574524,-0.9204548001289368,0.0735439881682396
592,1.0636,1.5896,0,0,-0.0579376220703125,0.86163330078125,0.1448211669921875,-0.5442023277282715,0.17596650123596191,0.06345673650503159
593,1.0348,1.613,0,0,-0.0501556396484375,0.9678497314453125,0.3185882568359375,-1.3803621530532837,0.8261620998382568,0.0784149169921875
594,1.0157,1.6218,0,0,0.0465545654296875,1.0345611572265625,0.20672607421875,-1.5995213985443115,1.1437280178070068,0.41481396555900574
595,1.0049,1.6146,0,0,0.076080322265625,1.0370330810546875,0.185882568359375,-1.5252338647842407,1.204988718032837,0.7628489136695862
596,1.0002,1.5915,0,0,0.1775970458984375,1.0070648193359375,0.2577056884765625,-1.544938087463379,0.9893877506256104,1.1647443771362305
597,0.9988,1.5542,0,0,0.1702117919921875,0.986053466796875,0.279693603515625,-1.72378671169281,0.34563249349594116,1.3590798377990723
598,0.998,1.506,0,0,0.013214111328125,0.942108154296875,-0.0238189697265625,-1.4930487871170044,-0.5294353365898132,1.0407912731170654
599,0.9956,1.4515,0,0,-0.38226318359375,0.77081298828125,-0.885223388671875,0.61044842004776,-0.10711020976305008,-0.1483798772096634
600,0.9901,1.3951,0,0,-0.073486328125,0.9190826416015625,-0.19403076171875,0.16159474849700928,-0.33235105872154236,-0.07589849084615707
601,0.981,1.3406,0,0,-0.047332763671875,1.00244140625,-0.0607757568359375,-0.9481018781661987,0.10813658684492111,0.21230614185333252
602,0.9688,1.2899,0,0,0.050262451171875,1.0525054931640625,0.0212554931640625,-1.256500482559204,0.9795351624488831,0.3006519675254822
603,0.9548,1.2432,0,0,0.065032958984375,0.9981231689453125,0.077545166015625,-1.0352345705032349,1.2975671291351318,0.2253766655921936
604,0.9409,1.1988,0,0,0.036712646484375,0.84716796875,0.027984619140625,-0.6321350932121277,1.092362642288208,0.09872018545866013
605,0.9293,1.1538,0,0,0.0578460693359375,0.7276458740234375,-0.138031005859375,-0.43722420930862427,0.7512329816818237,-0.07654058188199997
606,0.9221,1.1051,0,0,0.0666351318359375,0.86614990234375,-0.1995391845703125,-0.5601306557655334,-0.08512421697378159,-0.2306949943304062
607,0.9211,1.0499,0,0,0.0918731689453125,0.9626922607421875,-0.058380126953125,-0.761962354183197,-0.8219420313835144,-0.17901022732257843
608,0.9274,0.9867,0,0,0.080810546875,0.9720001220703125,0.0923919677734375,-0.8540291786193848,-1.0487725734710693,-0.07581274211406708
609,0.9414,0.9166,0,0,0.014190673828125,0.922515869140625,0.031951904296875,-0.9211463928222656,-0.9124897718429565,-0.040355145931243896
610,0.963,0.8429,0,0,-0.0263214111328125,0.8908843994140625,-0.0802001953125,-1.0341717004776,-0.5227628350257874,-0.04388436675071716
611,0.9914,0.7723,0,0,-0.039093017578125,0.9264068603515625,-0.103790283203125,-0.8521236777305603,-0.09141965955495834,-0.11717722564935684
612,1.0253,0.7138,0,0,0.0218963623046875,1.0436859130859375,0.025238037109375,-0.4904347062110901,0.035233620554208755,-0.10840211063623428
613,1.0631,0.6781,0,0,0.0217132568359375,1.0762176513671875,0.062255859375,-0.3971811830997467,0.24658209085464478,-0.14144794642925262
614,1.1032,0.6763,0,0,0.0968017578125,1.1995849609375,0.0217742919921875,-0.6331931948661804,0.5625981092453003,-0.12786075472831726
615,1.1437,0.7185,0,0,0.1363983154296875,1.2248382568359375,-0.04437255859375,-0.7262027263641357,0.7049387097358704,-0.10978242009878159
616,1.1832,0.8125,0,0,0.135009765625,1.17681884765625,-0.190216064453125,-0.40724286437034607,0.7426807880401611,-0.02251356467604637
617,1.2203,0.9617,0,0,0.1584320068359375,1.21051025390625,-0.2373504638671875,0.02581268921494484,0.7215592861175537,0.1611313670873642
618,1.2538,1.1651,0,0,0.17022705078125,1.3065185546875,-0.186767578125,0.2733026444911957,0.5758861899375916,0.2778710424900055
619,1.2823,1.4156,0,0,0.0872802734375,1.2321929931640625,-0.163116455078125,0.6112756133079529,0.24615544080734253,0.27806809544563293
620,1.3045,1.7009,0,0,-0.0103912353515625,1.13897705078125,-0.23455810546875,1.3231202363967896,-0.250074565410614,0.15887592732906342
621,1.3187,2.0036,0,0,-0.0608062744140625,1.1028594970703125,-0.2095794677734375,2.3033640384674072,-0.08641238510608673,0.10258043557405472
622,1.3229,2.3037,0,0,0.13568115234375,1.132904052734375,0.3296051025390625,2.3321754932403564,-1.0770825147628784,0.47875139117240906
623,1.3153,2.5794,0,0,0.2146453857421875,1.1048431396484375,0.451141357421875,1.730455994606018,-1.8182995319366455,1.2445162534713745
624,1.2942,2.8107,0,0,-0.147003173828125,1.33648681640625,0.0791778564453125,2.022005081176758,-0.8317006826400757,0.9309849143028259
625,1.2588,2.9805,0,0,-0.294525146484375,1.4571685791015625,-0.0148162841796875,2.554324150085449,1.2191474437713623,0.19686512649059296
626,1.2093,3.0769,0,0,-0.537994384765625,1.48614501953125,-0.08905029296875,3.088465690612793,2.4672579765319824,-0.8039034008979797
627,1.1473,3.0945,0,0,-0.3717803955078125,1.2226104736328125,0.0047607421875,3.246797561645508,1.9896886348724365,-1.2008321285247803
628,1.0757,3.0344,0,0,-0.190643310546875,0.9538116455078125,-0.0563201904296875,3.1219515800476074,0.7483384013175964,-0.9013410210609436
629,0.9989,2.904,0,0,-0.1779327392578125,0.8362579345703125,0.0560760498046875,2.585203170776367,-0.7367009520530701,-0.590116560459137
630,0.9217,2.7154,0,0,-0.0458831787109375,0.8451080322265625,-0.17205810546875,2.025230646133423,-1.4478110074996948,-0.09522638469934464
631,0.8493,2.484,0,0,0.04327392578125,0.79998779296875,-0.132965087890625,1.6147675514221191,-0.5680980682373047,0.38025280833244324
632,0.7867,2.2261,0,0,0.0414886474609375,0.79327392578125,-0.06494140625,1.1070488691329956,-0.5665352940559387,0.6251938343048096
633,0.7378,1.9573,0,0,-0.037567138671875,0.705841064453125,-0.0410614013671875,0.7948824763298035,-0.9423632621765137,0.4898357391357422
634,0.7058,1.6917,0,0,-0.075592041015625,0.57275390625,0.0315704345703125,0.497582346200943,-1.5859116315841675,0.2954516112804413
635,0.6921,1.4415,0,0,-0.1124267578125,0.57806396484375,-0.0121307373046875,0.3809420168399811,-2.169393539428711,0.20156480371952057
636,0.6972,1.217,0,0,-0.1707305908203125,0.6412353515625,-0.12310791015625,0.4253467619419098,-2.0325071811676025,0.11347329616546631
637,0.7201,1.0268,0,0,-0.2557525634765625,0.7005462646484375,-0.266815185546875,0.553358793258667,-1.3404464721679688,0.03207910805940628
638,0.759,0.8784,0,0,-0.312652587890625,0.7026214599609375,-0.3393096923828125,0.2876664102077484,-0.6837103962898254,0.061711568385362625
639,0.8113,0.7777,0,0,-0.3207855224609375,0.670623779296875,-0.4891815185546875,-0.15805700421333313,-0.09883736073970795,0.03406555950641632
640,0.874,0.7286,0,0,-0.270965576171875,0.6879119873046875,-0.62371826171875,-0.5761269330978394,0.13390347361564636,-0.09017356485128403
641,0.9442,0.7328,0,0,-0.1592254638671875,0.750823974609375,-0.73095703125,-0.7650744915008545,0.23083747923374176,-0.16939622163772583
642,1.0185,0.7889,0,0,-0.07745361328125,0.7973480224609375,-0.7689208984375,-0.6051537990570068,0.35615918040275574,-0.2142190784215927
643,1.0937,0.8927,0,0,-0.0340576171875,0.7846221923828125,-0.6739349365234375,-0.5459828972816467,0.13763588666915894,-0.293530136346817
644,1.1663,1.0371,0,0,-0.022186279296875,0.772247314453125,-0.540313720703125,-0.8461781740188599,-0.5463498830795288,-0.324349582195282
645,1.2328,1.2122,0,0,-0.004638671875,0.7567596435546875,-0.4868927001953125,-1.1784982681274414,-1.2239938974380493,-0.18530461192131042
646,1.2896,1.406,0,0,-0.0218658447265625,0.916259765625,-0.628875732421875,-1.0693949460983276,-1.1290361881256104,-0.0490836575627327
647,1.3332,1.6052,0,0,0.03216552734375,1.2790985107421875,-0.7509307861328125,-0.4350747764110565,-0.6014059782028198,0.036075446754693985
648,1.3607,1.796,0,0,0.11041259765625,1.290191650390625,-0.885345458984375,0.5150460004806519,-1.2682816982269287,0.2177152782678604
649,1.3702,1.9652,0,0,-0.2038726806640625,1.3438262939453125,-0.57818603515625,0.4303377866744995,-2.095442295074463,0.044330447912216187
650,1.3614,2.1014,0,0,-0.4658355712890625,1.2655487060546875,0.0438079833984375,-1.2520153522491455,-0.5884443521499634,-0.15247608721256256
651,1.3356,2.1962,0,0,-0.64923095703125,1.1514129638671875,0.6662750244140625,-3.2916953563690186,1.6015385389328003,-0.6643335223197937
652,1.2958,2.2452,0,0,-0.8924560546875,1.258148193359375,0.44805908203125,-3.4680681228637695,2.5845751762390137,-0.8618679046630859
653,1.2461,2.2481,0,0,-0.8154449462890625,1.227447509765625,-0.49212646484375,-0.6603768467903137,1.056823492050171,-0.07530780136585236
654,1.1917,2.2085,0,0,-0.4137725830078125,0.818817138671875,-0.1062164306640625,0.9779747724533081,-0.8162721991539001,0.322485089302063
655,1.1377,2.1328,0,0,-0.03240966796875,0.7077178955078125,-0.06280517578125,0.9687727689743042,-1.5650273561477661,0.3962528109550476
656,1.0885,2.0294,0,0,0.1405487060546875,0.77069091796875,0.0909881591796875,-0.06952794641256332,-0.6164565682411194,0.5760965943336487
657,1.0471,1.9072,0,0,0.0595245361328125,0.830413818359375,0.323760986328125,-1.355893850326538,0.627556324005127,0.570763111114502
658,1.015,1.7751,0,0,0.1304168701171875,0.9644927978515625,0.2844085693359375,-2.0829262733459473,0.9983631372451782,0.6488083600997925
659,0.9921,1.6421,0,0,0.1870574951171875,1.126251220703125,0.2520599365234375,-2.351558208465576,0.6985114812850952,0.8670789003372192
660,0.9772,1.5165,0,0,0.1967620849609375,1.169036865234375,0.1777496337890625,-2.122162342071533,0.5436225533485413,0.9938088655471802
661,0.968,1.4062,0,0,0.05426025390625,0.98919677734375,-0.4063262939453125,-0.7102383971214294,0.9972848296165466,0.7866272330284119
662,0.9623,1.3179,0,0,-0.086517333984375,0.899444580078125,-0.03546142578125,0.31351983547210693,1.1018000841140747,0.3208011984825134
663,0.9581,1.2559,0,0,-0.185028076171875,0.8729248046875,0.033447265625,0.02149330824613571,0.2518777847290039,0.0661127045750618
664,0.9536,1.2217,0,0,-0.373626708984375,0.8304901123046875,-0.2731781005859375,-0.3017875552177429,-0.47442564368247986,-0.31773748993873596
665,0.948,1.2129,0,0,-0.232757568359375,0.926239013671875,-0.195343017578125,-0.6869384050369263,-0.7001088261604309,-0.2505171597003937
666,0.9412,1.2236,0,0,-0.0560760498046875,1.10601806640625,0.058258056640625,-1.0043413639068604,-0.007724232506006956,0.1935228556394577
667,0.9338,1.2448,0,0,-0.0158233642578125,1.0236053466796875,0.0959625244140625,-0.9612709283828735,0.8991628289222717,0.3913259506225586
668,0.9273,1.266,0,0,-0.0220947265625,0.861785888671875,0.03533935546875,-0.6595693826675415,1.4757475852966309,0.4324158728122711
669,0.9231,1.2766,0,0,-0.0704803466796875,0.8212432861328125,0.0213775634765625,-0.5113495588302612,1.5655511617660522,0.3000354468822479
670,0.9228,1.2676,0,0,-0.064422607421875,0.8278350830078125,-0.0133209228515625,-0.6615697145462036,1.1291794776916504,0.16376762092113495
671,0.9278,1.2329,0,0,0.0200653076171875,0.86737060546875,-0.180877685546875,-1.12136971950531,0.6955060958862305,0.06856095045804977
672,0.9389,1.1701,0,0,0.0443572998046875,0.9106903076171875,-0.268341064453125,-1.2404942512512207,0.6530808806419373,0.019471436738967896
673,0.9561,1.0812,0,0,0.0194549560546875,0.9292144775390625,-0.135986328125,-0.8082853555679321,0.6801542639732361,-0.047082822769880295
674,0.9789,0.9721,0,0,-0.0133056640625,0.9256439208984375,-0.0207977294921875,-0.4972606301307678,0.4572461247444153,-0.2721998393535614
675,1.006,0.8523,0,0,0.09857177734375,0.998046875,0.0078582763671875,-0.49987345933914185,0.33495935797691345,-0.34167715907096863
676,1.0358,0.734,0,0,0.18011474609375,1.0531768798828125,0.00946044921875,-0.613502025604248,0.5109133124351501,-0.27776315808296204
677,1.0665,0.631,0,0,0.198394775390625,1.0470123291015625,0.0185699462890625,-0.6045870780944824,0.6358853578567505,-0.14785631000995636
678,1.0965,0.5573,0,0,0.2384185791015625,1.0905609130859375,0.0431060791015625,-0.46171116828918457,0.4612509608268738,0.07804287225008011
679,1.1243,0.526,0,0,0.1956634521484375,1.1404266357421875,0.039947509765625,-0.42984244227409363,0.10381747782230377,0.17027106881141663
680,1.1491,0.5478,0,0,0.093414306640625,1.215667724609375,-0.063568115234375,-0.6282112002372742,-0.11827657371759415,0.1960483342409134
681,1.1706,0.6297,0,0,-0.0230712890625,1.178955078125,-0.1781768798828125,-0.5961736440658569,-0.014334997162222862,0.26745328307151794
682,1.1889,0.774,0,0,-0.061492919921875,1.2754669189453125,-0.130126953125,-0.22675058245658875,0.12229395657777786,0.19627709686756134
683,1.2046,0.9774,0,0,0.0203704833984375,1.278045654296875,-0.1402130126953125,0.05085758864879608,0.5164676308631897,0.08282431215047836
684,1.2183,1.2313,0,0,0.1213531494140625,1.2019500732421875,-0.0850372314453125,0.4950565993785858,0.637856125831604,0.035290345549583435
685,1.2306,1.5222,0,0,0.2197418212890625,1.161865234375,-0.1614837646484375,1.0964393615722656,0.3452087938785553,0.148408904671669
686,1.2414,1.8331,0,0,0.1033935546875,1.058135986328125,-0.1949005126953125,1.9673899412155151,-0.013291836716234684,0.09192778915166855
687,1.2497,2.1449,0,0,-0.0720672607421875,1.0189971923828125,0.051116943359375,2.5385096073150635,-0.5695793032646179,-0.02792430855333805
688,1.254,2.4392,0,0,-0.0379791259765625,1.09136962890625,0.1833038330078125,2.6817374229431152,-1.881005048751831,0.24056200683116913
689,1.2519,2.6995,0,0,0.0034027099609375,1.20050048828125,0.1229400634765625,2.665581464767456,-1.6162649393081665,0.6296298503875732
690,1.2408,2.9126,0,0,-0.16259765625,1.2742919921875,0.0968475341796875,2.46604323387146,0.16959142684936523,0.5491994619369507
691,1.2182,3.0698,0,0,-0.289215087890625,1.386566162109375,0.077850341796875,2.258479118347168,1.9210944175720215,0.1150810495018959
692,1.1824,3.1666,0,0,-0.3704681396484375,1.454986572265625,-0.1024627685546875,2.4094765186309814,2.9049065113067627,-0.27335137128829956
693,1.1331,3.2025,0,0,-0.2078704833984375,1.163482666015625,-0.010986328125,2.5045390129089355,1.6250702142715454,-0.16276095807552338
694,1.0713,3.18,0,0,-0.1775054931640625,0.8830108642578125,0.0362091064453125,2.3340816497802734,-0.47682860493659973,-0.11198645830154419
695,1.0,3.1039,0,0,0.10626220703125,0.8741912841796875,-0.076141357421875,2.019773244857788,-2.004674196243286,0.1544090062379837
696,0.9233,2.9807,0,0,0.2494964599609375,0.9369049072265625,-0.1416473388671875,2.0862860679626465,-1.891087293624878,0.6356658935546875
697,0.8467,2.8177,0,0,0.228546142578125,0.9423828125,-0.0230255126953125,1.7281334400177002,-1.8575823307037354,0.8494368195533752
698,0.7764,2.6234,0,0,0.084442138671875,0.8583221435546875,-0.0284423828125,1.4122756719589233,-2.2912445068359375,0.6411908864974976
699,0.719,2.4071,0,0,-0.0546112060546875,0.696868896484375,0.0097808837890625,1.1914782524108887,-2.430858850479126,0.29031357169151306
700,0.6804,2.1791,0,0,-0.191558837890625,0.58966064453125,0.063262939453125,0.9433667659759521,-2.4947969913482666,-0.038775891065597534
701,0.6657,1.9505,0,0,-0.2911529541015625,0.5657958984375,0.056488037109375,0.6666310429573059,-2.344500780105591,-0.2466105818748474
702,0.6783,1.7329,0,0,-0.3515472412109375,0.54443359375,0.0288848876953125,0.3151465058326721,-1.9143134355545044,-0.2236083298921585
703,0.7193,1.5372,0,0,-0.450531005859375,0.5274200439453125,-0.040069580078125,0.001972070662304759,-1.1344696283340454,-0.15549717843532562
704,0.7875,1.3733,0,0,-0.4958953857421875,0.5135650634765625,-0.10211181640625,-0.3199670910835266,-0.3106662631034851,-0.10511976480484009
705,0.8792,1.2483,0,0,-0.474395751953125,0.5397491455078125,-0.2404022216796875,-0.6806850433349609,0.09425965696573257,-0.11755752563476562
706,0.9883,1.1668,0,0,-0.3998260498046875,0.632659912109375,-0.420806884765625,-0.998451292514801,0.4527272582054138,-0.18993638455867767
707,1.1068,1.13,0,0,-0.3197784423828125,0.7291107177734375,-0.6226654052734375,-1.2452027797698975,1.0433388948440552,-0.23366229236125946
708,1.2253,1.1365,0,0,-0.28436279296875,0.8613739013671875,-0.8160858154296875,-1.3401715755462646,1.2312525510787964,-0.2775922119617462
709,1.3346,1.1823,0,0,-0.0822906494140625,0.9489593505859375,-0.94476318359375,-1.2135868072509766,0.49254870414733887,-0.1554921269416809
710,1.4259,1.2621,0,0,0.1535186767578125,1.07684326171875,-1.0438232421875,-0.8603291511535645,-0.08564166724681854,0.14779718220233917
711,1.4921,1.3691,0,0,0.4199981689453125,1.313385009765625,-1.0114288330078125,-0.6096508502960205,0.42035919427871704,0.6737861633300781
712,1.5288,1.496,0,0,0.44677734375,1.4884490966796875,-0.75115966796875,-0.883085310459137,1.117924690246582,1.028254508972168
713,1.5346,1.6352,0,0,0.2369232177734375,1.4398040771484375,-0.93231201171875,-0.07680902630090714,-0.4524873197078705,0.6374568939208984
714,1.511,1.7796,0,0,0.2404327392578125,1.3777923583984375,-0.69287109375,0.5365747809410095,-1.937109351158142,0.2928031086921692
715,1.4627,1.9228,0,0,-0.213836669921875,1.18243408203125,0.1866607666015625,-1.4828121662139893,-1.1408582925796509,-0.20756304264068604
716,1.3961,2.0596,0,0,-0.60858154296875,1.1333160400390625,0.7633819580078125,-3.531428575515747,0.6185433864593506,-1.1400041580200195
717,1.3193,2.1864,0,0,-0.98291015625,1.1733856201171875,0.1528778076171875,-2.4985246658325195,1.5175127983093262,-1.7217451333999634
718,1.2403,2.3002,0,0,-1.040557861328125,0.8767852783203125,-0.2525634765625,0.6636269688606262,0.07335597276687622,-1.198298692703247
719,1.1666,2.3981,0,0,-0.4882049560546875,0.5701751708984375,0.15655517578125,1.1878705024719238,-1.2136520147323608,-0.2416139543056488
720,1.1036,2.4761,0,0,-0.241668701171875,0.45904541015625,0.125030517578125,0.4653807282447815,-1.0216444730758667,-0.10326513648033142
721,1.0546,2.5291,0,0,-0.16363525390625,0.6817626953125,0.2823486328125,-0.7441710829734802,0.41731974482536316,-0.21354210376739502
722,1.0202,2.5503,0,0,0.0123748779296875,1.001739501953125,0.2826995849609375,-1.786202073097229,1.7088556289672852,0.19771628081798553
723,0.9991,2.5334,0,0,0.166168212890625,1.20819091796875,0.2965087890625,-2.5289716720581055,2.040149450302124,1.0195608139038086
724,0.9878,2.4734,0,0,0.2422332763671875,1.225189208984375,0.289794921875,-2.8070626258850098,2.0837790966033936,1.7555434703826904
725,0.9827,2.3693,0,0,0.2167205810546875,1.1115875244140625,0.2527008056640625,-2.6346373558044434,1.8148527145385742,1.9723706245422363
726,0.9799,2.2248,0,0,0.0894775390625,0.9180908203125,-0.121673583984375,-1.6495652198791504,1.6510261297225952,1.5087614059448242
727,0.9763,2.0486,0,0,-0.08660888671875,0.7432098388671875,-0.6402740478515625,0.753603458404541,2.0240163803100586,0.34094586968421936
728,0.97,1.8528,0,0,0.0854034423828125,0.964019775390625,-0.19342041015625,0.45873695611953735,0.715197741985321,-0.24906574189662933
729,0.9605,1.6518,0,0,0.1374053955078125,1.07098388671875,-0.006866455078125,-0.8476282358169556,-0.05131645128130913,0.03044632263481617
730,0.9488,1.4588,0,0,0.0713348388671875,1.06158447265625,0.1076202392578125,-1.1707549095153809,0.09985469281673431,0.10147921741008759
731,0.9368,1.2846,0,0,0.076324462890625,0.9165191650390625,0.1034088134765625,-0.8337188363075256,0.3600383400917053,0.06121142581105232
732,0.9268,1.1362,0,0,0.029052734375,0.7570953369140625,0.0735626220703125,-0.615906834602356,0.5241982340812683,0.004779575392603874
733,0.9217,1.0158,0,0,-0.0154876708984375,0.764678955078125,-0.0735015869140625,-0.6504020094871521,0.4538428485393524,-0.15107527375221252
734,0.9237,0.9219,0,0,-0.0418701171875,0.9029693603515625,-0.130218505859375,-0.7966609597206116,-0.19393059611320496,-0.21936191618442535
735,0.9342,0.8502,0,0,-0.048126220703125,0.933624267578125,0.001983642578125,-0.9059062004089355,-0.7570927739143372,-0.26504629850387573
736,0.9538,0.7955,0,0,0.00750732421875,0.9177398681640625,0.0066680908203125,-0.8707553744316101,-0.8361140489578247,-0.21295008063316345
737,0.9819,0.7533,0,0,0.0102996826171875,0.88568115234375,-0.02838134765625,-0.8226768374443054,-0.34270116686820984,-0.1761300265789032
738,1.0167,0.7214,0,0,0.00634765625,0.9412994384765625,-0.03515625,-0.7795482873916626,0.3280247449874878,-0.24509364366531372
739,1.0562,0.7007,0,0,0.0874481201171875,1.09503173828125,0.065032958984375,-0.7197666764259338,0.4767377972602844,-0.26697444915771484
740,1.0974,0.6958,0,0,0.1254119873046875,1.228546142578125,0.0552825927734375,-0.8056336641311646,0.6714622974395752,-0.18828095495700836
741,1.1377,0.714,0,0,0.0968780517578125,1.2233734130859375,-0.0936126708984375,-0.8924447298049927,0.9453111290931702,-0.14993463456630707
742,1.1748,0.7643,0,0,0.1143646240234375,1.1794281005859375,-0.15631103515625,-0.4508124589920044,0.8564352989196777,-0.127338245511055
743,1.2068,0.8554,0,0,0.1725006103515625,1.1773529052734375,-0.10986328125,0.2801413834095001,0.3436519205570221,-0.0688384547829628
744,1.2326,0.9935,0,0,0.2435150146484375,1.27764892578125,-0.062347412109375,0.43850624561309814,0.049245309084653854,0.050627756863832474
745,1.2517,1.1807,0,0,0.2650146484375,1.3276824951171875,-0.0682220458984375,0.28915509581565857,0.04151282086968422,0.23141485452651978
746,1.2643,1.4131,0,0,0.1837158203125,1.272796630859375,-0.0380706787109375,0.5684405565261841,-0.28172117471694946,0.4088069498538971
747,1.2707,1.6809,0,0,0.0699615478515625,1.1952667236328125,-0.0934295654296875,1.1063135862350464,-0.5730973482131958,0.45386096835136414
748,1.271,1.9686,0,0,-0.055328369140625,1.1023101806640625,-0.102142333984375,1.949005126953125,-0.8500511646270752,0.33474311232566833
749,1.2655,2.2569,0,0,-0.0974273681640625,1.0986480712890625,0.1372833251953125,2.41229510307312,-1.0403984785079956,0.31986695528030396
750,1.2537,2.525,0,0,-0.10430908203125,1.0960845947265625,0.1589508056640625,2.575019121170044,-1.2982792854309082,0.2665267586708069
751,1.2351,2.7532,0,0,-0.1478424072265625,1.18841552734375,0.1610107421875,2.5898778438568115,-0.3407818078994751,0.3384464979171753
752,1.2087,2.9252,0,0,-0.35687255859375,1.3068389892578125,0.1013641357421875,2.5473392009735107,1.7493852376937866,0.08726752549409866
753,1.1741,3.0296,0,0,-0.579742431640625,1.374298095703125,-0.0606231689453125,2.7152440547943115,3.216578960418701,-0.5141357779502869
754,1.1308,3.0617,0,0,-0.4028472900390625,1.1450347900390625,0.00177001953125,2.866945266723633,2.211050510406494,-0.6747754812240601
755,1.0795,3.0228,0,0,-0.1036834716796875,0.9002838134765625,0.0612945556640625,2.5854804515838623,0.35866814851760864,-0.16983084380626678
756,1.0213,2.9196,0,0,-0.15533447265625,0.7918853759765625,0.02313232421875,2.3058135509490967,-1.0279511213302612,0.016942230984568596
757,0.9585,2.7628,0,0,0.057586669921875,0.890899658203125,-0.1010894775390625,1.8831148147583008,-1.5475562810897827,0.16151006519794464
758,0.894,2.5653,0,0,0.1029815673828125,0.98956298828125,-0.1563873291015625,1.7949918508529663,-1.1090518236160278,0.32925593852996826
759,0.8317,2.3404,0,0,0.06512451171875,1.0224151611328125,-0.091339111328125,1.5356974601745605,-1.1489074230194092,0.3082113564014435
760,0.7757,2.1009,0,0,-0.0140380859375,0.931732177734375,-0.111328125,1.3581082820892334,-1.3011566400527954,0.22617881000041962
761,0.7307,1.8578,0,0,-0.1028594970703125,0.7722930908203125,-0.0758514404296875,1.1371582746505737,-1.4200938940048218,0.22278673946857452
762,0.7012,1.6209,0,0,-0.18389892578125,0.618316650390625,-0.045806884765625,0.8241966962814331,-1.6827787160873413,0.21584734320640564
763,0.6909,1.3984,0,0,-0.2168121337890625,0.550140380859375,-0.0106201171875,0.38978904485702515,-1.8112962245941162,0.23689855635166168
764,0.7025,1.1979,0,0,-0.2692108154296875,0.5268096923828125,-0.03741455078125,-0.014768559485673904,-1.4239892959594727,0.19457587599754333
765,0.7369,1.0261,0,0,-0.3178253173828125,0.498687744140625,-0.087738037109375,-0.3260393440723419,-0.7314385175704956,0.09679339081048965
766,0.7931,0.8898,0,0,-0.3533477783203125,0.5211029052734375,-0.1778411865234375,-0.6704699993133545,-0.16228584945201874,0.0013134710025042295
767,0.8682,0.7952,0,0,-0.3314208984375,0.5999603271484375,-0.3597564697265625,-0.9726164937019348,0.12689083814620972,-0.07502204924821854
768,0.9576,0.7477,0,0,-0.2991485595703125,0.7749481201171875,-0.5706939697265625,-1.0793533325195312,0.39627304673194885,-0.22162427008152008
769,1.0552,0.7518,0,0,-0.1719207763671875,0.9158477783203125,-0.7486572265625,-0.8855399489402771,0.6039980053901672,-0.25877535343170166
770,1.1547,0.81,0,0,-0.1434326171875,0.9755096435546875,-0.86395263671875,-0.4633905589580536,0.48708444833755493,-0.24184538424015045
771,1.2492,0.9221,0,0,-0.0876922607421875,0.91522216796875,-0.8669586181640625,-0.15474510192871094,-0.2616598308086395,-0.23246653378009796
772,1.3327,1.0843,0,0,0.1334686279296875,0.8760528564453125,-0.89361572265625,-0.26417359709739685,-0.8087223768234253,0.023975906893610954
773,1.4,1.2893,0,0,0.3339691162109375,1.096343994140625,-0.7702484130859375,-0.8203489780426025,-0.028205005452036858,0.34090620279312134
774,1.4473,1.5256,0,0,0.21246337890625,1.4441070556640625,-0.595703125,-1.3966748714447021,0.9663724899291992,0.42157840728759766
775,1.4726,1.7787,0,0,0.2334442138671875,1.1482086181640625,-1.205291748046875,0.2015720009803772,-0.540281355381012,0.5520522594451904
776,1.4753,2.0324,0,0,0.196807861328125,0.902923583984375,-0.8649139404296875,0.9018046855926514,-1.7901041507720947,0.5052088499069214
777,1.4565,2.27,0,0,-0.0843353271484375,0.9889984130859375,0.095977783203125,-1.2741062641143799,-1.4753491878509521,0.09911220520734787
778,1.4187,2.4765,0,0,-0.4917755126953125,1.1529083251953125,0.771575927734375,-3.8628792762756348,-1.0687299966812134,-0.5884153246879578
779,1.3659,2.6401,0,0,-0.827239990234375,1.5102996826171875,0.6434783935546875,-4.3579020500183105,0.5869876146316528,-1.5270400047302246
780,1.3028,2.7531,0,0,-1.082763671875,1.4031524658203125,-0.63018798828125,-0.742012083530426,0.7488577365875244,-1.3696660995483398
781,1.2347,2.8126,0,0,-0.542633056640625,0.8849029541015625,-0.2940826416015625,2.4274301528930664,-1.175740122795105,-0.3086473047733307
782,1.1671,2.8191,0,0,-0.313140869140625,0.680084228515625,0.0727386474609375,2.4242870807647705,-1.7532870769500732,-0.1307913064956665
783,1.1048,2.7761,0,0,-0.0868682861328125,0.62982177734375,0.2960052490234375,0.6299741864204407,-0.32072022557258606,-0.4058971703052521
784,1.0513,2.6885,0,0,-0.025482177734375,0.8871307373046875,0.4283599853515625,-1.2419217824935913,1.3813776969909668,-0.28243541717529297
785,1.0088,2.5626,0,0,-0.0183868408203125,1.0172119140625,0.308929443359375,-2.1661102771759033,1.9035401344299316,0.17206576466560364
786,0.978,2.4052,0,0,0.0638275146484375,1.069366455078125,0.268035888671875,-2.510575532913208,1.7027543783187866,0.7268301844596863
787,0.9579,2.2243,0,0,0.120330810546875,1.033233642578125,0.2447662353515625,-2.4507312774658203,1.1814320087432861,1.3074054718017578
788,0.9468,2.0293,0,0,0.04742431640625,0.9517059326171875,0.1734466552734375,-2.087184429168701,1.1737794876098633,1.4518678188323975
789,0.9423,1.8306,0,0,-0.0080108642578125,0.872772216796875,0.1026153564453125,-1.4862287044525146,1.3554799556732178,1.0926220417022705
790,0.9418,1.6392,0,0,-0.083038330078125,0.81719970703125,0.028350830078125,-0.8849207758903503,1.0944633483886719,0.49563080072402954
791,0.9432,1.465,0,0,-0.1249847412109375,0.89837646484375,-0.102996826171875,-0.4476001560688019,0.30768007040023804,-0.01227610744535923
792,0.9446,1.316,0,0,-0.2068939208984375,1.034271240234375,-0.762664794921875,0.519429087638855,0.43944740295410156,-0.2691158950328827
793,0.9453,1.1966,0,0,-0.0051422119140625,0.9932861328125,-0.122650146484375,-0.1600663661956787,0.5193238854408264,-0.005674663465470076
794,0.9453,1.1074,0,0,0.0666656494140625,0.9472808837890625,0.0909271240234375,-0.9670243859291077,0.7105463147163391,0.174894317984581
795,0.9456,1.045,0,0,0.0626678466796875,0.9413299560546875,0.0819854736328125,-1.0461785793304443,0.7700176239013672,0.20883257687091827
796,0.9476,1.0029,0,0,0.0370635986328125,0.890228271484375,0.0378570556640625,-0.7669190168380737,0.6744160056114197,0.14169427752494812
797,0.953,0.973,0,0,0.05487060546875,0.891387939453125,0.034912109375,-0.6485947966575623,0.46062806248664856,-0.05724118649959564
798,0.9635,0.9474,0,0,0.05157470703125,0.8986053466796875,-0.04168701171875,-0.9325665831565857,-0.009219863452017307,-0.17490683495998383
799,0.9799,0.9195,0,0,0.0263824462890625,0.9036102294921875,-0.0693359375,-1.1745775938034058,-0.6684667468070984,-0.07323266565799713
800,1.0027,0.886,0,0,-0.0388946533203125,0.9331512451171875,-0.0869293212890625,-1.0898184776306152,-0.8940873742103577,-0.021039504557847977
801,1.0313,0.8474,0,0,-0.132659912109375,0.9803924560546875,-0.094451904296875,-0.7754115462303162,-0.4285455048084259,-0.2053547501564026
802,1.0644,0.8086,0,0,-0.1120452880859375,1.063720703125,-0.0641937255859375,-0.4890439808368683,0.46560150384902954,-0.24566754698753357
803,1.1,0.778,0,0,-0.041046142578125,1.1438140869140625,-0.0083160400390625,-0.48771932721138,0.909843385219574,-0.23342366516590118
804,1.1359,0.7666,0,0,0.0870819091796875,1.1431732177734375,0.0057373046875,-0.5031611323356628,1.0416980981826782,-0.20999957621097565
805,1.1698,0.7864,0,0,0.216156005859375,1.1841278076171875,0.006744384765625,-0.36269697546958923,0.8983337879180908,-0.1445033848285675
806,1.1996,0.848,0,0,0.2773590087890625,1.180877685546875,-0.005462646484375,-0.1317519098520279,0.5479635000228882,0.01239009015262127
807,1.2238,0.9589,0,0,0.2712554931640625,1.2623138427734375,-0.0778656005859375,-0.10411974042654037,0.37908393144607544,0.23696647584438324
808,1.2414,1.1212,0,0,0.23028564453125,1.3932342529296875,-0.137237548828125,-0.14381974935531616,0.27364033460617065,0.42358162999153137
809,1.252,1.3311,0,0,0.0591888427734375,1.319366455078125,-0.1266937255859375,0.3133770823478699,-0.06039676442742348,0.38735732436180115
810,1.2557,1.578,0,0,-0.069854736328125,1.2040863037109375,-0.04083251953125,0.9730945825576782,-0.6581563353538513,0.24266617000102997
811,1.253,1.846,0,0,-0.06866455078125,1.14154052734375,-0.0076446533203125,1.611636996269226,-1.2066715955734253,0.13091780245304108
812,1.2442,2.1156,0,0,-0.1225738525390625,1.034942626953125,0.0505218505859375,2.132735252380371,-1.2412152290344238,0.036074645817279816
813,1.2295,2.3662,0,0,-0.22406005859375,1.00482177734375,0.0782470703125,2.474618911743164,-0.9255139827728271,-0.11342403292655945
814,1.209,2.5788,0,0,-0.117889404296875,1.0811004638671875,0.1455535888671875,2.6569154262542725,-0.036974262446165085,0.12096849828958511
815,1.1823,2.7387,0,0,-0.2881011962890625,1.295166015625,0.178314208984375,2.4962830543518066,1.7560724020004272,0.17768451571464539
816,1.1495,2.837,0,0,-0.50518798828125,1.3907470703125,-0.0063323974609375,2.560312032699585,2.9315288066864014,-0.3338775634765625
817,1.1106,2.8714,0,0,-0.3798828125,1.1614227294921875,-0.0334014892578125,2.6778411865234375,2.5531375408172607,-0.49534767866134644
818,1.0664,2.846,0,0,-0.1456146240234375,1.01513671875,0.0212249755859375,2.5174450874328613,1.1630264520645142,-0.04254453256726265
819,1.018,2.77,0,0,-0.123870849609375,0.909698486328125,-0.064788818359375,2.3021223545074463,0.14274117350578308,0.19191031157970428
820,0.9673,2.6554,0,0,-0.0013427734375,0.8322601318359375,0.036041259765625,1.5943986177444458,-1.0319315195083618,0.15712623298168182
821,0.9164,2.5149,0,0,0.1819610595703125,0.8744049072265625,-0.21331787109375,1.441897988319397,-0.9605907201766968,0.49787476658821106
822,0.868,2.3596,0,0,0.0583953857421875,0.869720458984375,-0.10443115234375,1.3294787406921387,-0.8136809468269348,0.48422926664352417
823,0.8246,2.1983,0,0,0.0202484130859375,0.8742523193359375,-0.0549163818359375,1.1819260120391846,-1.5403391122817993,0.2213030904531479
824,0.7891,2.0362,0,0,0.0003662109375,0.8669891357421875,-0.0658111572265625,1.0966212749481201,-1.9240968227386475,0.026256904006004333
825,0.7638,1.8765,0,0,-0.07183837890625,0.7770843505859375,0.015594482421875,0.954145073890686,-1.9926093816757202,0.03192916885018349
826,0.751,1.7205,0,0,-0.1758270263671875,0.7132568359375,0.037109375,0.7381970882415771,-2.214740753173828,0.09993059188127518
827,0.7523,1.5694,0,0,-0.297119140625,0.661529541015625,-0.01519775390625,0.5911458730697632,-2.264868974685669,0.09210675954818726
828,0.7686,1.4247,0,0,-0.3882598876953125,0.63189697265625,-0.11883544921875,0.5445858240127563,-1.6529223918914795,0.06049263849854469
829,0.8,1.2894,0,0,-0.435577392578125,0.5891265869140625,-0.174346923828125,0.2878616154193878,-0.8253479599952698,0.14123782515525818
830,0.8453,1.1671,0,0,-0.4479827880859375,0.54510498046875,-0.312164306640625,-0.21156524121761322,-0.2813408672809601,0.18656028807163239
831,0.9026,1.0624,0,0,-0.4298095703125,0.6180267333984375,-0.5002899169921875,-0.6615241765975952,0.2971256971359253,-0.026627881452441216
832,0.9689,0.9801,0,0,-0.3249053955078125,0.7424163818359375,-0.5844573974609375,-0.9960315823554993,0.8717639446258545,-0.19414950907230377
833,1.0405,0.9247,0,0,-0.222625732421875,0.8552703857421875,-0.628387451171875,-0.9713895916938782,1.15901780128479,-0.22770985960960388
834,1.1132,0.8997,0,0,-0.135284423828125,0.9153594970703125,-0.6061553955078125,-0.6946597099304199,0.6716926097869873,-0.14290869235992432
835,1.1827,0.9074,0,0,-0.028900146484375,0.9373626708984375,-0.58062744140625,-0.4652065634727478,-0.30739882588386536,-0.06651564687490463
836,1.2447,0.9484,0,0,0.09954833984375,1.0025177001953125,-0.6093597412109375,-0.35824868083000183,-1.0757609605789185,0.03750503063201904
837,1.2954,1.0208,0,0,0.2154693603515625,1.137420654296875,-0.69781494140625,-0.35362279415130615,-0.962295413017273,0.2252245992422104
838,1.3319,1.1204,0,0,0.1502227783203125,1.207183837890625,-0.77294921875,-0.4024758040904999,-0.08672211319208145,0.2992927134037018
839,1.3521,1.2405,0,0,0.05426025390625,1.0848236083984375,-0.9712677001953125,0.05390211194753647,0.15985597670078278,0.47892236709594727
840,1.3555,1.3724,0,0,-0.0626068115234375,0.9169769287109375,-0.993560791015625,0.4235307574272156,-0.8469869494438171,0.5651523470878601
841,1.3426,1.5067,0,0,-0.2999420166015625,1.0089874267578125,-0.476470947265625,-0.550142765045166,-1.4423317909240723,0.14967018365859985
842,1.3154,1.6338,0,0,-0.4456787109375,1.1292724609375,0.2816314697265625,-2.3587334156036377,-0.6515154838562012,-0.45363354682922363
843,1.2767,1.7457,0,0,-0.5716094970703125,1.2107696533203125,0.641143798828125,-3.495689868927002,0.4147753417491913,-0.6653434038162231
844,1.2303,1.8366,0,0,-0.81878662109375,1.316558837890625,-0.02587890625,-2.086571216583252,0.8442620038986206,-0.5942873358726501
845,1.1804,1.9028,0,0,-0.708282470703125,1.00604248046875,-0.3369903564453125,0.5620455145835876,-0.15908844769001007,-0.05739591643214226
846,1.1312,1.9427,0,0,-0.313873291015625,0.7283172607421875,-0.1964569091796875,1.509220004081726,-0.5201635360717773,0.04366998374462128
847,1.0865,1.9559,0,0,-0.0598907470703125,0.732452392578125,0.0252838134765625,0.6882798671722412,-0.2639120817184448,-0.09044228494167328
848,1.0489,1.9423,0,0,-0.0997772216796875,0.9036865234375,0.4450531005859375,-1.3402293920516968,0.50553959608078,-0.35622814297676086
849,1.0201,1.902,0,0,0.007110595703125,0.9854583740234375,0.2631378173828125,-2.193709135055542,1.0210362672805786,-0.03176671639084816
850,1.0004,1.8359,0,0,0.0319976806640625,1.0831451416015625,0.191619873046875,-2.145282030105591,1.1399836540222168,0.5012873411178589
851,0.989,1.7458,0,0,0.07366943359375,1.0665283203125,0.1195220947265625,-1.4936953783035278,1.1776248216629028,0.9308344721794128
852,0.9842,1.6352,0,0,0.1457061767578125,0.98046875,0.18304443359375,-0.9241318106651306,0.9652811288833618,1.2471753358840942
853,0.984,1.5094,0,0,0.1130218505859375,0.9097137451171875,0.2722320556640625,-0.8639185428619385,0.6444135904312134,1.2566514015197754
854,0.9861,1.3756,0,0,0.0140228271484375,0.9362640380859375,0.2233123779296875,-1.0076615810394287,0.3479486405849457,0.8103961944580078
855,0.9885,1.2418,0,0,-0.014434814453125,0.933807373046875,0.142974853515625,-1.1755666732788086,0.06861181557178497,0.2601301074028015
856,0.9895,1.1165,0,0,-0.1924591064453125,0.891143798828125,-0.6435699462890625,-0.6540006995201111,0.5826242566108704,0.02702016569674015
857,0.9883,1.007,0,0,-0.216766357421875,0.9364166259765625,-0.3683624267578125,0.13742230832576752,1.0848323106765747,-0.1080566942691803
858,0.9846,0.9191,0,0,-0.0850067138671875,1.026702880859375,0.093841552734375,-0.4384535253047943,0.13960237801074982,0.10716693103313446
859,0.979,0.8559,0,0,0.0348052978515625,1.027801513671875,0.10992431640625,-0.7908374071121216,-0.07216820120811462,0.1497626006603241
860,0.9725,0.8176,0,0,0.0977630615234375,0.9772796630859375,0.0923919677734375,-0.7490199208259583,0.058344531804323196,0.13781432807445526
861,0.9667,0.8016,0,0,0.1146087646484375,0.885101318359375,0.057403564453125,-0.651087760925293,0.19860976934432983,0.1920647770166397
862,0.963,0.8028,0,0,0.0709381103515625,0.869049072265625,-0.07281494140625,-0.6734386086463928,0.2287820428609848,0.029923809692263603
863,0.9628,0.8144,0,0,0.0063629150390625,0.9150848388671875,-0.087921142578125,-0.8511489629745483,-0.0809883251786232,0.05708512291312218
864,0.9669,0.829,0,0,-0.0888214111328125,0.931915283203125,-0.037841796875,-0.9504339694976807,-0.7017346620559692,0.03217631205916405
865,0.9757,0.8396,0,0,-0.1306915283203125,0.9410400390625,-0.0623321533203125,-0.7674476504325867,-0.7029591798782349,-0.11204291135072708
866,0.9888,0.8405,0,0,-0.113006591796875,0.95068359375,-0.0947418212890625,-0.5446510314941406,-0.25073662400245667,-0.1492597907781601
867,1.0054,0.8286,0,0,-0.07891845703125,0.9684600830078125,-0.04034423828125,-0.4557366371154785,0.3077540993690491,-0.13841034471988678
868,1.0244,0.8033,0,0,0.0062713623046875,1.045166015625,0.0644683837890625,-0.39832979440689087,0.61955326795578,-0.1334022581577301
869,1.0445,0.7678,0,0,0.06048583984375,1.1186676025390625,0.1175994873046875,-0.4495573043823242,0.8228363394737244,-0.09632706642150879
870,1.0647,0.7281,0,0,0.05609130859375,1.1663665771484375,0.05645751953125,-0.6608663201332092,0.8865442276000977,-0.024505609646439552
871,1.0841,0.6936,0,0,0.04144287109375,1.1345367431640625,-0.0324249267578125,-0.7150465250015259,0.7968153953552246,0.047695085406303406
872,1.1021,0.6758,0,0,0.019378662109375,1.06396484375,-0.1214599609375,-0.42683759331703186,0.7232940196990967,0.026984745636582375
873,1.1187,0.6871,0,0,0.0150299072265625,1.024566650390625,-0.1831512451171875,-0.1550668179988861,0.8357031345367432,-0.07680662721395493
874,1.1339,0.739,0,0,0.080108642578125,1.064605712890625,-0.1124267578125,-0.018506040796637535,0.8326327800750732,-0.1486017256975174
875,1.1482,0.8405,0,0,0.1932830810546875,1.2200775146484375,0.0037078857421875,-0.019045863300561905,0.5764047503471375,-0.07355863600969315
876,1.1619,0.9962,0,0,0.20068359375,1.240814208984375,-0.0482330322265625,-0.031081752851605415,0.42489537596702576,0.008758870884776115
877,1.1752,1.2044,0,0,0.1525421142578125,1.208770751953125,-0.0574798583984375,0.2785820960998535,0.1697634756565094,0.15263481438159943
878,1.1879,1.4575,0,0,0.1147003173828125,1.15106201171875,-0.0464019775390625,0.8273410797119141,-0.35853925347328186,0.2053092122077942
879,1.1995,1.7415,0,0,0.055694580078125,1.0972442626953125,-0.0086517333984375,1.4869033098220825,-1.0335781574249268,0.12286786735057831
880,1.2088,2.0378,0,0,0.022369384765625,0.9976348876953125,0.1096038818359375,1.9270063638687134,-1.2354438304901123,0.20330145955085754
881,1.2142,2.3252,0,0,-0.101837158203125,0.9820098876953125,0.0755615234375,2.260183334350586,-1.2515137195587158,0.21507155895233154
882,1.2137,2.5825,0,0,-0.0949859619140625,1.1425323486328125,0.1686553955078125,2.430607795715332,-0.5543055534362793,0.4138546884059906
883,1.2056,2.791,0,0,-0.2894287109375,1.3350982666015625,0.2295074462890625,2.331360340118408,1.2922406196594238,0.17844617366790771
