id,ASVM,GSVM,walking_nonwalking,normal_abnormal,ax,ay,az,gx,gy,gz
1,0.9462,4.5051,0,0,-0.54083251953125,0.8010711669921875,-0.1298980712890625,0.7226519584655762,5.057412147521973,0.7758275270462036
2,0.7585,3.7965,0,0,-0.334869384765625,0.65093994140625,0.1694488525390625,0.9751579761505127,3.9531123638153076,0.904670238494873
3,0.5884,3.1685,0,0,-0.23779296875,0.407806396484375,0.28424072265625,0.7340803742408752,2.0172717571258545,0.957496166229248
4,0.4501,2.6298,0,0,-0.1178436279296875,0.247589111328125,0.3765411376953125,0.21091969311237335,0.021468007937073708,0.895257294178009
5,0.3553,2.1872,0,0,-0.04791259765625,0.1819915771484375,0.20550537109375,-0.22528958320617676,-1.62757408618927,0.9926086068153381
6,0.3127,1.8443,0,0,-0.0843658447265625,0.2064361572265625,0.065704345703125,-0.3768913447856903,-2.22340989112854,0.9852657318115234
7,0.3267,1.6012,0,0,-0.251495361328125,0.2703704833984375,-0.0572509765625,-0.21684283018112183,-2.099663734436035,0.5769107341766357
8,0.3972,1.4536,0,0,-0.3042449951171875,0.2544403076171875,-0.148101806640625,0.14821210503578186,-1.379601001739502,-0.2135373204946518
9,0.5193,1.3932,0,0,-0.253997802734375,0.227203369140625,-0.11932373046875,0.40429607033729553,-0.5189384818077087,-0.9022235870361328
10,0.6836,1.4075,0,0,-0.17333984375,0.2717742919921875,-0.089385986328125,0.40282973647117615,-0.009676596149802208,-1.2789818048477173
11,0.8769,1.4801,0,0,-0.0465087890625,0.4656829833984375,-0.2054901123046875,0.252806693315506,0.06173739954829216,-1.3957011699676514
12,1.0834,1.5916,0,0,0.17840576171875,0.781982421875,-0.3644561767578125,-0.04921947792172432,-0.07484894245862961,-1.294779658317566
13,1.2863,1.7206,0,0,0.441436767578125,1.2434539794921875,-0.554962158203125,-0.6441286206245422,-0.33097711205482483,-0.9981282949447632
14,1.4696,1.8456,0,0,0.68634033203125,1.6620025634765625,-0.744598388671875,-0.7460291981697083,0.38198357820510864,-0.09524049609899521
15,1.6196,1.9467,0,0,0.94403076171875,1.8825225830078125,-0.7863311767578125,-0.6226113438606262,2.0948288440704346,0.828464150428772
16,1.7265,2.0079,0,0,1.203460693359375,1.741424560546875,-0.723876953125,-0.6484938263893127,3.5464019775390625,0.9988028407096863
17,1.7852,2.0189,0,0,1.2855224609375,1.2805328369140625,-0.3173980712890625,-0.7452232837677002,2.8352248668670654,0.59609454870224
18,1.7952,1.9766,0,0,0.63421630859375,1.131805419921875,0.13983154296875,-0.8494226932525635,0.16227678954601288,0.4684801399707794
19,1.7603,1.8851,0,0,-0.0541534423828125,1.0877685546875,0.1400146484375,-0.6663154363632202,-1.7730141878128052,0.11312442272901535
20,1.6877,1.7555,0,0,-0.3786468505859375,1.29119873046875,0.007080078125,-0.41145092248916626,-2.1161041259765625,-0.021207816898822784
21,1.5871,1.6042,0,0,-0.9024810791015625,2.13604736328125,-1.6455230712890625,-0.22649651765823364,1.04049813747406,0.26410382986068726
22,1.4695,1.4508,0,0,-0.8923797607421875,1.1362762451171875,-0.0829010009765625,-0.07836990803480148,2.297901153564453,0.37912654876708984
23,1.346,1.3162,0,0,-0.6426239013671875,0.558502197265625,0.4417266845703125,0.0489845871925354,0.7394418716430664,-0.2762686014175415
24,1.227,1.2194,0,0,-0.47906494140625,0.753326416015625,0.516693115234375,0.0489845871925354,0.7394418716430664,-0.2762686014175415
25,1.1213,1.1757,0,0,-0.3334503173828125,0.8375396728515625,0.4047393798828125,0.14081303775310516,-0.07562205940485,-1.1645971536636353
26,1.0349,1.1948,0,0,-0.2485809326171875,0.8169708251953125,0.3208465576171875,0.09015040099620819,-0.08813225477933884,-1.1595771312713623
27,0.9711,1.2787,0,0,-0.1757049560546875,0.8506622314453125,0.2525787353515625,-0.08427413552999496,0.08170684427022934,-1.1570470333099365
28,0.9306,1.4221,0,0,-0.129913330078125,0.8675384521484375,0.224639892578125,-0.1500728577375412,-0.005453887395560741,-1.1313238143920898
29,0.9112,1.6121,0,0,-0.0664520263671875,0.9117889404296875,0.18975830078125,-0.13204964995384216,-0.38717782497406006,-1.1813079118728638
30,0.9091,1.8294,0,0,-0.00347900390625,0.95062255859375,0.1813201904296875,-0.11590369790792465,-0.9129382967948914,-1.2108871936798096
31,0.9193,2.0504,0,0,0.0597991943359375,0.99774169921875,0.13092041015625,-0.24890489876270294,-1.2589055299758911,-1.1574177742004395
32,0.9364,2.2498,0,0,0.093841552734375,0.9227752685546875,-0.231475830078125,-1.5112028121948242,0.27457377314567566,-1.3099818229675293
33,0.9557,2.4036,0,0,0.2734832763671875,1.1514129638671875,0.0172576904296875,-2.6275439262390137,2.399015426635742,-1.459137201309204
34,0.9732,2.4919,0,0,0.2840728759765625,1.167083740234375,0.017364501953125,-2.055579423904419,1.7817485332489014,-0.76084303855896
35,0.9865,2.5015,0,0,0.1837615966796875,0.89654541015625,-0.1833343505859375,-1.3772553205490112,1.7290312051773071,-0.5054011344909668
36,0.9943,2.4277,0,0,0.194091796875,0.854278564453125,-0.1321868896484375,-1.07047438621521,2.615466833114624,-0.6140192151069641
37,0.9969,2.2747,0,0,0.18499755859375,0.867889404296875,-0.0210723876953125,-0.8244097232818604,2.492324113845825,-0.44960975646972656
38,0.9953,2.0556,0,0,0.141571044921875,0.8997039794921875,0.0348358154296875,-0.877627968788147,1.8659120798110962,-0.41299182176589966
39,0.9913,1.7907,0,0,0.1201324462890625,0.9796905517578125,0.0726470947265625,-0.9622467160224915,0.7045469880104065,-0.5042873620986938
40,0.9872,1.5058,0,0,0.0738983154296875,0.9478607177734375,0.0237884521484375,-0.794100821018219,-0.3460274338722229,-0.6542068719863892
41,0.9852,1.2294,0,0,0.0739593505859375,0.92510986328125,0.00018310546875,-0.6528374552726746,-0.7927767038345337,-0.8070645928382874
42,0.9878,0.9903,0,0,0.1137237548828125,0.9424591064453125,0.0272216796875,-0.5328724384307861,-0.8097948431968689,-0.8247447609901428
43,0.9972,0.8151,0,0,0.145477294921875,1.0141754150390625,0.0346221923828125,-0.5451578497886658,-0.5001373887062073,-0.667665958404541
44,1.0156,0.7253,0,0,0.1646881103515625,1.0723724365234375,0.046661376953125,-0.36541685461997986,-0.11027510464191437,-0.5687326788902283
45,1.0451,0.7355,0,0,0.2285614013671875,1.1461334228515625,0.1251068115234375,0.25681981444358826,-0.49761882424354553,-0.49968358874320984
46,1.0871,0.8519,0,0,0.2188568115234375,1.18511962890625,0.129547119140625,0.4537152945995331,-0.5820394158363342,-0.34369346499443054
47,1.1428,1.0708,0,0,0.216094970703125,1.2078094482421875,0.0890045166015625,0.019337212666869164,-0.011402590200304985,-0.2815762758255005
48,1.2122,1.3786,0,0,0.198089599609375,1.22540283203125,0.0371246337890625,-0.5652362108230591,0.7437455058097839,-0.2953599989414215
49,1.294,1.7528,0,0,0.2574310302734375,1.3001556396484375,0.0151519775390625,-0.6977686882019043,1.132426381111145,-0.3377916216850281
50,1.3852,2.1635,0,0,0.2672119140625,1.3673858642578125,-0.2103729248046875,-0.3771246373653412,1.3680200576782227,0.022231802344322205
51,1.4807,2.5769,0,0,0.1832122802734375,1.1242218017578125,-0.536865234375,0.4365312457084656,2.693446159362793,0.40928417444229126
52,1.573,2.9581,0,0,0.315673828125,1.060760498046875,-0.3083343505859375,1.8668180704116821,3.0853888988494873,0.9128064513206482
53,1.6529,3.2758,0,0,0.3415374755859375,1.16461181640625,-0.0772552490234375,2.524362325668335,2.602581262588501,2.0010223388671875
54,1.7102,3.5048,0,0,0.0854034423828125,1.4511566162109375,-0.0699920654296875,2.2215826511383057,1.326302409172058,3.071619987487793
55,1.7345,3.6293,0,0,-0.1921539306640625,1.8042449951171875,-0.1136322021484375,1.7373062372207642,-0.11439795047044754,3.4449265003204346
56,1.7173,3.6438,0,0,-0.3240509033203125,1.819000244140625,0.0061798095703125,1.8688530921936035,-1.925929069519043,2.9338936805725098
57,1.6533,3.5531,0,0,-0.52471923828125,2.0833892822265625,-0.072723388671875,1.8941330909729004,-2.544820785522461,2.2097251415252686
58,1.5418,3.3715,0,0,-0.9067840576171875,2.121063232421875,-0.3706512451171875,1.2990665435791016,-0.6307750344276428,1.3688852787017822
59,1.3875,3.1204,0,0,-0.6743316650390625,1.560821533203125,-0.3278961181640625,1.1640442609786987,2.50144624710083,0.6849029660224915
60,1.2008,2.8256,0,0,-0.4203643798828125,0.9998626708984375,0.00213623046875,1.460187554359436,3.6497859954833984,0.7998175621032715
61,0.9966,2.5151,0,0,-0.2073974609375,0.71197509765625,0.5241546630859375,1.1807918548583984,2.36946964263916,0.8686115741729736
62,0.793,2.2156,0,0,-0.1336822509765625,0.5717620849609375,0.2249755859375,0.6425278186798096,0.6613726019859314,1.0333536863327026
63,0.6093,1.9507,0,0,-0.122955322265625,0.401123046875,-0.04766845703125,0.6096742749214172,0.4582171142101288,1.0679500102996826
64,0.4637,1.7382,0,0,-0.0507965087890625,0.3109283447265625,0.03619384765625,0.6949284672737122,0.7577300667762756,1.1506017446517944
65,0.3714,1.5892,0,0,-0.0169830322265625,0.2790374755859375,0.0956573486328125,0.6644949316978455,0.9098785519599915,1.2673200368881226
66,0.3427,1.5071,0,0,-0.085357666015625,0.2996826171875,0.2263946533203125,0.6863301396369934,-0.2152436077594757,1.1544116735458374
67,0.382,1.4884,0,0,-0.1989898681640625,0.2818450927734375,0.1209869384765625,0.765993595123291,-1.291651725769043,0.5568126440048218
68,0.487,1.523,0,0,-0.2288055419921875,0.22564697265625,0.0272064208984375,0.777580201625824,-1.4745006561279297,-0.19723530113697052
69,0.6485,1.5965,0,0,-0.216339111328125,0.179473876953125,0.0203704833984375,0.4984329640865326,-1.2760083675384521,-0.7914872169494629
70,0.852,1.6913,0,0,-0.1151275634765625,0.2188720703125,-0.0731353759765625,-0.058099523186683655,-1.2664183378219604,-1.1918655633926392
71,1.0781,1.789,0,0,0.174896240234375,0.3490142822265625,-0.4589385986328125,-0.5085300803184509,-1.2523589134216309,-1.301811695098877
72,1.3054,1.8723,0,0,0.6804962158203125,0.758544921875,-1.2496185302734375,-0.8208078145980835,-0.641151487827301,-1.1446332931518555
73,1.5129,1.9269,0,0,1.14666748046875,1.611968994140625,-0.8600921630859375,-0.8943212032318115,1.2907787561416626,-0.1765420138835907
74,1.6821,1.943,0,0,1.2075347900390625,2.1716766357421875,-0.5986480712890625,-1.0646287202835083,0.9616179466247559,1.3392366170883179
75,1.7998,1.9171,0,0,0.8848419189453125,1.947418212890625,-0.5704193115234375,-0.6969740390777588,1.7123422622680664,1.9505151510238647
76,1.8587,1.852,0,0,0.3552093505859375,1.6155242919921875,-0.1308441162109375,-0.8682618737220764,2.425335645675659,0.5540885329246521
77,1.8584,1.7573,0,0,0.0101318359375,1.5171966552734375,0.06585693359375,-1.3110957145690918,2.2314577102661133,-0.18579517304897308
78,1.8049,1.6479,0,0,-1.19891357421875,1.512725830078125,-1.96527099609375,-0.9972749948501587,0.659907341003418,-0.1468120813369751
79,1.7088,1.5424,0,0,-0.9341888427734375,1.0679473876953125,-0.1104278564453125,1.0137830972671509,-0.32159242033958435,-0.4477604627609253
80,1.5839,1.4602,0,0,-0.48992919921875,0.7463531494140625,0.708892822265625,0.5724989175796509,-0.9990241527557373,-0.5808764696121216
81,1.4451,1.4189,0,0,-0.4495849609375,0.8087158203125,0.5077972412109375,0.17490656673908234,0.019403524696826935,-0.9157140851020813
82,1.3064,1.4315,0,0,-0.30291748046875,0.857666015625,0.442291259765625,0.22698041796684265,0.4443606734275818,-1.207137107849121
83,1.1793,1.5047,0,0,-0.200164794921875,0.8923797607421875,0.396514892578125,0.24901647865772247,0.35804256796836853,-1.352912425994873
84,1.072,1.6375,0,0,-0.1474609375,0.9520111083984375,0.31439208984375,0.2596755027770996,0.06464024633169174,-1.4757329225540161
85,0.9889,1.8208,0,0,-0.0583953857421875,0.9756622314453125,0.2897796630859375,0.26302576065063477,-0.3979337811470032,-1.5610592365264893
86,0.9308,2.0387,0,0,0.05096435546875,0.9774627685546875,0.2627410888671875,0.11522086709737778,-0.9083794951438904,-1.46543550491333
87,0.8956,2.2695,0,0,0.1191864013671875,0.9780731201171875,0.190399169921875,-0.14690475165843964,-1.2239664793014526,-1.249186635017395
88,0.8792,2.4884,0,0,0.128509521484375,0.9010772705078125,-0.1014556884765625,-0.8534494042396545,-0.7781415581703186,-1.1771116256713867
89,0.8766,2.6706,0,0,0.2509918212890625,0.997100830078125,-0.0526580810546875,-2.832944869995117,2.537824869155884,-1.6463062763214111
90,0.8827,2.7939,0,0,0.3412322998046875,1.0699920654296875,0.04168701171875,-2.662513494491577,2.233257293701172,-1.1566816568374634
91,0.8932,2.8423,0,0,0.241943359375,0.8790283203125,-0.2153167724609375,-2.083343982696533,1.9913458824157715,-0.7612456679344177
92,0.9047,2.8072,0,0,0.224639892578125,0.85491943359375,-0.2055511474609375,-1.6536771059036255,2.8342607021331787,-0.6902799010276794
93,0.9155,2.6888,0,0,0.186553955078125,0.841278076171875,-0.1040496826171875,-1.2793469429016113,2.7562544345855713,-0.41972750425338745
94,0.925,2.4957,0,0,0.1071014404296875,0.8466033935546875,-0.027130126953125,-1.1482019424438477,1.9067450761795044,-0.23512862622737885
95,0.9337,2.2438,0,0,0.0464324951171875,0.9000701904296875,0.0102996826171875,-0.9751044511795044,0.41950780153274536,-0.3162357211112976
96,0.943,1.9548,0,0,0.0049591064453125,0.8878021240234375,-0.0532989501953125,-0.7350055575370789,-0.9213783740997314,-0.6186406016349792
97,0.9549,1.6537,0,0,0.0308990478515625,0.8814697265625,-0.1082763671875,-0.38259077072143555,-1.4486069679260254,-0.9290632009506226
98,0.9711,1.3674,0,0,0.092803955078125,0.9474334716796875,-0.037567138671875,-0.06769063323736191,-1.4753220081329346,-1.0355944633483887
99,0.9937,1.1226,0,0,0.1414947509765625,0.9968719482421875,0.0294036865234375,0.054730888456106186,-1.425917387008667,-0.9204934239387512
100,1.0241,0.9439,0,0,0.1591339111328125,1.01483154296875,0.032501220703125,0.06469883769750595,-1.1648783683776855,-0.7356572151184082
101,1.0633,0.852,0,0,0.1819000244140625,1.0500946044921875,0.061737060546875,0.25034859776496887,-0.9029697775840759,-0.6196256875991821
102,1.1119,0.8618,0,0,0.2028045654296875,1.17523193359375,0.102783203125,0.40430566668510437,-0.6995990872383118,-0.4884815216064453
103,1.1696,0.9799,0,0,0.206329345703125,1.243621826171875,0.1214141845703125,0.2839329242706299,-0.34966984391212463,-0.3892044723033905
104,1.2354,1.2038,0,0,0.201507568359375,1.22003173828125,0.146392822265625,-0.12489266693592072,0.04379701614379883,-0.4984867572784424
105,1.3073,1.5205,0,0,0.291656494140625,1.24322509765625,0.0873565673828125,-0.48510676622390747,0.17817187309265137,-0.5283426642417908
106,1.3823,1.9071,0,0,0.3479156494140625,1.3482666015625,0.01397705078125,-0.6422527432441711,0.3816632032394409,-0.3080054819583893
107,1.4562,2.3325,0,0,0.3868408203125,1.3630523681640625,-0.24267578125,-0.7284400463104248,1.055391788482666,-0.053833670914173126
108,1.5239,2.7605,0,0,0.3875732421875,1.282989501953125,-0.793670654296875,0.31351396441459656,3.266380548477173,0.3438151478767395
109,1.5791,3.154,0,0,0.392852783203125,1.1806640625,-0.2270965576171875,2.127113103866577,3.9920601844787598,1.0857961177825928
110,1.6154,3.4794,0,0,0.35516357421875,1.2172088623046875,0.087982177734375,2.7444586753845215,2.2661185264587402,2.2134664058685303
111,1.6262,3.711,0,0,0.0548858642578125,1.4659881591796875,0.16937255859375,1.7590011358261108,-0.45447614789009094,3.219700813293457
112,1.6062,3.8337,0,0,-0.1659698486328125,1.643280029296875,0.067901611328125,1.54170823097229,-3.0053470134735107,3.199087381362915
113,1.5519,3.8447,0,0,-0.2492828369140625,1.7389678955078125,-0.0532989501953125,1.7994451522827148,-4.205981731414795,2.669370174407959
114,1.4627,3.7528,0,0,-0.43304443359375,1.8151702880859375,-0.124237060546875,1.8067563772201538,-3.23087477684021,2.0934717655181885
115,1.342,3.5766,0,0,-0.631622314453125,1.7021484375,0.0769805908203125,1.2986207008361816,-0.30674341320991516,1.2997243404388428
116,1.1966,3.3412,0,0,-0.4610137939453125,1.3585968017578125,0.1000823974609375,0.6616450548171997,2.096359968185425,0.8152133226394653
117,1.037,3.0746,0,0,-0.0876617431640625,0.9537811279296875,0.1388397216796875,0.5108131766319275,3.0488994121551514,1.223118782043457
118,0.8765,2.8038,0,0,0.058441162109375,0.6324005126953125,0.2674407958984375,0.4957176148891449,2.0018951892852783,1.6814475059509277
119,0.7292,2.5523,0,0,-0.0240478515625,0.53521728515625,0.2285614013671875,0.5067145824432373,0.27806490659713745,1.627190351486206
120,0.6091,2.3379,0,0,-0.0601806640625,0.4123382568359375,0.2472991943359375,0.43048295378685,-1.2234410047531128,1.1626349687576294
121,0.5281,2.1719,0,0,-0.005462646484375,0.356719970703125,0.2558746337890625,0.14963209629058838,-2.2233848571777344,0.8601278066635132
122,0.4948,2.0588,0,0,-0.016082763671875,0.402008056640625,0.179412841796875,-0.05429892614483833,-2.716566562652588,0.7870312333106995
123,0.5137,1.9978,0,0,-0.1767120361328125,0.398223876953125,0.081878662109375,0.1309891790151596,-2.700003147125244,0.6315225958824158
124,0.5841,1.983,0,0,-0.37213134765625,0.342071533203125,0.023712158203125,0.5277708768844604,-2.089110851287842,0.10692857950925827
125,0.7007,2.005,0,0,-0.4297027587890625,0.29901123046875,0.0242462158203125,0.786543607711792,-1.318753957748413,-0.5356215834617615
126,0.8538,2.0521,0,0,-0.4331207275390625,0.3400726318359375,0.0366058349609375,0.6995607614517212,-1.0215760469436646,-1.0421513319015503
127,1.0302,2.111,0,0,-0.4457244873046875,0.4528350830078125,-0.1160430908203125,0.2508660554885864,-1.3062716722488403,-1.460581660270691
128,1.2149,2.1679,0,0,-0.0374908447265625,0.72784423828125,-0.99163818359375,-0.4321460723876953,-1.8953286409378052,-1.7321457862854004
129,1.3924,2.21,0,0,0.8394012451171875,1.355194091796875,-1.456024169921875,-0.339363157749176,-0.1920434683561325,-0.8385447263717651
130,1.5489,2.2262,0,0,0.97479248046875,1.8281097412109375,-0.7848663330078125,-0.7108690738677979,1.9809989929199219,0.8678392171859741
131,1.6731,2.2089,0,0,1.0292510986328125,1.6965484619140625,-0.607391357421875,-1.241745948791504,2.325307846069336,2.015155553817749
132,1.7575,2.1549,0,0,0.978851318359375,1.288787841796875,-0.618194580078125,-0.8203356266021729,2.426764726638794,1.8532572984695435
133,1.7984,2.066,0,0,0.6663360595703125,0.833892822265625,0.063232421875,-0.32598796486854553,1.7882388830184937,0.7502856850624084
134,1.796,1.9493,0,0,0.1223907470703125,0.8887481689453125,0.6389923095703125,-0.5197997689247131,-0.39989733695983887,-0.21429738402366638
135,1.7537,1.8162,0,0,-0.2117156982421875,1.0447235107421875,0.48004150390625,-1.026753544807434,-1.597743272781372,-0.7461567521095276
136,1.6776,1.6821,0,0,-0.9272003173828125,2.153717041015625,-2.294891357421875,-0.7651339173316956,-0.2070983201265335,-0.8596324324607849
137,1.5761,1.564,0,0,-0.831329345703125,1.7909088134765625,-0.318939208984375,0.15289287269115448,3.9424171447753906,0.02845241315662861
138,1.4588,1.4794,0,0,-0.602996826171875,0.7942962646484375,0.78594970703125,-0.014608769677579403,1.0677752494812012,0.04020600765943527
139,1.3362,1.4438,0,0,-0.49127197265625,0.776397705078125,0.489654541015625,0.0008692557457834482,-0.27283498644828796,-0.6767398715019226
140,1.2182,1.4688,0,0,-0.3358001708984375,0.8138275146484375,0.2880096435546875,0.22151720523834229,-0.5250051617622375,-1.1105847358703613
141,1.1129,1.5601,0,0,-0.2078399658203125,0.7783355712890625,0.1943817138671875,0.3399471938610077,-0.20369240641593933,-1.2452584505081177
142,1.0264,1.716,0,0,-0.1080780029296875,0.7843017578125,0.223052978515625,0.3985138237476349,-0.07365638017654419,-1.2117897272109985
143,0.9619,1.9269,0,0,-0.0727386474609375,0.8587188720703125,0.26153564453125,0.44471433758735657,-0.4812451899051666,-1.1748836040496826
144,0.9197,2.1757,0,0,-0.0352325439453125,0.9439697265625,0.2865142822265625,0.4197741150856018,-1.2681323289871216,-1.2817440032958984
145,0.898,2.4397,0,0,0.0175628662109375,1.0163726806640625,0.2437286376953125,0.20657235383987427,-2.0182619094848633,-1.3448399305343628
146,0.8931,2.6928,0,0,0.071258544921875,1.03118896484375,0.1581878662109375,-0.23191845417022705,-2.3782296180725098,-1.239624261856079
147,0.9004,2.9088,0,0,0.0955810546875,0.858123779296875,-0.19744873046875,-2.617941379547119,0.09787596017122269,-1.50912606716156
148,0.9153,3.0646,0,0,0.2721405029296875,1.0686187744140625,0.0547943115234375,-3.7766764163970947,1.7277512550354004,-1.3460625410079956
149,0.9337,3.1433,0,0,0.213714599609375,0.9532012939453125,-0.0386199951171875,-3.1218526363372803,0.9196518063545227,-0.7389294505119324
150,0.9524,3.136,0,0,0.10528564453125,0.8221893310546875,-0.52398681640625,-2.273015260696411,1.8183776140213013,-0.6373050808906555
151,0.9694,3.043,0,0,0.0753936767578125,0.8747100830078125,-0.3767852783203125,-1.2534806728363037,3.4502320289611816,-0.6158077716827393
152,0.9838,2.8741,0,0,0.05999755859375,0.9109039306640625,-0.1383056640625,-0.5654117465019226,3.4321956634521484,-0.4179370701313019
153,0.996,2.647,0,0,0.049346923828125,0.9422760009765625,0.0776519775390625,-0.41844651103019714,1.829238772392273,-0.36854127049446106
154,1.0073,2.3854,0,0,0.0549163818359375,0.9624176025390625,0.1468505859375,-0.2468915432691574,-0.4929657578468323,-0.6445294618606567
155,1.0194,2.1169,0,0,0.0654754638671875,0.9525146484375,0.0927886962890625,-0.1660747230052948,-2.148508310317993,-0.9981000423431396
156,1.0346,1.8697,0,0,0.1055908203125,0.9810028076171875,0.0049591064453125,-0.5186977386474609,-2.399559736251831,-1.105368971824646
157,1.0553,1.6708,0,0,0.1734466552734375,1.0731658935546875,-0.0144195556640625,-0.8573935031890869,-1.8074109554290771,-0.9796134233474731
158,1.0836,1.5426,0,0,0.244140625,1.1551513671875,0.01611328125,-0.5261993408203125,-1.4980286359786987,-0.8373039364814758
159,1.1213,1.5015,0,0,0.2485504150390625,1.178955078125,0.029266357421875,0.006880542729049921,-1.2516976594924927,-0.761296272277832
160,1.1697,1.555,0,0,0.2576904296875,1.215545654296875,0.0125579833984375,0.1835503876209259,-0.6674241423606873,-0.7677763104438782
161,1.229,1.7009,0,0,0.25360107421875,1.2256622314453125,-0.0104827880859375,-0.0517638623714447,0.3174469470977783,-0.7264464497566223
162,1.2982,1.9261,0,0,0.2854156494140625,1.2462310791015625,-0.0081787109375,-0.24018970131874084,1.0321784019470215,-0.712656557559967
163,1.3748,2.208,0,0,0.4245758056640625,1.358612060546875,-0.015869140625,-0.1372595876455307,1.0652540922164917,-0.5654223561286926
164,1.4545,2.5161,0,0,0.4561767578125,1.3596649169921875,-0.40032958984375,-0.016651414334774017,2.250122308731079,-0.006518885493278503
165,1.5312,2.8157,0,0,0.4723358154296875,1.1518402099609375,-0.2792510986328125,1.1417003870010376,3.0622572898864746,0.6793726682662964
166,1.5972,3.0725,0,0,0.4279327392578125,1.026092529296875,-0.000152587890625,2.1250228881835938,2.2579665184020996,1.7068660259246826
167,1.644,3.2565,0,0,0.306060791015625,1.2147369384765625,0.090118408203125,2.228914976119995,0.8175156116485596,2.944052219390869
168,1.663,3.3466,0,0,0.042816162109375,1.655426025390625,-0.0576324462890625,1.6022533178329468,-0.2755836546421051,3.9670493602752686
169,1.6466,3.3333,0,0,-0.2205963134765625,1.731201171875,-0.1268157958984375,1.3597195148468018,-1.2892924547195435,3.930773973464966
170,1.5902,3.2196,0,0,-0.3624114990234375,1.90264892578125,-0.1363067626953125,1.7426764965057373,-2.3440589904785156,3.039088726043701
171,1.4929,3.0203,0,0,-0.6082305908203125,2.014678955078125,-0.1703643798828125,1.7086396217346191,-2.13857364654541,2.19460391998291
172,1.3587,2.7596,0,0,-0.79498291015625,1.75341796875,0.1321563720703125,1.028706431388855,-0.3847372829914093,1.2201945781707764
173,1.1964,2.4673,0,0,-0.50335693359375,1.2821044921875,0.198516845703125,0.27364885807037354,0.9020920395851135,0.5923999547958374
174,1.0192,2.1743,0,0,-0.115325927734375,0.8337554931640625,0.1346588134765625,0.38358041644096375,1.1284154653549194,0.9574007987976074
175,0.843,1.909,0,0,-0.0083770751953125,0.5448760986328125,0.156280517578125,0.6519790887832642,0.4008947014808655,1.4193681478500366
176,0.685,1.694,0,0,-0.110443115234375,0.4088592529296875,0.1092987060546875,0.7741604447364807,-0.3025960922241211,1.4110074043273926
177,0.5615,1.5442,0,0,-0.08856201171875,0.3229827880859375,0.1892852783203125,0.7426648139953613,-0.7981696128845215,1.1172940731048584
178,0.4857,1.4664,0,0,-0.1098480224609375,0.3122100830078125,0.16900634765625,0.49587684869766235,-1.2193539142608643,0.8727298378944397
179,0.4667,1.4591,0,0,-0.138824462890625,0.36297607421875,0.2598114013671875,0.2579774856567383,-1.5639504194259644,0.7066255807876587
180,0.508,1.5141,0,0,-0.32440185546875,0.34197998046875,0.1622314453125,0.0008639294537715614,-1.870182991027832,0.41455429792404175
181,0.6073,1.6175,0,0,-0.449188232421875,0.2317657470703125,0.0240325927734375,0.06375660747289658,-1.5651477575302124,-0.23532730340957642
182,0.7567,1.7516,0,0,-0.4550933837890625,0.169769287109375,-0.0515289306640625,0.22863078117370605,-1.164021372795105,-0.9240814447402954
183,0.9433,1.8967,0,0,-0.4004364013671875,0.24371337890625,-0.098297119140625,0.2808907926082611,-1.0698679685592651,-1.409550666809082
184,1.1507,2.033,0,0,-0.2350006103515625,0.4511260986328125,-0.44830322265625,0.07001476734876633,-1.509129524230957,-1.6169028282165527
185,1.3608,2.1423,0,0,0.5911102294921875,0.9811859130859375,-1.3082733154296875,-0.08978687971830368,-1.5707683563232422,-1.3129868507385254
186,1.5558,2.21,0,0,1.25994873046875,1.8045196533203125,-1.145538330078125,-0.24432505667209625,0.7025120854377747,0.2783631682395935
187,1.7201,2.2262,0,0,1.0894775390625,2.2662811279296875,-0.76434326171875,-0.7312699556350708,2.329904556274414,2.0746703147888184
188,1.8421,2.1878,0,0,0.8987274169921875,1.9087982177734375,-0.603729248046875,-0.4148869514465332,2.338132381439209,2.3130128383636475
189,1.9146,2.0983,0,0,0.7269439697265625,1.0130615234375,-0.0970916748046875,-0.6058177351951599,2.33711576461792,1.0826513767242432
190,1.9352,1.9684,0,0,0.34259033203125,0.545562744140625,0.664794921875,-1.316677451133728,1.1326690912246704,0.16505713760852814
191,1.9062,1.8145,0,0,-0.2031402587890625,0.6534881591796875,0.2644195556640625,-1.6171311140060425,-1.1383687257766724,-0.6871120929718018
192,1.8333,1.6566,0,0,-1.84234619140625,1.8923187255859375,-3.229888916015625,-0.4316331744194031,-0.1891355663537979,-1.483577013015747
193,1.7257,1.5163,0,0,-0.3214569091796875,1.8980255126953125,0.32843017578125,0.9600011110305786,0.8629291653633118,-0.8675079345703125
194,1.5945,1.4131,0,0,-0.4237823486328125,1.1891326904296875,0.73394775390625,-0.102803073823452,-0.749790370464325,0.057489391416311264
195,1.4518,1.3624,0,0,-0.48065185546875,0.8481597900390625,0.4293212890625,-0.4140017032623291,-0.10517276078462601,-0.5294191241264343
196,1.3095,1.3729,0,0,-0.3074493408203125,0.77978515625,0.3760986328125,-0.34357839822769165,0.6593097448348999,-1.2255574464797974
197,1.1779,1.4454,0,0,-0.1242218017578125,0.7956695556640625,0.3013458251953125,-0.16952697932720184,0.5835273265838623,-1.3708120584487915
198,1.0647,1.5725,0,0,-0.0540771484375,0.8094329833984375,0.2603607177734375,0.07422975450754166,0.1676981896162033,-1.2230300903320312
199,0.9745,1.7396,0,0,-0.0250396728515625,0.881256103515625,0.2579498291015625,0.34557363390922546,-0.4365248680114746,-1.1786530017852783
200,0.9089,1.9262,0,0,0.0275421142578125,0.9357757568359375,0.2957611083984375,0.46583375334739685,-1.1357218027114868,-1.2715411186218262
201,0.8667,2.1086,0,0,0.1549835205078125,1.0242767333984375,0.2725067138671875,0.26303109526634216,-1.760496973991394,-1.2346910238265991
202,0.8451,2.2631,0,0,0.13116455078125,0.940673828125,-0.120758056640625,-1.3472415208816528,-0.5530746579170227,-1.408707857131958
203,0.8401,2.3686,0,0,0.2789764404296875,1.09088134765625,0.0848236083984375,-2.9947218894958496,1.381666660308838,-1.4754340648651123
204,0.8472,2.4098,0,0,0.2207183837890625,0.938751220703125,-0.0077972412109375,-2.71592378616333,0.6926082968711853,-0.7983512282371521
205,0.8627,2.3793,0,0,0.0786590576171875,0.7329864501953125,-0.2882080078125,-2.251194715499878,1.0898991823196411,-0.47786882519721985
206,0.883,2.2782,0,0,0.0105438232421875,0.7688446044921875,-0.2544708251953125,-1.6484647989273071,2.0248074531555176,-0.3598521947860718
207,0.9058,2.1166,0,0,-0.046112060546875,0.8285064697265625,-0.1633453369140625,-1.059931993484497,2.0520100593566895,-0.20567938685417175
208,0.9295,1.912,0,0,-0.102752685546875,0.84881591796875,-0.091949462890625,-0.7703946828842163,1.40438711643219,-0.19311140477657318
209,0.9532,1.6871,0,0,-0.07855224609375,0.8948974609375,-0.038421630859375,-0.48622530698776245,0.3924873471260071,-0.5157829523086548
210,0.9768,1.4681,0,0,0.0418853759765625,0.9688568115234375,0.073394775390625,-0.16000723838806152,-0.5590848326683044,-0.839383065700531
211,1.0009,1.2813,0,0,0.0936126708984375,0.994964599609375,0.119903564453125,-0.11571913957595825,-1.2638741731643677,-0.971695601940155
212,1.0267,1.1511,0,0,0.127899169921875,1.012725830078125,0.08941650390625,-0.3303297162055969,-1.3503230810165405,-0.996058464050293
213,1.0555,1.0978,0,0,0.181182861328125,1.0833740234375,0.034454345703125,-0.5353744626045227,-0.8919909000396729,-0.937404990196228
214,1.0893,1.1353,0,0,0.2158050537109375,1.13653564453125,0.061614990234375,-0.585861325263977,-0.3870329260826111,-0.9205352067947388
215,1.1299,1.2702,0,0,0.2825469970703125,1.19451904296875,0.1139068603515625,-0.2801315188407898,-0.4857552647590637,-0.9644294381141663
216,1.1791,1.4998,0,0,0.287506103515625,1.2239532470703125,0.06060791015625,-0.0668080598115921,-0.5533723831176758,-0.9516446590423584
217,1.2378,1.8123,0,0,0.2937469482421875,1.2185211181640625,-0.0218048095703125,-0.24471281468868256,0.16223843395709991,-1.0466973781585693
218,1.3062,2.1866,0,0,0.370513916015625,1.2370147705078125,-0.0575714111328125,-0.5986527800559998,1.263995885848999,-1.0135549306869507
219,1.3828,2.5943,0,0,0.4594573974609375,1.3202056884765625,-0.116424560546875,-0.5709401965141296,1.704308032989502,-0.6396412253379822
220,1.4641,3.0016,0,0,0.4615936279296875,1.3293609619140625,-0.6780242919921875,0.012149873189628124,3.170647621154785,0.07274557650089264
221,1.5449,3.3733,0,0,0.5097198486328125,1.1248016357421875,-0.2001495361328125,1.673373818397522,3.854020118713379,0.938970685005188
222,1.6179,3.676,0,0,0.4544830322265625,0.965576171875,0.0062103271484375,2.331664800643921,2.2619266510009766,2.0017099380493164
223,1.6744,3.8821,0,0,0.2891998291015625,1.244781494140625,-0.0603790283203125,1.567285418510437,0.2559420168399811,3.140324115753174
224,1.7052,3.9733,0,0,0.0098114013671875,1.6480712890625,-0.2343902587890625,1.7887752056121826,-1.2975722551345825,3.592440605163574
225,1.7019,3.942,0,0,-0.0497894287109375,1.7713623046875,0.0612335205078125,2.260287046432495,-2.784464120864868,3.447721242904663
226,1.6586,3.7929,0,0,-0.160064697265625,2.0389862060546875,0.02740478515625,2.1037402153015137,-3.7656826972961426,3.197969675064087
227,1.5729,3.5423,0,0,-0.517730712890625,2.1561737060546875,-0.0846099853515625,1.5499563217163086,-2.666038990020752,2.6577823162078857
228,1.4474,3.216,0,0,-0.7720794677734375,1.9428863525390625,0.0014801025390625,0.8198605179786682,-0.19671785831451416,1.4235436916351318
229,1.2897,2.8459,0,0,-0.5138702392578125,1.4144134521484375,0.0656890869140625,0.2832109332084656,1.8974177837371826,0.523983359336853
230,1.1121,2.467,0,0,-0.1805267333984375,0.89227294921875,0.112091064453125,0.5327480435371399,2.090013027191162,0.8055180907249451
231,0.93,2.1128,0,0,-0.076080322265625,0.571258544921875,0.2534027099609375,0.6937680840492249,0.7654476165771484,1.3646024465560913
232,0.7604,1.8126,0,0,-0.12298583984375,0.4071807861328125,0.248626708984375,0.6427978873252869,-0.8446465730667114,1.5044811964035034
233,0.6199,1.5891,0,0,-0.201263427734375,0.340087890625,0.1921844482421875,0.46378496289253235,-1.6516802310943604,1.2876136302947998
234,0.5226,1.4565,0,0,-0.2943267822265625,0.32757568359375,0.074737548828125,0.26540982723236084,-1.2571710348129272,0.9047533273696899
235,0.4785,1.4203,0,0,-0.292938232421875,0.283843994140625,0.2567291259765625,0.12237198650836945,-0.6541780829429626,0.50052809715271
236,0.4926,1.4767,0,0,-0.26171875,0.2172088623046875,0.285247802734375,-0.011084342375397682,-1.1290982961654663,0.1928565353155136
237,0.5643,1.6136,0,0,-0.377197265625,0.15631103515625,0.050201416015625,0.11689279973506927,-1.8109968900680542,-0.19053292274475098
238,0.6875,1.8118,0,0,-0.3814697265625,0.1768798828125,-0.190643310546875,0.5268132090568542,-1.7569446563720703,-0.6355303525924683
239,0.851,2.0472,0,0,-0.3101043701171875,0.247711181640625,-0.2818145751953125,0.7693326473236084,-1.6823763847351074,-0.8845841288566589
240,1.0402,2.2927,0,0,-0.193145751953125,0.457489013671875,-0.56689453125,0.5489634871482849,-1.9317795038223267,-1.1639842987060547
241,1.2382,2.5211,0,0,0.4042816162109375,1.11517333984375,-1.402740478515625,0.23543089628219604,-1.6491183042526245,-1.320336103439331
242,1.4281,2.7081,0,0,0.942657470703125,1.4162139892578125,-0.850372314453125,-0.8213742971420288,0.699731171131134,-0.3657952845096588
243,1.5945,2.8342,0,0,1.1403961181640625,1.63616943359375,-0.6656036376953125,-1.681368350982666,2.8925812244415283,1.4494755268096924
244,1.7247,2.8877,0,0,1.10406494140625,1.56768798828125,-0.5693511962890625,-1.428450584411621,3.605722427368164,2.7238609790802
245,1.8103,2.8661,0,0,0.69219970703125,0.9424285888671875,-0.2295074462890625,-0.8262504935264587,4.002206802368164,1.863316535949707
246,1.8471,2.7762,0,0,0.0748748779296875,0.886993408203125,0.4211883544921875,-0.8768543004989624,2.4014408588409424,-0.09132591634988785
247,1.8353,2.6334,0,0,-0.7953338623046875,1.2149200439453125,-0.8473968505859375,-1.369558334350586,0.2009269744157791,-1.2607718706130981
248,1.7792,2.4588,0,0,-1.2805023193359375,2.1617584228515625,-1.9107666015625,-0.22165648639202118,-1.5630052089691162,-1.8673768043518066
249,1.6867,2.2766,0,0,0.00421142578125,1.9312744140625,1.232635498046875,0.08912774175405502,-1.9558573961257935,-0.455586701631546
250,1.5684,2.1101,0,0,-0.34283447265625,1.281829833984375,0.5970001220703125,-0.11248660087585449,-1.5708991289138794,0.08094891160726547
251,1.4362,1.9787,0,0,-0.338958740234375,0.837310791015625,0.4301300048828125,0.028675053268671036,0.8943443298339844,-0.7612028121948242
252,1.3021,1.8952,0,0,-0.207122802734375,0.643798828125,0.439483642578125,-0.12883947789669037,1.499587059020996,-1.4121606349945068
253,1.1766,1.8646,0,0,-0.076873779296875,0.6304931640625,0.3037109375,-0.2097921073436737,1.1815905570983887,-1.5830553770065308
254,1.0674,1.8835,0,0,0.01373291015625,0.709197998046875,0.2433624267578125,0.04349847510457039,0.42749568819999695,-1.3943150043487549
255,0.9793,1.9413,0,0,0.015655517578125,0.884246826171875,0.227203369140625,0.4768642783164978,-0.4312203824520111,-1.2134363651275635
256,0.9138,2.0215,0,0,0.07122802734375,1.0822296142578125,0.25482177734375,0.7675435543060303,-1.2984564304351807,-1.2032140493392944
257,0.8698,2.1048,0,0,0.1253814697265625,1.167816162109375,0.0665283203125,0.5442760586738586,-1.8540676832199097,-1.1145638227462769
258,0.8446,2.1713,0,0,0.2146148681640625,1.1307525634765625,-0.0317230224609375,-2.0132830142974854,1.6037406921386719,-1.4587457180023193
259,0.8348,2.204,0,0,0.2243194580078125,1.112030029296875,0.1013336181640625,-2.2660229206085205,1.3552685976028442,-1.0182042121887207
260,0.8367,2.191,0,0,0.042388916015625,0.8015899658203125,-0.10931396484375,-2.034151077270508,0.8751330971717834,-0.6190544366836548
261,0.8473,2.1273,0,0,-0.0252685546875,0.6983489990234375,-0.1966400146484375,-2.0070056915283203,1.6241908073425293,-0.6529370546340942
262,0.8638,2.0148,0,0,0.007537841796875,0.7366943359375,-0.1313018798828125,-1.5792489051818848,1.5733529329299927,-0.6135009527206421
263,0.8846,1.8626,0,0,-0.0301513671875,0.7514190673828125,-0.1596527099609375,-1.1392643451690674,1.0784382820129395,-0.46793630719184875
264,0.9082,1.6852,0,0,-0.0540924072265625,0.83697509765625,-0.1163482666015625,-0.8481478095054626,0.5530511736869812,-0.41872456669807434
265,0.9339,1.5008,0,0,-0.0031280517578125,0.899810791015625,-0.0484466552734375,-0.48304733633995056,-0.25553616881370544,-0.6472208499908447
266,0.9614,1.3292,0,0,0.0750885009765625,0.9682769775390625,-0.027740478515625,-0.1823226660490036,-0.8419378399848938,-0.8455685377120972
267,0.9908,1.1901,0,0,0.1175384521484375,0.995330810546875,0.0572662353515625,-0.031570710241794586,-0.9998689293861389,-0.9449443817138672
268,1.0225,1.1008,0,0,0.14385986328125,1.0277862548828125,0.1230926513671875,0.011137605644762516,-1.1104023456573486,-1.015433430671692
269,1.0576,1.0756,0,0,0.1864776611328125,1.1027069091796875,0.1263427734375,-0.13043470680713654,-1.0500426292419434,-0.9928117990493774
270,1.0972,1.1238,0,0,0.2647857666015625,1.1719970703125,0.1199798583984375,-0.2440563440322876,-0.892576277256012,-0.9439315795898438
271,1.1428,1.2492,0,0,0.336578369140625,1.2185821533203125,0.086151123046875,-0.41093719005584717,-0.6238633394241333,-0.9229426980018616
272,1.1955,1.4488,0,0,0.355072021484375,1.2157440185546875,0.05352783203125,-0.5835968852043152,-0.2776997983455658,-0.8213157057762146
273,1.256,1.713,0,0,0.2888641357421875,1.1581878662109375,-0.0505523681640625,-0.7059605717658997,0.2464340180158615,-0.764212429523468
274,1.3237,2.0252,0,0,0.3093109130859375,1.187164306640625,-0.122222900390625,-0.6869773268699646,1.0302592515945435,-0.7470896244049072
275,1.3969,2.3634,0,0,0.4327392578125,1.3426971435546875,-0.3450927734375,-0.15800268948078156,1.6886552572250366,-0.392636239528656
276,1.4717,2.7016,0,0,0.4762115478515625,1.3035430908203125,-0.4957733154296875,0.9222710728645325,2.970003604888916,0.385770320892334
277,1.5425,3.0129,0,0,0.464569091796875,1.143280029296875,-0.08624267578125,1.9322192668914795,2.7006542682647705,1.3775181770324707
278,1.602,3.2721,0,0,0.3222503662109375,1.1050567626953125,-0.014404296875,1.818176507949829,1.385402798652649,2.4288504123687744
279,1.6421,3.4589,0,0,0.012420654296875,1.370819091796875,-0.0882415771484375,1.711635708808899,-0.043889958411455154,3.1277849674224854
280,1.6542,3.5596,0,0,-0.0319061279296875,1.64569091796875,0.0031280517578125,1.8110438585281372,-1.415908694267273,3.3471691608428955
281,1.6313,3.569,0,0,-0.1085662841796875,1.7417144775390625,0.100189208984375,1.8874146938323975,-2.7684690952301025,3.1537721157073975
282,1.5691,3.4907,0,0,-0.3171844482421875,1.9514007568359375,-0.071807861328125,1.6526051759719849,-2.8150131702423096,2.706024169921875
283,1.4669,3.3361,0,0,-0.658416748046875,1.9351654052734375,-0.168182373046875,1.1118769645690918,-0.8209729194641113,1.8990157842636108
284,1.3288,3.1228,0,0,-0.6297607421875,1.6528778076171875,0.0102691650390625,0.48126861453056335,2.0039706230163574,0.8882158994674683
285,1.164,2.872,0,0,-0.3205718994140625,1.213897705078125,-0.100860595703125,0.5365681052207947,3.0940189361572266,0.848789632320404
286,0.9853,2.6062,0,0,-0.0921783447265625,0.7953643798828125,0.25445556640625,0.8971361517906189,2.059128522872925,1.367047667503357
287,0.8087,2.3467,0,0,-0.0906982421875,0.607177734375,0.275726318359375,0.624630868434906,0.03769012168049812,1.5063738822937012
288,0.651,2.1117,0,0,-0.1346435546875,0.4566192626953125,0.1119232177734375,0.3535058796405792,-1.1872342824935913,1.2362196445465088
289,0.5282,1.9151,0,0,-0.1297454833984375,0.3395233154296875,0.0954132080078125,0.3057609796524048,-1.6322261095046997,0.8811872601509094
290,0.4533,1.7657,0,0,-0.076904296875,0.26849365234375,0.203277587890625,0.13148371875286102,-1.8123998641967773,0.7639040350914001
291,0.4349,1.6673,0,0,-0.1616058349609375,0.22906494140625,0.1716156005859375,0.002660231664776802,-2.1552231311798096,0.7523562908172607
292,0.4763,1.6188,0,0,-0.3269500732421875,0.1807403564453125,0.05572509765625,0.21467208862304688,-2.0421793460845947,0.3946186900138855
293,0.5747,1.615,0,0,-0.3795623779296875,0.1590118408203125,-0.044403076171875,0.5267626047134399,-1.3207038640975952,-0.15575070679187775
294,0.7215,1.6473,0,0,-0.342132568359375,0.1961212158203125,-0.0877685546875,0.6385288238525391,-0.7379124164581299,-0.6149451732635498
295,0.9036,1.704,0,0,-0.296539306640625,0.30877685546875,-0.14501953125,0.3672672212123871,-0.8038538694381714,-0.9345519542694092
296,1.1044,1.7721,0,0,-0.0693359375,0.5899505615234375,-0.6538238525390625,-0.1768043339252472,-1.5360625982284546,-1.267435908317566
297,1.3058,1.8376,0,0,0.7357025146484375,1.1875152587890625,-1.275787353515625,-0.0778346136212349,-1.5138230323791504,-1.1258894205093384
298,1.4907,1.8879,0,0,1.1199798583984375,1.6618194580078125,-0.5939178466796875,-0.26718297600746155,-0.34201860427856445,0.14755244553089142
299,1.6444,1.913,0,0,1.2702484130859375,2.1094818115234375,-0.705230712890625,-0.5024703145027161,0.5524735450744629,1.730147361755371
300,1.7565,1.9073,0,0,1.0025787353515625,1.704010009765625,-0.756317138671875,-0.29367315769195557,2.151580333709717,1.9280260801315308
301,1.8214,1.8709,0,0,0.49786376953125,0.788543701171875,-0.3113861083984375,-0.6163777112960815,3.587496519088745,0.6096439361572266
302,1.838,1.8107,0,0,0.2269744873046875,0.8499755859375,0.5626678466796875,-1.2305721044540405,2.1281137466430664,-0.10225952416658401
303,1.81,1.739,0,0,-0.1407012939453125,1.002960205078125,0.4305267333984375,-1.2195464372634888,-1.2015045881271362,-0.327559232711792
304,1.7442,1.6725,0,0,-1.2632598876953125,2.040374755859375,-3.1313323974609375,-0.8338570594787598,-0.143866628408432,-0.140750452876091
305,1.6501,1.6292,0,0,-0.4362030029296875,1.473419189453125,0.4033355712890625,-0.13665291666984558,2.2213363647460938,0.43313997983932495
306,1.5384,1.6252,0,0,-0.461700439453125,0.8280181884765625,0.595428466796875,-0.060745637863874435,0.2189216911792755,-0.06354488432407379
307,1.4201,1.672,0,0,-0.399993896484375,0.7163848876953125,0.4258575439453125,0.24059875309467316,-0.4050212502479553,-0.80036461353302
308,1.3047,1.774,0,0,-0.225555419921875,0.7861785888671875,0.3634490966796875,0.4255470335483551,-0.5488519072532654,-1.264894723892212
309,1.2001,1.9275,0,0,-0.1119384765625,0.9028167724609375,0.301177978515625,0.5928385853767395,-0.8519089818000793,-1.3724696636199951
310,1.1109,2.1208,0,0,-0.06268310546875,0.98956298828125,0.29608154296875,0.7914688587188721,-1.4358915090560913,-1.398788571357727
311,1.0393,2.3357,0,0,-0.0091094970703125,1.10235595703125,0.3308563232421875,0.7186774611473083,-1.9446828365325928,-1.473268747329712
312,0.9853,2.5497,0,0,0.051788330078125,1.2060699462890625,0.327972412109375,0.21159933507442474,-2.200749158859253,-1.4379618167877197
313,0.9469,2.7392,0,0,0.0906829833984375,1.1602783203125,0.27557373046875,-0.7897311449050903,-2.102684497833252,-1.2155489921569824
314,0.9217,2.882,0,0,0.115447998046875,1.0581817626953125,0.0462646484375,-2.7244904041290283,-0.5137724876403809,-1.281032681465149
315,0.9069,2.9606,0,0,0.08929443359375,0.97564697265625,-0.0430908203125,-3.4842581748962402,0.3679244816303253,-0.9955220818519592
316,0.8999,2.9643,0,0,-0.0591278076171875,0.7401123046875,-0.49859619140625,-3.0874667167663574,1.61911141872406,-0.9385509490966797
317,0.899,2.8901,0,0,0.0040740966796875,0.783447265625,-0.4467926025390625,-1.6547212600708008,3.029737710952759,-0.9226007461547852
318,0.9026,2.7438,0,0,0.007720947265625,0.7639923095703125,-0.2044830322265625,-0.3610266447067261,2.8297317028045654,-0.508003830909729
319,0.9101,2.5382,0,0,-0.02435302734375,0.7669525146484375,0.0223541259765625,-0.25740623474121094,1.88346266746521,-0.3668794631958008
320,0.9209,2.2924,0,0,0.025238037109375,0.81854248046875,0.15924072265625,-0.6310426592826843,0.30474260449409485,-0.7062007784843445
321,0.9349,2.0291,0,0,0.0836639404296875,0.8866424560546875,0.0985870361328125,-0.6603760719299316,-1.3147873878479004,-1.0251127481460571
322,0.952,1.7728,0,0,0.0728912353515625,0.951751708984375,-0.0368194580078125,-0.7810811996459961,-1.7109776735305786,-1.145633339881897
323,0.9725,1.5478,0,0,0.116455078125,0.9894561767578125,-0.021148681640625,-0.7098445296287537,-1.4172477722167969,-1.2435638904571533
324,0.9971,1.3764,0,0,0.1722564697265625,1.0466766357421875,0.013031005859375,-0.46463504433631897,-1.280222773551941,-1.233503818511963
325,1.0267,1.2769,0,0,0.204986572265625,1.093017578125,0.0225067138671875,-0.44661131501197815,-0.795517086982727,-1.0828404426574707
326,1.0627,1.263,0,0,0.26947021484375,1.1199951171875,0.0644989013671875,-0.4256194829940796,-0.35959118604660034,-1.01519775390625
327,1.1066,1.3414,0,0,0.3485260009765625,1.1531219482421875,0.061920166015625,-0.40295809507369995,-0.039324235171079636,-0.9483141303062439
328,1.1597,1.5115,0,0,0.367889404296875,1.167144775390625,0.032928466796875,-0.3985271453857422,0.24880076944828033,-0.8118026256561279
329,1.223,1.7644,0,0,0.3109283447265625,1.1818389892578125,-0.0489501953125,-0.4625239670276642,0.8017044067382812,-0.6570231318473816
330,1.2964,2.0841,0,0,0.2657623291015625,1.17474365234375,-0.1364898681640625,-0.5090289115905762,1.6803838014602661,-0.4888351857662201
331,1.378,2.4478,0,0,0.3709869384765625,1.3852081298828125,-0.3559112548828125,-0.0194325540214777,2.115875244140625,-0.2700392007827759
332,1.4644,2.8291,0,0,0.3886260986328125,1.3635711669921875,-0.525848388671875,1.180765986442566,3.5546486377716064,0.3615984320640564
333,1.5498,3.1997,0,0,0.4863739013671875,1.0765380859375,0.111480712890625,2.399456024169922,2.039456367492676,1.0656343698501587
334,1.6265,3.5332,0,0,0.42132568359375,1.013671875,0.16680908203125,2.2761449813842773,0.06451587378978729,2.0912625789642334
335,1.6854,3.8068,0,0,0.2486724853515625,1.253082275390625,0.1492919921875,1.942576289176941,-1.693228006362915,3.123694896697998
336,1.7169,4.0043,0,0,0.114501953125,1.58843994140625,0.0620269775390625,1.7269624471664429,-2.781437873840332,3.558551549911499
337,1.7126,4.1164,0,0,0.0277862548828125,1.8631134033203125,0.0913848876953125,1.698984146118164,-3.5656778812408447,3.4694178104400635
338,1.6665,4.1419,0,0,-0.2263336181640625,2.1743621826171875,0.0461883544921875,1.6960152387619019,-3.7054569721221924,3.0100369453430176
339,1.5767,4.0858,0,0,-0.5985107421875,2.2804107666015625,0.0329437255859375,0.9491982460021973,-1.4639180898666382,2.0422587394714355
340,1.4462,3.9588,0,0,-0.754791259765625,1.8756103515625,-0.03692626953125,0.2646569609642029,2.3858022689819336,0.7975568175315857
341,1.2833,3.7744,0,0,-0.4603424072265625,1.2377471923828125,-0.093780517578125,0.722362756729126,4.246160984039307,0.6578740477561951
342,1.1009,3.5472,0,0,-0.2753753662109375,0.7675323486328125,0.32855224609375,0.9869688153266907,3.549518585205078,1.0731130838394165
343,0.9148,3.2917,0,0,-0.119537353515625,0.433685302734375,0.5548095703125,0.36425358057022095,0.7530913352966309,1.1864372491836548
344,0.7421,3.0212,0,0,-0.0622406005859375,0.3127288818359375,0.2983245849609375,-0.31253206729888916,-2.2856147289276123,1.0908520221710205
345,0.5992,2.748,0,0,-0.1511993408203125,0.3226776123046875,0.00823974609375,-0.32269495725631714,-3.3863906860351562,0.9190875291824341
346,0.4995,2.4839,0,0,-0.162078857421875,0.32281494140625,0.1702423095703125,-0.343553364276886,-3.5302886962890625,0.7326326966285706
347,0.4523,2.2402,0,0,-0.2020111083984375,0.3030242919921875,0.160064697265625,-0.4242234528064728,-3.197063446044922,0.48542022705078125
348,0.4619,2.0286,0,0,-0.2216644287109375,0.2624969482421875,0.0292816162109375,-0.28226736187934875,-2.604283571243286,0.21885564923286438
349,0.527,1.8602,0,0,-0.226287841796875,0.26324462890625,-0.0494842529296875,0.04670225828886032,-1.573842167854309,-0.014249242842197418
350,0.6411,1.7445,0,0,-0.3747406005859375,0.3766326904296875,-0.1437530517578125,0.32848599553108215,-0.9074556231498718,-0.3718891441822052
351,0.7935,1.6882,0,0,-0.4815673828125,0.5837860107421875,-0.2407379150390625,0.5346032381057739,-0.6179764270782471,-0.8305690884590149
352,0.9705,1.693,0,0,-0.408966064453125,0.802825927734375,-0.417510986328125,0.522800624370575,-0.7879606485366821,-1.1273560523986816
353,1.1567,1.7556,0,0,-0.0122833251953125,1.03924560546875,-0.75726318359375,0.11042611300945282,-1.1309469938278198,-1.0588505268096924
354,1.3368,1.8665,0,0,0.617279052734375,1.2064971923828125,-0.953094482421875,-0.2961171567440033,-0.40479567646980286,-0.4468914866447449
355,1.4971,2.0116,0,0,0.9552764892578125,1.3099212646484375,-0.6712493896484375,-0.8497627377510071,1.3878403902053833,0.8015100359916687
356,1.6263,2.1731,0,0,1.051055908203125,1.472320556640625,-0.4609832763671875,-0.9798927903175354,2.8154468536376953,1.848132848739624
357,1.7167,2.3322,0,0,1.01116943359375,1.37890625,-0.0683746337890625,-0.7682124972343445,3.0026614665985107,1.6977803707122803
358,1.7642,2.4709,0,0,1.0030364990234375,1.0280609130859375,0.2900543212890625,-0.6507359743118286,1.6119959354400635,0.809037446975708
359,1.7682,2.5746,0,0,0.4251861572265625,0.923065185546875,0.663330078125,-0.5158127546310425,-1.1091456413269043,0.12819471955299377
360,1.7317,2.6334,0,0,0.0079498291015625,1.1183013916015625,0.2725830078125,-0.5286532044410706,-2.8714208602905273,-0.6324480175971985
361,1.6605,2.6438,0,0,-0.54852294921875,2.12921142578125,-1.832122802734375,-0.9502771496772766,0.3416745066642761,-0.7254866361618042
362,1.5628,2.6091,0,0,-0.837188720703125,2.1728668212890625,-0.794219970703125,-1.4653409719467163,6.6966986656188965,0.6358155608177185
363,1.4484,2.5393,0,0,-0.740875244140625,0.8301544189453125,0.30767822265625,-0.7181299328804016,2.3983869552612305,0.7542524933815002
364,1.328,2.45,0,0,-0.510986328125,0.6718292236328125,0.4882049560546875,0.6440436840057373,-0.8638503551483154,-0.35117560625076294
365,1.2114,2.3603,0,0,-0.31939697265625,0.6456756591796875,0.287200927734375,1.163712739944458,-1.7651612758636475,-1.1190026998519897
366,1.107,2.2901,0,0,-0.15386962890625,0.6500396728515625,0.2252655029296875,1.0820785760879517,-1.6359702348709106,-1.332352876663208
367,1.0207,2.2562,0,0,-0.0518341064453125,0.71270751953125,0.2604522705078125,0.7296563386917114,-1.2661917209625244,-1.1309014558792114
368,0.9554,2.2702,0,0,-0.0291900634765625,0.8957977294921875,0.308197021484375,0.41981539130210876,-1.123451590538025,-0.8782199621200562
369,0.9115,2.3362,0,0,-0.039154052734375,1.084228515625,0.2905731201171875,0.28847068548202515,-1.3962180614471436,-0.8731027245521545
370,0.8869,2.4494,0,0,-0.01483154296875,1.1488189697265625,0.295135498046875,0.06669381260871887,-1.8608512878417969,-0.9741994738578796
371,0.8784,2.5973,0,0,0.028839111328125,1.091339111328125,0.2332916259765625,-0.4048345685005188,-2.3076069355010986,-0.9725304841995239
372,0.882,2.7607,0,0,0.01458740234375,0.9501800537109375,0.138916015625,-0.9423195719718933,-2.6051573753356934,-0.8614655137062073
373,0.8937,2.9165,0,0,-0.0025482177734375,0.777191162109375,-0.095550537109375,-2.520960569381714,-1.1443411111831665,-0.7693139910697937
374,0.91,3.041,0,0,0.0850067138671875,0.89739990234375,-0.02166748046875,-3.767951488494873,0.6909680366516113,-0.5402256846427917
375,0.9282,3.1128,0,0,0.051025390625,0.8786163330078125,-0.066497802734375,-3.2883718013763428,0.6742969155311584,-0.4214990437030792
376,0.9463,3.1165,0,0,-0.078460693359375,0.850341796875,-0.503997802734375,-2.2218821048736572,1.5859129428863525,-0.4232601821422577
377,0.9632,3.0442,0,0,-0.0918426513671875,0.8735504150390625,-0.3806610107421875,-0.8334101438522339,3.2600576877593994,-0.37478187680244446
378,0.9787,2.8973,0,0,-0.0179595947265625,0.9004974365234375,-0.1397552490234375,0.09124309569597244,3.6285736560821533,-0.3230816423892975
379,0.9931,2.6862,0,0,0.0648193359375,0.962127685546875,0.066070556640625,0.07184196263551712,3.2755916118621826,-0.5141363143920898
380,1.007,2.4301,0,0,0.155609130859375,0.9522552490234375,0.21759033203125,-0.3910045027732849,1.8788262605667114,-0.9868833422660828
381,1.0218,2.1545,0,0,0.2410888671875,0.9394683837890625,0.1953887939453125,-0.46164166927337646,-0.19713251292705536,-1.2001452445983887
382,1.0389,1.8886,0,0,0.2255401611328125,0.9764404296875,0.0809173583984375,-0.509793758392334,-1.5317496061325073,-1.0968060493469238
383,1.0599,1.6625,0,0,0.2186279296875,1.0279388427734375,0.0202789306640625,-0.7110269665718079,-1.6000231504440308,-0.9234074354171753
384,1.0865,1.5035,0,0,0.262359619140625,1.1302032470703125,0.037933349609375,-0.3842536509037018,-1.5994141101837158,-0.8272262811660767
385,1.1205,1.4334,0,0,0.277191162109375,1.2188262939453125,0.0284881591796875,-0.04073890671133995,-1.3364770412445068,-0.6770690083503723
386,1.1631,1.4658,0,0,0.2366943359375,1.235107421875,0.0170745849609375,0.05422648787498474,-0.6610391736030579,-0.5671585202217102
387,1.2155,1.6041,0,0,0.2157745361328125,1.2479705810546875,-0.0200042724609375,-0.06023244932293892,0.32294023036956787,-0.6302034854888916
388,1.2775,1.8403,0,0,0.275909423828125,1.2868194580078125,-0.026947021484375,-0.25623977184295654,1.329662561416626,-0.6072582602500916
389,1.348,2.156,0,0,0.324859619140625,1.356964111328125,-0.131805419921875,-0.009031844325363636,1.6898527145385742,-0.5291269421577454
390,1.4242,2.5233,0,0,0.47686767578125,1.3267059326171875,-0.3216705322265625,0.6690782308578491,2.4199013710021973,-0.2548011243343353
391,1.5011,2.9077,0,0,0.5754547119140625,1.1268310546875,-0.2439727783203125,1.6164575815200806,2.5589139461517334,0.40430328249931335
392,1.5722,3.2723,0,0,0.578948974609375,0.953521728515625,-0.0627593994140625,2.0533440113067627,1.9853562116622925,1.4774749279022217
393,1.629,3.5813,0,0,0.366455078125,1.042724609375,-0.012786865234375,2.1362497806549072,0.45323991775512695,2.739439010620117
394,1.6627,3.8041,0,0,0.053985595703125,1.4407501220703125,0.022705078125,2.0877106189727783,-1.0992200374603271,3.5672054290771484
395,1.6645,3.9191,0,0,-0.0155487060546875,1.745819091796875,0.1487579345703125,1.7247587442398071,-2.791811943054199,3.8449056148529053
396,1.628,3.9157,0,0,-0.1679840087890625,1.952850341796875,0.059356689453125,1.653328776359558,-3.9592323303222656,3.364069700241089
397,1.5499,3.7956,0,0,-0.5350494384765625,2.170867919921875,-0.157379150390625,1.1852020025253296,-2.853839635848999,2.4296300411224365
398,1.4318,3.5716,0,0,-0.696075439453125,2.0533447265625,-0.1883087158203125,0.39041194319725037,1.1665343046188354,1.1986457109451294
399,1.2804,3.2663,0,0,-0.4225311279296875,1.484130859375,-0.2633819580078125,0.7162816524505615,3.63059401512146,0.6479742527008057
400,1.1071,2.9088,0,0,-0.1756744384765625,0.8100738525390625,0.269500732421875,1.3527417182922363,2.417025089263916,0.9900655746459961
401,0.927,2.5312,0,0,-0.0193939208984375,0.5326385498046875,0.439453125,0.9027268886566162,-0.4320877492427826,1.1766375303268433
402,0.7569,2.1656,0,0,-0.068450927734375,0.436065673828125,0.2072601318359375,0.43168696761131287,-2.194674253463745,1.103588342666626
403,0.6137,1.8412,0,0,-0.1368865966796875,0.3759307861328125,0.0625762939453125,0.22000879049301147,-2.3171825408935547,0.8954945802688599
404,0.5119,1.581,0,0,-0.192596435546875,0.352691650390625,0.0510101318359375,0.22227860987186432,-1.4044190645217896,0.529441237449646
405,0.4621,1.4007,0,0,-0.165679931640625,0.3210601806640625,0.186248779296875,0.11650504171848297,-0.681790292263031,0.3689362108707428
406,0.4701,1.3068,0,0,-0.1249542236328125,0.307952880859375,0.2588958740234375,0.016379771754145622,-0.5439416170120239,0.36779239773750305
407,0.5358,1.2968,0,0,-0.26885986328125,0.2950439453125,0.114349365234375,0.0871649980545044,-0.9827498197555542,0.20099276304244995
408,0.6534,1.3594,0,0,-0.37579345703125,0.3024749755859375,-0.13372802734375,0.38030579686164856,-1.1283619403839111,-0.2967675030231476
409,0.8125,1.4764,0,0,-0.3802032470703125,0.3647613525390625,-0.2675323486328125,0.6570220589637756,-1.0593351125717163,-0.8554680347442627
410,0.9983,1.6251,0,0,-0.2783050537109375,0.473419189453125,-0.3740997314453125,0.5510264039039612,-1.4403799772262573,-1.255155324935913
411,1.1942,1.7812,0,0,0.2270050048828125,0.7235107421875,-0.974365234375,0.0557442232966423,-1.9237772226333618,-1.472305417060852
412,1.383,1.9216,0,0,0.8879241943359375,1.137176513671875,-1.125579833984375,-0.4425143003463745,-0.6040797829627991,-0.8376435041427612
413,1.549,2.0275,0,0,0.9492340087890625,1.680328369140625,-0.881134033203125,-1.1319060325622559,1.3319059610366821,0.5772340297698975
414,1.6797,2.0862,0,0,0.9774932861328125,1.920928955078125,-0.854156494140625,-1.0889079570770264,2.4027068614959717,1.852325201034546
415,1.767,2.0926,0,0,0.9716339111328125,1.4605712890625,-0.5410003662109375,-0.5470976829528809,2.8122808933258057,1.8717769384384155
416,1.8073,2.05,0,0,0.6989593505859375,1.0167999267578125,0.1009521484375,-0.4969722330570221,1.9491268396377563,0.8695564270019531
417,1.8015,1.9688,0,0,0.14202880859375,1.051849365234375,0.4818115234375,-0.6168871521949768,-0.24958346784114838,-0.09383035451173782
418,1.7544,1.8649,0,0,-0.1566162109375,1.1041259765625,0.5625152587890625,-0.9313172698020935,-1.6348589658737183,-0.4950374364852905
419,1.6741,1.7577,0,0,-0.60504150390625,2.0352935791015625,-2.734466552734375,-0.41258704662323,1.0954383611679077,-0.3883703649044037
420,1.5705,1.6671,0,0,-0.6021575927734375,1.2250518798828125,-0.213775634765625,0.5587149262428284,3.135941505432129,0.3917142450809479
421,1.4546,1.6108,0,0,-0.6399993896484375,0.627349853515625,0.9264068603515625,0.06950690597295761,-0.11865847557783127,-0.07991480827331543
422,1.3373,1.6023,0,0,-0.415557861328125,0.729766845703125,0.499725341796875,-0.1063501387834549,-1.2394391298294067,-1.1227141618728638
423,1.228,1.649,0,0,-0.2082366943359375,0.7666015625,0.2934722900390625,0.06974366307258606,-1.1823217868804932,-1.3422648906707764
424,1.1335,1.7506,0,0,-0.1306304931640625,0.785003662109375,0.232086181640625,0.23285534977912903,-0.734175980091095,-1.2281676530838013
425,1.0581,1.8997,0,0,-0.103668212890625,0.8860015869140625,0.270355224609375,0.4020771384239197,-0.6289968490600586,-1.2088090181350708
426,1.0028,2.0815,0,0,-0.0445098876953125,1.03741455078125,0.3079833984375,0.46205949783325195,-0.9979724884033203,-1.2916227579116821
427,0.9661,2.2762,0,0,0.0169677734375,1.1108551025390625,0.324798583984375,0.2863779664039612,-1.5433855056762695,-1.281710147857666
428,0.9449,2.4606,0,0,0.05426025390625,1.1569061279296875,0.2865753173828125,-0.28309962153434753,-1.97838294506073,-1.1806490421295166
429,0.9349,2.6116,0,0,0.0558929443359375,1.000518798828125,0.0105743408203125,-1.9974606037139893,-1.1175646781921387,-1.1928164958953857
430,0.9318,2.7087,0,0,0.1384735107421875,1.039703369140625,0.0170135498046875,-3.727222442626953,0.6959023475646973,-1.1533244848251343
431,0.9321,2.7374,0,0,0.1005706787109375,0.9251861572265625,-0.2030792236328125,-3.441701650619507,0.8056557774543762,-0.896761953830719
432,0.933,2.6905,0,0,0.01922607421875,0.7994384765625,-0.5234832763671875,-2.3473026752471924,2.0338785648345947,-0.7960598468780518
433,0.9333,2.5694,0,0,0.0015411376953125,0.8627166748046875,-0.296722412109375,-0.939282238483429,2.574585199356079,-0.5558618903160095
434,0.9328,2.3835,0,0,-0.025909423828125,0.8883056640625,-0.0677337646484375,-0.2950628101825714,1.9921810626983643,-0.22280192375183105
435,0.9324,2.1487,0,0,-0.059600830078125,0.8975830078125,0.090362548828125,-0.4952448904514313,0.7887486815452576,-0.21852727234363556
436,0.9338,1.8858,0,0,-0.0475311279296875,0.8675689697265625,0.093841552734375,-0.6551626324653625,-0.5662609934806824,-0.5946537852287292
437,0.9394,1.6182,0,0,0.036651611328125,0.9020233154296875,0.0445404052734375,-0.7366609573364258,-1.3676154613494873,-1.0155740976333618
438,0.9515,1.3697,0,0,0.084259033203125,0.9282989501953125,0.02392578125,-0.7880375981330872,-1.4772189855575562,-1.0875393152236938
439,0.9723,1.1634,0,0,0.1313934326171875,0.990234375,0.0289459228515625,-0.7558977603912354,-1.1591280698776245,-0.9460206031799316
440,1.0037,1.0196,0,0,0.1440887451171875,1.028076171875,0.0206146240234375,-0.5999183058738708,-0.6715285778045654,-0.7892197966575623
441,1.047,0.9547,0,0,0.1739044189453125,1.086181640625,0.042388916015625,-0.4196087121963501,-0.10468779504299164,-0.6644338965415955
442,1.1025,0.9797,0,0,0.198638916015625,1.1317901611328125,0.070281982421875,-0.23081697523593903,0.2920081615447998,-0.6107552647590637
443,1.1696,1.0987,0,0,0.2064361572265625,1.1295166015625,0.0779876708984375,-0.29568812251091003,0.6937960982322693,-0.6991785764694214
444,1.2466,1.3084,0,0,0.18511962890625,1.11767578125,0.0564727783203125,-0.48832014203071594,1.0647804737091064,-0.7836412787437439
445,1.3305,1.5974,0,0,0.2423858642578125,1.2065887451171875,0.049346923828125,-0.5410688519477844,1.2196567058563232,-0.7399049997329712
446,1.4171,1.9467,0,0,0.4069976806640625,1.3822479248046875,0.0225677490234375,-0.2847142815589905,0.911400318145752,-0.685895562171936
447,1.5011,2.3307,0,0,0.615997314453125,1.5520477294921875,-0.285552978515625,-0.058637481182813644,1.3388192653656006,-0.1775771826505661
448,1.5764,2.7195,0,0,0.6348876953125,1.49200439453125,-0.577880859375,1.0102554559707642,2.391606092453003,0.8864299654960632
449,1.6365,3.081,0,0,0.48931884765625,1.2372589111328125,-0.0438995361328125,2.283108711242676,1.711912989616394,1.7672207355499268
450,1.6748,3.385,0,0,0.299041748046875,1.2535247802734375,0.0587310791015625,2.648261308670044,-0.21397247910499573,2.5932772159576416
451,1.6854,3.6061,0,0,-0.010040283203125,1.5054779052734375,0.152191162109375,2.327796459197998,-1.5766342878341675,3.258549690246582
452,1.6635,3.7262,0,0,-0.1523590087890625,1.7109222412109375,0.2458648681640625,1.671064853668213,-2.8030338287353516,3.2922463417053223
453,1.6067,3.7373,0,0,-0.3008880615234375,1.7934112548828125,0.123016357421875,1.4709203243255615,-3.6462900638580322,2.6584627628326416
454,1.5153,3.6411,0,0,-0.577484130859375,1.8843841552734375,-0.1732940673828125,1.234559416770935,-2.226501941680908,1.7866287231445312
455,1.3928,3.4492,0,0,-0.6896209716796875,1.649261474609375,-0.3947601318359375,1.0690522193908691,1.223636269569397,0.836091935634613
456,1.2461,3.1811,0,0,-0.4273529052734375,1.197906494140625,-0.08758544921875,1.4023209810256958,3.8987948894500732,0.4720112085342407
457,1.0852,2.862,0,0,-0.1311187744140625,0.8277740478515625,0.3911590576171875,1.4001566171646118,2.8708906173706055,1.0211312770843506
458,0.9219,2.5198,0,0,0.0116424560546875,0.625213623046875,0.567718505859375,0.6297729015350342,0.3114425837993622,1.5067976713180542
459,0.7689,2.1828,0,0,-0.01104736328125,0.519378662109375,0.2151336669921875,-0.033372070640325546,-1.5364042520523071,1.5990127325057983
460,0.6383,1.8768,0,0,-0.0186614990234375,0.4661865234375,0.047119140625,-0.15225771069526672,-1.6378389596939087,1.4358470439910889
461,0.5408,1.6227,0,0,-0.1331634521484375,0.4348907470703125,0.0212860107421875,0.01925651915371418,-0.8396512866020203,1.132259726524353
462,0.4844,1.4351,0,0,-0.150482177734375,0.402252197265625,0.204559326171875,0.12409611791372299,-0.3310892581939697,0.7697451710700989
463,0.4734,1.321,0,0,-0.123321533203125,0.4259033203125,0.2193145751953125,0.1619124710559845,-0.43552643060684204,0.5131453275680542
464,0.5091,1.2798,0,0,-0.1315460205078125,0.501190185546875,0.1279296875,0.3125147521495819,-1.0855398178100586,0.350568950176239
465,0.5885,1.3037,0,0,-0.306365966796875,0.524566650390625,-0.069580078125,0.5847276449203491,-1.5948947668075562,0.12906211614608765
466,0.7055,1.3794,0,0,-0.4432220458984375,0.4884185791015625,-0.16827392578125,0.8019688725471497,-1.6876786947250366,-0.32304808497428894
467,0.8513,1.4897,0,0,-0.4576416015625,0.4714813232421875,-0.2161712646484375,0.687544584274292,-1.3100781440734863,-0.7752126455307007
468,1.0146,1.6156,0,0,-0.2570953369140625,0.5481109619140625,-0.4298553466796875,0.2424728274345398,-1.115693211555481,-1.0903202295303345
469,1.1833,1.7381,0,0,0.40509033203125,0.717559814453125,-0.88818359375,-0.28632256388664246,-1.0144113302230835,-0.9767249822616577
470,1.345,1.8405,0,0,0.7523956298828125,0.9682769775390625,-0.9069366455078125,-0.9338206648826599,0.4179961681365967,-0.3104332387447357
471,1.4886,1.9095,0,0,0.815673828125,1.2962646484375,-0.69573974609375,-1.3707572221755981,2.022616147994995,0.5197518467903137
472,1.6048,1.9366,0,0,0.982635498046875,1.6582183837890625,-0.518310546875,-0.9462330937385559,2.197530746459961,1.2682076692581177
473,1.6871,1.9194,0,0,1.1226806640625,1.6981658935546875,-0.4346923828125,-0.14962011575698853,1.9826267957687378,1.292680263519287
474,1.7321,1.8611,0,0,0.7930145263671875,1.268585205078125,-0.1137237548828125,-0.26381033658981323,1.6866323947906494,0.4919596314430237
475,1.7394,1.7709,0,0,0.125640869140625,1.0301971435546875,0.50555419921875,-0.799708902835846,0.6491804122924805,-0.3708776831626892
476,1.7114,1.6623,0,0,-0.1434326171875,0.8039703369140625,0.374603271484375,-1.066972255706787,-0.5485627055168152,-1.0702866315841675
477,1.6529,1.5518,0,0,-0.9651336669921875,1.2045440673828125,-1.3460235595703125,-0.97842937707901,-0.9879856109619141,-1.18023681640625
478,1.5706,1.4574,0,0,-0.891998291015625,2.21759033203125,-1.691314697265625,0.7169317603111267,1.4425333738327026,-0.6301223039627075
479,1.4726,1.3962,0,0,-0.418365478515625,1.0930023193359375,0.92816162109375,0.15817871689796448,1.579820156097412,0.07285183668136597
480,1.3679,1.383,0,0,-0.4354400634765625,0.9415130615234375,0.5606536865234375,0.07139695435762405,0.7630504965782166,-0.44486987590789795
481,1.2651,1.4281,0,0,-0.2620086669921875,0.742706298828125,0.414703369140625,0.15480555593967438,1.1883927583694458,-0.9432764649391174
482,1.1716,1.5359,0,0,-0.124420166015625,0.6483917236328125,0.325775146484375,0.16290690004825592,1.3479866981506348,-1.09297513961792
483,1.0929,1.7036,0,0,-0.043212890625,0.6766510009765625,0.326751708984375,0.2761026918888092,1.014284372329712,-1.0515544414520264
484,1.032,1.9212,0,0,0.0228729248046875,0.898529052734375,0.34625244140625,0.453273206949234,0.3723227083683014,-1.049173355102539
485,0.9893,2.1718,0,0,0.0902862548828125,1.0327606201171875,0.3781280517578125,0.5946178436279297,-0.5609610676765442,-1.1186120510101318
486,0.9631,2.4326,0,0,0.1889801025390625,1.104827880859375,0.3904876708984375,0.36749786138534546,-1.7156834602355957,-1.1335824728012085
487,0.9502,2.6776,0,0,0.187286376953125,1.087890625,0.2801361083984375,-0.26623886823654175,-2.5841879844665527,-1.0214663743972778
488,0.9467,2.8804,0,0,0.1267242431640625,0.93670654296875,-0.0796966552734375,-2.68851900100708,-0.6725597381591797,-1.183457612991333
489,0.9487,3.0177,0,0,0.1968231201171875,1.03997802734375,0.04827880859375,-4.037666320800781,0.8591645359992981,-1.085938572883606
490,0.953,3.0722,0,0,0.144927978515625,0.9588165283203125,-0.140167236328125,-3.3558740615844727,0.27493035793304443,-0.8290513753890991
491,0.9574,3.0347,0,0,-0.04937744140625,0.816253662109375,-0.6920318603515625,-2.4284286499023438,2.00553822517395,-0.6227146983146667
492,0.9608,2.9062,0,0,-0.034515380859375,0.889678955078125,-0.3897247314453125,-0.9240875840187073,3.4745066165924072,-0.41342565417289734
493,0.9632,2.697,0,0,-0.0067291259765625,0.879547119140625,-0.0535888671875,-0.0657113716006279,2.956242799758911,-0.13461719453334808
494,0.9654,2.4263,0,0,0.00592041015625,0.8722991943359375,0.1388702392578125,-0.22990483045578003,1.3574990034103394,-0.2531813979148865
495,0.9689,2.1196,0,0,0.037445068359375,0.866729736328125,0.1219024658203125,-0.3550851345062256,-0.6097770929336548,-0.7207320928573608
496,0.9755,1.8068,0,0,0.0903472900390625,0.8856201171875,0.0253753662109375,-0.3616380989551544,-1.6741125583648682,-1.0573590993881226
497,0.9869,1.5188,0,0,0.1675872802734375,0.9644622802734375,0.002471923828125,-0.37851402163505554,-1.773479700088501,-1.1058707237243652
498,1.0049,1.2858,0,0,0.1789398193359375,1.00408935546875,0.05963134765625,-0.2830202579498291,-1.6353529691696167,-1.019317388534546
499,1.0308,1.134,0,0,0.20928955078125,1.0404052734375,0.0613555908203125,-0.171721950173378,-1.277735710144043,-0.8471124172210693
500,1.0657,1.0834,0,0,0.232513427734375,1.10955810546875,0.066375732421875,0.019162509590387344,-0.7360617518424988,-0.6371951103210449
501,1.1103,1.146,0,0,0.2528076171875,1.19451904296875,0.08056640625,0.1911691576242447,-0.3264116644859314,-0.44683048129081726
502,1.165,1.3234,0,0,0.2288970947265625,1.207672119140625,0.0790252685546875,0.13593067228794098,0.10561537742614746,-0.35551974177360535
503,1.2292,1.6065,0,0,0.2156829833984375,1.1905364990234375,0.0524444580078125,-0.2274283617734909,0.7787594199180603,-0.4456680119037628
504,1.3016,1.9756,0,0,0.2797393798828125,1.2467041015625,0.05865478515625,-0.6611760854721069,1.4522243738174438,-0.4751555919647217
505,1.3797,2.402,0,0,0.35400390625,1.3918609619140625,-0.1140594482421875,-0.554410457611084,1.5425779819488525,-0.2876778542995453
506,1.4598,2.8513,0,0,0.409515380859375,1.3448944091796875,-0.7251739501953125,0.05487816408276558,3.210440158843994,0.08037446439266205
507,1.5366,3.2866,0,0,0.5108642578125,1.241180419921875,-0.4085845947265625,1.9450570344924927,4.369438171386719,0.655126690864563
508,1.6035,3.673,0,0,0.537200927734375,1.0451507568359375,0.2644805908203125,2.781402111053467,2.1925208568573,1.634879469871521
509,1.6529,3.9813,0,0,0.3750152587890625,1.105255126953125,0.0813446044921875,1.9267443418502808,-1.2142655849456787,2.7615392208099365
510,1.677,4.1905,0,0,0.10015869140625,1.4840850830078125,-0.0206756591796875,2.040041923522949,-2.636263370513916,3.2969799041748047
511,1.6687,4.29,0,0,-0.0186920166015625,1.7391510009765625,0.181640625,1.9157779216766357,-3.5513083934783936,3.313873767852783
512,1.6228,4.2797,0,0,-0.183746337890625,1.8769683837890625,0.152984619140625,1.7449768781661987,-4.071012496948242,2.839655637741089
513,1.5375,4.1696,0,0,-0.4673614501953125,2.0760955810546875,-0.0438385009765625,1.1805167198181152,-2.2861716747283936,2.044165849685669
514,1.4152,3.977,0,0,-0.59564208984375,1.9227752685546875,-0.1758880615234375,0.31340134143829346,1.9120430946350098,1.1482237577438354
515,1.2627,3.7248,0,0,-0.35308837890625,1.3811492919921875,-0.2239227294921875,0.6765321493148804,4.543577671051025,0.7895622849464417
516,1.0912,3.4383,0,0,-0.0579986572265625,0.828887939453125,0.253173828125,1.2571276426315308,3.7225687503814697,1.4319814443588257
517,0.9152,3.1421,0,0,0.0126953125,0.641448974609375,0.4033660888671875,0.8459291458129883,0.927323579788208,1.8140968084335327
518,0.7507,2.8585,0,0,-0.1290130615234375,0.57366943359375,0.1605987548828125,0.33946913480758667,-1.3714892864227295,1.4950597286224365
519,0.6138,2.6052,0,0,-0.213226318359375,0.4817962646484375,0.104644775390625,0.19622357189655304,-2.067138433456421,0.8149672150611877
520,0.5186,2.3945,0,0,-0.106689453125,0.3995513916015625,0.258392333984375,-0.06954365968704224,-2.1985599994659424,0.4563523530960083
521,0.4756,2.2335,0,0,-0.0021514892578125,0.3436737060546875,0.3510894775390625,-0.40918004512786865,-2.7863223552703857,0.5942425727844238
522,0.4905,2.1237,0,0,-0.1287841796875,0.303314208984375,0.09027099609375,-0.2960553467273712,-3.020740032196045,0.7003053426742554
523,0.5634,2.0624,0,0,-0.356201171875,0.231689453125,-0.059173583984375,0.2929288148880005,-2.4246110916137695,0.18601727485656738
524,0.6886,2.0434,0,0,-0.4158172607421875,0.2035064697265625,-0.04278564453125,0.6913526058197021,-1.4053857326507568,-0.5854461789131165
525,0.8549,2.0573,0,0,-0.4076995849609375,0.2328948974609375,0.0007781982421875,0.6683381199836731,-0.7238964438438416,-1.1100479364395142
526,1.0468,2.0928,0,0,-0.4300994873046875,0.33038330078125,-0.06964111328125,0.30018165707588196,-0.721768319606781,-1.3494738340377808
527,1.2464,2.1371,0,0,-0.3014984130859375,0.5892486572265625,-0.5980987548828125,-0.3766745626926422,-1.4497745037078857,-1.5654395818710327
528,1.4353,2.1773,0,0,0.4849090576171875,1.2048492431640625,-1.723175048828125,-0.5334921479225159,-0.6869423985481262,-1.4621113538742065
529,1.5969,2.2019,0,0,1.3712921142578125,2.1673431396484375,-0.9716949462890625,-0.07365185022354126,1.9092670679092407,0.45898541808128357
530,1.7183,2.202,0,0,1.2949066162109375,2.0933074951171875,-0.42645263671875,-0.6259722709655762,1.9547221660614014,2.602753162384033
531,1.7917,2.1729,0,0,1.0796356201171875,1.5220794677734375,-0.491455078125,-0.9658331871032715,2.209109306335449,2.243138551712036
532,1.8149,2.1146,0,0,0.705047607421875,0.9075469970703125,0.049285888671875,-0.7454997301101685,2.3763539791107178,0.6013476252555847
533,1.7905,2.0325,0,0,0.2189483642578125,0.9861297607421875,0.396209716796875,-0.6294639706611633,0.6200965642929077,-0.4270208477973938
534,1.7253,1.936,0,0,-0.0900421142578125,1.030914306640625,0.5959014892578125,-0.9465644359588623,-0.6937316060066223,-0.5705937147140503
535,1.6289,1.8378,0,0,-0.73114013671875,1.67156982421875,-1.6586761474609375,-1.140702247619629,-0.9604626297950745,-0.2860107123851776
536,1.5125,1.752,0,0,-0.6851348876953125,1.660919189453125,-0.7824554443359375,-0.06838518381118774,3.617555618286133,0.4576258659362793
537,1.3877,1.6922,0,0,-0.581878662109375,0.7822265625,0.5871734619140625,-0.142708420753479,1.655658483505249,0.2253790646791458
538,1.2652,1.67,0,0,-0.5097503662109375,0.7035064697265625,0.5286102294921875,-0.05020138621330261,-0.15015621483325958,-0.6356214284896851
539,1.1541,1.6929,0,0,-0.3200531005859375,0.7751617431640625,0.2890625,0.18650729954242706,-0.7398096323013306,-1.211618423461914
540,1.0609,1.7635,0,0,-0.197845458984375,0.816802978515625,0.19921875,0.3474053740501404,-0.6791290044784546,-1.3417870998382568
541,0.9892,1.8778,0,0,-0.10504150390625,0.8760833740234375,0.1980438232421875,0.45325562357902527,-0.639065682888031,-1.3056440353393555
542,0.9397,2.0262,0,0,-0.0620269775390625,0.9188995361328125,0.2070159912109375,0.583852231502533,-0.9989213347434998,-1.3120489120483398
543,0.9105,2.1936,0,0,-0.0028533935546875,0.9663848876953125,0.2115478515625,0.633980929851532,-1.61769700050354,-1.345369577407837
544,0.898,2.3617,0,0,0.0477447509765625,1.004180908203125,0.2401885986328125,0.633980929851532,-1.61769700050354,-1.345369577407837
545,0.8974,2.5105,0,0,0.0805511474609375,0.94708251953125,0.101409912109375,-0.5963299870491028,-2.249711275100708,-1.3135921955108643
546,0.904,2.6212,0,0,0.2019805908203125,1.005157470703125,-0.00848388671875,-2.954663038253784,0.10274261981248856,-1.657817006111145
547,0.9134,2.6784,0,0,0.236572265625,1.052398681640625,0.0567474365234375,-3.0547258853912354,0.19941642880439758,-1.140476942062378
548,0.9226,2.6716,0,0,0.1192626953125,0.8680419921875,-0.295989990234375,-2.3738856315612793,0.13250450789928436,-0.8002748489379883
549,0.9298,2.5967,0,0,0.1113739013671875,0.8807830810546875,-0.3913116455078125,-1.6075146198272705,2.0685477256774902,-0.8041564226150513
550,0.9344,2.4563,0,0,0.0933685302734375,0.88775634765625,-0.1744537353515625,-0.7076647281646729,2.493959903717041,-0.4464515149593353
551,0.9374,2.259,0,0,0.056732177734375,0.866912841796875,-0.045257568359375,-0.5247942805290222,2.1445882320404053,-0.12180100381374359
552,0.9402,2.0191,0,0,0.0453338623046875,0.8767852783203125,0.089569091796875,-0.6720481514930725,0.8556166887283325,-0.10302279144525528
553,0.9452,1.755,0,0,0.0107269287109375,0.9081878662109375,0.073333740234375,-0.5081843733787537,-0.872780978679657,-0.4364289939403534
554,0.9544,1.4883,0,0,0.030059814453125,0.9228363037109375,-0.0002288818359375,-0.48696139454841614,-1.633097767829895,-0.8492322564125061
555,0.9699,1.242,0,0,0.0896148681640625,0.914093017578125,-0.0063934326171875,-0.5531830191612244,-1.6084797382354736,-1.0004090070724487
556,0.9933,1.0397,0,0,0.1174468994140625,0.92523193359375,0.0152740478515625,-0.4423912763595581,-1.4026554822921753,-0.8926878571510315
557,1.0254,0.9035,0,0,0.1279449462890625,0.98809814453125,0.035675048828125,-0.30968141555786133,-0.9379439949989319,-0.7450030446052551
558,1.0666,0.8522,0,0,0.1677398681640625,1.08551025390625,0.066802978515625,-0.1013769581913948,-0.4871685802936554,-0.6469364166259766
559,1.1166,0.8995,0,0,0.2056884765625,1.178741455078125,0.093536376953125,0.10388991236686707,-0.2606709897518158,-0.567924439907074
560,1.1746,1.0516,0,0,0.22198486328125,1.240570068359375,0.1111297607421875,0.04442818462848663,-0.04394801706075668,-0.49404406547546387
561,1.2392,1.3057,0,0,0.2126617431640625,1.2177886962890625,0.1116180419921875,-0.27016010880470276,0.2760393023490906,-0.560521125793457
562,1.3086,1.6494,0,0,0.278350830078125,1.2774810791015625,0.1106109619140625,-0.6267185211181641,0.5473632216453552,-0.6491740345954895
563,1.3806,2.0611,0,0,0.3621063232421875,1.413177490234375,0.0240020751953125,-0.7509869337081909,0.4949442148208618,-0.5474992990493774
564,1.4522,2.5116,0,0,0.4299774169921875,1.452850341796875,-0.5422821044921875,-0.8960306644439697,1.9091086387634277,-0.2772885859012604
565,1.5197,2.9673,0,0,0.497314453125,1.3346710205078125,-0.9218292236328125,0.7885489463806152,4.343658447265625,0.2536751329898834
566,1.5786,3.3937,0,0,0.51708984375,1.1768341064453125,0.1077728271484375,2.859339952468872,3.0374209880828857,1.231350302696228
567,1.6235,3.7589,0,0,0.4200897216796875,0.9265899658203125,0.3876190185546875,2.149811029434204,-0.6264631152153015,2.1510114669799805
568,1.6486,4.0373,0,0,0.2159423828125,1.1797637939453125,0.0265350341796875,1.867416501045227,-2.6592390537261963,2.7653589248657227
569,1.648,4.2119,0,0,0.084869384765625,1.60382080078125,0.05230712890625,1.9469199180603027,-3.4399373531341553,3.0918171405792236
570,1.6167,4.2757,0,0,-0.0918121337890625,1.7089996337890625,0.1937255859375,1.8098163604736328,-3.9977166652679443,3.040693521499634
571,1.5518,4.2319,0,0,-0.2998809814453125,1.9275665283203125,0.0996551513671875,1.4556074142456055,-3.3235111236572266,2.4583756923675537
572,1.4532,4.0926,0,0,-0.49407958984375,2.0465240478515625,-0.0414581298828125,0.6513157486915588,-0.2361518144607544,1.8053035736083984
573,1.3247,3.8772,0,0,-0.541412353515625,1.6080474853515625,-0.27294921875,0.5194095969200134,3.71345853805542,1.3214054107666016
574,1.1738,3.6096,0,0,-0.286468505859375,1.0748138427734375,0.134063720703125,0.9805293083190918,4.783946990966797,1.6116883754730225
575,1.0115,3.316,0,0,-0.0910186767578125,0.68292236328125,0.4659271240234375,0.7361744046211243,2.3567698001861572,1.868377685546875
576,0.8511,3.0219,0,0,-0.0662384033203125,0.5643463134765625,0.3167877197265625,0.061957910656929016,-0.6253286004066467,1.6887247562408447
577,0.7069,2.7501,0,0,-0.0400848388671875,0.55218505859375,0.1586151123046875,-0.16362380981445312,-1.8964571952819824,1.3083252906799316
578,0.5926,2.5188,0,0,-0.034027099609375,0.5294036865234375,0.1446533203125,-0.2730083763599396,-2.358186960220337,1.206396460533142
579,0.5198,2.3407,0,0,-0.1334991455078125,0.480224609375,0.2202606201171875,-0.2238251119852066,-2.1702802181243896,1.0335326194763184
580,0.4971,2.222,0,0,-0.0738525390625,0.4292755126953125,0.3339385986328125,-0.11752796173095703,-2.439985752105713,0.8142553567886353
581,0.5283,2.1628,0,0,-0.17041015625,0.391845703125,0.0948638916015625,0.1820576786994934,-2.6414358615875244,0.5512282848358154
582,0.6127,2.1579,0,0,-0.4156646728515625,0.312469482421875,-0.0431365966796875,0.6443672776222229,-1.9299103021621704,-0.058991946280002594
583,0.7445,2.1967,0,0,-0.5132293701171875,0.2498016357421875,-0.06195068359375,0.8526666760444641,-1.3881678581237793,-0.7574328184127808
584,0.9134,2.2649,0,0,-0.5307159423828125,0.2513580322265625,-0.07086181640625,0.6281371712684631,-1.440847635269165,-1.1616919040679932
585,1.1051,2.3458,0,0,-0.4928436279296875,0.3485107421875,-0.2347259521484375,-0.1281569004058838,-1.575791358947754,-1.4226723909378052
586,1.3034,2.4214,0,0,-0.0712738037109375,0.550628662109375,-0.961761474609375,-0.8957398533821106,-1.2464549541473389,-1.7903984785079956
587,1.4913,2.4747,0,0,0.8115234375,1.012359619140625,-1.3871917724609375,-0.8432793021202087,0.4594256579875946,-1.3374736309051514
588,1.6531,2.4915,0,0,1.365325927734375,1.8134918212890625,-0.646728515625,-0.7447998523712158,2.772165536880493,0.5104350447654724
589,1.7765,2.4626,0,0,1.3441314697265625,2.278045654296875,-0.1428680419921875,-1.2251896858215332,2.5012993812561035,2.463576078414917
590,1.8532,2.3852,0,0,1.1143035888671875,1.7748565673828125,-0.3304443359375,-0.9586753845214844,2.5667457580566406,2.254605293273926
591,1.8801,2.2631,0,0,0.6749267578125,0.985870361328125,0.364959716796875,-0.6131917834281921,2.230060577392578,0.48931244015693665
592,1.8586,2.107,0,0,0.2194366455078125,0.955780029296875,0.4041900634765625,-0.7609564661979675,0.3877179026603699,-0.8139512538909912
593,1.7945,1.9324,0,0,-0.07537841796875,0.885772705078125,0.166961669921875,-0.8409016132354736,-0.6455036401748657,-1.3451024293899536
594,1.6964,1.7582,0,0,-1.0575103759765625,2.07421875,-3.1468505859375,0.5214003324508667,1.277511477470398,-1.0294054746627808
595,1.5755,1.6034,0,0,-0.3827056884765625,1.4738006591796875,0.3318634033203125,0.43363240361213684,2.199876070022583,0.46167922019958496
596,1.4435,1.4856,0,0,-0.4010772705078125,0.8094940185546875,0.4694976806640625,-0.550080418586731,0.9361692667007446,0.13117586076259613
597,1.312,1.4179,0,0,-0.399322509765625,0.7102203369140625,0.37213134765625,-0.19270767271518707,0.0911131352186203,-0.6550713181495667
598,1.1908,1.4081,0,0,-0.236480712890625,0.72442626953125,0.2947845458984375,0.21391095221042633,-0.3116748034954071,-1.142041802406311
599,1.0872,1.4568,0,0,-0.1179656982421875,0.781585693359375,0.2107696533203125,0.49448856711387634,-0.41456443071365356,-1.2236207723617554
600,1.0053,1.558,0,0,-0.08221435546875,0.8323211669921875,0.2073822021484375,0.6656554937362671,-0.5102714896202087,-1.2194164991378784
601,0.9461,1.6994,0,0,-0.026641845703125,0.9937896728515625,0.2578125,0.6826525926589966,-0.6447539329528809,-1.187422275543213
602,0.9078,1.8639,0,0,0.022125244140625,1.096954345703125,0.265777587890625,0.5911352038383484,-1.0808374881744385,-1.1954964399337769
603,0.8868,2.0317,0,0,0.0851593017578125,1.0921478271484375,0.2448883056640625,0.2383369356393814,-1.575405478477478,-1.1659772396087646
604,0.8786,2.1827,0,0,0.0874481201171875,0.9314117431640625,0.0822906494140625,-1.0924869775772095,-1.507341980934143,-1.3035491704940796
605,0.8788,2.2987,0,0,0.1692962646484375,1.0123748779296875,0.0420379638671875,-2.878772735595703,-0.3331103026866913,-1.3518623113632202
606,0.8833,2.3656,0,0,0.1310272216796875,0.952117919921875,-0.0277862548828125,-2.9080371856689453,-0.4290400445461273,-0.8307528495788574
607,0.8896,2.3746,0,0,-0.01727294921875,0.7877197265625,-0.364013671875,-2.3753106594085693,0.33411672711372375,-0.6700845956802368
608,0.8963,2.3231,0,0,0.007171630859375,0.8681640625,-0.3083343505859375,-1.3622745275497437,1.6711833477020264,-0.6404321789741516
609,0.903,2.2143,0,0,0.0284423828125,0.88055419921875,-0.14892578125,-0.39578887820243835,1.9599124193191528,-0.40558212995529175
610,0.9105,2.0562,0,0,0.04302978515625,0.84161376953125,0.0165557861328125,-0.17747464776039124,1.7941961288452148,-0.26921334862709045
611,0.9201,1.8607,0,0,0.035400390625,0.8369598388671875,0.140167236328125,-0.5356525182723999,0.9446602463722229,-0.4039967358112335
612,0.9332,1.6423,0,0,0.07183837890625,0.86712646484375,0.095306396484375,-0.782512903213501,-0.20133204758167267,-0.7134667038917542
613,0.9511,1.4172,0,0,0.0592803955078125,0.8878326416015625,0.0140838623046875,-0.7524585723876953,-0.819870114326477,-1.02108895778656
614,0.9746,1.2021,0,0,0.1505584716796875,0.9139404296875,0.016998291015625,-0.720197319984436,-0.9771819710731506,-1.0434736013412476
615,1.0042,1.0144,0,0,0.165679931640625,0.913909912109375,-0.0142974853515625,-0.6416327357292175,-0.931729257106781,-0.9280269145965576
616,1.0397,0.8706,0,0,0.2321624755859375,0.9332733154296875,0.02203369140625,-0.32689210772514343,-0.7550016641616821,-0.8846336603164673
617,1.0809,0.7864,0,0,0.2969207763671875,1.0787200927734375,0.070770263671875,0.17042100429534912,-0.9187626242637634,-0.7417875528335571
618,1.1271,0.7751,0,0,0.318359375,1.2692718505859375,0.091400146484375,0.3394742012023926,-0.9122083187103271,-0.5633376836776733
619,1.1778,0.8462,0,0,0.2981414794921875,1.3687591552734375,0.1135711669921875,0.09702934324741364,-0.726256251335144,-0.4243757724761963
620,1.2326,1.0035,0,0,0.223968505859375,1.2769317626953125,0.067901611328125,-0.3709021806716919,-0.3958943486213684,-0.39659208059310913
621,1.2909,1.2442,0,0,0.2989501953125,1.3006591796875,0.066009521484375,-0.44952934980392456,-0.25148922204971313,-0.48828497529029846
622,1.352,1.5573,0,0,0.3744049072265625,1.35675048828125,0.012359619140625,-0.22388049960136414,-0.4402175843715668,-0.11804887652397156
623,1.4145,1.9243,0,0,0.3150787353515625,1.27752685546875,-0.244781494140625,0.015930762514472008,0.1350928395986557,0.36252760887145996
624,1.4757,2.32,0,0,0.2802581787109375,1.2841033935546875,-0.620208740234375,0.5484117269515991,2.0802223682403564,0.6512550115585327
625,1.532,2.7151,0,0,0.231353759765625,1.2107391357421875,-0.4021148681640625,1.7579313516616821,3.5041563510894775,0.9806054830551147
626,1.578,3.0798,0,0,0.24310302734375,1.1518707275390625,0.0791168212890625,2.6888840198516846,2.199092149734497,1.6385314464569092
627,1.6073,3.3868,0,0,0.1495361328125,1.2562255859375,0.2972412109375,2.548017978668213,-0.2472183108329773,2.6127355098724365
628,1.6133,3.6145,0,0,0.001861572265625,1.48956298828125,0.21783447265625,1.926753044128418,-2.0531692504882812,3.2236342430114746
629,1.5897,3.7495,0,0,-0.1473388671875,1.5723419189453125,0.1255340576171875,1.4253402948379517,-2.8837199211120605,3.055880546569824
630,1.5322,3.7871,0,0,-0.288299560546875,1.7552032470703125,-0.1573944091796875,1.1180511713027954,-2.1398253440856934,2.2688093185424805
631,1.4395,3.731,0,0,-0.4476318359375,2.010528564453125,-0.55706787109375,0.97535640001297,1.0477924346923828,1.5106840133666992
632,1.3142,3.593,0,0,-0.4365997314453125,1.7189483642578125,-0.2735748291015625,1.2353006601333618,4.383782386779785,1.2617511749267578
633,1.1634,3.3903,0,0,-0.2784576416015625,1.2078094482421875,0.2881011962890625,1.37017822265625,4.427951335906982,1.476484775543213
634,0.9981,3.144,0,0,-0.0901031494140625,0.8284149169921875,0.4639434814453125,0.7962403893470764,1.7748814821243286,1.6327483654022217
635,0.832,2.8764,0,0,-0.14263916015625,0.6561431884765625,0.1883087158203125,0.30408185720443726,-0.4161303639411926,1.357094645500183
636,0.6804,2.6093,0,0,-0.1252899169921875,0.48101806640625,0.1822357177734375,0.16612079739570618,-1.2613908052444458,0.862603485584259
637,0.5581,2.3615,0,0,0.046417236328125,0.3286895751953125,0.275054931640625,-0.21642018854618073,-2.2099769115448,0.6785507798194885
638,0.4777,2.1482,0,0,0.15228271484375,0.2607421875,0.1036376953125,-0.4385427236557007,-2.793633222579956,0.8491973876953125
639,0.4479,1.9804,0,0,0.1159515380859375,0.3083343505859375,-0.0160980224609375,-0.04048910364508629,-2.639101266860962,1.0488848686218262
640,0.4725,1.8645,0,0,-0.177093505859375,0.335052490234375,0.0393829345703125,0.4535035789012909,-2.115200996398926,0.6258870363235474
641,0.5501,1.8029,0,0,-0.3367767333984375,0.3365936279296875,0.0830841064453125,0.6335532069206238,-1.494948387145996,-0.3332703709602356
642,0.6737,1.7935,0,0,-0.37322998046875,0.2879486083984375,0.0684356689453125,0.4399091899394989,-0.9832103252410889,-1.0733873844146729
643,0.8317,1.8303,0,0,-0.377716064453125,0.2516937255859375,0.0363311767578125,0.10151410847902298,-0.7558884620666504,-1.4410713911056519
644,1.009,1.903,0,0,-0.314605712890625,0.294830322265625,-0.1210784912109375,-0.33023491501808167,-0.8027151226997375,-1.5087382793426514
645,1.1893,1.9978,0,0,0.018280029296875,0.52655029296875,-0.9535980224609375,-0.7197093963623047,-0.884209394454956,-1.5528851747512817
646,1.3563,2.0984,0,0,1.076904296875,1.4854736328125,-1.7920379638671875,0.7098051309585571,0.2807573676109314,-0.8344703912734985
647,1.4963,2.1873,0,0,1.200225830078125,1.9358062744140625,-0.1501617431640625,0.4601883590221405,0.6602247953414917,1.1412265300750732
648,1.5995,2.2483,0,0,0.9993438720703125,1.97186279296875,-0.4536285400390625,-0.7446802854537964,0.5244621634483337,2.3089540004730225
649,1.6609,2.2683,0,0,0.8075408935546875,1.4384002685546875,-0.6041717529296875,-0.875697135925293,2.6568222045898438,1.4422556161880493
650,1.6799,2.2396,0,0,0.487213134765625,0.737701416015625,-0.1918792724609375,-0.7724788784980774,3.917297840118408,0.0054549528285861015
651,1.6598,2.1618,0,0,0.1099090576171875,0.7872467041015625,0.2977142333984375,-0.8704451322555542,2.6661550998687744,-0.5571756362915039
652,1.6065,2.0416,0,0,-0.2582244873046875,0.9048309326171875,0.2735443115234375,-0.6707674264907837,0.19692504405975342,-0.8678019642829895
653,1.5278,1.8925,0,0,-0.7424774169921875,1.255767822265625,-1.120208740234375,-1.1255637407302856,-1.8642593622207642,-0.7733907699584961
654,1.432,1.7325,0,0,-0.0496063232421875,2.0573272705078125,-0.9863433837890625,-0.7219454050064087,1.3541417121887207,-0.3996073305606842
655,1.3276,1.5817,0,0,-0.076171875,1.3865814208984375,0.377288818359375,0.48398852348327637,0.5539788007736206,-0.4342915415763855
656,1.2225,1.4593,0,0,-0.1773529052734375,0.9949493408203125,0.4235382080078125,0.8574917912483215,0.05945134162902832,-0.802399218082428
657,1.1241,1.3811,0,0,-0.1879730224609375,0.8903656005859375,0.35845947265625,0.7747516632080078,-0.6446388959884644,-1.004866361618042
658,1.0378,1.3574,0,0,-0.0686187744140625,0.8344573974609375,0.22222900390625,0.47604936361312866,-0.6798381805419922,-0.9773665070533752
659,0.9677,1.3915,0,0,-0.03631591796875,0.7425994873046875,0.18389892578125,0.2540290951728821,-0.6225093603134155,-0.826751708984375
660,0.9155,1.4797,0,0,-0.007293701171875,0.75933837890625,0.23309326171875,0.004649346694350243,-0.6867136359214783,-0.785132110118866
661,0.8814,1.6115,0,0,0.029693603515625,0.9082183837890625,0.2706756591796875,-0.23727460205554962,-0.9546665549278259,-0.8391426205635071
662,0.8637,1.7711,0,0,0.0679931640625,0.9853515625,0.2252044677734375,-0.3551762104034424,-1.6068038940429688,-0.8278822302818298
663,0.8595,1.939,0,0,0.0730743408203125,0.9530487060546875,0.178375244140625,-0.6922647356987,-2.0493154525756836,-0.7056223750114441
664,0.8654,2.0953,0,0,0.003753662109375,0.8867645263671875,0.039520263671875,-1.7857027053833008,-1.615779995918274,-0.465193510055542
665,0.8778,2.2209,0,0,-0.0356903076171875,0.90130615234375,-0.052154541015625,-2.7548885345458984,-0.5314087867736816,-0.399254709482193
666,0.8934,2.3004,0,0,0.000335693359375,0.89776611328125,-0.1102294921875,-2.583571434020996,-0.03333478793501854,-0.6468778252601624
667,0.9096,2.3235,0,0,0.0122528076171875,0.9036865234375,-0.2852020263671875,-1.872039794921875,0.7223153114318848,-0.7212037444114685
668,0.9244,2.2853,0,0,0.002960205078125,0.9004974365234375,-0.2751312255859375,-0.9679203033447266,1.5988037586212158,-0.5972743034362793
669,0.9368,2.1869,0,0,0.0003662109375,0.902252197265625,-0.150909423828125,-0.4541158378124237,2.1055052280426025,-0.5307666659355164
670,0.9466,2.0348,0,0,0.041412353515625,0.8936004638671875,-0.0169677734375,-0.3448529839515686,2.0837063789367676,-0.5840485095977783
671,0.9542,1.8404,0,0,0.1059112548828125,0.88818359375,0.075653076171875,-0.31644344329833984,1.3566656112670898,-0.7387890815734863
672,0.9608,1.619,0,0,0.1904449462890625,0.9334564208984375,0.09130859375,-0.347430944442749,0.39498913288116455,-0.990007221698761
673,0.9679,1.3889,0,0,0.2623138427734375,0.9278564453125,0.0787811279296875,-0.39654120802879333,-0.43562230467796326,-1.1673567295074463
674,0.9774,1.1702,0,0,0.2860565185546875,0.9415130615234375,0.052978515625,-0.43825963139533997,-0.9583739042282104,-1.0705609321594238
675,0.9913,0.9838,0,0,0.2298736572265625,0.978240966796875,0.0104217529296875,-0.5116238594055176,-0.9817354679107666,-0.8420470356941223
676,1.0119,0.8503,0,0,0.201080322265625,1.029266357421875,0.0218505859375,-0.4160688519477844,-0.7706085443496704,-0.7875782251358032
677,1.041,0.7883,0,0,0.2177886962890625,1.0426025390625,0.0496826171875,0.023245934396982193,-0.9041929841041565,-0.7836567163467407
678,1.0803,0.8128,0,0,0.207275390625,1.1089324951171875,0.0553741455078125,0.29443296790122986,-0.862236738204956,-0.6276479363441467
679,1.1307,0.9333,0,0,0.2306976318359375,1.1464996337890625,0.044647216796875,0.2120576649904251,-0.5264422297477722,-0.5462234020233154
680,1.1923,1.152,0,0,0.2954559326171875,1.1710662841796875,0.0157623291015625,-0.0903027355670929,0.13689394295215607,-0.5165714621543884
681,1.264,1.4624,0,0,0.364349365234375,1.225921630859375,0.0175018310546875,-0.17338962852954865,0.5266984105110168,-0.4476749897003174
682,1.3433,1.8491,0,0,0.406463623046875,1.2773590087890625,-0.0347747802734375,-0.005280782002955675,0.5717253088951111,-0.2849787473678589
683,1.426,2.2882,0,0,0.4395904541015625,1.265960693359375,-0.2094573974609375,0.18225529789924622,1.1783406734466553,-0.04201136529445648
684,1.5062,2.7497,0,0,0.4106903076171875,1.2329254150390625,-0.6935272216796875,0.8682392239570618,2.9451446533203125,0.5216847658157349
685,1.577,3.2004,0,0,0.3558807373046875,1.2171783447265625,-0.256561279296875,2.190976858139038,3.7984743118286133,1.3837227821350098
686,1.6302,3.608,0,0,0.1990966796875,1.2899169921875,0.0602874755859375,2.9217634201049805,1.909320592880249,2.587775945663452
687,1.6577,3.9442,0,0,0.010162353515625,1.4958648681640625,0.2745361328125,1.976120948791504,-1.0383763313293457,3.5798439979553223
688,1.6523,4.1881,0,0,-0.036590576171875,1.59326171875,0.1798248291015625,1.4998478889465332,-3.4149820804595947,3.588320255279541
689,1.6088,4.3277,0,0,-0.16650390625,1.788848876953125,0.0188446044921875,1.420681118965149,-4.252741813659668,2.948591470718384
690,1.5254,4.3597,0,0,-0.38043212890625,2.025665283203125,-0.225860595703125,0.9552801251411438,-2.2561709880828857,2.2521886825561523
691,1.4045,4.2892,0,0,-0.6529388427734375,1.826873779296875,-0.250946044921875,0.44462087750434875,1.5668761730194092,1.3698389530181885
692,1.2528,4.1281,0,0,-0.46392822265625,1.346343994140625,-0.1750640869140625,0.33294039964675903,4.963903903961182,0.7111990451812744
693,1.0813,3.8927,0,0,-0.2327423095703125,0.911865234375,0.12432861328125,0.8789153099060059,4.649984836578369,0.9752940535545349
694,0.9043,3.6027,0,0,-0.151275634765625,0.60137939453125,0.6185760498046875,0.5852019190788269,2.321475028991699,1.0537617206573486
695,0.7376,3.2793,0,0,-0.03594970703125,0.4229736328125,0.517181396484375,-0.15719175338745117,-1.007572889328003,0.8820016384124756
696,0.597,2.9442,0,0,0.0160064697265625,0.2797088623046875,0.2716064453125,-0.617609977722168,-3.4870569705963135,0.7649533152580261
697,0.4964,2.619,0,0,0.0255889892578125,0.2598114013671875,-0.0523223876953125,-0.7164412140846252,-4.26304817199707,0.8186080455780029
698,0.4462,2.3241,0,0,-0.0458984375,0.31463623046875,-0.0487823486328125,-0.48556190729141235,-3.3892855644226074,0.8121868968009949
699,0.4523,2.0779,0,0,-0.13214111328125,0.354461669921875,0.0605621337890625,-0.2978055775165558,-2.396604537963867,0.5978884696960449
700,0.515,1.8958,0,0,-0.19183349609375,0.3592987060546875,-0.0021820068359375,-0.08333616703748703,-1.2403044700622559,0.18158283829689026
701,0.6294,1.7878,0,0,-0.2864532470703125,0.376983642578125,-0.093170166015625,0.0834331065416336,-0.018070347607135773,-0.24733282625675201
702,0.7857,1.7576,0,0,-0.4496917724609375,0.463104248046875,-0.14190673828125,0.09025213122367859,0.6399538516998291,-0.7693845629692078
703,0.97,1.8016,0,0,-0.5058135986328125,0.6859130859375,-0.1741943359375,-0.214195117354393,0.0002878876985050738,-1.3794207572937012
704,1.1664,1.9084,0,0,-0.1815948486328125,0.9278411865234375,-0.61102294921875,-0.6340879797935486,-1.3020553588867188,-1.9570540189743042
705,1.3581,2.061,0,0,0.5759429931640625,1.1090545654296875,-1.0224609375,-0.5634353756904602,-1.2074884176254272,-1.8527803421020508
706,1.5294,2.238,0,0,0.966766357421875,1.345458984375,-0.577667236328125,-0.7325887680053711,0.5280150771141052,-0.7474212050437927
707,1.6672,2.4169,0,0,1.287445068359375,1.6697235107421875,-0.4435882568359375,-0.5406928062438965,2.1378581523895264,0.7922448515892029
708,1.7622,2.5766,0,0,1.387054443359375,1.59893798828125,-0.3162994384765625,0.02021392434835434,4.171878337860107,1.6647028923034668
709,1.8094,2.7001,0,0,1.0923614501953125,1.1556549072265625,0.3421173095703125,-0.15277276933193207,4.344825744628906,0.9969838857650757
710,1.8083,2.7761,0,0,0.5386505126953125,1.1162261962890625,0.6600341796875,-0.6804727911949158,1.3843921422958374,0.2893684208393097
711,1.7626,2.8,0,0,0.1002044677734375,1.00799560546875,0.36334228515625,-0.8043209910392761,-1.857342004776001,0.012773052789270878
712,1.6792,2.7737,0,0,-0.5546417236328125,2.0139007568359375,-1.3233642578125,-2.6059722900390625,-1.8819611072540283,0.41057661175727844
713,1.5675,2.7045,0,0,-0.45989990234375,1.661895751953125,-0.961151123046875,-0.9844851493835449,2.694610118865967,0.4206657409667969
714,1.4383,2.6041,0,0,-0.53546142578125,1.0770111083984375,0.1266326904296875,1.2430427074432373,1.0316166877746582,-0.38599908351898193
715,1.3029,2.4866,0,0,-0.4157257080078125,0.921875,0.308837890625,1.9580609798431396,-0.6091547012329102,-0.943382203578949
716,1.1719,2.3677,0,0,-0.2055816650390625,0.9423675537109375,0.2847900390625,1.9638112783432007,-1.6719602346420288,-1.113669753074646
717,1.0543,2.2625,0,0,-0.1447296142578125,0.899444580078125,0.234375,1.5332345962524414,-1.9876534938812256,-1.0201246738433838
718,0.9566,2.1851,0,0,-0.0525054931640625,0.809844970703125,0.2283477783203125,0.811583399772644,-1.8566282987594604,-0.8791400790214539
719,0.8829,2.147,0,0,-0.006622314453125,0.815216064453125,0.204193115234375,0.11249565333127975,-1.6937147378921509,-0.7098349332809448
720,0.8344,2.156,0,0,-0.000152587890625,0.84478759765625,0.2049407958984375,-0.3580862283706665,-1.7995240688323975,-0.636445939540863
721,0.8098,2.2157,0,0,0.022064208984375,0.869293212890625,0.1912689208984375,-0.6674630045890808,-2.1480233669281006,-0.5976346731185913
722,0.806,2.3245,0,0,0.002777099609375,0.8565673828125,0.1564788818359375,-0.9167071580886841,-2.354710817337036,-0.573977530002594
723,0.8185,2.4756,0,0,0.0100860595703125,0.8622894287109375,0.120849609375,-1.1553906202316284,-2.397747278213501,-0.4462965130805969
724,0.8422,2.657,0,0,-0.00885009765625,0.871490478515625,0.081512451171875,-1.3939509391784668,-2.2387166023254395,-0.25233930349349976
725,0.872,2.8523,0,0,-0.0307159423828125,0.891937255859375,0.04541015625,-1.5917364358901978,-1.6924428939819336,-0.12672731280326843
726,0.9031,3.041,0,0,-0.048370361328125,0.9089813232421875,-0.0070953369140625,-1.8031827211380005,-0.5785394906997681,-0.07148723304271698
727,0.9318,3.2014,0,0,-0.0572662353515625,0.9152374267578125,-0.0551300048828125,-2.171166181564331,0.8729133605957031,-0.011658520437777042
728,0.9557,3.3119,0,0,-0.065032958984375,0.8961944580078125,-0.0755767822265625,-2.4783287048339844,2.2066280841827393,-0.081900455057621
729,0.9735,3.3547,0,0,-0.0615997314453125,0.9432220458984375,-0.2742767333984375,-2.353600263595581,3.266017198562622,-0.20713746547698975
730,0.9855,3.3184,0,0,0.0098419189453125,1.01470947265625,-0.5078277587890625,-1.4780211448669434,4.583868980407715,-0.3314535617828369
731,0.9934,3.2008,0,0,0.1396331787109375,1.02142333984375,-0.1941375732421875,0.06867094337940216,4.5564117431640625,-0.5088672041893005
732,0.9996,3.0098,0,0,0.1926422119140625,0.93701171875,0.132965087890625,0.6519151926040649,3.1828324794769287,-0.843191921710968
733,1.0076,2.7635,0,0,0.2730255126953125,0.960205078125,0.289520263671875,-0.10682498663663864,0.7074362635612488,-1.2219864130020142
734,1.0208,2.4885,0,0,0.2462005615234375,0.94415283203125,0.165191650390625,-0.1398726850748062,-1.5519624948501587,-1.1470937728881836
735,1.0426,2.2171,0,0,0.209136962890625,0.924163818359375,0.078765869140625,0.11899855732917786,-2.646627902984619,-1.0774725675582886
736,1.0754,1.983,0,0,0.2254638671875,1.0041351318359375,0.015289306640625,0.21652165055274963,-2.6915669441223145,-1.0173307657241821
737,1.1207,1.8183,0,0,0.260894775390625,1.08966064453125,0.0293731689453125,0.11327968537807465,-1.9948959350585938,-0.9253571033477783
738,1.1783,1.7485,0,0,0.278228759765625,1.090972900390625,0.03497314453125,-0.008393218740820885,-1.1812525987625122,-0.8771653771400452
739,1.2466,1.7894,0,0,0.3242034912109375,1.1478271484375,0.03045654296875,-0.2237398773431778,-0.22248287498950958,-0.8263852596282959
740,1.3225,1.944,0,0,0.4124298095703125,1.2682647705078125,0.135772705078125,-0.28821367025375366,0.2138076275587082,-0.6881664395332336
741,1.4012,2.2009,0,0,0.479278564453125,1.438934326171875,0.019195556640625,-0.24319054186344147,0.04338528960943222,-0.3699548840522766
742,1.4771,2.5356,0,0,0.49560546875,1.4617767333984375,-0.3143310546875,-0.010441455990076065,0.9570428729057312,0.1088242158293724
743,1.5436,2.9126,0,0,0.385589599609375,1.3711395263671875,-0.659942626953125,0.8304734826087952,3.5282440185546875,0.7372255921363831
744,1.5939,3.2906,0,0,0.351165771484375,1.274688720703125,-0.2046661376953125,2.2640092372894287,4.154844284057617,1.4412518739700317
745,1.6214,3.6275,0,0,0.1805419921875,1.2737579345703125,-0.154876708984375,2.8724594116210938,3.08988094329834,2.445793867111206
746,1.6204,3.8865,0,0,-0.12664794921875,1.5768585205078125,0.0799713134765625,1.8432374000549316,0.37649720907211304,3.5259757041931152
747,1.5868,4.0406,0,0,-0.207275390625,1.6378173828125,0.1551666259765625,1.7545539140701294,-2.63401198387146,3.464728593826294
748,1.5186,4.0756,0,0,-0.2468719482421875,1.64874267578125,0.02862548828125,1.8861793279647827,-4.05366325378418,2.7739205360412598
749,1.417,3.9909,0,0,-0.4949493408203125,1.7319488525390625,-0.289703369140625,1.567641019821167,-2.4351840019226074,2.165672779083252
750,1.2865,3.7992,0,0,-0.528656005859375,1.4398651123046875,-0.2001495361328125,0.9058420062065125,1.974859595298767,1.200925588607788
751,1.1347,3.5237,0,0,-0.284271240234375,1.1118621826171875,-0.023468017578125,0.6589739322662354,4.401706218719482,0.7903444170951843
752,0.9724,3.1951,0,0,0.0183258056640625,0.7836761474609375,0.40771484375,0.5883801579475403,3.6974074840545654,1.2062900066375732
753,0.8122,2.8472,0,0,0.094146728515625,0.6459503173828125,0.408905029296875,0.0497790090739727,0.9978230595588684,1.523041009902954
754,0.6675,2.5131,0,0,-0.070037841796875,0.5523223876953125,0.064727783203125,-0.14582698047161102,-0.5914323925971985,1.2784507274627686
755,0.5515,2.2217,0,0,-0.0828857421875,0.472625732421875,0.1175537109375,-0.03917296975851059,-1.036620855331421,0.7641477584838867
756,0.4755,1.9947,0,0,0.056060791015625,0.43731689453125,0.2489471435546875,-0.19756421446800232,-1.8984005451202393,0.6255546808242798
757,0.4479,1.8451,0,0,0.06048583984375,0.4639892578125,0.1489410400390625,-0.32254743576049805,-2.4625768661499023,0.6957223415374756
758,0.4732,1.777,0,0,-0.0640106201171875,0.457000732421875,0.00250244140625,-0.18742768466472626,-2.4214115142822266,0.5871798992156982
759,0.5513,1.7855,0,0,-0.2328948974609375,0.3887786865234375,-0.045074462890625,0.10785935819149017,-1.7448890209197998,0.025076590478420258
760,0.6776,1.8583,0,0,-0.340911865234375,0.3276824951171875,-0.0168609619140625,0.22368529438972473,-1.061530351638794,-0.6880026459693909
761,0.8426,1.9773,0,0,-0.410064697265625,0.3586273193359375,0.0055999755859375,0.07880400121212006,-0.7122203707695007,-1.2625831365585327
762,1.0331,2.1204,0,0,-0.4317474365234375,0.490081787109375,-0.024139404296875,-0.326962411403656,-0.77406907081604,-1.6956030130386353
763,1.2332,2.2639,0,0,-0.3820343017578125,0.735382080078125,-0.2657928466796875,-0.8338351845741272,-1.1694533824920654,-1.9924285411834717
764,1.426,2.3855,0,0,0.113037109375,1.11334228515625,-1.0000457763671875,-1.1279983520507812,-1.5118317604064941,-2.0778653621673584
765,1.5956,2.4666,0,0,0.9420013427734375,1.8067474365234375,-1.3905029296875,-1.2742911577224731,-0.10543960332870483,-1.3716685771942139
766,1.7289,2.4948,0,0,1.4814300537109375,2.0142822265625,-0.7657928466796875,-0.7847771048545837,2.692147731781006,0.911932110786438
767,1.8166,2.4652,0,0,1.39508056640625,1.718048095703125,-0.3652801513671875,-0.20504902303218842,3.920687198638916,2.3252344131469727
768,1.8546,2.3813,0,0,1.004058837890625,1.1175079345703125,0.28924560546875,-0.3466056287288666,2.8727028369903564,1.6025055646896362
769,1.8436,2.2541,0,0,0.5647125244140625,1.059722900390625,0.3066864013671875,-0.5316566824913025,0.7146491408348083,0.33615484833717346
770,1.7883,2.1007,0,0,0.170928955078125,0.972808837890625,0.41998291015625,-0.26760560274124146,-0.6447667479515076,0.11081546545028687
771,1.6971,1.9418,0,0,-0.440277099609375,1.4876251220703125,-0.320159912109375,-0.4868015944957733,-1.3346871137619019,0.39039039611816406
772,1.5803,1.7992,0,0,-1.2796478271484375,1.9918365478515625,-1.8371429443359375,-1.4390214681625366,1.6709034442901611,0.8471904397010803
773,1.4496,1.6932,0,0,-0.85107421875,1.113037109375,0.0615081787109375,0.32182198762893677,1.9784759283065796,-0.24614904820919037
774,1.3167,1.641,0,0,-0.3347320556640625,0.8930206298828125,0.391632080078125,1.787681221961975,-0.18080440163612366,-0.9733867049217224
775,1.1921,1.6547,0,0,-0.172332763671875,0.791046142578125,0.3874664306640625,1.7163692712783813,-0.17175258696079254,-1.0181280374526978
776,1.0845,1.7401,0,0,-0.07244873046875,0.7356109619140625,0.2922821044921875,1.1791132688522339,0.3835449814796448,-0.7875707745552063
777,0.9994,1.8955,0,0,-0.02862548828125,0.7064666748046875,0.223052978515625,0.8781589865684509,0.22116807103157043,-0.6112785339355469
778,0.9394,2.1121,0,0,0.01055908203125,0.7837982177734375,0.2197723388671875,0.7510537505149841,-0.4611143469810486,-0.6586705446243286
779,0.9037,2.3735,0,0,0.0631866455078125,0.882354736328125,0.2663421630859375,0.6267483234405518,-1.535359263420105,-0.8514272570610046
780,0.889,2.6582,0,0,0.130096435546875,1.0005035400390625,0.304718017578125,0.2712938189506531,-2.628816843032837,-0.951979398727417
781,0.8902,2.9412,0,0,0.1952667236328125,1.0573272705078125,0.28253173828125,-0.4169570207595825,-3.4853217601776123,-0.7609477043151855
782,0.9016,3.1972,0,0,0.1165771484375,1.020751953125,0.1087799072265625,-1.5084197521209717,-3.736266851425171,-0.5455597043037415
783,0.9175,3.4031,0,0,0.081298828125,0.971954345703125,-0.0220184326171875,-3.409872055053711,-2.1049087047576904,-0.349716454744339
784,0.9332,3.5406,0,0,0.0849456787109375,0.9837188720703125,-0.04010009765625,-3.697981595993042,-1.4967029094696045,-0.24936749041080475
785,0.9455,3.5974,0,0,0.063873291015625,0.94329833984375,-0.1577301025390625,-3.1038148403167725,-1.2178363800048828,-0.27724918723106384
786,0.9527,3.5681,0,0,-0.0825653076171875,0.8645782470703125,-0.54595947265625,-2.416102647781372,0.7143607139587402,-0.16388747096061707
787,0.9548,3.4543,0,0,-0.0438232421875,0.885223388671875,-0.3699493408203125,-1.2563790082931519,2.901172399520874,-0.09498297423124313
788,0.9532,3.2638,0,0,-0.0324249267578125,0.8553466796875,-0.1773223876953125,-0.1861690729856491,3.425623893737793,-0.01804291643202305
789,0.9503,3.0099,0,0,-0.0673675537109375,0.8588714599609375,-0.0583953857421875,0.020680511370301247,3.594707727432251,-0.10216418653726578
790,0.949,2.7111,0,0,-0.0236968994140625,0.8641357421875,0.108154296875,-0.3767704367637634,2.981954336166382,-0.5362804532051086
791,0.9526,2.3894,0,0,0.072845458984375,0.9126129150390625,0.187286376953125,-0.7684745788574219,1.2090517282485962,-1.06256902217865
792,0.9638,2.0691,0,0,0.0998077392578125,0.9154205322265625,0.10919189453125,-0.7729849219322205,-0.8622532486915588,-1.2171447277069092
793,0.985,1.7757,0,0,0.0731964111328125,0.9771728515625,-0.117431640625,-0.8601789474487305,-1.680456280708313,-1.1703826189041138
794,1.018,1.5336,0,0,0.1319427490234375,1.0255889892578125,-0.1494140625,-0.5537399053573608,-1.1992355585098267,-1.1502025127410889
795,1.0634,1.3646,0,0,0.24517822265625,1.0740203857421875,0.0105743408203125,0.440794974565506,-1.397206425666809,-1.1739614009857178
796,1.1211,1.2859,0,0,0.3093719482421875,1.1123199462890625,-0.0230712890625,0.84730464220047,-1.2008696794509888,-1.1040962934494019
797,1.1903,1.3082,0,0,0.33624267578125,1.1855926513671875,0.0239715576171875,0.3063114583492279,0.3554510474205017,-1.1109226942062378
798,1.2687,1.4337,0,0,0.4080352783203125,1.239959716796875,0.16766357421875,0.045410625636577606,0.7938017845153809,-0.9552287459373474
799,1.3532,1.6549,0,0,0.4636077880859375,1.319793701171875,0.2303314208984375,0.07157431542873383,-0.13629312813282013,-0.7834212779998779
800,1.4397,1.9541,0,0,0.5769500732421875,1.419036865234375,0.007080078125,-0.11493084579706192,-0.07924368977546692,-0.44703102111816406
801,1.5227,2.3041,0,0,0.567352294921875,1.33917236328125,-0.241363525390625,0.025349298492074013,0.6435920000076294,0.14716973900794983
802,1.5961,2.6706,0,0,0.43939208984375,1.2025299072265625,-0.5341644287109375,0.9969378113746643,2.3034000396728516,0.8989551067352295
803,1.6528,3.016,0,0,0.3846893310546875,1.1947479248046875,-0.226776123046875,2.3685548305511475,2.7228474617004395,1.7871941328048706
804,1.6854,3.3044,0,0,0.1548919677734375,1.360504150390625,-0.1181488037109375,2.9452147483825684,2.0402133464813232,2.9426827430725098
805,1.6872,3.5057,0,0,-0.107696533203125,1.6847686767578125,0.1546173095703125,2.1171908378601074,0.5707740187644958,4.004461288452148
806,1.6531,3.6001,0,0,-0.212615966796875,1.6660003662109375,0.1690216064453125,1.5623111724853516,-1.8566956520080566,3.7271978855133057
807,1.5803,3.5797,0,0,-0.3525848388671875,1.8098907470703125,0.006500244140625,1.5840386152267456,-3.1867663860321045,2.769146680831909
808,1.4699,3.4496,0,0,-0.6914825439453125,1.92999267578125,-0.3647918701171875,1.1102771759033203,-1.6962770223617554,1.7953218221664429
809,1.3271,3.2259,0,0,-0.68951416015625,1.5555877685546875,-0.455902099609375,0.9316040873527527,1.8243465423583984,0.7448816299438477
810,1.1611,2.9333,0,0,-0.33734130859375,1.1182861328125,-0.0163116455078125,1.149174451828003,3.369964122772217,0.5191861987113953
811,0.985,2.6015,0,0,-0.023284912109375,0.7336883544921875,0.515869140625,0.9315596222877502,1.7898874282836914,0.9677450656890869
812,0.8138,2.2613,0,0,0.0026702880859375,0.623565673828125,0.3910064697265625,0.30705422163009644,-0.5547252893447876,1.2489136457443237
813,0.6637,1.9419,0,0,-0.128814697265625,0.47491455078125,0.1051788330078125,0.1210625097155571,-1.3507270812988281,1.0695382356643677
814,0.5495,1.6674,0,0,-0.103668212890625,0.347198486328125,0.108367919921875,0.15881121158599854,-1.1883176565170288,0.6861759424209595
815,0.4831,1.456,0,0,0.032623291015625,0.3338623046875,0.21478271484375,0.09760085493326187,-1.3420685529708862,0.5421953797340393
816,0.4724,1.318,0,0,0.052154541015625,0.3998870849609375,0.1585845947265625,0.023875504732131958,-1.5974284410476685,0.5653712749481201
817,0.5199,1.2566,0,0,-0.0359649658203125,0.4601287841796875,0.0906524658203125,-0.025481658056378365,-1.5811573266983032,0.5037515759468079
818,0.6224,1.2684,0,0,-0.24664306640625,0.41070556640625,0.00189208984375,-0.03839213028550148,-0.9295252561569214,-0.011172492988407612
819,0.7712,1.3441,0,0,-0.3369598388671875,0.36676025390625,-0.011322021484375,-0.09449055045843124,-0.3114857077598572,-0.7313639521598816
820,0.9528,1.4701,0,0,-0.4045257568359375,0.3666229248046875,-0.0759429931640625,-0.2082192450761795,0.0019140138756483793,-1.3413740396499634
821,1.1504,1.6307,0,0,-0.4521942138671875,0.4533233642578125,-0.27471923828125,-0.4350374937057495,-0.28727439045906067,-1.8338346481323242
822,1.3458,1.8089,0,0,0.0015411376953125,0.78125,-1.1415252685546875,-0.704729437828064,-1.4529277086257935,-2.362689971923828
823,1.5214,1.9893,0,0,1.1157379150390625,1.6290740966796875,-1.5051422119140625,0.2187238186597824,-0.7209233045578003,-1.6429564952850342
824,1.6624,2.1583,0,0,1.444122314453125,2.042266845703125,-0.7188262939453125,-0.22754155099391937,0.8311576843261719,0.5737359523773193
825,1.7582,2.3058,0,0,1.2195281982421875,1.77984619140625,-0.581695556640625,-0.8611459136009216,2.45497727394104,2.200198173522949
826,1.8038,2.4254,0,0,0.804443359375,1.1654205322265625,-0.0040283203125,-0.7566900849342346,3.5995490550994873,1.4918365478515625
827,1.7993,2.5141,0,0,0.409423828125,1.012969970703125,0.5117950439453125,-0.2321634590625763,1.4398318529129028,0.46487900614738464
828,1.7496,2.5722,0,0,0.0537567138671875,1.0960540771484375,0.6131591796875,-0.01902029663324356,-1.1734808683395386,0.2131042778491974
829,1.6633,2.6022,0,0,-0.6907501220703125,1.7102508544921875,-1.3211822509765625,-0.7815086245536804,-0.35098332166671753,0.30858874320983887
830,1.5511,2.6083,0,0,-0.8681793212890625,1.512420654296875,-0.831298828125,-1.6887205839157104,5.1788506507873535,0.8356136679649353
831,1.4249,2.596,0,0,-0.547576904296875,0.8206939697265625,0.330474853515625,-0.12169980257749557,2.743994951248169,0.03375769779086113
832,1.2963,2.5713,0,0,-0.3011474609375,0.8033447265625,0.4676513671875,1.3256062269210815,-0.46561163663864136,-0.7226452827453613
833,1.1754,2.5404,0,0,-0.2100067138671875,0.96429443359375,0.340362548828125,1.612544298171997,-2.0502710342407227,-1.0688700675964355
834,1.0701,2.509,0,0,-0.1421661376953125,0.968017578125,0.244964599609375,1.2472240924835205,-2.359349489212036,-1.193169116973877
835,0.9854,2.4816,0,0,-0.0522003173828125,0.901153564453125,0.222198486328125,0.6177572011947632,-2.1359922885894775,-1.1324703693389893
836,0.9237,2.4609,0,0,-0.017486572265625,0.895355224609375,0.20904541015625,-0.11841266602277756,-1.7665562629699707,-0.9483394026756287
837,0.8844,2.4473,0,0,-0.0142669677734375,0.9273834228515625,0.1780242919921875,-0.7321746349334717,-1.6066453456878662,-0.8718084096908569
838,0.8649,2.4383,0,0,0.021240234375,0.9347686767578125,0.1471405029296875,-1.0974338054656982,-1.7306933403015137,-0.8455363512039185
839,0.8613,2.4294,0,0,0.048583984375,0.9183349609375,0.1092681884765625,-1.4124276638031006,-1.8686176538467407,-0.8281421661376953
840,0.8689,2.4141,0,0,0.043212890625,0.9066009521484375,-0.05194091796875,-2.025040864944458,-1.370369791984558,-0.8525018095970154
841,0.8829,2.385,0,0,0.045989990234375,0.935882568359375,-0.2094573974609375,-2.5601072311401367,0.17700566351413727,-0.7938126921653748
842,0.8991,2.3352,0,0,0.0305633544921875,0.9474639892578125,-0.239013671875,-2.0448811054229736,1.2701480388641357,-0.7441045045852661
843,0.9141,2.259,0,0,0.0157470703125,0.8923492431640625,-0.2256317138671875,-1.060925841331482,1.8046461343765259,-0.6523413062095642
844,0.9257,2.1528,0,0,0.0040283203125,0.8568115234375,-0.10491943359375,-0.48139673471450806,2.026134967803955,-0.5894843339920044
845,0.9332,2.016,0,0,0.025238037109375,0.88043212890625,-0.013946533203125,-0.4757247269153595,1.9427759647369385,-0.6995658278465271
846,0.9369,1.8514,0,0,0.0853118896484375,0.9123382568359375,0.08428955078125,-0.5880885720252991,1.2050249576568604,-0.8539053201675415
847,0.9381,1.6654,0,0,0.1259765625,0.9454498291015625,0.10308837890625,-0.5363593101501465,-0.0675382986664772,-1.028243064880371
848,0.9392,1.4677,0,0,0.16314697265625,0.961883544921875,0.0580902099609375,-0.5136755704879761,-0.9715456366539001,-1.126889944076538
849,0.943,1.2716,0,0,0.179290771484375,0.94976806640625,0.0159759521484375,-0.52369225025177,-1.2463359832763672,-1.1211079359054565
850,0.9527,1.0931,0,0,0.1832122802734375,0.95062255859375,-0.022247314453125,-0.6393413543701172,-0.9493703246116638,-1.0385454893112183
851,0.9713,0.9503,0,0,0.1679534912109375,0.953521728515625,-0.008758544921875,-0.700766384601593,-0.4682447016239166,-0.9201498627662659
852,1.0014,0.8614,0,0,0.20086669921875,0.98968505859375,0.0477447509765625,-0.4068194329738617,-0.4027583599090576,-0.9201117753982544
853,1.0448,0.8434,0,0,0.23248291015625,1.01800537109375,0.0726470947265625,0.07799839228391647,-0.7549246549606323,-0.7854580879211426
854,1.102,0.9096,0,0,0.216278076171875,1.025360107421875,0.0320892333984375,0.20734520256519318,-0.6492373943328857,-0.6493849158287048
855,1.1721,1.0668,0,0,0.2326202392578125,1.0682220458984375,0.02203369140625,-0.10525265336036682,0.06939159333705902,-0.5582427978515625
856,1.2529,1.3143,0,0,0.289886474609375,1.1531982421875,0.050201416015625,-0.1739499568939209,0.3903957009315491,-0.44957754015922546
857,1.3401,1.642,0,0,0.3885040283203125,1.3134918212890625,-0.0410003662109375,0.1551235467195511,0.2503166198730469,-0.26991164684295654
858,1.4284,2.0305,0,0,0.5077362060546875,1.4630889892578125,-0.211517333984375,0.37227821350097656,0.9727691411972046,0.19966250658035278
859,1.5112,2.4528,0,0,0.452606201171875,1.4816436767578125,-0.4595947265625,0.8687628507614136,2.1744747161865234,1.0339264869689941
860,1.5811,2.8769,0,0,0.240234375,1.298736572265625,-0.3088531494140625,1.895732045173645,2.773564338684082,1.728883981704712
861,1.6306,3.2694,0,0,0.068939208984375,1.3309173583984375,-0.1180572509765625,2.642591714859009,1.6270859241485596,2.472621202468872
862,1.6529,3.5989,0,0,-0.1087493896484375,1.505645751953125,0.0882720947265625,2.223828077316284,-0.38560041785240173,3.3008995056152344
863,1.6421,3.8401,0,0,-0.0954437255859375,1.5385894775390625,0.1997833251953125,1.8164806365966797,-2.4039857387542725,3.3247647285461426
864,1.5949,3.9758,0,0,-0.1764984130859375,1.697174072265625,0.117828369140625,1.6572209596633911,-3.5320534706115723,2.9289615154266357
865,1.5105,3.9984,0,0,-0.4403076171875,1.8949737548828125,-0.1887664794921875,1.2244700193405151,-2.3896982669830322,2.2870547771453857
866,1.3921,3.9096,0,0,-0.6265106201171875,1.7422332763671875,-0.3843231201171875,0.6549016833305359,1.6216161251068115,1.4403152465820312
867,1.2462,3.7205,0,0,-0.457183837890625,1.3007965087890625,-0.222686767578125,0.5950628519058228,4.615161895751953,0.8351561427116394
868,1.083,3.4491,0,0,-0.2122650146484375,0.8802032470703125,0.31292724609375,0.9585286378860474,4.107777118682861,0.9187668561935425
869,0.9151,3.119,0,0,-0.07098388671875,0.6255950927734375,0.6328125,0.5517950057983398,1.0087209939956665,1.013545274734497
870,0.7564,2.7574,0,0,0.00360107421875,0.4805908203125,0.3524017333984375,-0.13269199430942535,-1.9604250192642212,0.9772211313247681
871,0.6204,2.393,0,0,0.00555419921875,0.39739990234375,0.0118560791015625,-0.2871848940849304,-2.9089839458465576,0.9522672891616821
872,0.5195,2.0535,0,0,-0.0096435546875,0.3624267578125,0.004608154296875,-0.19752106070518494,-2.598696708679199,0.8470500707626343
873,0.4629,1.7647,0,0,-0.011810302734375,0.3746337890625,0.1826629638671875,-0.32843726873397827,-2.097043514251709,0.733345091342926
874,0.4563,1.5478,0,0,-0.0417327880859375,0.4272918701171875,0.1810302734375,-0.6049777865409851,-1.6848770380020142,0.6268958449363708
875,0.5012,1.4178,0,0,-0.13848876953125,0.4591217041015625,0.0257568359375,-0.5890968441963196,-0.8639925718307495,0.42351531982421875
876,0.5946,1.3821,0,0,-0.3099517822265625,0.4710845947265625,-0.0377197265625,-0.33417585492134094,-0.1450067162513733,0.05428720638155937
877,0.73,1.4388,0,0,-0.4596710205078125,0.4786834716796875,-0.0881805419921875,-0.194619283080101,-0.008503207005560398,-0.5402835011482239
878,0.8969,1.5769,0,0,-0.5787811279296875,0.5647735595703125,-0.222564697265625,-0.1965860277414322,-0.4415276050567627,-1.1595978736877441
879,1.0829,1.7769,0,0,-0.269317626953125,0.695465087890625,-0.527587890625,-0.24718448519706726,-1.4228053092956543,-1.6336945295333862
880,1.274,2.0127,0,0,0.3486175537109375,0.88677978515625,-0.9810791015625,-0.3069674074649811,-1.461790680885315,-1.5990008115768433
881,1.4559,2.2544,0,0,0.87884521484375,1.1904449462890625,-0.5846099853515625,-0.8984288573265076,0.13365499675273895,-0.8334240317344666
882,1.6156,2.472,0,0,1.09954833984375,1.4350738525390625,-0.2623748779296875,-1.5482046604156494,1.6573996543884277,0.39940145611763
883,1.7421,2.6385,0,0,1.2719268798828125,1.5821990966796875,-0.4241485595703125,-0.7584344744682312,3.2044639587402344,1.3585426807403564
884,1.8275,2.7338,0,0,1.3856658935546875,1.295196533203125,-0.1869659423828125,-0.06338456273078918,4.791975021362305,1.2367419004440308
885,1.867,2.7465,0,0,0.9909515380859375,1.1142578125,0.6107940673828125,-0.5121141672134399,3.418076992034912,0.662662923336029
886,1.8596,2.6755,0,0,0.17156982421875,1.0904388427734375,0.5112762451171875,-0.8593330979347229,-0.2707151174545288,0.014995461329817772
