id,ASVM,GSVM,walking_nonwalking,normal_abnormal,ax,ay,az,gx,gy,gz
1,1.1262,2.9593,0,0,0.3470611572265625,1.178436279296875,0.20074462890625,2.6047205924987793,-1.5239452123641968,1.3916443586349487
2,1.2764,3.2277,0,0,0.248443603515625,1.206634521484375,0.1531219482421875,2.5376298427581787,-2.590827465057373,2.2084710597991943
3,1.4188,3.4883,0,0,0.0007781982421875,1.37493896484375,0.0290985107421875,2.4130077362060547,-2.8502564430236816,2.6051299571990967
4,1.5318,3.6964,0,0,-0.1784515380859375,1.63543701171875,-0.019317626953125,2.374300241470337,-2.6417553424835205,2.5987775325775146
5,1.5984,3.8171,0,0,-0.3811798095703125,1.828338623046875,-0.01605224609375,2.1916749477386475,-1.9231573343276978,2.1381783485412598
6,1.6076,3.8281,0,0,-0.70684814453125,1.8967132568359375,-0.121551513671875,1.6115021705627441,0.6311137676239014,1.3173648118972778
7,1.5561,3.7217,0,0,-0.997802734375,1.765777587890625,-0.401153564453125,1.3267005681991577,3.9752249717712402,0.31860435009002686
8,1.4482,3.5045,0,0,-0.699951171875,1.3990936279296875,-0.373077392578125,2.0745415687561035,4.898582458496094,0.4269111156463623
9,1.2949,3.1963,0,0,-0.31597900390625,0.9072113037109375,0.3010406494140625,1.7866535186767578,3.387488603591919,1.225731611251831
10,1.1127,2.8276,0,0,-0.1037445068359375,0.6419677734375,0.618499755859375,0.587501049041748,0.5611299276351929,1.48567533493042
11,0.9214,2.4352,0,0,0.0156707763671875,0.6334381103515625,0.4257659912109375,-0.4876612722873688,-1.597074031829834,1.4978212118148804
12,0.7416,2.058,0,0,0.044464111328125,0.621337890625,0.02032470703125,-0.5760880708694458,-2.0723206996917725,1.564049243927002
13,0.5928,1.7323,0,0,-0.162567138671875,0.5149383544921875,-0.0661468505859375,-0.20967653393745422,-1.157522201538086,1.214981198310852
14,0.4911,1.4866,0,0,-0.2949066162109375,0.364501953125,0.1132049560546875,-0.046910516917705536,-0.1897696703672409,0.44644299149513245
15,0.4479,1.3388,0,0,-0.2531890869140625,0.304962158203125,0.1772308349609375,-0.061472948640584946,0.18830546736717224,-0.09562559425830841
16,0.4684,1.2936,0,0,-0.1298370361328125,0.256683349609375,0.2131500244140625,-0.06824563443660736,-0.07767375558614731,-0.20585089921951294
17,0.5515,1.3426,0,0,-0.2383575439453125,0.2276763916015625,0.0486907958984375,0.08453325927257538,-0.7884008884429932,-0.1851687878370285
18,0.6897,1.4658,0,0,-0.456146240234375,0.223297119140625,-0.176971435546875,0.4665969908237457,-1.1704901456832886,-0.6135502457618713
19,0.8701,1.6352,0,0,-0.451446533203125,0.2807159423828125,-0.2297210693359375,0.7348598837852478,-1.4422340393066406,-1.170003056526184
20,1.0756,1.8192,0,0,-0.2888946533203125,0.4558868408203125,-0.3272705078125,0.6074025630950928,-2.2792067527770996,-1.4896782636642456
21,1.2868,1.9874,0,0,0.23876953125,0.76324462890625,-0.96868896484375,0.3685966730117798,-3.2107207775115967,-1.2758320569992065
22,1.4845,2.1151,0,0,0.810821533203125,1.3889007568359375,-1.452789306640625,-0.15962961316108704,-1.7732449769973755,-0.3050968050956726
23,1.6516,2.1866,0,0,1.094940185546875,1.9754180908203125,-1.02508544921875,-0.5091231465339661,1.8479208946228027,1.3681678771972656
24,1.7753,2.1962,0,0,0.94439697265625,1.853363037109375,-0.406036376953125,-0.842203676700592,2.7408549785614014,1.9949979782104492
25,1.8477,2.1486,0,0,0.7933349609375,1.6415557861328125,-0.1846160888671875,-1.294539213180542,1.6705186367034912,1.4099541902542114
26,1.8671,2.0574,0,0,0.1238861083984375,1.49798583984375,-0.0442962646484375,-1.2256733179092407,0.18457303941249847,0.5436078906059265
27,1.8368,1.9418,0,0,-0.217193603515625,1.607635498046875,-0.3032379150390625,-0.5917224287986755,0.7132355570793152,-0.020076772198081017
28,1.7648,1.8239,0,0,-0.63250732421875,1.6679534912109375,-0.9419708251953125,0.040643565356731415,1.4023112058639526,0.1618591994047165
29,1.662,1.7246,0,0,-1.0681610107421875,0.8668212890625,-1.345184326171875,1.8364125490188599,0.9965847134590149,0.006820355542004108
30,1.541,1.6614,0,0,-0.777801513671875,0.43450927734375,0.7969207763671875,0.8584159016609192,-0.6154559850692749,-0.6795641183853149
31,1.4142,1.6453,0,0,-0.526824951171875,0.672271728515625,0.7002105712890625,-0.7504212856292725,0.5252051949501038,-1.1396946907043457
32,1.2929,1.6803,0,0,-0.4407501220703125,0.9162445068359375,0.398468017578125,-0.9303351044654846,0.9896551370620728,-1.2835350036621094
33,1.1859,1.7627,0,0,-0.374603271484375,1.00262451171875,0.330108642578125,-0.5238067507743835,0.9754818081855774,-1.2731199264526367
34,1.0987,1.8817,0,0,-0.280426025390625,0.9874267578125,0.3003692626953125,-0.09261994808912277,0.5367574691772461,-1.3050000667572021
35,1.034,2.0209,0,0,-0.14520263671875,0.9567413330078125,0.3260955810546875,0.07585295289754868,-0.1838665008544922,-1.2422080039978027
36,0.9912,2.1608,0,0,-0.08270263671875,0.9622344970703125,0.3170013427734375,-0.05516232177615166,-1.0863398313522339,-1.1770743131637573
37,0.9672,2.281,0,0,-0.0283050537109375,1.0024566650390625,0.247344970703125,-0.3772066831588745,-1.9724884033203125,-1.2723387479782104
38,0.9576,2.3637,0,0,0.100311279296875,0.8360595703125,0.0363311767578125,-2.9247777462005615,-1.9321966171264648,-1.942793607711792
39,0.9572,2.396,0,0,0.232208251953125,1.0109405517578125,-0.5097198486328125,-4.197573184967041,-0.34778913855552673,-1.6685364246368408
40,0.9607,2.3718,0,0,0.24560546875,0.93560791015625,-0.78314208984375,-2.5270471572875977,1.4628642797470093,-0.8181659579277039
41,0.964,2.2919,0,0,0.133331298828125,0.8507232666015625,-0.396484375,-0.23135465383529663,1.500317096710205,-0.21896004676818848
42,0.9642,2.1634,0,0,0.0285797119140625,0.9289093017578125,-0.027252197265625,0.3807857036590576,0.6527064442634583,-0.05790937319397926
43,0.96,1.9977,0,0,-0.051116943359375,0.9103851318359375,0.2950897216796875,-0.26993587613105774,-0.7574189901351929,-0.15772677958011627
44,0.9521,1.8083,0,0,-0.0719146728515625,0.9355926513671875,0.1481781005859375,-0.6433318257331848,-1.6894675493240356,-0.26795849204063416
45,0.9423,1.6096,0,0,-0.0624542236328125,0.9311370849609375,0.040313720703125,-0.8092483878135681,-1.8001914024353027,-0.34408333897590637
46,0.9337,1.4153,0,0,-0.02203369140625,0.9481048583984375,-0.0192718505859375,-0.8146700263023376,-1.3513011932373047,-0.3189050257205963
47,0.9301,1.238,0,0,-0.0070953369140625,0.9435577392578125,-0.015045166015625,-0.6602535843849182,-0.6985524892807007,-0.281760573387146
48,0.9354,1.0895,0,0,-0.0243072509765625,0.915740966796875,0.031982421875,-0.6270231604576111,0.00199364242143929,-0.3364374041557312
49,0.9531,0.9803,0,0,-0.0543670654296875,0.9169921875,0.0609893798828125,-0.7871180176734924,0.571359395980835,-0.427977979183197
50,0.986,0.9201,0,0,-0.0741729736328125,0.9287261962890625,0.0353851318359375,-1.0762771368026733,1.0434249639511108,-0.45550307631492615
51,1.0354,0.9174,0,0,-0.0855560302734375,0.972198486328125,0.021575927734375,-1.2898362874984741,1.3431026935577393,-0.554620623588562
52,1.1014,0.9794,0,0,-0.0064849853515625,1.088134765625,0.058990478515625,-0.8732358813285828,0.8547120094299316,-0.7900996804237366
53,1.1819,1.111,0,0,0.1201019287109375,1.1661834716796875,0.049530029296875,-0.5763226747512817,0.22968752682209015,-0.8795600533485413
54,1.2737,1.3129,0,0,0.22076416015625,1.1762542724609375,-0.0182952880859375,-0.557023286819458,-0.03765762969851494,-0.9435124397277832
55,1.3717,1.5809,0,0,0.366119384765625,1.3338165283203125,-0.0332183837890625,-0.42465701699256897,-0.2288142740726471,-0.7431841492652893
56,1.4696,1.9037,0,0,0.50201416015625,1.504974365234375,-0.10504150390625,0.014407701790332794,-0.5880030393600464,-0.15860669314861298
57,1.5605,2.2635,0,0,0.498992919921875,1.6699371337890625,-0.4970550537109375,0.8557798862457275,0.020267987623810768,0.79432612657547
58,1.6367,2.6359,0,0,0.1903839111328125,1.5399169921875,-0.4828948974609375,1.952367901802063,0.6395621299743652,1.7687307596206665
59,1.6911,2.9927,0,0,-0.0971832275390625,1.3436279296875,-0.1487579345703125,2.736607313156128,-0.2818138301372528,2.063328981399536
60,1.7167,3.3043,0,0,-0.3118133544921875,1.3826446533203125,0.0182952880859375,3.1209707260131836,-1.5048772096633911,2.0818331241607666
61,1.708,3.5433,0,0,-0.274932861328125,1.4611053466796875,0.280120849609375,2.8346409797668457,-2.652108907699585,1.992354154586792
62,1.6615,3.6882,0,0,-0.4128570556640625,1.5678863525390625,0.254608154296875,2.2829339504241943,-2.885430097579956,1.6397149562835693
63,1.5762,3.7256,0,0,-0.6728057861328125,1.671539306640625,0.0097198486328125,1.6386549472808838,-1.0356132984161377,0.9483053088188171
64,1.4545,3.6525,0,0,-0.82196044921875,1.69757080078125,-0.709320068359375,1.8204548358917236,2.770642042160034,0.36408767104148865
65,1.3027,3.4764,0,0,-0.7336578369140625,1.4472198486328125,-0.5382537841796875,2.6259710788726807,5.238186836242676,0.5086525678634644
66,1.1307,3.2156,0,0,-0.4908599853515625,1.008941650390625,0.2601470947265625,2.088111162185669,4.183984279632568,1.0146702527999878
67,0.9514,2.8967,0,0,-0.2493896484375,0.758453369140625,0.4059906005859375,0.6802698969841003,2.217251777648926,1.3371672630310059
68,0.7795,2.552,0,0,-0.1058349609375,0.5721435546875,0.3730621337890625,-0.20523065328598022,0.8795171976089478,1.3970969915390015
69,0.6304,2.2153,0,0,-0.07781982421875,0.4788970947265625,0.058135986328125,-0.3302791118621826,0.29573312401771545,1.285520076751709
70,0.518,1.9178,0,0,-0.1216278076171875,0.39361572265625,-0.116668701171875,0.1724971979856491,0.5302577614784241,1.0788668394088745
71,0.4535,1.6843,0,0,-0.186492919921875,0.2650604248046875,0.080108642578125,0.6947034001350403,0.6254153847694397,0.6087759733200073
72,0.444,1.5306,0,0,-0.12554931640625,0.2540130615234375,0.3026885986328125,0.7147809863090515,-0.35863298177719116,0.19478732347488403
73,0.4914,1.4623,0,0,-0.0869903564453125,0.29095458984375,0.3712921142578125,0.43110159039497375,-1.4640437364578247,-0.10285687446594238
74,0.5926,1.4753,0,0,-0.0479278564453125,0.3486480712890625,0.1854248046875,-0.02520415559411049,-2.0687546730041504,-0.1839248239994049
75,0.7388,1.557,0,0,-0.0553131103515625,0.36773681640625,-0.1319427490234375,-0.1456935554742813,-1.4234952926635742,-0.25429967045783997
76,0.9172,1.6892,0,0,-0.2261199951171875,0.28302001953125,-0.2689361572265625,0.021707426756620407,-0.8224020004272461,-0.6533072590827942
77,1.1118,1.8507,0,0,-0.202484130859375,0.333892822265625,-0.4998626708984375,0.2820151746273041,-1.8106203079223633,-1.3523164987564087
78,1.3056,2.0203,0,0,0.3653564453125,0.73858642578125,-1.2230682373046875,0.6800999641418457,-3.452796220779419,-1.6423338651657104
79,1.4822,2.1793,0,0,1.325408935546875,1.8641815185546875,-1.8182220458984375,1.0971187353134155,-1.8325083255767822,-0.27098914980888367
80,1.6281,2.3134,0,0,0.684783935546875,2.38677978515625,-0.8020782470703125,-0.28276193141937256,0.6784487962722778,1.4486960172653198
81,1.734,2.4133,0,0,0.530120849609375,1.759765625,-0.7942962646484375,-1.5297234058380127,1.9710547924041748,1.548516869544983
82,1.7953,2.4749,0,0,0.3679046630859375,0.8092498779296875,-0.67962646484375,-1.3365262746810913,2.245579481124878,1.1879442930221558
83,1.8116,2.4989,0,0,-0.1500396728515625,0.660491943359375,0.4869384765625,-1.1075713634490967,1.2775306701660156,0.7972193956375122
84,1.7865,2.4891,0,0,-0.5638580322265625,0.56280517578125,0.55712890625,-1.133083701133728,0.25549834966659546,-0.13885508477687836
85,1.7265,2.4519,0,0,-1.6772918701171875,1.0908050537109375,-1.4432830810546875,0.5511736869812012,-1.2915865182876587,-1.6642916202545166
86,1.6399,2.395,0,0,-1.004852294921875,2.1287841796875,-0.8915863037109375,2.863856792449951,-3.0885751247406006,-2.353154420852661
87,1.5359,2.3263,0,0,-0.1895599365234375,1.3538818359375,0.9874267578125,0.3355138301849365,-0.26591184735298157,-0.588473916053772
88,1.4242,2.2534,0,0,-0.4353790283203125,0.9393768310546875,0.6614837646484375,-1.615834355354309,1.7151353359222412,-0.1359245479106903
89,1.3137,2.1828,0,0,-0.3974456787109375,0.807464599609375,0.3616943359375,-2.0398964881896973,2.0953357219696045,-0.49102911353111267
90,1.2118,2.1194,0,0,-0.232940673828125,0.732452392578125,0.20556640625,-1.5381534099578857,1.6604753732681274,-0.7527408599853516
91,1.1234,2.0657,0,0,-0.131011962890625,0.74920654296875,0.173492431640625,-0.7000598311424255,0.8446487188339233,-0.8648018836975098
92,1.0511,2.0217,0,0,-0.0491790771484375,0.9290313720703125,0.1909027099609375,0.17537900805473328,-0.16863402724266052,-0.9932597279548645
93,0.9951,1.985,0,0,0.0301513671875,1.1290435791015625,0.2088775634765625,0.678809404373169,-0.912452220916748,-1.186514973640442
94,0.9538,1.9509,0,0,0.202606201171875,1.2176361083984375,-0.1092071533203125,-0.7639706134796143,0.09796091914176941,-1.6272965669631958
95,0.9244,1.9138,0,0,0.4061431884765625,1.2504730224609375,0.06549072265625,-2.6503653526306152,1.18017578125,-1.5239611864089966
96,0.904,1.8677,0,0,0.26690673828125,1.0140228271484375,-0.0614013671875,-2.4006009101867676,0.19710907340049744,-0.5316956043243408
97,0.89,1.8083,0,0,0.021331787109375,0.6475067138671875,-0.370574951171875,-1.9428654909133911,0.3601999878883362,-0.32781702280044556
98,0.8803,1.7325,0,0,-0.012298583984375,0.73126220703125,-0.301361083984375,-1.23007333278656,0.42014774680137634,-0.28439950942993164
99,0.874,1.64,0,0,-0.0631561279296875,0.8185577392578125,-0.082672119140625,-0.6892990469932556,-0.3724918067455292,-0.14516304433345795
100,0.8708,1.5324,0,0,-0.0738372802734375,0.864501953125,0.0216064453125,-0.6494017243385315,-1.167523980140686,-0.16750271618366241
101,0.8712,1.4137,0,0,-0.08367919921875,0.86248779296875,-0.017608642578125,-0.7651597261428833,-1.4616596698760986,-0.3365287482738495
102,0.8763,1.2899,0,0,-0.0487213134765625,0.868316650390625,-0.0350494384765625,-0.8132891654968262,-1.2904897928237915,-0.5415753722190857
103,0.8875,1.1693,0,0,0.0050201416015625,0.90008544921875,-0.027923583984375,-0.6954027414321899,-1.0223662853240967,-0.5538445711135864
104,0.9061,1.0618,0,0,-0.00091552734375,0.8821258544921875,0.0029449462890625,-0.4986409544944763,-0.7284786701202393,-0.4887835383415222
105,0.9337,0.9789,0,0,-0.0244140625,0.91168212890625,0.0387420654296875,-0.3726033866405487,-0.46972301602363586,-0.4912149906158447
106,0.9714,0.9325,0,0,-0.0825653076171875,0.974945068359375,0.0437774658203125,-0.6330459117889404,0.021460285410284996,-0.477897584438324
107,1.0196,0.9346,0,0,-0.1241607666015625,1.0269012451171875,0.0195770263671875,-1.1332557201385498,0.7661299109458923,-0.478078693151474
108,1.0785,0.9956,0,0,-0.0640716552734375,1.072509765625,0.036956787109375,-1.010393738746643,1.038118600845337,-0.6341665387153625
109,1.1472,1.123,0,0,0.065765380859375,1.1414947509765625,0.097015380859375,-0.4405110776424408,0.6838709712028503,-0.6847906112670898
110,1.2243,1.3205,0,0,0.1483612060546875,1.146026611328125,0.086181640625,-0.2963464558124542,0.3961641192436218,-0.8856749534606934
111,1.3073,1.5862,0,0,0.2847900390625,1.312591552734375,-0.0311279296875,-0.7686032056808472,0.8191422820091248,-1.0853044986724854
112,1.3928,1.9119,0,0,0.4458465576171875,1.449432373046875,-0.0238037109375,-0.9540172815322876,0.7298022508621216,-0.8819785118103027
113,1.4768,2.2825,0,0,0.526580810546875,1.541412353515625,-0.5509185791015625,-0.22406239807605743,1.0221244096755981,-0.2110549807548523
114,1.5541,2.6766,0,0,0.4470977783203125,1.3848419189453125,-0.651458740234375,1.5227608680725098,1.725085973739624,0.7273609638214111
115,1.6191,3.0678,0,0,0.2953338623046875,1.2010650634765625,-0.0730743408203125,2.6451191902160645,0.4316217005252838,1.5709776878356934
116,1.6656,3.4274,0,0,0.116424560546875,1.2296905517578125,0.1534423828125,2.7092363834381104,-1.1452977657318115,2.2847604751586914
117,1.6872,3.7268,0,0,-0.0996246337890625,1.3661346435546875,0.2487945556640625,2.6568102836608887,-2.654921054840088,2.4452109336853027
118,1.6783,3.9409,0,0,-0.22113037109375,1.597381591796875,0.1566619873046875,2.446810722351074,-3.478332757949829,2.2272372245788574
119,1.6347,4.0508,0,0,-0.3880615234375,1.7884979248046875,-0.006591796875,2.203658103942871,-3.2528767585754395,1.900439977645874
120,1.5547,4.0455,0,0,-0.6448516845703125,1.86956787109375,-0.124542236328125,1.820862054824829,-1.3692543506622314,1.328908085823059
121,1.44,3.9235,0,0,-0.9619293212890625,1.7091522216796875,-0.238128662109375,1.3531497716903687,2.0966429710388184,0.3767654001712799
122,1.296,3.693,0,0,-0.7101898193359375,1.3853759765625,-0.4440765380859375,1.7848912477493286,4.970963478088379,0.3547666072845459
123,1.132,3.3721,0,0,-0.4602813720703125,0.92657470703125,0.031524658203125,1.9633086919784546,5.089446067810059,1.1782306432724
124,0.9603,2.9867,0,0,-0.151641845703125,0.5947113037109375,0.4765625,0.9312650561332703,2.811220407485962,1.5799647569656372
125,0.7948,2.5691,0,0,-0.0640716552734375,0.5343017578125,0.425933837890625,-0.020649883896112442,0.215128555893898,1.5481340885162354
126,0.6501,2.154,0,0,-0.152130126953125,0.4682769775390625,0.2080535888671875,-0.21494852006435394,-1.3470937013626099,1.1586450338363647
127,0.5394,1.7752,0,0,-0.1901702880859375,0.377777099609375,0.1060943603515625,-0.08916716277599335,-1.456190586090088,0.6723573803901672
128,0.4734,1.4614,0,0,-0.1772613525390625,0.3559722900390625,0.09912109375,0.07090026885271072,-0.8331376910209656,0.33304721117019653
129,0.459,1.2334,0,0,-0.0677947998046875,0.3910980224609375,0.342071533203125,-0.06358962506055832,-0.9257209300994873,0.40834036469459534
130,0.4987,1.1012,0,0,-0.1581878662109375,0.40447998046875,0.146942138671875,-0.17546343803405762,-0.6272862553596497,0.40512219071388245
131,0.5898,1.0643,0,0,-0.1678314208984375,0.40484619140625,0.048919677734375,-0.24008530378341675,-0.06460615992546082,0.2608398497104645
132,0.7253,1.1111,0,0,-0.236480712890625,0.3831939697265625,-0.0435028076171875,-0.12290701270103455,-0.06777824461460114,-0.1179271712899208
133,0.8937,1.2221,0,0,-0.37347412109375,0.3312530517578125,-0.162567138671875,0.09006544202566147,-0.5640191435813904,-0.7788915038108826
134,1.0808,1.3721,0,0,-0.360595703125,0.421356201171875,-0.33856201171875,0.3048219680786133,-1.6017073392868042,-1.468193531036377
135,1.2712,1.5345,0,0,0.1149749755859375,0.8268280029296875,-1.047698974609375,0.8043119311332703,-2.902886152267456,-1.6795917749404907
136,1.4494,1.6848,0,0,0.9528045654296875,1.6192779541015625,-1.422454833984375,0.8387673497200012,-1.955519437789917,-0.7581068873405457
137,1.6025,1.8038,0,0,1.103546142578125,2.1255645751953125,-1.1117095947265625,-0.1450573205947876,0.3379535377025604,0.814189612865448
138,1.7205,1.8793,0,0,0.82080078125,1.918121337890625,-0.89202880859375,-0.5260904431343079,1.7602403163909912,1.5664596557617188
139,1.7978,1.9069,0,0,0.5395355224609375,1.18328857421875,-0.494384765625,-0.7631186842918396,1.778480052947998,1.2919162511825562
140,1.8323,1.8896,0,0,0.1386260986328125,0.9013671875,0.06097412109375,-0.9284551739692688,1.0272622108459473,0.8326157331466675
141,1.8257,1.8365,0,0,-0.287200927734375,0.6259002685546875,0.6094512939453125,-1.0275205373764038,-0.39902248978614807,0.04072052985429764
142,1.782,1.7609,0,0,-0.440399169921875,0.7956390380859375,0.402130126953125,-0.9985144138336182,-0.873062252998352,-0.7206692099571228
143,1.7075,1.6787,0,0,-1.47235107421875,1.808135986328125,-2.9107666015625,0.9898127913475037,0.05337240919470787,-1.552414059638977
144,1.6102,1.6056,0,0,-0.6339874267578125,1.9217376708984375,-0.4344940185546875,2.0228912830352783,1.2499150037765503,-0.8015361428260803
145,1.4987,1.5557,0,0,-0.3309173583984375,0.8296966552734375,1.172698974609375,-0.6019486784934998,0.8573322892189026,-0.010390056297183037
146,1.3826,1.5394,0,0,-0.432220458984375,0.7430419921875,0.579254150390625,-1.5509299039840698,0.6181015968322754,-0.4509733021259308
147,1.2705,1.5625,0,0,-0.295440673828125,0.7520599365234375,0.2929229736328125,-1.148711919784546,0.26044437289237976,-0.7636478543281555
148,1.1698,1.6245,0,0,-0.1990966796875,0.7531890869140625,0.2111358642578125,-0.4518590569496155,0.1474648267030716,-0.817101776599884
149,1.0856,1.7191,0,0,-0.1629791259765625,0.8331298828125,0.2239837646484375,0.21113674342632294,-0.14942224323749542,-0.933959424495697
150,1.0204,1.8344,0,0,-0.0914459228515625,0.9628753662109375,0.2540283203125,0.6790799498558044,-0.6552609205245972,-1.1664352416992188
151,0.9743,1.9544,0,0,0.0178375244140625,1.1139068603515625,0.2590484619140625,0.6661500334739685,-1.1185436248779297,-1.119860291481018
152,0.9455,2.0619,0,0,0.0408935546875,1.116790771484375,0.2575531005859375,-0.1940336525440216,-1.5556426048278809,-1.0415409803390503
153,0.9306,2.1401,0,0,0.09344482421875,0.9810638427734375,0.0323638916015625,-3.331627130508423,-0.8848176598548889,-1.0201570987701416
154,0.9259,2.1761,0,0,0.0532989501953125,0.97918701171875,-0.1624755859375,-3.7335710525512695,-0.8231306076049805,-0.5392346978187561
155,0.9273,2.1624,0,0,-0.0932159423828125,0.7365264892578125,-0.7396392822265625,-2.644444704055786,0.43769559264183044,-0.366560697555542
156,0.9319,2.0973,0,0,-0.0947723388671875,0.8126983642578125,-0.4901123046875,-0.7234280109405518,1.4241960048675537,-0.26418718695640564
157,0.9371,1.9851,0,0,-0.12677001953125,0.9015045166015625,-0.1185302734375,0.13579058647155762,1.327951431274414,-0.1429305225610733
158,0.942,1.8348,0,0,-0.093597412109375,0.912506103515625,0.0848236083984375,-0.30624380707740784,0.7031000852584839,-0.25210121273994446
159,0.9462,1.6582,0,0,-0.0322418212890625,0.9256134033203125,0.1236572265625,-0.7611271739006042,-0.41157954931259155,-0.45390331745147705
160,0.9504,1.469,0,0,0.0227203369140625,0.9252471923828125,0.05206298828125,-0.7933381199836731,-1.1974190473556519,-0.6694180369377136
161,0.956,1.2813,0,0,0.055450439453125,0.9258575439453125,-0.0063934326171875,-0.7353608012199402,-1.2691296339035034,-0.7672569751739502
162,0.9649,1.1097,0,0,0.0939788818359375,0.9391326904296875,-0.0169525146484375,-0.6537157893180847,-1.0121314525604248,-0.7505109906196594
163,0.9788,0.9682,0,0,0.073333740234375,0.9334259033203125,-0.019378662109375,-0.6251003742218018,-0.5136691927909851,-0.6787055134773254
164,0.9995,0.8707,0,0,0.0526580810546875,0.9788818359375,0.008087158203125,-0.7296523451805115,0.055987369269132614,-0.5830258727073669
165,1.0286,0.8299,0,0,-0.0039825439453125,1.01214599609375,-0.001678466796875,-0.9353935122489929,0.7109902501106262,-0.491937518119812
166,1.0672,0.8568,0,0,0.0064239501953125,1.072540283203125,0.0436553955078125,-0.6772631406784058,0.8646692633628845,-0.610363781452179
167,1.1157,0.9596,0,0,0.073944091796875,1.1722412109375,0.1181488037109375,-0.3876606523990631,0.49051299691200256,-0.6052252054214478
168,1.1739,1.1425,0,0,0.07379150390625,1.22705078125,0.047576904296875,-0.5446678400039673,0.36856019496917725,-0.6601113677024841
169,1.241,1.4044,0,0,0.087890625,1.2726287841796875,-0.0478973388671875,-0.9033737778663635,0.5628910660743713,-0.6495329737663269
170,1.315,1.7378,0,0,0.17315673828125,1.343048095703125,-0.2118988037109375,-0.760246992111206,0.6495039463043213,-0.5407900214195251
171,1.3931,2.1288,0,0,0.3012847900390625,1.4663238525390625,-0.607757568359375,0.2197006642818451,1.449509620666504,-0.23465219140052795
172,1.4711,2.5567,0,0,0.440704345703125,1.385528564453125,-0.4669647216796875,1.897384762763977,1.8388535976409912,0.41490212082862854
173,1.5437,2.9957,0,0,0.4183349609375,1.1399383544921875,-0.00970458984375,2.572716236114502,0.8191638588905334,1.1686861515045166
174,1.6044,3.4165,0,0,0.3330078125,1.1043548583984375,0.1861572265625,2.5082926750183105,-0.6975380778312683,1.8898744583129883
175,1.6459,3.7892,0,0,0.09783935546875,1.2046966552734375,0.19378662109375,2.569413900375366,-2.1933400630950928,2.3126509189605713
176,1.6607,4.0858,0,0,-0.0399322509765625,1.5096893310546875,0.1867523193359375,2.43756103515625,-3.2525835037231445,2.509723663330078
177,1.6424,4.2828,0,0,-0.190216064453125,1.7398529052734375,0.08642578125,2.251819133758545,-3.4469666481018066,2.483839511871338
178,1.5868,4.3639,0,0,-0.4798736572265625,1.8987274169921875,-0.091094970703125,1.9066483974456787,-2.0624845027923584,2.011535882949829
179,1.4928,4.3218,0,0,-0.8861541748046875,1.8700714111328125,-0.2074432373046875,1.0755785703659058,2.0666778087615967,1.088868498802185
180,1.3637,4.1589,0,0,-0.87969970703125,1.61932373046875,-0.4483184814453125,1.076919436454773,5.817339897155762,0.5164316892623901
181,1.2073,3.8883,0,0,-0.5471038818359375,1.1136016845703125,-0.1067352294921875,1.5307756662368774,5.867281436920166,1.1204859018325806
182,1.0352,3.5328,0,0,-0.1903076171875,0.6811065673828125,0.5361480712890625,0.7959562540054321,2.6927173137664795,1.5047723054885864
183,0.8621,3.1234,0,0,-0.0108642578125,0.598724365234375,0.5690460205078125,-0.20298640429973602,-1.117777943611145,1.5127500295639038
184,0.704,2.6964,0,0,-0.062225341796875,0.5160064697265625,0.19342041015625,-0.44217634201049805,-2.9713263511657715,1.2868013381958008
185,0.5762,2.2897,0,0,-0.17608642578125,0.369781494140625,-0.021392822265625,-0.13741432130336761,-2.719162702560425,0.7808585166931152
186,0.4918,1.9388,0,0,-0.2346954345703125,0.2659759521484375,0.0167999267578125,0.1482595056295395,-1.5488688945770264,0.21113407611846924
187,0.4602,1.673,0,0,-0.0656280517578125,0.252716064453125,0.28033447265625,0.137403666973114,-1.021305799484253,-0.019948141649365425
188,0.4855,1.5118,0,0,-0.0865936279296875,0.271942138671875,0.2525177001953125,-0.16355085372924805,-0.9861051440238953,0.027814321219921112
189,0.5667,1.4631,0,0,-0.150390625,0.3155517578125,0.071380615234375,-0.2530389130115509,-0.8536642789840698,-0.039983902126550674
190,0.6973,1.5218,0,0,-0.3482818603515625,0.30035400390625,-0.1228485107421875,-0.05265602096915245,-0.38878023624420166,-0.4373789429664612
191,0.8661,1.6709,0,0,-0.497222900390625,0.342926025390625,-0.1853485107421875,0.21067841351032257,-0.2616100311279297,-1.0778206586837769
192,1.0584,1.8838,0,0,-0.5594635009765625,0.5092010498046875,-0.3148651123046875,0.5371039509773254,-1.02176034450531,-1.7083041667938232
193,1.258,2.1275,0,0,-0.22998046875,0.9362030029296875,-0.7405548095703125,0.765038013458252,-2.7483134269714355,-1.8891162872314453
194,1.4487,2.3673,0,0,0.5792694091796875,1.6549072265625,-1.4783172607421875,0.8378486037254333,-2.874284267425537,-0.9377541542053223
195,1.6164,2.571,0,0,0.965789794921875,1.995819091796875,-1.164703369140625,-0.42088836431503296,0.24378922581672668,0.8403682112693787
196,1.7501,2.7126,0,0,1.0023345947265625,1.7753143310546875,-0.925811767578125,-1.040905237197876,3.4337525367736816,2.1542985439300537
197,1.8429,2.7754,0,0,1.004608154296875,1.3530120849609375,-0.38690185546875,-1.0204330682754517,3.6736679077148438,2.08292293548584
198,1.8918,2.7532,0,0,0.806121826171875,0.8325653076171875,0.24859619140625,-1.0348525047302246,1.526932954788208,1.5497504472732544
199,1.8975,2.651,0,0,-0.1308441162109375,0.6899566650390625,0.822540283203125,-1.0705736875534058,-0.5578312873840332,0.39305034279823303
200,1.8631,2.4838,0,0,-0.3996734619140625,0.79962158203125,0.5955047607421875,-1.1756013631820679,-2.158604383468628,-0.9032965898513794
201,1.7941,2.2744,0,0,-0.8060150146484375,1.3561553955078125,-0.72149658203125,-0.779451310634613,-1.9281001091003418,-1.618450403213501
202,1.6976,2.0507,0,0,-1.28106689453125,2.8004150390625,-2.875823974609375,2.2464261054992676,2.407484292984009,-0.8467848300933838
203,1.5822,1.8424,0,0,-0.3404388427734375,0.9324798583984375,0.7812957763671875,0.5935094356536865,1.4077413082122803,0.3198770582675934
204,1.4571,1.6775,0,0,-0.538330078125,0.6391754150390625,0.7985687255859375,-0.89114910364151,0.4675839841365814,-0.4909478724002838
205,1.3316,1.5789,0,0,-0.3834686279296875,0.7392120361328125,0.3913421630859375,-0.6646706461906433,-0.09289319068193436,-0.9579901695251465
206,1.2144,1.5607,0,0,-0.2831573486328125,0.8022918701171875,0.2598419189453125,-0.04219858720898628,-0.32320550084114075,-0.9583185315132141
207,1.1122,1.627,0,0,-0.2202911376953125,0.8264312744140625,0.269134521484375,0.33216169476509094,-0.2594054639339447,-0.955780029296875
208,1.0297,1.7703,0,0,-0.1880035400390625,0.9290924072265625,0.24591064453125,0.5975704789161682,-0.419241726398468,-1.0549150705337524
209,0.9687,1.973,0,0,-0.0817718505859375,1.0257568359375,0.2881927490234375,0.6475950479507446,-0.9420572519302368,-1.0599074363708496
210,0.929,2.209,0,0,-0.051666259765625,1.0707244873046875,0.2345733642578125,0.4075278341770172,-1.5538809299468994,-1.0596139430999756
211,0.9082,2.4473,0,0,-0.0213470458984375,1.0042724609375,0.185699462890625,-0.0980386808514595,-2.1305582523345947,-0.9598498344421387
212,0.9028,2.6566,0,0,0.0069732666015625,0.7474365234375,0.1667022705078125,-1.898332953453064,-2.205676794052124,-0.8152380585670471
213,0.9084,2.8089,0,0,0.0156402587890625,0.846099853515625,-0.0476837158203125,-4.3661651611328125,-1.226700782775879,-0.37580451369285583
214,0.9208,2.8837,0,0,-0.0579376220703125,0.930938720703125,-0.262725830078125,-4.292491436004639,-0.7847174406051636,-0.20345352590084076
215,0.936,2.8704,0,0,-0.2852020263671875,0.8615570068359375,-0.8323211669921875,-2.704502582550049,1.4547392129898071,-0.3573474884033203
216,0.9513,2.7687,0,0,-0.193328857421875,0.932891845703125,-0.46337890625,-0.33987900614738464,2.3723056316375732,-0.3386382460594177
217,0.9649,2.5884,0,0,-0.08111572265625,0.8801116943359375,-0.1934356689453125,0.6918998956680298,2.1066970825195312,-0.1311737298965454
218,0.9765,2.3475,0,0,-0.0324859619140625,0.865509033203125,0.075225830078125,0.1935012936592102,1.5821123123168945,-0.258670449256897
219,0.9866,2.0691,0,0,0.024169921875,0.8985137939453125,0.160186767578125,-0.17750340700149536,0.5631083846092224,-0.7067856192588806
220,0.9969,1.7792,0,0,0.1302642822265625,0.9595794677734375,0.2027587890625,-0.31037890911102295,-0.7541645765304565,-0.9537892937660217
221,1.0094,1.5044,0,0,0.13079833984375,1.0284271240234375,0.1318511962890625,-0.6524630188941956,-1.6104249954223633,-0.8841117024421692
222,1.0265,1.2704,0,0,0.134796142578125,1.002166748046875,0.056304931640625,-0.9453449249267578,-1.7293704748153687,-0.7813589572906494
223,1.0503,1.0999,0,0,0.1024322509765625,1.03265380859375,-0.0495147705078125,-1.2442597150802612,-1.2087243795394897,-0.6604666113853455
224,1.0828,1.0119,0,0,0.066131591796875,1.09814453125,-0.09259033203125,-1.3654290437698364,-0.24317163228988647,-0.6005566716194153
225,1.1251,1.02,0,0,0.14105224609375,1.1749725341796875,0.0059814453125,-0.5394206047058105,-0.28990185260772705,-0.6058787107467651
226,1.1776,1.1309,0,0,0.1279144287109375,1.162139892578125,0.002960205078125,-0.0046666571870446205,-0.27643904089927673,-0.45327773690223694
227,1.2393,1.3432,0,0,0.0912933349609375,1.13507080078125,-0.0604400634765625,-0.18498636782169342,0.5939539074897766,-0.4375392496585846
228,1.3083,1.6466,0,0,0.1555633544921875,1.281005859375,-0.0407867431640625,-0.4627167880535126,1.2020379304885864,-0.30917197465896606
229,1.3813,2.0217,0,0,0.237884521484375,1.42718505859375,-0.12786865234375,-0.29766523838043213,1.2241997718811035,-0.012999155558645725
230,1.4536,2.4414,0,0,0.276580810546875,1.4524078369140625,-0.5213775634765625,0.5683366656303406,1.7449254989624023,0.43729397654533386
231,1.5199,2.873,0,0,0.244232177734375,1.4033966064453125,-0.4633331298828125,2.149418592453003,2.020005702972412,1.1412137746810913
232,1.5739,3.2814,0,0,0.180084228515625,1.30499267578125,0.11700439453125,2.9901633262634277,0.08423685282468796,1.9113858938217163
233,1.609,3.6328,0,0,0.0184326171875,1.282623291015625,0.354766845703125,2.963202953338623,-2.26008939743042,2.4536311626434326
234,1.6193,3.8978,0,0,-0.1677093505859375,1.460235595703125,0.1067047119140625,2.5480456352233887,-3.406188488006592,2.5466408729553223
235,1.5995,4.0547,0,0,-0.318450927734375,1.564239501953125,0.1132965087890625,2.1967194080352783,-3.396479606628418,2.1559674739837646
236,1.5468,4.0912,0,0,-0.5235443115234375,1.6117706298828125,0.093048095703125,1.6787166595458984,-2.4718286991119385,1.3826924562454224
237,1.4609,4.0055,0,0,-0.832427978515625,1.6797332763671875,-0.21343994140625,0.8465427160263062,1.041094422340393,0.4749777019023895
238,1.3449,3.8066,0,0,-0.747222900390625,1.5558929443359375,-0.63665771484375,1.2141748666763306,5.003983020782471,0.33492153882980347
239,1.2055,3.5131,0,0,-0.530914306640625,1.1359405517578125,-0.1535491943359375,2.0387797355651855,5.452230930328369,1.1907261610031128
240,1.0525,3.1519,0,0,-0.2557220458984375,0.662994384765625,0.57476806640625,1.1145159006118774,2.6389172077178955,1.545830249786377
241,0.8981,2.7561,0,0,0.031402587890625,0.5716705322265625,0.6364288330078125,-0.08487174659967422,-0.8529859781265259,1.5441471338272095
242,0.7556,2.3612,0,0,0.042388916015625,0.5791473388671875,0.11199951171875,-0.49501559138298035,-2.1960678100585938,1.5271689891815186
243,0.6379,2.0019,0,0,-0.0100250244140625,0.517974853515625,-0.060028076171875,-0.15277916193008423,-1.582673192024231,1.3923019170761108
244,0.5566,1.7082,0,0,-0.165924072265625,0.4422760009765625,0.0501861572265625,0.27973178029060364,-0.6235786080360413,0.8778132796287537
245,0.5201,1.5015,0,0,-0.172210693359375,0.433563232421875,0.2857208251953125,0.34520986676216125,-0.5101854801177979,0.32111063599586487
246,0.5333,1.3924,0,0,-0.1156005859375,0.4712371826171875,0.293975830078125,0.1330869495868683,-0.8745051026344299,0.09354939311742783
247,0.5967,1.3799,0,0,-0.13677978515625,0.4932098388671875,0.1105804443359375,-0.008863266557455063,-1.086456537246704,0.08485017716884613
248,0.7061,1.451,0,0,-0.4244842529296875,0.3643798828125,-0.12158203125,0.13644252717494965,-0.8139901161193848,-0.2958851754665375
249,0.8532,1.5832,0,0,-0.5678253173828125,0.2733001708984375,-0.2237701416015625,0.3878917992115021,-0.5202333331108093,-0.9413805603981018
250,1.0262,1.7478,0,0,-0.572052001953125,0.3435516357421875,-0.2073974609375,0.41285839676856995,-1.0699244737625122,-1.433058738708496
251,1.2107,1.9135,0,0,-0.35589599609375,0.548828125,-0.404693603515625,0.027416177093982697,-2.3226330280303955,-1.7036536931991577
252,1.3914,2.0513,0,0,0.39288330078125,0.9386138916015625,-1.265777587890625,-0.015566443093121052,-2.8866894245147705,-1.1097530126571655
253,1.5538,2.1385,0,0,0.8621978759765625,1.5452728271484375,-1.399322509765625,-0.6374270915985107,-0.5513113737106323,0.2813693583011627
254,1.6856,2.1615,0,0,0.9804840087890625,1.980133056640625,-0.8827972412109375,-1.2448840141296387,2.8329455852508545,1.6038874387741089
255,1.778,2.1178,0,0,1.037506103515625,1.716064453125,-0.48712158203125,-1.248384714126587,3.4848718643188477,1.8430107831954956
256,1.8264,2.0158,0,0,1.07757568359375,1.3861541748046875,-0.1462249755859375,-0.9507578015327454,1.4892724752426147,1.5333166122436523
257,1.8304,1.8733,0,0,0.132843017578125,1.1941070556640625,0.2076873779296875,-0.5767536163330078,-0.2339661568403244,0.5461704134941101
258,1.7932,1.7144,0,0,-0.09228515625,1.1338348388671875,0.123626708984375,-0.3361146152019501,-0.3482498526573181,-0.3033718764781952
259,1.7211,1.5658,0,0,-0.396209716796875,1.26751708984375,0.159332275390625,-0.47559794783592224,-0.9106402397155762,-0.43543776869773865
260,1.6225,1.4529,0,0,-1.3255767822265625,1.824554443359375,-2.4135284423828125,1.0033882856369019,0.8159238696098328,-0.5541555881500244
261,1.5073,1.3963,0,0,-0.8347015380859375,0.9089508056640625,0.216278076171875,1.2201298475265503,0.813677191734314,-0.46805882453918457
262,1.3855,1.4094,0,0,-0.5801849365234375,0.7071075439453125,0.6958160400390625,-0.19346453249454498,1.054030179977417,-0.5739261507987976
263,1.267,1.4967,0,0,-0.5074920654296875,0.828857421875,0.3553314208984375,-0.5717841386795044,1.293280839920044,-0.7845310568809509
264,1.1599,1.6536,0,0,-0.446502685546875,0.8736419677734375,0.228057861328125,-0.4153980016708374,1.2932696342468262,-0.9231943488121033
265,1.0704,1.8664,0,0,-0.363433837890625,0.841094970703125,0.233367919921875,-0.11844861507415771,0.80776447057724,-1.1284239292144775
266,1.0022,2.1138,0,0,-0.2433929443359375,0.821685791015625,0.27117919921875,0.18513096868991852,-0.2270810902118683,-1.2686394453048706
267,0.956,2.3696,0,0,-0.1687469482421875,0.8494415283203125,0.30120849609375,0.3149843215942383,-1.4638131856918335,-1.3624933958053589
268,0.9302,2.605,0,0,-0.0831756591796875,0.9461822509765625,0.2493743896484375,0.29362577199935913,-2.5730533599853516,-1.3618133068084717
269,0.9212,2.7929,0,0,-0.0218048095703125,0.9632110595703125,0.1862030029296875,-0.07113303244113922,-2.984755039215088,-1.2523592710494995
270,0.9245,2.9104,0,0,0.0205078125,0.8715362548828125,-0.0373687744140625,-2.7192487716674805,-1.7071123123168945,-1.5112149715423584
271,0.9347,2.9425,0,0,0.1396636962890625,1.061767578125,-0.21490478515625,-4.207877159118652,0.35420042276382446,-1.1860827207565308
272,0.9473,2.8829,0,0,0.13726806640625,0.9988250732421875,-0.396636962890625,-3.209197521209717,1.0780662298202515,-0.5036157369613647
273,0.9585,2.7354,0,0,0.003326416015625,0.92095947265625,-0.578887939453125,-1.3512892723083496,2.246368646621704,-0.30601292848587036
274,0.9658,2.5122,0,0,-0.0105438232421875,0.990142822265625,-0.248870849609375,-0.2056729942560196,2.2255406379699707,-0.1790802776813507
275,0.9687,2.2321,0,0,-0.038238525390625,0.925933837890625,0.0200347900390625,-0.45308226346969604,1.0131593942642212,-0.10292904824018478
276,0.9678,1.9184,0,0,-0.1222076416015625,0.89703369140625,0.060302734375,-0.6780381202697754,-0.5056719779968262,-0.25830984115600586
277,0.965,1.5958,0,0,-0.1233062744140625,0.9200592041015625,0.0119476318359375,-0.5835896730422974,-1.180076241493225,-0.5870749354362488
278,0.9633,1.2891,0,0,-0.051422119140625,0.9551239013671875,-0.027496337890625,-0.4411800503730774,-1.292544960975647,-0.8670408129692078
279,0.9657,1.0213,0,0,0.03729248046875,0.9384613037109375,-0.0274200439453125,-0.4528111517429352,-1.0808594226837158,-0.9240268468856812
280,0.9753,0.8126,0,0,0.06768798828125,0.949188232421875,-0.063751220703125,-0.5068567991256714,-0.7506881356239319,-0.7461727261543274
281,0.9947,0.6801,0,0,0.0262908935546875,0.94384765625,-0.0982666015625,-0.6304229497909546,-0.15712544322013855,-0.5397289991378784
282,1.0258,0.6365,0,0,-0.0140380859375,0.945648193359375,-0.0777587890625,-0.6609662175178528,0.5287445187568665,-0.5110281109809875
283,1.0694,0.6899,0,0,0.06219482421875,1.027801513671875,0.0364532470703125,-0.06374195963144302,0.32839518785476685,-0.4878189265727997
284,1.1251,0.8422,0,0,0.13311767578125,1.1531829833984375,0.074249267578125,0.413745254278183,-0.1043194830417633,-0.3540385067462921
285,1.1914,1.0893,0,0,0.16156005859375,1.287139892578125,-0.0214996337890625,0.12495552003383636,0.3717708885669708,-0.3049364686012268
286,1.2658,1.42,0,0,0.1456451416015625,1.3818359375,-0.0129852294921875,-0.8931752443313599,1.6221425533294678,-0.10064990818500519
287,1.3446,1.8166,0,0,0.17108154296875,1.3747406005859375,0.026611328125,-0.7790856957435608,1.1550947427749634,-0.07575254887342453
288,1.4232,2.2553,0,0,0.1685638427734375,1.4060516357421875,-0.298095703125,-0.5971211791038513,1.4432519674301147,0.2423093020915985
289,1.4962,2.7081,0,0,0.180572509765625,1.3322296142578125,-0.6497039794921875,0.6710529327392578,2.4687862396240234,0.684714674949646
290,1.5574,3.1445,0,0,0.194915771484375,1.238555908203125,-0.332275390625,2.2696306705474854,2.1071505546569824,1.4711248874664307
291,1.6006,3.5342,0,0,0.0731658935546875,1.2685089111328125,0.0248260498046875,2.73113751411438,0.053099703043699265,2.3807032108306885
292,1.6193,3.8495,0,0,-0.2223358154296875,1.444122314453125,0.041961669921875,2.499069929122925,-1.9770503044128418,2.669250965118408
293,1.608,4.0683,0,0,-0.292327880859375,1.5738677978515625,0.0667572021484375,2.312329053878784,-3.296914577484131,2.350224733352661
294,1.563,4.1757,0,0,-0.343902587890625,1.623199462890625,0.021331787109375,2.3128645420074463,-3.5915603637695312,1.9107389450073242
295,1.483,4.1655,0,0,-0.646942138671875,1.6557769775390625,-0.089599609375,2.0490832328796387,-2.216493844985962,1.1960933208465576
296,1.37,4.0409,0,0,-0.9058685302734375,1.5410614013671875,-0.25225830078125,1.3567135334014893,1.7548534870147705,0.3491710424423218
297,1.2296,3.8145,0,0,-0.8111724853515625,1.30584716796875,-0.3701934814453125,1.332811713218689,5.384267330169678,0.2422027885913849
298,1.071,3.5071,0,0,-0.4373626708984375,0.8453826904296875,0.0341339111328125,1.283890724182129,5.68943977355957,1.048069953918457
299,0.9061,3.1466,0,0,-0.088531494140625,0.5982513427734375,0.446807861328125,0.6492019891738892,2.787719488143921,1.5491349697113037
300,0.7488,2.7646,0,0,-0.072967529296875,0.5548248291015625,0.3141632080078125,0.15225665271282196,-0.17465169727802277,1.4750255346298218
301,0.6131,2.3939,0,0,-0.185943603515625,0.4851531982421875,0.188934326171875,0.10276605933904648,-1.2960749864578247,0.9470190405845642
302,0.5122,2.0643,0,0,-0.0482635498046875,0.435516357421875,0.341094970703125,-0.12001269310712814,-1.9384502172470093,0.6682435870170593
303,0.4567,1.7993,0,0,0.06915283203125,0.4448089599609375,0.1553192138671875,-0.37183988094329834,-1.8492852449417114,0.7925511598587036
304,0.4534,1.6137,0,0,0.0222625732421875,0.46551513671875,-0.0491180419921875,-0.24678368866443634,-0.5297466516494751,0.9582511782646179
305,0.5047,1.512,0,0,-0.157867431640625,0.3766632080078125,0.0275115966796875,-0.08627523481845856,0.5042189359664917,0.6573888063430786
306,0.6076,1.4885,0,0,-0.3097381591796875,0.2818450927734375,0.06439208984375,0.08556923270225525,0.41463688015937805,-0.12540452182292938
307,0.754,1.5282,0,0,-0.376922607421875,0.2508087158203125,0.0266265869140625,0.21773764491081238,-0.1873379349708557,-0.9269949793815613
308,0.9313,1.6101,0,0,-0.3816375732421875,0.304351806640625,0.0019378662109375,0.15260446071624756,-1.026029348373413,-1.4311350584030151
309,1.1234,1.7098,0,0,-0.365509033203125,0.4560089111328125,-0.1610107421875,-0.06688768416643143,-1.8787184953689575,-1.743972659111023
310,1.3126,1.8044,0,0,0.0782318115234375,0.7822418212890625,-0.8320465087890625,-0.07181479781866074,-2.9911093711853027,-1.608518362045288
311,1.4818,1.8752,0,0,0.710693359375,1.4971923828125,-1.44671630859375,-0.4219539165496826,-2.316958427429199,-0.7737191319465637
312,1.6162,1.9109,0,0,0.9712066650390625,2.2849578857421875,-1.2185516357421875,-0.7086519598960876,1.1797864437103271,0.7191048860549927
313,1.7058,1.9079,0,0,0.9348907470703125,2.1544342041015625,-0.785980224609375,-0.8150468468666077,2.6693203449249268,1.5344403982162476
314,1.7458,1.8703,0,0,0.81396484375,1.673828125,-0.4384307861328125,-0.8319499492645264,1.3977041244506836,1.2230924367904663
315,1.737,1.8081,0,0,0.0750274658203125,1.192962646484375,0.0037384033203125,-0.697417676448822,0.3352155387401581,0.5080578923225403
316,1.6852,1.7345,0,0,-0.230072021484375,0.8754119873046875,-0.06390380859375,-0.46306511759757996,0.618964433670044,-0.08596684038639069
317,1.5994,1.6633,0,0,-0.4389801025390625,0.8858184814453125,0.218597412109375,-0.1274479627609253,0.25486716628074646,-0.24940051138401031
318,1.4909,1.6065,0,0,-1.21697998046875,1.26104736328125,-0.646209716796875,0.3988017141819,-1.5226445198059082,-0.7809914350509644
319,1.3715,1.5728,0,0,-0.89642333984375,1.42242431640625,-1.0815582275390625,1.00652277469635,-1.2157106399536133,-0.9881323575973511
320,1.2524,1.5668,0,0,-0.5727691650390625,0.8664093017578125,0.23541259765625,0.10436315834522247,1.2385163307189941,-0.7375499606132507
321,1.1433,1.5893,0,0,-0.46002197265625,0.716094970703125,0.4615020751953125,-0.7466358542442322,2.1507222652435303,-0.8516871929168701
322,1.0517,1.6375,0,0,-0.3127593994140625,0.7553863525390625,0.3427734375,-0.8803273439407349,1.893792748451233,-0.8719162940979004
323,0.9821,1.706,0,0,-0.2346649169921875,0.748748779296875,0.277862548828125,-0.6331814527511597,1.3355050086975098,-0.8068472743034363
324,0.9363,1.7873,0,0,-0.17169189453125,0.783966064453125,0.222015380859375,-0.21497276425361633,0.6012522578239441,-0.8377820253372192
325,0.9129,1.8724,0,0,-0.1156005859375,0.8593902587890625,0.1829833984375,0.30048444867134094,-0.13560017943382263,-1.0005857944488525
326,0.9084,1.9517,0,0,-0.0506439208984375,0.9285430908203125,0.1767425537109375,0.6123406291007996,-0.926263689994812,-1.2095478773117065
327,0.9175,2.0161,0,0,0.0601348876953125,0.935302734375,0.213531494140625,-0.6570268869400024,-1.4026858806610107,-1.575268268585205
328,0.9344,2.0577,0,0,0.24041748046875,1.0871734619140625,-0.0324554443359375,-2.923631429672241,-1.107469081878662,-1.4769777059555054
329,0.9533,2.071,0,0,0.24176025390625,1.0609283447265625,-0.16986083984375,-2.705106019973755,-0.903035581111908,-0.4639151990413666
330,0.9692,2.053,0,0,0.0800628662109375,0.8394775390625,-0.5147552490234375,-1.7927614450454712,0.3508160710334778,-0.06503359228372574
331,0.9789,2.004,0,0,0.0057830810546875,0.9266510009765625,-0.3717498779296875,-0.6776139140129089,1.701020359992981,-0.13586542010307312
332,0.9807,1.9261,0,0,0.0104827880859375,1.0480499267578125,-0.0983428955078125,-0.0009736517095007002,1.6482386589050293,0.0051995557732880116
333,0.9748,1.8232,0,0,-0.0306396484375,1.014923095703125,0.095367431640625,-0.0906209796667099,0.8212611079216003,0.03483787551522255
334,0.9629,1.7001,0,0,-0.0541229248046875,0.9252777099609375,0.1670379638671875,-0.5097958445549011,-0.3723599910736084,-0.11241096258163452
335,0.9482,1.5621,0,0,-0.049285888671875,0.9099884033203125,0.1027069091796875,-0.7203214168548584,-1.3674997091293335,-0.4271675646305084
336,0.9342,1.4157,0,0,-0.005950927734375,0.8596038818359375,0.0271148681640625,-0.7914552688598633,-1.8786638975143433,-0.550361692905426
337,0.925,1.2691,0,0,-0.031951904296875,0.8516845703125,-0.0285491943359375,-0.8613752126693726,-1.8717290163040161,-0.5301264524459839
338,0.9242,1.1325,0,0,-0.04986572265625,0.8345184326171875,-0.0744476318359375,-0.9125779271125793,-1.4040189981460571,-0.47263386845588684
339,0.9348,1.0184,0,0,-0.0589141845703125,0.8731536865234375,-0.094757080078125,-0.842745840549469,-0.6869876980781555,-0.3897443115711212
340,0.9587,0.9412,0,0,-0.0789031982421875,0.9315185546875,-0.09918212890625,-0.808150589466095,0.20205429196357727,-0.2538011074066162
341,0.9968,0.9154,0,0,-0.05206298828125,1.01812744140625,-0.0290374755859375,-0.5295762419700623,0.8359768986701965,-0.28749409317970276
342,1.0489,0.9544,0,0,-0.00408935546875,1.1329498291015625,0.0796966552734375,0.037527669221162796,0.7855859398841858,-0.3721253573894501
343,1.1137,1.0681,0,0,0.02685546875,1.2122344970703125,0.14599609375,0.05795837566256523,0.5312380194664001,-0.4415329396724701
344,1.189,1.2605,0,0,0.0211181640625,1.19268798828125,0.0640716552734375,-0.669016420841217,0.6059245467185974,-0.5197683572769165
345,1.2719,1.5288,0,0,0.06378173828125,1.188995361328125,-0.0285491943359375,-1.2327884435653687,0.6417818665504456,-0.589669942855835
346,1.3585,1.8621,0,0,0.209564208984375,1.310791015625,-0.239990234375,-0.9278652667999268,0.6550918221473694,-0.7217512726783752
347,1.4443,2.2417,0,0,0.44073486328125,1.5428924560546875,-0.612091064453125,0.1570543348789215,1.5511224269866943,-0.4562285244464874
348,1.5243,2.6419,0,0,0.5198211669921875,1.45831298828125,-0.3414306640625,1.8604406118392944,1.3995568752288818,0.35799649357795715
349,1.5929,3.0324,0,0,0.4024200439453125,1.2520751953125,0.12103271484375,2.486067771911621,-0.07544602453708649,1.1129200458526611
350,1.6443,3.3815,0,0,0.2613983154296875,1.239898681640625,0.2209320068359375,2.4450743198394775,-1.8226008415222168,1.8749388456344604
351,1.6728,3.6588,0,0,-0.102081298828125,1.400665283203125,0.110595703125,2.465010404586792,-2.964772939682007,2.167917013168335
352,1.6731,3.8398,0,0,-0.3331451416015625,1.621185302734375,0.1223907470703125,2.519108772277832,-3.593430757522583,1.9429035186767578
353,1.6414,3.9079,0,0,-0.488983154296875,1.7102813720703125,0.189605712890625,2.252368688583374,-3.456173896789551,1.4292184114456177
354,1.5761,3.8571,0,0,-0.79925537109375,1.6878509521484375,0.0388641357421875,1.5236135721206665,-0.7511522769927979,0.8020437359809875
355,1.4781,3.6929,0,0,-1.0728912353515625,1.5670013427734375,-0.5770416259765625,1.5498273372650146,3.724191665649414,0.26359570026397705
356,1.3516,3.4317,0,0,-0.8544769287109375,1.1960296630859375,-0.51666259765625,2.5445003509521484,5.62061071395874,0.6144378781318665
357,1.204,3.0997,0,0,-0.488525390625,0.7624664306640625,0.4096527099609375,1.820727825164795,3.537696123123169,1.0612443685531616
358,1.0452,2.7299,0,0,-0.0636749267578125,0.618560791015625,0.689483642578125,0.1760578453540802,0.23910659551620483,1.1085871458053589
359,0.8871,2.3584,0,0,0.1061859130859375,0.7497711181640625,0.0223541259765625,-0.4235946834087372,-0.7150246500968933,1.4022011756896973
360,0.7421,2.0201,0,0,0.116729736328125,0.7071533203125,0.1207733154296875,-0.3405197560787201,-0.17321385443210602,1.5831984281539917
361,0.6225,1.7447,0,0,0.109649658203125,0.6136016845703125,0.3023223876953125,-0.4662207067012787,-0.048771798610687256,1.5135034322738647
362,0.5388,1.5533,0,0,-0.111907958984375,0.528411865234375,0.0579376220703125,-0.20990502834320068,0.39632391929626465,1.1117973327636719
363,0.499,1.4561,0,0,-0.282135009765625,0.4015350341796875,0.1086273193359375,0.1963207721710205,0.9552494883537292,0.3390675485134125
364,0.5078,1.4521,0,0,-0.2706451416015625,0.351593017578125,0.244171142578125,0.4617886543273926,0.39624321460723877,-0.290311723947525
365,0.5659,1.5298,0,0,-0.17559814453125,0.355224609375,0.3215179443359375,0.43057215213775635,-0.9692052602767944,-0.5590049624443054
366,0.6698,1.669,0,0,-0.0968475341796875,0.3785858154296875,0.0921783447265625,0.35198548436164856,-1.9739805459976196,-0.44940176606178284
367,0.812,1.8448,0,0,-0.3444366455078125,0.3550262451171875,-0.240570068359375,0.5611554384231567,-2.0349080562591553,-0.5169302225112915
368,0.9814,2.0302,0,0,-0.3782958984375,0.3701934814453125,-0.467620849609375,0.9498198628425598,-1.8587929010391235,-0.9698388576507568
369,1.1646,2.2005,0,0,0.0145721435546875,0.5194549560546875,-0.7184906005859375,0.9514073729515076,-3.211358070373535,-1.2645714282989502
370,1.347,2.336,0,0,0.59161376953125,0.8944549560546875,-1.396270751953125,0.3825598955154419,-2.951845407485962,-1.049567461013794
371,1.5146,2.4236,0,0,0.6784820556640625,1.4532470703125,-1.2147674560546875,-0.9149497747421265,0.3367426097393036,-0.34012719988822937
372,1.6553,2.4582,0,0,0.665069580078125,1.85479736328125,-0.9051361083984375,-1.356117844581604,2.6416616439819336,0.6978179812431335
373,1.76,2.4418,0,0,0.7628936767578125,1.8711700439453125,-0.644134521484375,-1.1964917182922363,2.6386878490448,1.3678312301635742
374,1.8234,2.3826,0,0,0.446197509765625,1.5737457275390625,-0.017791748046875,-0.9353309273719788,0.6941177845001221,1.3327035903930664
375,1.844,2.2933,0,0,-0.120361328125,1.214080810546875,0.270904541015625,-0.7170073986053467,-1.2609734535217285,0.43962690234184265
376,1.8237,2.1889,0,0,-0.14898681640625,1.155609130859375,0.309600830078125,-0.449796199798584,-0.9651870727539062,-0.2279343605041504
377,1.7675,2.0855,0,0,-0.444549560546875,1.223297119140625,0.2816925048828125,-0.6901824474334717,-1.251886248588562,-0.45327508449554443
378,1.6826,1.9982,0,0,-1.08026123046875,1.5757904052734375,-3.173614501953125,2.010755777359009,3.688117504119873,-0.5003669261932373
379,1.5779,1.9401,0,0,-0.9014892578125,0.83203125,0.160797119140625,2.147698402404785,1.9950200319290161,-0.338018536567688
380,1.4632,1.9215,0,0,-0.5974578857421875,0.5638580322265625,1.0449371337890625,-0.2855795621871948,1.0367765426635742,-0.6982637643814087
381,1.3481,1.9484,0,0,-0.5018463134765625,0.7309722900390625,0.5192108154296875,-1.3239388465881348,0.9532439112663269,-1.0236605405807495
382,1.2414,2.0214,0,0,-0.40203857421875,0.8437957763671875,0.2647247314453125,-1.0184489488601685,0.5099002718925476,-1.091328740119934
383,1.1496,2.135,0,0,-0.343048095703125,0.8788299560546875,0.201446533203125,-0.3508927822113037,-0.1402718871831894,-1.113512635231018
384,1.0769,2.2777,0,0,-0.2693328857421875,0.90185546875,0.2316436767578125,0.20746929943561554,-0.8403066992759705,-1.2241435050964355
385,1.0244,2.4323,0,0,-0.1842041015625,0.9518280029296875,0.2341766357421875,0.48300766944885254,-1.4880495071411133,-1.3177012205123901
386,0.991,2.5784,0,0,-0.077972412109375,1.0352630615234375,0.2371673583984375,0.4217192828655243,-2.015260696411133,-1.2304251194000244
387,0.9736,2.6945,0,0,-0.01654052734375,1.0006866455078125,0.2386322021484375,-0.5715526938438416,-2.2977712154388428,-1.1825556755065918
388,0.9677,2.7618,0,0,0.08721923828125,0.99737548828125,-0.065032958984375,-3.831845998764038,-1.65461266040802,-1.4334627389907837
389,0.9686,2.7666,0,0,0.1487274169921875,1.02593994140625,-0.4050445556640625,-4.127413272857666,-0.3061998784542084,-0.6908493041992188
390,0.972,2.7027,0,0,0.0151519775390625,0.83856201171875,-0.822662353515625,-2.709519863128662,1.965597152709961,-0.1200486421585083
391,0.9745,2.5721,0,0,-0.0755615234375,0.9350128173828125,-0.43695068359375,-0.6411302089691162,2.714454174041748,0.08699322491884232
392,0.9741,2.3844,0,0,-0.1110992431640625,0.9647064208984375,-0.086334228515625,0.1927955448627472,1.7601829767227173,0.11749973148107529
393,0.9705,2.1552,0,0,-0.1180419921875,0.928497314453125,0.1022186279296875,-0.2696005702018738,0.16990222036838531,-0.04677363112568855
394,0.9645,1.9037,0,0,-0.15057373046875,0.88677978515625,0.110137939453125,-0.561799943447113,-0.9537290930747986,-0.4074103832244873
395,0.9582,1.6509,0,0,-0.0463714599609375,0.917022705078125,0.091217041015625,-0.560914158821106,-1.5254591703414917,-0.7121250033378601
396,0.9542,1.4176,0,0,0.0106353759765625,0.9504241943359375,0.02496337890625,-0.4221208691596985,-1.799397587776184,-0.7030057907104492
397,0.9557,1.2235,0,0,0.0040435791015625,0.9023895263671875,-0.023101806640625,-0.47381603717803955,-1.6135985851287842,-0.6179401874542236
398,0.9655,1.0862,0,0,-0.0426177978515625,0.9095916748046875,-0.0448455810546875,-0.627551794052124,-1.006313443183899,-0.5682938098907471
399,0.9861,1.0207,0,0,-0.0434722900390625,0.9783477783203125,-0.025177001953125,-0.8025323748588562,-0.19483526051044464,-0.4814542531967163
400,1.0193,1.0381,0,0,-0.063385009765625,1.00115966796875,-0.01666259765625,-0.982311487197876,0.6136775612831116,-0.3588939905166626
401,1.0658,1.1452,0,0,-0.0366973876953125,1.059783935546875,0.045318603515625,-0.7782390713691711,1.0234315395355225,-0.4338768720626831
402,1.1256,1.3431,0,0,0.009368896484375,1.1272430419921875,0.1182403564453125,-0.5550081133842468,0.8752558827400208,-0.46913793683052063
403,1.1973,1.6264,0,0,0.0687713623046875,1.2191162109375,0.0627593994140625,-0.8119067549705505,0.8418156504631042,-0.6606349349021912
404,1.2787,1.9827,0,0,0.138153076171875,1.34454345703125,-0.085540771484375,-1.4636964797973633,1.177403450012207,-0.6695722341537476
405,1.3666,2.3927,0,0,0.241851806640625,1.404693603515625,-0.43853759765625,-1.0731196403503418,1.442708134651184,-0.5686749219894409
406,1.4565,2.8306,0,0,0.38067626953125,1.4701690673828125,-0.8759918212890625,0.7020654678344727,2.232558012008667,-0.07447317242622375
407,1.5432,3.2661,0,0,0.4537200927734375,1.34765625,-0.1605682373046875,2.494600534439087,1.1621373891830444,0.7382466197013855
408,1.6203,3.6663,0,0,0.3668365478515625,1.1843109130859375,0.2054290771484375,2.6201834678649902,-0.8335387706756592,1.434577465057373
409,1.6808,3.999,0,0,0.21331787109375,1.213287353515625,0.3196563720703125,2.536574363708496,-2.7239325046539307,2.1274678707122803
410,1.7174,4.236,0,0,-0.06402587890625,1.3721771240234375,0.1986083984375,2.649355173110962,-4.025639057159424,2.3573431968688965
411,1.7231,4.3566,0,0,-0.2784881591796875,1.623016357421875,0.058685302734375,2.769526720046997,-4.226201057434082,2.215859889984131
412,1.6925,4.3495,0,0,-0.4578857421875,1.8142547607421875,0.0651092529296875,2.690105676651001,-3.5023226737976074,1.859796404838562
413,1.6227,4.2149,0,0,-0.8180084228515625,1.8611602783203125,0.077056884765625,1.9918804168701172,-0.72535240650177,1.1208951473236084
414,1.5143,3.9643,0,0,-1.202667236328125,1.6964111328125,-0.25933837890625,1.3354413509368896,3.4394798278808594,0.3157758116722107
415,1.3722,3.62,0,0,-1.0648040771484375,1.2714080810546875,-0.7175140380859375,2.249361038208008,5.240795135498047,0.5848754644393921
416,1.2052,3.2124,0,0,-0.6652984619140625,0.7861480712890625,0.170379638671875,1.8817129135131836,3.577059745788574,1.3420379161834717
417,1.0259,2.7778,0,0,-0.3680877685546875,0.5720977783203125,0.45306396484375,0.46414315700531006,1.6875858306884766,1.1922072172164917
418,0.8493,2.3541,0,0,-0.11572265625,0.60675048828125,0.4209136962890625,-0.5031859278678894,0.17898812890052795,1.0549137592315674
419,0.6909,1.9768,0,0,0.0353546142578125,0.5623016357421875,0.2570037841796875,-0.7962058186531067,-0.9307702779769897,1.1738084554672241
420,0.5658,1.6751,0,0,0.10406494140625,0.5317840576171875,0.0402984619140625,-0.5103737711906433,-0.9262322187423706,1.483272910118103
421,0.4863,1.4688,0,0,-0.0685577392578125,0.4807586669921875,0.0227508544921875,-0.04380154237151146,0.04592994228005409,1.3503406047821045
422,0.4608,1.3661,0,0,-0.20220947265625,0.3740081787109375,0.151214599609375,0.24195164442062378,0.6319974064826965,0.6810871958732605
423,0.4931,1.3627,0,0,-0.2142486572265625,0.3303680419921875,0.1893157958984375,0.41721588373184204,0.49656370282173157,0.002231196267530322
424,0.5813,1.4429,0,0,-0.15435791015625,0.3316497802734375,0.176116943359375,0.4475298225879669,-0.15583060681819916,-0.37955719232559204
425,0.7178,1.5817,0,0,-0.2246246337890625,0.3418121337890625,0.041534423828125,0.38954004645347595,-0.7045368552207947,-0.5797232985496521
426,0.8903,1.7486,0,0,-0.40667724609375,0.3226776123046875,-0.1228485107421875,0.41801217198371887,-1.1780411005020142,-0.971468448638916
427,1.0827,1.9119,0,0,-0.41339111328125,0.381317138671875,-0.189056396484375,0.32897335290908813,-1.847590684890747,-1.4245799779891968
428,1.2769,2.0438,0,0,-0.199462890625,0.5470733642578125,-0.455810546875,-0.15640105307102203,-3.525202512741089,-1.7081634998321533
429,1.4551,2.1242,0,0,0.46392822265625,1.1039886474609375,-1.755859375,-0.2743021249771118,-3.8641133308410645,-1.4754530191421509
430,1.602,2.1437,0,0,1.14056396484375,2.1813201904296875,-1.902740478515625,-0.06494171172380447,1.185225486755371,0.16707447171211243
431,1.7066,2.1046,0,0,0.8007659912109375,2.3522796630859375,-0.7625274658203125,-0.30258089303970337,3.009697437286377,1.506529688835144
432,1.7638,2.0195,0,0,0.8148651123046875,1.83905029296875,-0.4950714111328125,-0.7890770435333252,1.3916302919387817,1.4547967910766602
433,1.7737,1.9086,0,0,0.307373046875,1.0214385986328125,-0.4010772705078125,-0.7618528604507446,0.31860247254371643,1.1146916151046753
434,1.7414,1.7958,0,0,-0.296051025390625,0.899566650390625,-0.007476806640625,-0.5037760734558105,0.2646087408065796,0.4176616966724396
435,1.6752,1.7044,0,0,-0.4219512939453125,0.734100341796875,0.0651702880859375,-0.1232641413807869,0.4666968584060669,0.07152664661407471
436,1.5855,1.6536,0,0,-0.6546783447265625,0.880126953125,0.4462738037109375,-0.18452084064483643,-0.5627049207687378,-0.20569750666618347
437,1.4827,1.6555,0,0,-1.494537353515625,1.7036590576171875,-1.5332489013671875,0.9386907815933228,-1.6880414485931396,-1.0969419479370117
438,1.3769,1.7143,0,0,-0.705291748046875,1.2662353515625,-0.3036041259765625,0.9611414670944214,0.3195961117744446,-0.8975939154624939
439,1.2769,1.8263,0,0,-0.5032958984375,0.7749786376953125,0.6884002685546875,-0.4457814693450928,2.404059648513794,-0.5452345609664917
440,1.1894,1.9806,0,0,-0.465545654296875,0.770721435546875,0.49267578125,-0.9774906039237976,2.5760529041290283,-0.8052507042884827
441,1.119,2.1613,0,0,-0.329193115234375,0.824188232421875,0.3490447998046875,-0.8725897669792175,2.342013359069824,-0.9243435263633728
442,1.0679,2.3495,0,0,-0.2290802001953125,0.848968505859375,0.31121826171875,-0.5136907696723938,1.7909598350524902,-0.8904390931129456
443,1.0357,2.5244,0,0,-0.1819610595703125,0.8683624267578125,0.317169189453125,-0.032462868839502335,0.6863511800765991,-1.0564541816711426
444,1.0199,2.6662,0,0,-0.1169586181640625,0.940521240234375,0.3008270263671875,0.36931678652763367,-0.6233509182929993,-1.3415786027908325
445,1.0163,2.7574,0,0,-0.0116119384765625,0.972625732421875,0.3996734619140625,-0.3419339060783386,-1.829819679260254,-1.6265610456466675
446,1.0201,2.7851,0,0,0.1597137451171875,1.0431060791015625,0.174041748046875,-3.2639780044555664,-3.3270723819732666,-1.9036818742752075
447,1.0263,2.7426,0,0,0.164825439453125,0.9956512451171875,-0.662139892578125,-3.76845121383667,-2.2676780223846436,-0.9143702387809753
448,1.0306,2.6302,0,0,-0.0067138671875,0.8640289306640625,-1.147003173828125,-1.9429895877838135,1.5609763860702515,-0.1996779590845108
449,1.0301,2.4552,0,0,-0.113677978515625,0.858917236328125,-0.382598876953125,0.16242752969264984,2.502566337585449,0.0341917909681797
450,1.0231,2.2306,0,0,-0.110931396484375,0.901123046875,0.0194549560546875,0.3514017164707184,1.8048274517059326,0.09954044222831726
451,1.0097,1.9725,0,0,-0.074005126953125,0.944976806640625,0.2083587646484375,-0.3151707351207733,0.412998765707016,-0.1329450011253357
452,0.9915,1.6984,0,0,-0.0261383056640625,0.9485626220703125,0.1492767333984375,-0.5877346396446228,-0.7819914221763611,-0.3758186399936676
453,0.971,1.4248,0,0,0.004486083984375,0.9128570556640625,0.0072174072265625,-0.6676627397537231,-1.0794116258621216,-0.46774962544441223
454,0.9515,1.1662,0,0,0.0489654541015625,0.929229736328125,-0.05975341796875,-0.5986953973770142,-0.7805626392364502,-0.506446123123169
455,0.9365,0.9349,0,0,0.071563720703125,0.9692535400390625,-0.0738067626953125,-0.5568600296974182,-0.2898179590702057,-0.5285711884498596
456,0.9299,0.7408,0,0,0.0487518310546875,0.9535064697265625,-0.0480499267578125,-0.5744885802268982,0.11410020291805267,-0.6210776567459106
457,0.9346,0.593,0,0,0.0355224609375,0.95428466796875,0.0173797607421875,-0.5886667370796204,0.1063821017742157,-0.6815636157989502
458,0.9533,0.5002,0,0,0.0187530517578125,0.9485015869140625,0.0551300048828125,-0.7738003730773926,-0.14706215262413025,-0.6281600594520569
459,0.9874,0.4712,0,0,-0.0204925537109375,0.9553070068359375,0.0377960205078125,-1.044564962387085,-0.4022054970264435,-0.5588148236274719
460,1.0373,0.5148,0,0,-0.02569580078125,0.9764556884765625,-0.011688232421875,-0.9807074666023254,-0.5296851396560669,-0.522576630115509
461,1.102,0.639,0,0,-0.0333709716796875,1.02789306640625,-0.01116943359375,-0.5448137521743774,-0.45463141798973083,-0.4560772478580475
462,1.1792,0.8492,0,0,-0.051605224609375,1.1041412353515625,0.0083160400390625,-0.3441976010799408,-0.23882749676704407,-0.5697503089904785
463,1.2653,1.1459,0,0,0.024810791015625,1.262542724609375,0.0172119140625,-0.6957076787948608,-0.07269018143415451,-0.4877707362174988
464,1.3558,1.5228,0,0,0.1413116455078125,1.4282379150390625,-0.0054931640625,-0.6382659673690796,-0.28653189539909363,-0.43718984723091125
465,1.4455,1.9651,0,0,0.32232666015625,1.605133056640625,-0.2152099609375,-0.1606362760066986,-0.05413514003157616,-0.39092355966567993
466,1.5286,2.4492,0,0,0.4700469970703125,1.6811981201171875,-0.5740203857421875,0.5287967324256897,1.1879432201385498,0.315085768699646
467,1.5991,2.9434,0,0,0.2352142333984375,1.427459716796875,-0.64556884765625,1.7640984058380127,2.002951145172119,1.256965160369873
468,1.6511,3.4114,0,0,0.0833587646484375,1.2545623779296875,-0.0875701904296875,2.7947170734405518,0.44089165329933167,1.8544865846633911
469,1.679,3.8152,0,0,-0.0751800537109375,1.299652099609375,0.1473846435546875,3.3999862670898438,-1.9491639137268066,2.3262667655944824
470,1.6775,4.1205,0,0,-0.19720458984375,1.400970458984375,0.2383880615234375,3.3519251346588135,-3.587160587310791,2.4693832397460938
471,1.6428,4.3,0,0,-0.3632049560546875,1.4924163818359375,0.230010986328125,2.9485020637512207,-4.297922611236572,2.166581392288208
472,1.5728,4.3374,0,0,-0.5955047607421875,1.5864410400390625,0.101226806640625,2.4971516132354736,-3.588322877883911,1.4008525609970093
473,1.4681,4.229,0,0,-0.9848480224609375,1.5968475341796875,-0.127838134765625,1.4189804792404175,0.2134355753660202,0.30652663111686707
474,1.3326,3.9839,0,0,-1.0108184814453125,1.4088592529296875,-0.61907958984375,1.1947001218795776,4.375477313995361,-0.21097348630428314
475,1.1738,3.6233,0,0,-0.708709716796875,1.111419677734375,-0.5170745849609375,1.902458906173706,5.613912582397461,0.6726542711257935
476,1.0026,3.1782,0,0,-0.4407958984375,0.676605224609375,0.2869415283203125,1.2613465785980225,3.8389971256256104,1.2700101137161255
477,0.8324,2.6864,0,0,-0.1995849609375,0.58172607421875,0.566192626953125,0.04962507635354996,1.312800407409668,1.2112914323806763
478,0.6781,2.188,0,0,-0.241119384765625,0.5582427978515625,0.349884033203125,-0.5980911254882812,-0.40478742122650146,0.926273763179779
479,0.5542,1.7215,0,0,-0.189239501953125,0.421112060546875,0.085968017578125,-0.5775666832923889,-0.5624130368232727,0.6639769077301025
480,0.4735,1.3194,0,0,-0.0699920654296875,0.3388671875,0.078582763671875,-0.19472821056842804,0.009347163140773773,0.5956847071647644
481,0.4453,1.0051,0,0,-0.0220489501953125,0.3087158203125,0.17425537109375,-0.04906075447797775,0.17659634351730347,0.6796725392341614
482,0.4742,0.7916,0,0,-0.053070068359375,0.303131103515625,0.222747802734375,0.13748568296432495,-0.194319948554039,0.4680470824241638
483,0.5595,0.6806,0,0,-0.0746002197265625,0.33697509765625,0.191375732421875,0.1316048949956894,-0.6754255890846252,0.12604555487632751
484,0.6947,0.6644,0,0,-0.083160400390625,0.3884735107421875,0.0271453857421875,0.0026317357551306486,-0.6792493462562561,-0.1624871790409088
485,0.8681,0.7275,0,0,-0.189727783203125,0.42138671875,-0.12530517578125,-0.11592739820480347,-0.1702955663204193,-0.5768489241600037
486,1.0641,0.8502,0,0,-0.30499267578125,0.4922637939453125,-0.2316741943359375,-0.22117605805397034,0.1598714292049408,-1.221415638923645
487,1.2645,1.0109,0,0,-0.2206268310546875,0.899810791015625,-0.7444000244140625,-0.1409778892993927,-0.05194548889994621,-1.7170720100402832
488,1.4515,1.1898,0,0,0.735137939453125,1.5417327880859375,-1.3565673828125,-0.013799968175590038,-0.9963740706443787,-1.427091121673584
489,1.6088,1.3705,0,0,1.2050018310546875,1.5428314208984375,-0.8645172119140625,-0.6047018766403198,-0.4475812315940857,0.36054539680480957
490,1.7247,1.5413,0,0,1.162017822265625,1.6949920654296875,-1.014617919921875,-0.9220316410064697,0.5227748155593872,1.9901515245437622
491,1.7926,1.6958,0,0,0.6277313232421875,1.7635345458984375,-1.0450439453125,-0.7914387583732605,2.019906759262085,1.9157241582870483
492,1.8119,1.8322,0,0,0.007415771484375,1.6364898681640625,-0.5363616943359375,-0.3922863006591797,1.2549285888671875,0.7352856993675232
493,1.787,1.9516,0,0,-0.3394775390625,1.6654052734375,-0.0764312744140625,0.2930670380592346,-0.5211385488510132,0.312466561794281
494,1.7268,2.0568,0,0,-0.2656097412109375,1.4857635498046875,0.477020263671875,0.24900902807712555,-1.5292507410049438,0.6079387068748474
495,1.6424,2.1499,0,0,-0.8167266845703125,0.8957061767578125,-0.584228515625,0.21077615022659302,-1.1702417135238647,0.1522475928068161
496,1.5455,2.232,0,0,-1.168975830078125,0.3369293212890625,-0.85723876953125,1.90412175655365,0.8424190878868103,-1.1181206703186035
497,1.4468,2.3022,0,0,-0.48260498046875,0.3850250244140625,0.7523345947265625,1.1420780420303345,1.9379197359085083,-1.445935606956482
498,1.3547,2.3582,0,0,-0.4891357421875,0.6701507568359375,0.732086181640625,-0.36861452460289,2.3770906925201416,-1.2284797430038452
499,1.2747,2.3967,0,0,-0.547760009765625,0.9630279541015625,0.468231201171875,-1.0157467126846313,2.1594717502593994,-1.3013746738433838
500,1.2091,2.4145,0,0,-0.48388671875,1.168121337890625,0.300689697265625,-0.9964094758033752,1.3858940601348877,-1.4452959299087524
501,1.1573,2.4095,0,0,-0.2968292236328125,1.18414306640625,0.3004608154296875,-0.7596650719642639,0.026824690401554108,-1.481879472732544
502,1.1169,2.3807,0,0,-0.0521240234375,1.097991943359375,0.3586273193359375,-1.2860130071640015,-2.2118468284606934,-1.6822419166564941
503,1.0844,2.3289,0,0,0.2453155517578125,1.13665771484375,-0.429168701171875,-2.1742734909057617,-3.1549854278564453,-2.0789921283721924
504,1.0563,2.2566,0,0,0.4473876953125,1.1667633056640625,-0.8691253662109375,-1.1914609670639038,-0.1520012468099594,-1.5415356159210205
505,1.0296,2.1672,0,0,0.284393310546875,1.103515625,-0.1723785400390625,0.0738835483789444,0.4993157982826233,-0.5184844136238098
506,1.0024,2.0641,0,0,0.026885986328125,0.808502197265625,0.1233367919921875,-0.1990518420934677,-0.7895795702934265,-0.1340336948633194
507,0.9742,1.9503,0,0,-0.090576171875,0.8175048828125,0.100006103515625,-0.9525054097175598,-1.8774985074996948,-0.17197389900684357
508,0.9455,1.8279,0,0,-0.1580963134765625,0.9034576416015625,-0.036041259765625,-1.2001713514328003,-2.181522846221924,-0.25560060143470764
509,0.9179,1.698,0,0,-0.166259765625,0.895965576171875,-0.112457275390625,-0.9800035953521729,-1.8839057683944702,-0.3463379740715027
510,0.8932,1.5616,0,0,-0.1273651123046875,0.8740997314453125,-0.11737060546875,-0.7012134790420532,-1.3828439712524414,-0.3220107853412628
511,0.8739,1.4199,0,0,-0.1126861572265625,0.811065673828125,-0.088165283203125,-0.7682202458381653,-0.5743724703788757,-0.2149682343006134
512,0.862,1.2749,0,0,-0.1071929931640625,0.79241943359375,-0.0267791748046875,-0.9678579568862915,0.2087758481502533,-0.18890760838985443
513,0.8594,1.1304,0,0,-0.1264190673828125,0.840545654296875,0.0133056640625,-1.0280816555023193,0.2032167613506317,-0.3136806786060333
514,0.8674,0.9923,0,0,-0.17919921875,0.87469482421875,-0.00048828125,-1.102912187576294,0.04616030305624008,-0.42607834935188293
515,0.887,0.8686,0,0,-0.1666259765625,0.8692626953125,-0.034912109375,-1.023857593536377,-0.039686158299446106,-0.5201571583747864
516,0.9182,0.7703,0,0,-0.127685546875,0.9175567626953125,-0.0291290283203125,-0.8483454585075378,-0.10305474698543549,-0.5928769111633301
517,0.9606,0.71,0,0,-0.1338348388671875,0.9687652587890625,-0.0446624755859375,-0.8859947919845581,0.06048784404993057,-0.5903511643409729
518,1.0134,0.7017,0,0,-0.103973388671875,1.007110595703125,-0.033416748046875,-0.8317574262619019,0.4619726836681366,-0.6000309586524963
519,1.0753,0.759,0,0,-0.005096435546875,1.0785064697265625,0.034820556640625,-0.22434042394161224,0.47649329900741577,-0.6345833539962769
520,1.1444,0.893,0,0,0.0513916015625,1.1289215087890625,0.0742645263671875,0.13903404772281647,0.3926127851009369,-0.5953723192214966
521,1.2188,1.1101,0,0,0.091339111328125,1.194244384765625,0.0555877685546875,-0.14735031127929688,0.6251738667488098,-0.6216561198234558
522,1.296,1.4103,0,0,0.154693603515625,1.33477783203125,0.01177978515625,-0.6817623376846313,1.0370945930480957,-0.5293972492218018
523,1.3734,1.7854,0,0,0.225433349609375,1.464599609375,0.030181884765625,-0.6927452087402344,0.7988870739936829,-0.3500458896160126
524,1.448,2.2183,0,0,0.28594970703125,1.536651611328125,-0.1743316650390625,-0.6265634894371033,0.8732901811599731,-0.04806659370660782
525,1.5162,2.6839,0,0,0.311767578125,1.44073486328125,-0.6450653076171875,0.2176377773284912,1.9125547409057617,0.43702900409698486
526,1.5742,3.1505,0,0,0.225433349609375,1.3443450927734375,-0.8018951416015625,1.8951456546783447,2.850615978240967,1.0785496234893799
527,1.6175,3.5832,0,0,0.2183685302734375,1.2116546630859375,-0.0933990478515625,2.9454283714294434,0.9304637312889099,1.8231921195983887
528,1.6413,3.9473,0,0,0.029449462890625,1.1935882568359375,0.2193603515625,3.356614589691162,-1.863537311553955,2.375131845474243
529,1.6406,4.2126,0,0,-0.182708740234375,1.3750152587890625,0.33038330078125,3.1900951862335205,-3.615185499191284,2.3476641178131104
530,1.6111,4.3563,0,0,-0.29705810546875,1.5384368896484375,0.221343994140625,2.6425042152404785,-4.029295444488525,2.1175808906555176
531,1.5497,4.3663,0,0,-0.500030517578125,1.6680908203125,-0.009979248046875,2.058358669281006,-2.922706127166748,1.647889256477356
532,1.4556,4.242,0,0,-0.70648193359375,1.746490478515625,-0.2977752685546875,1.1032624244689941,1.0042197704315186,1.0974875688552856
533,1.3314,3.995,0,0,-0.812835693359375,1.511199951171875,-0.567657470703125,0.7281718850135803,5.089305400848389,0.7841448783874512
534,1.1828,3.6475,0,0,-0.5897369384765625,1.1286773681640625,-0.37249755859375,1.1657116413116455,6.035152912139893,1.1082614660263062
535,1.0192,3.231,0,0,-0.260528564453125,0.7838592529296875,0.41558837890625,0.6656048893928528,3.096540927886963,1.525733470916748
536,0.8527,2.7828,0,0,-0.0201263427734375,0.655517578125,0.51507568359375,-0.11786218732595444,-0.3967718482017517,1.496724247932434
537,0.6971,2.3419,0,0,-0.0384368896484375,0.587677001953125,0.1315460205078125,-0.23640774190425873,-1.7446751594543457,1.3191704750061035
538,0.5665,1.9453,0,0,-0.133514404296875,0.4578857421875,-0.0192413330078125,0.16613411903381348,-1.2890315055847168,0.9305399060249329
539,0.4737,1.6232,0,0,-0.1109619140625,0.347381591796875,0.03936767578125,0.5265071988105774,-0.3063146471977234,0.5483728051185608
540,0.4288,1.3962,0,0,0.0552215576171875,0.3466033935546875,0.301422119140625,0.41283470392227173,-0.5227838158607483,0.5796263813972473
541,0.4382,1.273,0,0,0.0208282470703125,0.390838623046875,0.19256591796875,0.17902567982673645,-0.885920524597168,0.6803247332572937
542,0.5034,1.2504,0,0,-0.0819244384765625,0.4382781982421875,0.0042266845703125,0.2450379878282547,-0.8401032090187073,0.4794800579547882
543,0.6208,1.3141,0,0,-0.2659454345703125,0.3752593994140625,-0.0603179931640625,0.37562820315361023,-0.6668462157249451,-0.009040633216500282
544,0.7817,1.4411,0,0,-0.4094696044921875,0.27923583984375,-0.079681396484375,0.33835673332214355,-0.7739319205284119,-0.6792101860046387
545,0.9731,1.6038,0,0,-0.447479248046875,0.267059326171875,-0.1195068359375,0.1728988140821457,-1.2150808572769165,-1.2222883701324463
546,1.1788,1.7735,0,0,-0.3861083984375,0.373809814453125,-0.2469635009765625,-0.26231470704078674,-2.306002140045166,-1.6150966882705688
547,1.3812,1.9247,0,0,0.078155517578125,0.694488525390625,-1.0134429931640625,-0.7468214631080627,-3.329319715499878,-1.7148892879486084
548,1.5632,2.0384,0,0,0.8460540771484375,1.583709716796875,-1.916473388671875,-0.401340514421463,-0.6052241325378418,-0.7566155195236206
549,1.7108,2.1039,0,0,1.10247802734375,2.3917083740234375,-1.0085296630859375,-0.06773776561021805,2.766334295272827,1.0565623044967651
550,1.814,2.1193,0,0,1.102203369140625,2.15301513671875,-0.52545166015625,-0.7606448531150818,2.25952410697937,1.579988956451416
551,1.8683,2.0912,0,0,0.9560699462890625,1.3621673583984375,-0.5938568115234375,-1.112079381942749,1.0672473907470703,1.5525329113006592
552,1.8741,2.0319,0,0,0.0302581787109375,1.1412200927734375,-0.0813751220703125,-0.7570027112960815,0.12451955676078796,0.8514701128005981
553,1.8363,1.9573,0,0,-0.4834442138671875,0.998687744140625,0.049102783203125,-0.6391770243644714,0.17519046366214752,-0.0034639735240489244
554,1.7631,1.8838,0,0,-0.671142578125,0.836761474609375,0.23236083984375,-0.34416162967681885,-0.1484946608543396,-0.4492481052875519
555,1.6644,1.8264,0,0,-1.8093414306640625,1.28729248046875,-1.9342041015625,1.584017276763916,-1.8407987356185913,-1.4968435764312744
556,1.5509,1.7965,0,0,-0.83355712890625,1.2859344482421875,-0.38153076171875,1.9949023723602295,-0.647427499294281,-1.3320024013519287
557,1.4328,1.8014,0,0,-0.48345947265625,0.8749542236328125,0.830902099609375,-0.008646485395729542,1.583693504333496,-0.6644904017448425
558,1.3192,1.8437,0,0,-0.445892333984375,0.8292999267578125,0.6080322265625,-0.9662014842033386,2.152141571044922,-0.7681208848953247
559,1.2173,1.9212,0,0,-0.3189544677734375,0.849945068359375,0.4212799072265625,-0.9767473340034485,1.524685263633728,-0.897355854511261
560,1.1318,2.0274,0,0,-0.2318267822265625,0.8328857421875,0.302032470703125,-0.5924665331840515,0.836007833480835,-0.935535728931427
561,1.0649,2.1513,0,0,-0.195220947265625,0.8983917236328125,0.26580810546875,-0.07494321465492249,0.015961656346917152,-1.1752595901489258
562,1.0164,2.2787,0,0,-0.0746917724609375,1.0378265380859375,0.266204833984375,0.41229888796806335,-0.9787769317626953,-1.3700059652328491
563,0.9839,2.3934,0,0,0.0067596435546875,1.1331787109375,0.2123260498046875,0.467838317155838,-1.6345220804214478,-1.3612526655197144
564,0.9643,2.4793,0,0,0.102935791015625,1.0301971435546875,0.063720703125,-2.421738386154175,-0.6131526231765747,-1.7943767309188843
565,0.9537,2.5223,0,0,0.285919189453125,1.2238311767578125,-0.079254150390625,-3.778944253921509,0.07885699719190598,-1.1898609399795532
566,0.9482,2.5123,0,0,0.1632537841796875,0.9034271240234375,-0.3735504150390625,-3.120370626449585,0.28644827008247375,-0.27926573157310486
567,0.9451,2.4446,0,0,-0.027130126953125,0.6117095947265625,-0.6736907958984375,-2.0946125984191895,1.989867091178894,-0.2786843478679657
568,0.9421,2.3198,0,0,-0.0563812255859375,0.7745208740234375,-0.3423004150390625,-0.908414363861084,1.9680496454238892,-0.30989527702331543
569,0.9383,2.1439,0,0,-0.0735626220703125,0.8934173583984375,-0.06353759765625,-0.48519012331962585,0.3039228618144989,-0.3216981291770935
570,0.9336,1.9268,0,0,-0.1121063232421875,0.9146270751953125,-0.0372161865234375,-0.38838422298431396,-1.2596796751022339,-0.45369744300842285
571,0.9287,1.6812,0,0,-0.12689208984375,0.893218994140625,-0.1108551025390625,-0.44727709889411926,-1.6080437898635864,-0.5820854902267456
572,0.9251,1.4218,0,0,-0.0440216064453125,0.93194580078125,-0.0895843505859375,-0.35486167669296265,-1.1853615045547485,-0.6902199983596802
573,0.9245,1.1646,0,0,0.0325164794921875,0.92962646484375,0.005401611328125,-0.12465910613536835,-0.9550263285636902,-0.7469165325164795
574,0.9291,0.9266,0,0,0.058197021484375,0.8977508544921875,0.0463409423828125,-0.1656094640493393,-0.8994680047035217,-0.6724742650985718
575,0.9407,0.725,0,0,0.0262298583984375,0.9128265380859375,0.03839111328125,-0.4013548791408539,-0.7319871187210083,-0.6625758409500122
576,0.9614,0.5774,0,0,0.04290771484375,0.9748382568359375,0.0316619873046875,-0.5323746800422668,-0.6266269087791443,-0.6043577790260315
577,0.9925,0.5001,0,0,0.0193939208984375,0.997314453125,0.003570556640625,-0.6333058476448059,-0.3639547824859619,-0.5016231536865234
578,1.0352,0.5076,0,0,-0.013397216796875,1.0452880859375,0.0001678466796875,-0.40371179580688477,-0.19961270689964294,-0.5046306848526001
579,1.0897,0.6103,0,0,-0.0390777587890625,1.1538238525390625,0.01593017578125,-0.029410086572170258,-0.11817137897014618,-0.49215084314346313
580,1.1555,0.8132,0,0,-0.0007476806640625,1.1978759765625,0.0323944091796875,-0.08437559753656387,-0.0011283813510090113,-0.4538433849811554
581,1.2313,1.1139,0,0,0.0368804931640625,1.223114013671875,0.0020904541015625,-0.7107750773429871,0.29774487018585205,-0.30994319915771484
582,1.3145,1.5013,0,0,0.0786285400390625,1.2725982666015625,-0.0526275634765625,-1.1069586277008057,0.41505393385887146,-0.19586564600467682
583,1.4014,1.956,0,0,0.141326904296875,1.3991546630859375,-0.2284088134765625,-0.6570476293563843,0.38054174184799194,-0.011275025084614754
584,1.4872,2.4502,0,0,0.1983184814453125,1.4135589599609375,-0.7147064208984375,0.2535441219806671,1.7516084909439087,0.4253164231777191
585,1.5658,2.9504,0,0,0.212249755859375,1.386383056640625,-0.6083221435546875,2.078641891479492,2.5302228927612305,1.009293794631958
586,1.6303,3.4199,0,0,0.20831298828125,1.3077392578125,0.050201416015625,3.0093321800231934,1.0646779537200928,1.7824156284332275
587,1.6734,3.8228,0,0,0.083953857421875,1.301910400390625,0.3091278076171875,3.095231056213379,-1.5243291854858398,2.4405877590179443
588,1.6879,4.1272,0,0,-0.11322021484375,1.4571990966796875,0.2860107421875,2.8072710037231445,-3.3336098194122314,2.5671510696411133
589,1.6679,4.3091,0,0,-0.243255615234375,1.612274169921875,0.14544677734375,2.3842568397521973,-3.8919506072998047,2.404221296310425
590,1.6094,4.3548,0,0,-0.5332794189453125,1.796630859375,-0.1458740234375,1.9264899492263794,-2.7281651496887207,1.8741058111190796
591,1.5117,4.2617,0,0,-0.79302978515625,1.8391571044921875,-0.32183837890625,1.0454825162887573,1.3036564588546753,1.0615154504776
592,1.3779,4.0394,0,0,-0.817138671875,1.5761566162109375,-0.480438232421875,0.7317247986793518,5.24820613861084,0.5524123311042786
593,1.2154,3.7087,0,0,-0.5114288330078125,1.1085662841796875,-0.1981048583984375,1.058586597442627,5.721212387084961,0.9524864554405212
594,1.0354,3.2999,0,0,-0.2233734130859375,0.7319793701171875,0.4192657470703125,0.6950565576553345,2.9312727451324463,1.4084407091140747
595,0.8521,2.8505,0,0,-0.0963897705078125,0.6004791259765625,0.66314697265625,-0.09465513378381729,-0.9611867666244507,1.3613249063491821
596,0.6815,2.4012,0,0,-0.185516357421875,0.5445404052734375,0.2055206298828125,-0.2976721525192261,-2.769562005996704,1.029613971710205
597,0.5394,1.9922,0,0,-0.2132720947265625,0.4389801025390625,0.0134735107421875,-0.03140798956155777,-2.3011157512664795,0.6748625636100769
598,0.4402,1.6585,0,0,-0.197662353515625,0.33941650390625,0.0326995849609375,0.23816142976284027,-1.019602656364441,0.44558200240135193
599,0.395,1.4262,0,0,-0.173187255859375,0.2764434814453125,0.142364501953125,0.458469033241272,-0.1502496898174286,0.2974894642829895
600,0.4102,1.3095,0,0,-0.1855010986328125,0.2327117919921875,0.1347198486328125,0.5658495426177979,0.19995999336242676,0.19272445142269135
601,0.487,1.3091,0,0,-0.17669677734375,0.24481201171875,0.106719970703125,0.5552488565444946,0.18784473836421967,0.08781667053699493
602,0.6206,1.4124,0,0,-0.2621917724609375,0.239837646484375,0.0090179443359375,0.4176270663738251,0.06819742918014526,-0.15541595220565796
603,0.8009,1.5949,0,0,-0.41107177734375,0.244873046875,-0.0267486572265625,0.13535702228546143,-0.8226134181022644,-0.6389464139938354
604,1.0131,1.8247,0,0,-0.476654052734375,0.3654632568359375,-0.100311279296875,-0.49058330059051514,-2.426225423812866,-1.2954027652740479
605,1.2392,2.0657,0,0,-0.239837646484375,0.569122314453125,-0.5373382568359375,-1.007346272468567,-3.246016263961792,-1.883110523223877
606,1.4604,2.2833,0,0,0.25811767578125,1.0769195556640625,-1.503326416015625,-0.7191331386566162,-2.569502830505371,-1.8136882781982422
607,1.6588,2.4482,0,0,1.0142364501953125,2.122406005859375,-1.6546630859375,0.2674732506275177,0.8494929671287537,-0.40387609601020813
608,1.8199,2.5395,0,0,1.21331787109375,2.2559814453125,-0.7084503173828125,-0.028133898973464966,3.0748698711395264,1.5885859727859497
609,1.9334,2.5467,0,0,1.2354888916015625,1.9119110107421875,-0.3264923095703125,-0.8370027542114258,2.3331620693206787,2.008690595626831
610,1.9942,2.4701,0,0,0.910125732421875,1.268646240234375,0.07550048828125,-1.4061248302459717,-0.06046920269727707,1.5287412405014038
611,2.0024,2.3203,0,0,0.0567474365234375,0.88848876953125,0.370513916015625,-0.9912146925926208,-1.5581949949264526,0.8132931590080261
612,1.9617,2.1164,0,0,-0.32794189453125,0.805938720703125,0.59039306640625,-0.8081610202789307,-1.5100839138031006,0.034986212849617004
613,1.8796,1.8837,0,0,-0.6430511474609375,1.15167236328125,0.174346923828125,-0.5963528752326965,-1.67180597782135,-0.5430225133895874
614,1.7655,1.6511,0,0,-2.3748321533203125,2.39971923828125,-3.1751556396484375,2.060993194580078,0.859035074710846,-1.2681612968444824
615,1.6304,1.448,0,0,-0.7303314208984375,0.927947998046875,0.2743377685546875,1.7079157829284668,-0.5715263485908508,-0.5902904272079468
616,1.4862,1.3012,0,0,-0.5230865478515625,0.661712646484375,0.7469635009765625,0.07564549148082733,0.144896999001503,-0.5030093193054199
617,1.344,1.2318,0,0,-0.4527587890625,0.801239013671875,0.4077606201171875,-0.4130144715309143,0.4494726061820984,-0.8890640735626221
618,1.2136,1.2527,0,0,-0.343780517578125,0.774566650390625,0.2426910400390625,-0.21685534715652466,0.47260111570358276,-1.0156118869781494
619,1.1025,1.3668,0,0,-0.2324066162109375,0.6930694580078125,0.2883758544921875,-0.02792377583682537,0.3941430449485779,-1.0254818201065063
620,1.0147,1.566,0,0,-0.110595703125,0.806640625,0.29437255859375,0.07706256210803986,0.14632578194141388,-0.8272957801818848
621,0.9518,1.8318,0,0,-0.0832672119140625,0.9583282470703125,0.275360107421875,0.3339020609855652,-0.6602415442466736,-0.6977537870407104
622,0.9121,2.1368,0,0,-0.1384429931640625,1.07672119140625,0.26531982421875,0.3676701486110687,-1.701846718788147,-0.938380777835846
623,0.8924,2.4478,0,0,-0.01922607421875,1.137298583984375,0.17803955078125,0.057616159319877625,-2.345012664794922,-1.034769892692566
624,0.8879,2.7293,0,0,0.0517425537109375,0.9832000732421875,0.1322479248046875,-1.0813899040222168,-2.411543130874634,-0.6642818450927734
625,0.894,2.9484,0,0,0.0609283447265625,0.88128662109375,-0.0955963134765625,-4.053646087646484,-0.4053903818130493,-0.3456588685512543
626,0.9062,3.0783,0,0,0.0343780517578125,1.0031280517578125,-0.0896148681640625,-4.125114917755127,0.20003961026668549,0.02539670281112194
627,0.9209,3.1017,0,0,-0.0566864013671875,0.9124298095703125,-0.136871337890625,-3.0889766216278076,0.14122556149959564,0.07942532002925873
628,0.9357,3.0128,0,0,-0.16412353515625,0.7678985595703125,-0.406463623046875,-2.2937536239624023,1.3232566118240356,0.18403774499893188
629,0.9493,2.8179,0,0,-0.315521240234375,0.7911834716796875,-0.4733428955078125,-1.7378934621810913,3.1674304008483887,0.12269076704978943
630,0.9614,2.5346,0,0,-0.2268218994140625,0.901275634765625,-0.16680908203125,-0.9343061447143555,2.9865572452545166,-0.13504943251609802
631,0.9726,2.1898,0,0,-0.1524810791015625,0.9269866943359375,-0.0071563720703125,-0.5519164204597473,1.3981305360794067,-0.29971933364868164
632,0.9841,1.8165,0,0,-0.121063232421875,0.9079437255859375,0.0042572021484375,-0.5095167756080627,-0.254154771566391,-0.5894219875335693
633,0.9974,1.4508,0,0,-0.048736572265625,0.90545654296875,-0.0779876708984375,-0.39512041211128235,-0.9292314648628235,-0.8621928095817566
634,1.0141,1.1284,0,0,0.0265045166015625,0.9842681884765625,-0.0928497314453125,-0.14980387687683105,-0.8203750252723694,-0.8914782404899597
635,1.0357,0.8815,0,0,0.06884765625,1.06036376953125,-0.05474853515625,0.07199349999427795,-0.3931531608104706,-0.7789333462715149
636,1.0635,0.7363,0,0,0.0612030029296875,1.0903167724609375,-0.0281982421875,0.01173415407538414,0.39074936509132385,-0.6952328681945801
637,1.0985,0.711,0,0,0.09515380859375,1.126739501953125,0.08673095703125,0.11287994682788849,0.6942024827003479,-0.6994414329528809
638,1.1414,0.8145,0,0,0.120635986328125,1.2118988037109375,0.1504974365234375,0.08125916868448257,0.4296720027923584,-0.6007305979728699
639,1.1925,1.0458,0,0,0.0892486572265625,1.209381103515625,0.1109161376953125,-0.36859560012817383,0.28799211978912354,-0.5152028799057007
640,1.2514,1.3936,0,0,0.0787811279296875,1.26263427734375,0.05023193359375,-1.1675747632980347,0.4103563725948334,-0.4137375056743622
641,1.317,1.8373,0,0,0.1287384033203125,1.343353271484375,-0.04302978515625,-1.455119252204895,0.4179447889328003,-0.2548128366470337
642,1.3873,2.3485,0,0,0.1016387939453125,1.3773040771484375,-0.4243621826171875,-1.0705318450927734,0.9551741480827332,0.09884855151176453
643,1.459,2.8928,0,0,0.130828857421875,1.2838134765625,-1.0033416748046875,0.6854739785194397,3.074181318283081,0.39280959963798523
644,1.5276,3.4329,0,0,0.19952392578125,1.22711181640625,-0.3448944091796875,3.002484083175659,2.850249767303467,0.9217328429222107
645,1.5876,3.9316,0,0,0.2216949462890625,1.1703643798828125,0.2715301513671875,3.5533483028411865,0.5513816475868225,1.5133471488952637
646,1.6324,4.3548,0,0,0.1544036865234375,1.2603759765625,0.3720550537109375,3.230459213256836,-2.0753087997436523,2.1183106899261475
647,1.6548,4.6743,0,0,0.049774169921875,1.40936279296875,0.284332275390625,2.8345766067504883,-3.8094582557678223,2.384941816329956
648,1.6485,4.8698,0,0,-0.0941314697265625,1.587982177734375,0.1786651611328125,2.6393637657165527,-4.51884126663208,2.4299871921539307
649,1.6086,4.9302,0,0,-0.472869873046875,1.8604278564453125,-0.0484161376953125,2.246279716491699,-3.340383529663086,2.072284460067749
650,1.5329,4.854,0,0,-0.904876708984375,1.9311981201171875,-0.2519989013671875,1.034548044204712,1.3718624114990234,1.1315768957138062
651,1.4228,4.6491,0,0,-1.0027008056640625,1.5652008056640625,-0.6337738037109375,0.4643698036670685,6.006475448608398,0.25194862484931946
652,1.2836,4.3321,0,0,-0.5136871337890625,1.0724029541015625,-0.3709869384765625,1.2026891708374023,6.279750823974609,0.878666341304779
653,1.1244,3.9272,0,0,-0.2918701171875,0.7073211669921875,0.424285888671875,0.836159348487854,3.3982787132263184,1.4247599840164185
654,0.9573,3.4644,0,0,-0.1428985595703125,0.5879669189453125,0.7940521240234375,0.040884584188461304,-0.5845156311988831,1.2346566915512085
655,0.7961,2.9773,0,0,-0.110595703125,0.5618133544921875,0.4413604736328125,-0.5338050723075867,-3.4536218643188477,1.0240751504898071
656,0.6549,2.5005,0,0,-0.0788726806640625,0.491790771484375,0.07452392578125,-0.3973827660083771,-3.48905611038208,0.8900113701820374
657,0.5466,2.0668,0,0,-0.1293487548828125,0.4098358154296875,-0.0240478515625,-0.009032643400132656,-2.283513069152832,0.629494845867157
658,0.4816,1.7043,0,0,-0.159332275390625,0.3502960205078125,0.0970001220703125,0.32925912737846375,-1.0991390943527222,0.25395718216896057
659,0.4666,1.434,0,0,-0.117523193359375,0.3470306396484375,0.1809844970703125,0.370187371969223,-0.617094874382019,0.07504761219024658
660,0.5043,1.2681,0,0,-0.0501861572265625,0.415435791015625,0.1429290771484375,0.27147093415260315,-0.6418241858482361,0.16061151027679443
661,0.5927,1.2081,0,0,-0.255126953125,0.4803619384765625,-0.151702880859375,0.33306530117988586,-0.4757859706878662,0.0678621381521225
662,0.7254,1.2455,0,0,-0.509307861328125,0.48248291015625,-0.2223052978515625,0.445317804813385,-0.48862746357917786,-0.49315324425697327
663,0.8923,1.3626,0,0,-0.5085906982421875,0.52435302734375,-0.1285858154296875,0.11313854157924652,-1.3712427616119385,-0.9514800906181335
664,1.0805,1.5348,0,0,-0.3921661376953125,0.576568603515625,-0.34674072265625,-0.5508424043655396,-2.1079928874969482,-1.12755286693573
665,1.2754,1.734,0,0,-0.0738677978515625,0.7134246826171875,-0.8737640380859375,-0.8353486657142639,-1.4854962825775146,-1.1665135622024536
666,1.4621,1.9308,0,0,0.4078521728515625,1.1639556884765625,-1.2656402587890625,-0.5519984364509583,-0.045284125953912735,-0.7668809294700623
667,1.627,2.0989,0,0,0.8036041259765625,1.873077392578125,-0.9285736083984375,-0.646684467792511,1.788651943206787,0.199567973613739
668,1.7588,2.2169,0,0,0.9959259033203125,1.9969635009765625,-0.6345977783203125,-0.7492015361785889,2.9947545528411865,1.2741183042526245
669,1.8494,2.2709,0,0,1.1129608154296875,1.5638885498046875,-0.45245361328125,-1.0633970499038696,2.603196620941162,1.5390043258666992
670,1.8944,2.2557,0,0,0.6976776123046875,1.2289276123046875,0.0740814208984375,-1.0761828422546387,0.771975576877594,1.457659125328064
671,1.893,2.1755,0,0,-0.0896148681640625,0.84991455078125,0.5641326904296875,-0.9046489000320435,-0.5237508416175842,0.690017819404602
672,1.8478,2.0431,0,0,-0.378204345703125,0.890167236328125,0.75811767578125,-0.7117335200309753,-1.7453808784484863,-0.21594427525997162
673,1.7642,1.8785,0,0,-0.626556396484375,1.48504638671875,0.047271728515625,-0.34806689620018005,-2.5693845748901367,-0.8942034840583801
674,1.6505,1.707,0,0,-1.7012481689453125,2.8484954833984375,-2.882781982421875,0.6336890459060669,2.4660098552703857,-0.3456974923610687
675,1.5171,1.5564,0,0,-0.828460693359375,0.826934814453125,0.1343536376953125,0.3451661765575409,1.649745225906372,0.024689367040991783
676,1.3757,1.4536,0,0,-0.6201324462890625,0.5792388916015625,0.592559814453125,0.26116740703582764,0.46696823835372925,-0.7917567491531372
677,1.2384,1.4217,0,0,-0.41046142578125,0.6005859375,0.37445068359375,0.37896835803985596,0.23508335649967194,-1.147797703742981
678,1.116,1.476,0,0,-0.2493438720703125,0.5659942626953125,0.3091583251953125,0.28309720754623413,0.6088215112686157,-0.9779747724533081
679,1.017,1.6222,0,0,-0.2121734619140625,0.59820556640625,0.2851104736328125,0.13544730842113495,0.9882945418357849,-0.7171615958213806
680,0.9464,1.8542,0,0,-0.238983154296875,0.7358551025390625,0.279327392578125,0.24824362993240356,0.43606093525886536,-0.8005622029304504
681,0.9054,2.1544,0,0,-0.225341796875,0.8208465576171875,0.266265869140625,0.4468368887901306,-0.7796374559402466,-0.9993098974227905
682,0.8919,2.4952,0,0,-0.2053985595703125,0.9337921142578125,0.2610931396484375,0.27628326416015625,-1.7534114122390747,-1.212120771408081
683,0.9007,2.8419,0,0,-0.1324615478515625,0.9846954345703125,0.191680908203125,-0.2775573134422302,-2.230334758758545,-1.1799046993255615
684,0.9248,3.1569,0,0,-0.0837860107421875,0.8389129638671875,0.3025360107421875,-2.142448663711548,-2.5972986221313477,-1.125974416732788
685,0.9568,3.405,0,0,0.006927490234375,1.0189208984375,-0.033721923828125,-4.2985053062438965,-2.109639883041382,-0.9482365846633911
686,0.9895,3.5572,0,0,0.0528564453125,1.1044158935546875,-0.2928619384765625,-4.2221503257751465,-0.8896952867507935,-0.2715710699558258
687,1.0171,3.5955,0,0,0.0266571044921875,1.0078277587890625,-0.96295166015625,-2.8585469722747803,2.3073487281799316,0.02965536341071129
688,1.0362,3.5145,0,0,-0.026336669921875,0.9775390625,-0.5728912353515625,-0.7215887904167175,4.578959941864014,-0.07127071917057037
689,1.0454,3.3225,0,0,-0.04241943359375,0.992340087890625,-0.099334716796875,-0.04546921327710152,4.020255088806152,-0.23497389256954193
690,1.0458,3.0399,0,0,-0.007781982421875,0.963592529296875,0.1991729736328125,-0.44585922360420227,1.09953773021698,-0.5427485108375549
691,1.0403,2.697,0,0,-0.011077880859375,0.9048004150390625,0.102325439453125,-0.09889861941337585,-1.4819217920303345,-0.8832722306251526
692,1.033,2.3307,0,0,-0.025726318359375,0.88629150390625,0.0351104736328125,0.1136581227183342,-2.684455394744873,-1.017138123512268
693,1.0288,1.9804,0,0,-0.070098876953125,0.9794769287109375,-0.075469970703125,-0.2316577285528183,-2.6910645961761475,-0.875241219997406
694,1.0324,1.6843,0,0,-0.094696044921875,1.0505523681640625,-0.1879425048828125,-0.6457257270812988,-1.4956376552581787,-0.6988182663917542
695,1.0477,1.4759,0,0,-0.060546875,1.0233612060546875,-0.1821136474609375,-0.44116806983947754,0.003306314582005143,-0.7729151248931885
696,1.0779,1.3808,0,0,0.066558837890625,1.041412353515625,-0.0430755615234375,0.4654843211174011,0.4870351552963257,-0.7010534405708313
697,1.1246,1.414,0,0,0.1178741455078125,1.1202239990234375,0.0778656005859375,1.0666253566741943,0.27032071352005005,-0.46020540595054626
698,1.1878,1.5782,0,0,0.151763916015625,1.2339324951171875,-0.004974365234375,0.5033225417137146,1.0152555704116821,-0.5375963449478149
699,1.2656,1.8634,0,0,0.242034912109375,1.3737945556640625,0.0738067626953125,-0.7964553236961365,2.2047274112701416,-0.6169372200965881
700,1.3544,2.2476,0,0,0.31512451171875,1.43170166015625,0.02593994140625,-0.5135799646377563,1.361061692237854,-0.30584222078323364
701,1.4488,2.6988,0,0,0.3163299560546875,1.41351318359375,-0.26690673828125,-0.40400126576423645,1.568996548652649,0.18807323276996613
702,1.5416,3.1778,0,0,0.248504638671875,1.261810302734375,-0.76531982421875,0.3066425025463104,2.9912891387939453,0.9800669550895691
703,1.6243,3.6422,0,0,0.1465301513671875,1.161712646484375,-0.4436798095703125,1.8646903038024902,2.9042985439300537,2.0366852283477783
704,1.6875,4.0511,0,0,0.00567626953125,1.1492767333984375,0.060791015625,2.7447946071624756,-0.27541905641555786,3.0530612468719482
705,1.7217,4.369,0,0,-0.2210693359375,1.4497833251953125,0.0777435302734375,2.9435250759124756,-3.1301114559173584,3.4555838108062744
706,1.7187,4.57,0,0,-0.2816162109375,1.632720947265625,0.1194915771484375,2.9361636638641357,-4.309056758880615,3.015047311782837
707,1.6726,4.64,0,0,-0.4420623779296875,1.8966522216796875,-0.00958251953125,2.662147283554077,-3.9454925060272217,2.3837523460388184
708,1.5814,4.578,0,0,-0.889495849609375,2.11859130859375,-0.30609130859375,1.8060170412063599,-1.2030653953552246,1.5387686491012573
709,1.448,4.3956,0,0,-1.2354736328125,1.847900390625,-0.3981170654296875,0.6984427571296692,3.738340139389038,0.3507002294063568
710,1.2806,4.1149,0,0,-0.7592010498046875,1.2411041259765625,-0.347076416015625,0.7633570432662964,5.997035503387451,0.3491867482662201
711,1.0919,3.766,0,0,-0.2524871826171875,0.6962738037109375,0.2091064453125,0.9192323684692383,4.208179473876953,1.435179591178894
712,0.8985,3.3833,0,0,-0.1140899658203125,0.4840850830078125,0.5935211181640625,0.20562399923801422,0.9956432580947876,1.6985633373260498
713,0.7186,3.0021,0,0,-0.1632843017578125,0.423614501953125,0.325927734375,-0.18144702911376953,-1.3270542621612549,1.3089876174926758
714,0.5701,2.6545,0,0,-0.0720367431640625,0.3254241943359375,0.247314453125,-0.10565399378538132,-2.4399328231811523,0.929643988609314
715,0.4682,2.3664,0,0,0.0286102294921875,0.2592926025390625,0.1944732666015625,-0.024646757170557976,-3.113858222961426,0.8278049826622009
716,0.4238,2.1546,0,0,0.0234375,0.305816650390625,0.058868408203125,0.0670195147395134,-2.559492826461792,0.7786955237388611
717,0.4423,2.0262,0,0,-0.1743011474609375,0.3306884765625,0.0323944091796875,0.14906059205532074,-1.2759917974472046,0.4191748797893524
718,0.5226,1.9774,0,0,-0.3729095458984375,0.2527923583984375,-0.0061798095703125,0.24771898984909058,0.08862867206335068,-0.35614559054374695
719,0.6572,1.9948,0,0,-0.3701934814453125,0.1737060546875,-0.0316314697265625,0.345452219247818,0.9346116185188293,-0.9789921045303345
720,0.8331,2.0572,0,0,-0.34906005859375,0.16802978515625,-0.05950927734375,0.40887805819511414,0.5724291801452637,-1.2639870643615723
721,1.033,2.1391,0,0,-0.379974365234375,0.2959136962890625,-0.068115234375,0.2630454897880554,-1.6097602844238281,-1.4256683588027954
722,1.2375,2.2143,0,0,-0.1756591796875,0.669677734375,-0.5589599609375,-0.10519566386938095,-3.9961178302764893,-1.611279845237732
723,1.4272,2.2604,0,0,0.59478759765625,1.5905303955078125,-1.933135986328125,0.6458727717399597,-3.634523391723633,-0.6796701550483704
724,1.5856,2.262,0,0,0.5241546630859375,2.3422088623046875,-1.434906005859375,-0.43686094880104065,0.39976152777671814,0.5866594910621643
725,1.7004,2.2128,0,0,0.5591583251953125,1.9772491455078125,-0.955078125,-1.1937371492385864,3.110039234161377,1.1503604650497437
726,1.7653,2.1166,0,0,0.9116363525390625,1.3892669677734375,-0.6741485595703125,-1.1266409158706665,2.5912082195281982,1.2232367992401123
727,1.7796,1.9856,0,0,0.43341064453125,1.0555877685546875,-0.21856689453125,-0.5644657611846924,1.5776041746139526,0.9573600888252258
728,1.7477,1.839,0,0,-0.1968536376953125,1.133514404296875,0.225555419921875,-0.3317635655403137,0.44548213481903076,0.1692233830690384
729,1.6779,1.699,0,0,-0.32330322265625,0.9609832763671875,0.5971832275390625,-0.5726776123046875,-0.37656697630882263,-0.14354757964611053
730,1.5809,1.5883,0,0,-0.6632537841796875,1.50537109375,-0.502960205078125,-0.716244101524353,-0.7324830293655396,-0.28256991505622864
731,1.4685,1.5264,0,0,-0.7205963134765625,1.7234039306640625,-1.5947723388671875,0.553575336933136,2.2401437759399414,0.010296579450368881
732,1.3518,1.5278,0,0,-0.632171630859375,0.73431396484375,0.17364501953125,0.2645522952079773,2.1840693950653076,-0.049491651356220245
733,1.2412,1.5998,0,0,-0.6327056884765625,0.4818572998046875,0.578155517578125,-0.4052066206932068,1.3045960664749146,-0.7300837635993958
734,1.1445,1.7417,0,0,-0.43585205078125,0.6783905029296875,0.3332672119140625,-0.39243754744529724,0.7359621524810791,-1.1620237827301025
735,1.0671,1.9448,0,0,-0.3610382080078125,0.808319091796875,0.265167236328125,0.046911582350730896,0.05136625096201897,-1.1722502708435059
736,1.0113,2.1925,0,0,-0.325775146484375,0.910003662109375,0.253326416015625,0.45875826478004456,-0.6818091869354248,-1.2582833766937256
737,0.9768,2.462,0,0,-0.2483673095703125,0.956634521484375,0.291412353515625,0.6300439834594727,-1.4927071332931519,-1.382054328918457
738,0.9609,2.7267,0,0,-0.17626953125,0.9873199462890625,0.2681427001953125,0.4448387026786804,-2.1649653911590576,-1.3813377618789673
739,0.9595,2.9593,0,0,-0.1208343505859375,1.034637451171875,0.227569580078125,-0.124358169734478,-2.604008436203003,-1.3105369806289673
740,0.9677,3.1351,0,0,-0.00537109375,0.918701171875,0.235931396484375,-2.764805316925049,-3.129269599914551,-1.5001168251037598
741,0.9807,3.2349,0,0,0.070404052734375,1.020355224609375,-0.236541748046875,-4.162439823150635,-2.133419990539551,-0.914829671382904
742,0.9942,3.2477,0,0,0.014862060546875,0.887054443359375,-0.8868255615234375,-3.506873846054077,0.6271541714668274,-0.20950022339820862
743,1.0053,3.1715,0,0,-0.1008453369140625,0.8798065185546875,-0.7060089111328125,-1.391622543334961,3.058662176132202,0.017703097313642502
744,1.0123,3.0126,0,0,-0.1313629150390625,0.924591064453125,-0.210296630859375,0.056108277291059494,2.93257999420166,-0.027584489434957504
745,1.0149,2.7847,0,0,-0.1593780517578125,0.918731689453125,0.069732666015625,-0.16400864720344543,1.7067011594772339,-0.23407214879989624
746,1.0136,2.5063,0,0,-0.132171630859375,0.8555755615234375,0.17645263671875,-0.7657576203346252,0.21299509704113007,-0.5557388663291931
747,1.01,2.1986,0,0,-0.1289520263671875,0.86114501953125,0.1148529052734375,-0.7630563378334045,-1.3935315608978271,-0.8008428812026978
748,1.0061,1.8843,0,0,-0.0946807861328125,0.9281158447265625,0.00201416015625,-0.7300275564193726,-2.343158006668091,-0.9279744625091553
749,1.0039,1.5856,0,0,-0.0556640625,1.0039825439453125,-0.160308837890625,-0.8073329925537109,-1.987695574760437,-0.8977843523025513
750,1.0055,1.3241,0,0,-0.0311126708984375,1.0610504150390625,-0.166900634765625,-0.59767085313797,-1.1296777725219727,-0.8717125654220581
751,1.0132,1.1194,0,0,-0.009368896484375,1.06494140625,-0.1214141845703125,-0.44241470098495483,-0.1426841765642166,-0.7278618812561035
752,1.0288,0.9892,0,0,-0.021453857421875,1.053558349609375,-0.101226806640625,-0.6263981461524963,0.9735257029533386,-0.6069682240486145
753,1.054,0.9475,0,0,0.0389862060546875,1.0941314697265625,0.0038909912109375,-0.31777262687683105,1.2914572954177856,-0.6136618256568909
754,1.0901,1.0037,0,0,0.089202880859375,1.1136474609375,0.101226806640625,0.30658817291259766,0.721852719783783,-0.5300412178039551
755,1.1379,1.1614,0,0,0.095703125,1.105377197265625,0.083160400390625,0.29945114254951477,0.4775428771972656,-0.5609346628189087
756,1.1974,1.4171,0,0,0.1359100341796875,1.2157135009765625,0.018035888671875,-0.5140084624290466,1.117843747138977,-0.7896075248718262
757,1.2674,1.7594,0,0,0.2389373779296875,1.3300933837890625,0.0035247802734375,-0.9087496399879456,1.253082036972046,-0.8218578696250916
758,1.3458,2.1687,0,0,0.3315887451171875,1.4080352783203125,-0.0812530517578125,-0.70301753282547,0.9055940508842468,-0.44259926676750183
759,1.4286,2.6181,0,0,0.34466552734375,1.364990234375,-0.3642120361328125,-0.5599693059921265,1.3559255599975586,0.25893914699554443
760,1.5103,3.0751,0,0,0.17376708984375,1.1701507568359375,-0.827545166015625,0.9086625576019287,2.585702419281006,0.9971300959587097
761,1.5841,3.5041,0,0,0.1672515869140625,1.0901947021484375,-0.1510467529296875,2.3194310665130615,1.703263521194458,1.8762584924697876
762,1.6417,3.8704,0,0,0.1000823974609375,1.1654510498046875,0.1514739990234375,2.838113784790039,-1.2637176513671875,2.8541419506073
763,1.6748,4.1435,0,0,-0.157318115234375,1.4275054931640625,0.079376220703125,2.9871675968170166,-3.181398391723633,3.2954835891723633
764,1.6753,4.3009,0,0,-0.3056793212890625,1.66815185546875,0.0706329345703125,2.828341484069824,-3.9770126342773438,3.003074884414673
765,1.6374,4.3307,0,0,-0.538177490234375,1.8607635498046875,0.0446624755859375,2.4735488891601562,-3.564124822616577,2.305858612060547
766,1.5585,4.2325,0,0,-0.9830322265625,1.98370361328125,-0.16363525390625,1.589395523071289,-1.179795503616333,1.2997275590896606
767,1.4404,4.0175,0,0,-1.24322509765625,1.6926116943359375,-0.476409912109375,0.7538551688194275,3.0400025844573975,0.3691146671772003
768,1.2894,3.7067,0,0,-0.845306396484375,1.16302490234375,-0.5044708251953125,1.1843572854995728,5.172661304473877,0.658861517906189
769,1.1166,3.3292,0,0,-0.4576416015625,0.573211669921875,0.21136474609375,1.022861361503601,4.375938892364502,1.417996883392334
770,0.9364,2.9185,0,0,-0.1517791748046875,0.424102783203125,0.5932464599609375,0.21073752641677856,1.2024486064910889,1.4652483463287354
771,0.7652,2.5097,0,0,-0.091339111328125,0.44873046875,0.32818603515625,-0.347099632024765,-1.0158097743988037,1.1980643272399902
772,0.6191,2.1357,0,0,-0.081024169921875,0.4281005859375,0.0995025634765625,-0.06252489984035492,-1.6493571996688843,0.8815646171569824
773,0.513,1.8241,0,0,0.0932464599609375,0.42889404296875,0.143218994140625,0.16688832640647888,-1.7302887439727783,0.8751147389411926
774,0.458,1.5943,0,0,0.1079864501953125,0.488128662109375,0.093353271484375,0.3685378134250641,-1.398500919342041,0.9943692088127136
775,0.461,1.4563,0,0,-0.0301666259765625,0.5421600341796875,0.10546875,0.3631044328212738,-0.7200609445571899,0.8579634428024292
776,0.5233,1.4099,0,0,-0.314300537109375,0.438751220703125,-0.0007171630859375,0.35348188877105713,0.06143779307603836,0.1332848221063614
777,0.6408,1.4457,0,0,-0.3696136474609375,0.3197021484375,-0.0418701171875,0.334621399641037,0.6112902760505676,-0.6269592642784119
778,0.8039,1.5464,0,0,-0.329986572265625,0.2251434326171875,-0.022491455078125,0.1310054212808609,0.40528225898742676,-0.9939276576042175
779,0.9985,1.69,0,0,-0.3090972900390625,0.184600830078125,0.0155487060546875,-0.3573903441429138,-1.2762153148651123,-1.0433063507080078
780,1.2073,1.8528,0,0,-0.2568206787109375,0.2868804931640625,-0.3203582763671875,-1.0796031951904297,-3.4779651165008545,-1.3665965795516968
781,1.4118,2.0129,0,0,0.3618927001953125,0.7397003173828125,-1.63336181640625,-0.6297789812088013,-3.8623061180114746,-1.3880667686462402
782,1.5944,2.1525,0,0,1.0942840576171875,1.87213134765625,-1.786102294921875,0.21364596486091614,0.053942061960697174,-0.20223964750766754
783,1.7406,2.26,0,0,0.8147735595703125,2.5615386962890625,-0.8770599365234375,0.013188772834837437,2.4521782398223877,0.9988851547241211
784,1.8405,2.3297,0,0,0.9917144775390625,2.2201080322265625,-0.7544403076171875,-0.6410737633705139,1.886399507522583,1.2983245849609375
785,1.8896,2.3622,0,0,0.414825439453125,1.0378265380859375,-0.4487762451171875,-1.0121692419052124,1.4903805255889893,1.295820713043213
786,1.8885,2.3626,0,0,-0.244110107421875,0.8953399658203125,0.3174591064453125,-1.2615755796432495,1.4842185974121094,0.729387640953064
787,1.8418,2.3397,0,0,-0.37506103515625,0.536163330078125,0.5590057373046875,-1.0474390983581543,0.25135260820388794,0.15083904564380646
788,1.7577,2.3046,0,0,-1.106170654296875,0.842437744140625,-0.0272216796875,-0.5659411549568176,-1.418500542640686,-0.7921841740608215
789,1.6463,2.2692,0,0,-1.6090240478515625,2.5514678955078125,-2.2436676025390625,2.522296667098999,-3.044976234436035,-2.15779185295105
790,1.5187,2.2459,0,0,-0.37152099609375,1.318695068359375,0.4257049560546875,1.2166179418563843,0.6892449855804443,-0.903257429599762
791,1.3862,2.2462,0,0,-0.545440673828125,0.8164825439453125,0.6603546142578125,-0.41290953755378723,2.6720643043518066,-0.43052127957344055
792,1.2594,2.2794,0,0,-0.4739990234375,0.7049407958984375,0.3878936767578125,-0.9256008267402649,2.7506608963012695,-0.7303306460380554
793,1.1469,2.3519,0,0,-0.308837890625,0.6446380615234375,0.230743408203125,-0.6289928555488586,2.0534565448760986,-0.9169420599937439
794,1.0547,2.4654,0,0,-0.21661376953125,0.6243133544921875,0.2078094482421875,-0.12956464290618896,1.1256744861602783,-0.9753918051719666
795,0.9858,2.6159,0,0,-0.186981201171875,0.7791748046875,0.213836669921875,0.5054429173469543,-0.13293834030628204,-1.1579840183258057
796,0.9401,2.7935,0,0,-0.1327667236328125,0.9897003173828125,0.231048583984375,1.123765230178833,-1.5286099910736084,-1.38892662525177
797,0.9151,2.9826,0,0,-0.0496063232421875,1.1487579345703125,0.2412261962890625,1.1924418210983276,-2.6544270515441895,-1.4664441347122192
798,0.9066,3.1633,0,0,0.011077880859375,1.1292572021484375,0.2181854248046875,0.21264275908470154,-3.0041444301605225,-1.2884548902511597
799,0.9098,3.3141,0,0,0.093994140625,0.996826171875,-0.0288543701171875,-3.578101873397827,-1.2192941904067993,-1.2705738544464111
800,0.9198,3.4144,0,0,0.1473846435546875,1.10064697265625,-0.0680694580078125,-4.006748199462891,-0.5052594542503357,-0.4608301818370819
801,0.9325,3.4467,0,0,0.02227783203125,0.910675048828125,-0.1778411865234375,-3.1319520473480225,-0.5431354641914368,0.011258513666689396
802,0.945,3.3993,0,0,-0.117279052734375,0.719085693359375,-0.457305908203125,-2.4623799324035645,1.277604103088379,-0.1204606369137764
803,0.9556,3.2677,0,0,-0.10595703125,0.8271026611328125,-0.38641357421875,-1.6515086889266968,3.2458882331848145,-0.212290421128273
804,0.9638,3.0553,0,0,-0.1079254150390625,0.899658203125,-0.1940765380859375,-1.1662019491195679,3.584596633911133,-0.160491943359375
805,0.97,2.7738,0,0,-0.1111602783203125,0.933807373046875,0.0333404541015625,-1.1662019491195679,3.584596633911133,-0.160491943359375
806,0.9753,2.4421,0,0,-0.0703125,0.941314697265625,0.0259246826171875,-1.0046343803405762,-0.15463298559188843,-0.6569467186927795
807,0.9816,2.0852,0,0,-0.07568359375,0.891998291015625,-0.1042938232421875,-0.47327354550361633,-1.5547014474868774,-1.0247141122817993
808,0.9906,1.7316,0,0,-0.020294189453125,0.9454193115234375,-0.2053375244140625,-0.26912227272987366,-1.6147453784942627,-1.1446205377578735
809,1.0044,1.4113,0,0,0.033935546875,1.002777099609375,-0.175811767578125,-0.12139620631933212,-1.1747573614120483,-0.9875608682632446
810,1.0249,1.1527,0,0,0.063140869140625,1.0056915283203125,-0.108856201171875,-0.003899666713550687,-0.6317042112350464,-0.8420428037643433
811,1.054,0.9805,0,0,0.1217498779296875,1.078887939453125,0.014892578125,0.46155431866645813,-0.5254725813865662,-0.6954320669174194
812,1.0929,0.913,0,0,0.1266937255859375,1.1999664306640625,0.104156494140625,0.8207063674926758,-0.6824994683265686,-0.5159829258918762
813,1.1427,0.9602,0,0,0.0852203369140625,1.2632904052734375,0.031951904296875,0.31674280762672424,-0.0789230465888977,-0.4747167229652405
814,1.2036,1.1227,0,0,0.0850677490234375,1.264892578125,0.0014190673828125,-0.4571790099143982,0.8218981027603149,-0.4290221929550171
815,1.2749,1.3904,0,0,0.1758880615234375,1.3486328125,-0.0066680908203125,-0.4675655961036682,0.8457488417625427,-0.4916621446609497
816,1.3543,1.7437,0,0,0.244720458984375,1.4096221923828125,-0.0938873291015625,-0.3305046856403351,0.8598689436912537,-0.08723396807909012
817,1.4382,2.1545,0,0,0.2092132568359375,1.243499755859375,-0.242584228515625,-0.061217017471790314,1.1729706525802612,0.56097811460495
818,1.5206,2.5884,0,0,0.084686279296875,1.0879058837890625,-0.5950164794921875,0.8684858679771423,2.1500236988067627,1.128156304359436
819,1.5944,3.0087,0,0,0.086212158203125,1.1039886474609375,-0.2073974609375,2.151315212249756,1.7242686748504639,1.8411349058151245
820,1.6507,3.38,0,0,-0.0095977783203125,1.302215576171875,0.0628509521484375,2.7144198417663574,-0.5447006225585938,2.872941255569458
821,1.6804,3.6722,0,0,-0.200286865234375,1.56378173828125,0.068206787109375,2.5240049362182617,-2.360658645629883,3.43418025970459
822,1.6755,3.8636,0,0,-0.3371124267578125,1.70361328125,0.094451904296875,2.5073390007019043,-3.232423782348633,3.014017105102539
823,1.6302,3.9428,0,0,-0.5532073974609375,1.9278564453125,0.049407958984375,2.187244415283203,-2.9791979789733887,2.2688100337982178
824,1.5426,3.9096,0,0,-1.0445556640625,2.0443267822265625,-0.2362518310546875,1.3935514688491821,-0.9438184499740601,1.1598905324935913
825,1.4154,3.7737,0,0,-1.153076171875,1.6590728759765625,-0.50482177734375,0.8058198094367981,3.0873496532440186,0.12268783897161484
826,1.2565,3.5536,0,0,-0.632781982421875,1.066741943359375,-0.3046722412109375,1.2463655471801758,4.664971828460693,0.6185838580131531
827,1.0783,3.2739,0,0,-0.318634033203125,0.5811309814453125,0.257568359375,1.1514866352081299,3.4416661262512207,1.2720953226089478
828,0.8963,2.9626,0,0,-0.152618408203125,0.4624176025390625,0.5685577392578125,0.41632238030433655,1.0552655458450317,1.2566086053848267
829,0.7277,2.6485,0,0,-0.0619049072265625,0.39031982421875,0.474029541015625,-0.14363546669483185,-1.28812575340271,1.1432048082351685
830,0.5891,2.3584,0,0,0.02490234375,0.318939208984375,0.31304931640625,-0.3165350556373596,-2.9502434730529785,1.1482563018798828
831,0.4947,2.1151,0,0,0.0762176513671875,0.356658935546875,0.043914794921875,-0.16833654046058655,-2.9434597492218018,1.2549102306365967
832,0.455,1.9349,0,0,-0.01953125,0.41748046875,0.036041259765625,0.05814959108829498,-1.8568650484085083,1.1847554445266724
833,0.475,1.8268,0,0,-0.220306396484375,0.4165496826171875,0.0861053466796875,0.1536089926958084,-0.561575174331665,0.5975353121757507
834,0.5542,1.7911,0,0,-0.3214111328125,0.3497314453125,0.0449676513671875,0.3310855031013489,0.3058762848377228,-0.1934261918067932
835,0.6863,1.8198,0,0,-0.3951263427734375,0.265228271484375,0.00506591796875,0.48600533604621887,0.4981301724910736,-0.8418784737586975
836,0.8598,1.8976,0,0,-0.4624176025390625,0.270172119140625,-0.027374267578125,0.5283336043357849,-0.2964521646499634,-1.297937035560608
837,1.0593,2.0039,0,0,-0.458770751953125,0.39508056640625,-0.106109619140625,0.19717592000961304,-1.9997426271438599,-1.5708296298980713
838,1.2667,2.1162,0,0,-0.1598052978515625,0.6254425048828125,-0.66314697265625,-0.4435148537158966,-3.3508551120758057,-1.6643882989883423
839,1.4639,2.2131,0,0,0.379150390625,1.12091064453125,-1.6685791015625,-0.4688470959663391,-2.0112810134887695,-1.04494047164917
840,1.6346,2.2771,0,0,0.6638336181640625,2.03411865234375,-1.50830078125,-0.7170558571815491,1.548657774925232,0.12554940581321716
841,1.766,2.2973,0,0,0.8594512939453125,2.2291412353515625,-0.8726806640625,-0.8903858065605164,3.4616544246673584,1.258010745048523
842,1.8504,2.2701,0,0,1.0699615478515625,1.8115234375,-0.4337615966796875,-1.2656906843185425,2.082836866378784,1.3987324237823486
843,1.8851,2.1991,0,0,0.3665008544921875,1.382843017578125,0.1284637451171875,-1.2327836751937866,0.3981175422668457,1.0551633834838867
844,1.8726,2.0943,0,0,0.0686798095703125,1.13592529296875,0.0875244140625,-0.9214310646057129,0.15669800341129303,0.48604580760002136
845,1.8188,1.9707,0,0,-0.1816864013671875,1.152923583984375,0.6393585205078125,-0.6823170185089111,-0.5935354828834534,0.31776490807533264
846,1.7325,1.846,0,0,-0.4933013916015625,1.3647918701171875,-0.275787353515625,-0.5569748282432556,-0.9232955574989319,0.1321370005607605
847,1.6239,1.739,0,0,-1.1839752197265625,1.2439422607421875,-2.3941650390625,1.945996880531311,3.8143742084503174,-0.20372676849365234
848,1.5036,1.668,0,0,-0.9891510009765625,0.584625244140625,0.404266357421875,1.8777583837509155,1.32533860206604,-0.6730015873908997
849,1.3816,1.6488,0,0,-0.6163787841796875,0.616241455078125,0.7163543701171875,0.47989657521247864,0.2337656170129776,-1.120600700378418
850,1.2666,1.6933,0,0,-0.4844970703125,0.833404541015625,0.4134063720703125,0.00654525076970458,-0.22270071506500244,-1.2347509860992432
851,1.1652,1.807,0,0,-0.4221038818359375,0.9096221923828125,0.2556304931640625,0.07710623741149902,-0.5980546474456787,-1.2250401973724365
852,1.082,1.9881,0,0,-0.3665313720703125,0.9384918212890625,0.214508056640625,0.3039020895957947,-0.9604562520980835,-1.2403379678726196
853,1.0188,2.2261,0,0,-0.32537841796875,0.9332275390625,0.2872161865234375,0.26153627038002014,-1.1680946350097656,-1.2794760465621948
854,0.9753,2.5024,0,0,-0.220733642578125,0.987762451171875,0.2753143310546875,0.06692203879356384,-1.6627871990203857,-1.267040729522705
855,0.9494,2.7917,0,0,-0.1426239013671875,1.0287628173828125,0.1810455322265625,-0.1751427948474884,-2.0946483612060547,-1.1223615407943726
856,0.9376,3.0642,0,0,-0.080352783203125,0.9855194091796875,0.12310791015625,-0.6426969170570374,-2.144446611404419,-0.9010475277900696
857,0.9361,3.2891,0,0,-0.053680419921875,0.7753448486328125,-0.0092926025390625,-3.516385316848755,-0.8596026301383972,-1.1198155879974365
858,0.9408,3.4386,0,0,0.0653228759765625,1.0543365478515625,-0.1540985107421875,-4.6619391441345215,0.7423215508460999,-0.8780165314674377
859,0.948,3.4912,0,0,0.080108642578125,1.029937744140625,-0.2772064208984375,-3.777381420135498,1.2294738292694092,-0.259903222322464
860,0.9552,3.4347,0,0,-0.0440521240234375,0.823089599609375,-0.6093597412109375,-2.4499096870422363,2.884551763534546,-0.19031588733196259
861,0.9608,3.2679,0,0,-0.0529327392578125,0.8484954833984375,-0.4412689208984375,-1.3193614482879639,3.937018394470215,-0.2548466622829437
862,0.9643,3.001,0,0,-0.0520477294921875,0.885528564453125,-0.11517333984375,-1.3415247201919556,2.7429165840148926,-0.3305142819881439
863,0.9663,2.6541,0,0,-0.0658721923828125,0.9463043212890625,-0.0380096435546875,-0.975735068321228,0.030061496421694756,-0.5927168726921082
864,0.9685,2.2556,0,0,-0.10400390625,0.921539306640625,-0.109954833984375,-0.13009515404701233,-1.581776738166809,-0.9943891763687134
865,0.9729,1.8389,0,0,-0.0358428955078125,0.9410247802734375,-0.1456756591796875,0.13750725984573364,-1.9029803276062012,-1.1088145971298218
866,0.9821,1.44,0,0,-0.019927978515625,0.9972991943359375,-0.1527099609375,0.10822713375091553,-1.4635218381881714,-0.8996469974517822
867,0.9986,1.0945,0,0,-0.0210113525390625,1.049163818359375,-0.08575439453125,0.15667057037353516,-0.9079855680465698,-0.6550148725509644
868,1.0246,0.8342,0,0,-0.02392578125,1.0071258544921875,-0.0234832763671875,0.216530442237854,-0.3483704924583435,-0.5591863393783569
869,1.062,0.6857,0,0,0.0213165283203125,1.0064239501953125,0.043853759765625,0.4334406554698944,-0.04025128111243248,-0.513835608959198
870,1.1116,0.667,0,0,0.04559326171875,1.0429840087890625,0.0861663818359375,0.667070209980011,-0.10109146684408188,-0.340040922164917
871,1.1735,0.7869,0,0,0.020477294921875,1.13800048828125,0.075775146484375,0.665498673915863,-0.07530620694160461,-0.2655310034751892
872,1.2463,1.0429,0,0,0.053466796875,1.337860107421875,0.0568695068359375,-0.11734180897474289,0.7800273895263672,-0.19900843501091003
873,1.3279,1.4215,0,0,0.1240234375,1.4227294921875,0.0809173583984375,-0.9945383071899414,1.482104778289795,-0.15607215464115143
874,1.4144,1.8982,0,0,0.2347412109375,1.5245361328125,0.0644073486328125,-0.7795988321304321,0.981262743473053,-0.1832268089056015
875,1.5012,2.4395,0,0,0.29931640625,1.4801788330078125,-0.0618133544921875,-0.7578877210617065,0.9575190544128418,-0.0809670239686966
876,1.5824,3.005,0,0,0.27960205078125,1.3531494140625,-0.455352783203125,-0.6593922972679138,1.8163410425186157,0.4173966944217682
877,1.651,3.5511,0,0,0.1757049560546875,1.1466522216796875,-1.052398681640625,0.469483882188797,4.119457721710205,1.209599256515503
878,1.6998,4.035,0,0,0.1365509033203125,1.135162353515625,-0.3517913818359375,2.581204414367676,2.3223109245300293,2.479733943939209
879,1.7213,4.4196,0,0,-0.201019287109375,1.403411865234375,0.1544342041015625,3.1280903816223145,-1.983960509300232,3.6207756996154785
880,1.7091,4.6771,0,0,-0.3530426025390625,1.653076171875,0.2696533203125,3.0198581218719482,-4.432081699371338,3.3379759788513184
881,1.6587,4.7921,0,0,-0.4374237060546875,1.754913330078125,0.1956939697265625,2.905961751937866,-4.891592979431152,2.445683717727661
882,1.5688,4.7624,0,0,-0.761749267578125,1.877777099609375,-0.01422119140625,2.297534465789795,-3.7041707038879395,1.422977328300476
883,1.4418,4.5991,0,0,-1.142425537109375,1.7664031982421875,-0.4194793701171875,1.2275787591934204,0.7540258765220642,0.3694073259830475
884,1.2845,4.3241,0,0,-0.8757171630859375,1.2617645263671875,-0.3406219482421875,0.8802333474159241,5.111871719360352,0.05642039701342583
