id,ASVM,GSVM,walking_nonwalking,normal_abnormal,ax,ay,az,gx,gy,gz
1,0.9537,1.0127,0,0,-0.46923828125,0.7734527587890625,0.5114593505859375,0.34114721417427063,0.791780412197113,0.6655234098434448
2,1.0342,0.9191,0,0,-0.5553741455078125,0.7657623291015625,0.49090576171875,0.23810763657093048,0.8616993427276611,0.6821247935295105
3,1.1154,0.836,0,0,-0.6799774169921875,0.774566650390625,0.55010986328125,0.3677409887313843,0.7951535582542419,0.6241650581359863
4,1.1888,0.7652,0,0,-0.82269287109375,0.8067626953125,0.5196075439453125,0.32970014214515686,0.6431443691253662,0.4995195269584656
5,1.2474,0.7087,0,0,-0.8254852294921875,0.834625244140625,0.3541259765625,0.31010860204696655,0.4278522729873657,0.3213660418987274
6,1.2862,0.6686,0,0,-0.7956085205078125,0.82635498046875,0.3721466064453125,0.5559958815574646,0.2004936784505844,0.13806040585041046
7,1.3024,0.6463,0,0,-0.7859954833984375,0.7704925537109375,0.6298828125,0.6207181215286255,0.0123070003464818,-0.02593466080725193
8,1.2953,0.6429,0,0,-0.783203125,0.8420257568359375,0.584014892578125,0.4023732841014862,0.0580822117626667,-0.20707754790782928
9,1.2669,0.6585,0,0,-0.647247314453125,1.1771697998046875,0.4526519775390625,0.4138096868991852,0.2913748621940613,-0.36850106716156006
10,1.2209,0.6921,0,0,-0.4810791015625,1.2451629638671875,0.24652099609375,0.26561063528060913,0.22276489436626434,-0.3165454566478729
11,1.1626,0.7416,0,0,-0.348541259765625,1.1425628662109375,-0.0216827392578125,0.23463700711727142,-0.2423338145017624,-0.28556010127067566
12,1.0985,0.804,0,0,-0.289031982421875,1.0807037353515625,-0.0033111572265625,0.5441573262214661,-1.1136103868484497,0.033666349947452545
13,1.0353,0.8757,0,0,-0.3996734619140625,0.89984130859375,-0.0583648681640625,0.5506064295768738,-1.352081060409546,0.1298069953918457
14,0.979,0.9527,0,0,-0.3592681884765625,0.79083251953125,-0.2066192626953125,0.47750532627105713,-1.0648393630981445,0.18922105431556702
15,0.9347,1.0305,0,0,-0.2261505126953125,0.737091064453125,-0.23358154296875,0.47116780281066895,-0.5664711594581604,0.1907113641500473
16,0.9055,1.1046,0,0,-0.1307373046875,0.6823883056640625,-0.2057952880859375,0.5377838611602783,0.11073743551969528,0.10548354685306549
17,0.8925,1.1703,0,0,-0.1296539306640625,0.735992431640625,-0.19940185546875,0.6960831880569458,0.46171462535858154,0.16906332969665527
18,0.8949,1.2225,0,0,-0.1833953857421875,0.828155517578125,-0.1987762451171875,0.9629380702972412,0.5280086994171143,0.42176616191864014
19,0.9098,1.2567,0,0,-0.2838134765625,0.8376922607421875,-0.1507568359375,1.249934196472168,0.3648908734321594,0.5426371693611145
20,0.9334,1.269,0,0,-0.3864898681640625,0.893646240234375,0.0201873779296875,1.4107667207717896,0.29711422324180603,0.5080970525741577
21,0.9609,1.2568,0,0,-0.4743499755859375,0.9631195068359375,0.404815673828125,0.9445337653160095,0.7265170216560364,0.503821849822998
22,0.9881,1.2194,0,0,-0.4443206787109375,0.932159423828125,0.357147216796875,-0.05871604382991791,1.1389583349227905,0.6260926723480225
23,1.011,1.1581,0,0,-0.4965667724609375,0.93994140625,0.0075836181640625,-0.5217883586883545,1.2356233596801758,0.7483722567558289
24,1.0273,1.0764,0,0,-0.6008453369140625,0.940521240234375,-0.215606689453125,-0.1726066619157791,0.9758927226066589,0.6247986555099487
25,1.0357,0.9797,0,0,-0.6063232421875,0.8756561279296875,-0.1881103515625,0.4021511673927307,0.4896320104598999,0.40565750002861023
26,1.0365,0.8744,0,0,-0.5611724853515625,0.8572540283203125,-0.01898193359375,0.6837548613548279,0.42121246457099915,0.24934005737304688
27,1.0308,0.7674,0,0,-0.522613525390625,0.82281494140625,0.1260833740234375,0.5956005454063416,0.35383370518684387,0.164940744638443
28,1.0208,0.6656,0,0,-0.5017242431640625,0.8019561767578125,0.134429931640625,0.37660640478134155,0.21047919988632202,0.06949198991060257
29,1.0089,0.5748,0,0,-0.4603729248046875,0.8210906982421875,0.0680389404296875,0.2964140772819519,0.04189365357160568,0.013117932714521885
30,0.9975,0.5,0,0,-0.4304656982421875,0.8209686279296875,0.031158447265625,0.40076953172683716,-0.10679835081100464,0.026315759867429733
31,0.9884,0.4443,0,0,-0.4179534912109375,0.819488525390625,0.043701171875,0.5258427262306213,-0.17815561592578888,0.05958796292543411
32,0.9829,0.4101,0,0,-0.4178314208984375,0.851531982421875,0.0660247802734375,0.5811169147491455,-0.15098072588443756,0.09094295650720596
33,0.9818,0.3985,0,0,-0.4008026123046875,0.8878021240234375,0.0921478271484375,0.5528669357299805,-0.16145041584968567,0.1585635393857956
34,0.9851,0.4099,0,0,-0.40167236328125,0.903839111328125,0.1014862060546875,0.4292275309562683,-0.08590105921030045,0.2532216012477875
35,0.9925,0.4441,0,0,-0.485260009765625,0.9135284423828125,0.0918731689453125,0.1963607221841812,0.13603399693965912,0.3615606129169464
36,1.0033,0.5003,0,0,-0.5519256591796875,0.936279296875,0.0552978515625,-0.04629719257354736,0.3932298421859741,0.31739819049835205
37,1.0168,0.5772,0,0,-0.543792724609375,0.9569854736328125,0.02655029296875,-0.08395562320947647,0.5904976725578308,0.2247614711523056
38,1.0325,0.6726,0,0,-0.5352783203125,0.9302978515625,0.070587158203125,-0.003403786104172468,0.4782975912094116,0.15686364471912384
39,1.0498,0.7835,0,0,-0.5146942138671875,0.9073333740234375,0.1284942626953125,-0.09641415625810623,0.4544665813446045,0.07926153391599655
40,1.0683,0.906,0,0,-0.5063018798828125,0.8905181884765625,0.1475982666015625,-0.3249743580818176,0.625903844833374,-0.0005006743012927473
41,1.0877,1.0354,0,0,-0.4874420166015625,0.886016845703125,0.15838623046875,-0.5989693999290466,0.9124341607093811,-0.03939347714185715
42,1.1073,1.1667,0,0,-0.500518798828125,0.8709869384765625,0.0828399658203125,-0.9780866503715515,1.1277592182159424,-0.014658571220934391
43,1.1264,1.2945,0,0,-0.5842742919921875,0.935150146484375,-0.024993896484375,-1.1994707584381104,1.2756969928741455,-0.04812784865498543
44,1.144,1.4137,0,0,-0.60308837890625,1.01470947265625,-0.095001220703125,-1.1888073682785034,0.9833993911743164,-0.27450186014175415
45,1.1589,1.5196,0,0,-0.4880828857421875,1.0938720703125,-0.1190338134765625,-1.084447979927063,0.18185767531394958,-0.5739567279815674
46,1.1696,1.608,0,0,-0.389190673828125,1.1174774169921875,-0.12591552734375,-1.0884305238723755,-0.3286583125591278,-0.4944877624511719
47,1.1747,1.6754,0,0,-0.4812469482421875,1.04754638671875,-0.0470428466796875,-1.0479663610458374,-0.37173759937286377,-0.33079975843429565
48,1.1731,1.7188,0,0,-0.5347900390625,0.962310791015625,0.2216796875,-1.124057650566101,-0.3204411268234253,-0.5698307156562805
49,1.1635,1.7369,0,0,-0.52581787109375,0.9470062255859375,0.524810791015625,-1.97285795211792,-0.09984776377677917,-0.9255377054214478
50,1.1455,1.7296,0,0,-0.395477294921875,1.003570556640625,0.0991363525390625,-2.2729439735412598,0.34588363766670227,-1.1211193799972534
51,1.1188,1.6991,0,0,-0.334747314453125,1.114013671875,0.1370086669921875,-1.8497318029403687,0.20867331326007843,-1.0868746042251587
52,1.0839,1.6495,0,0,-0.3223114013671875,1.0406646728515625,0.1365814208984375,-1.5398836135864258,-0.18212400376796722,-0.8982967734336853
53,1.042,1.5867,0,0,-0.416168212890625,0.9615478515625,0.10955810546875,-1.0693998336791992,-0.4295780062675476,-0.6269728541374207
54,0.9949,1.5175,0,0,-0.553070068359375,0.8602752685546875,0.225372314453125,-0.8530035614967346,-0.5436283946037292,-0.5505625009536743
55,0.9452,1.4485,0,0,-0.565765380859375,0.78155517578125,0.21124267578125,-0.9106847047805786,-0.5258515477180481,-0.6868231296539307
56,0.8956,1.3852,0,0,-0.4959259033203125,0.72991943359375,0.1281890869140625,-0.7966241836547852,-0.6689080595970154,-0.8109706044197083
57,0.8494,1.3315,0,0,-0.4434051513671875,0.7041473388671875,0.0955657958984375,-0.5352370738983154,-0.8163959980010986,-0.7161999344825745
58,0.8098,1.2887,0,0,-0.4317626953125,0.6496429443359375,0.1043853759765625,-0.3048504590988159,-0.8682419061660767,-0.610506534576416
59,0.7797,1.2562,0,0,-0.40594482421875,0.62054443359375,0.1256561279296875,-0.06597821414470673,-0.8809792995452881,-0.5886232852935791
60,0.7616,1.2315,0,0,-0.349395751953125,0.62518310546875,0.152313232421875,0.20772071182727814,-1.0420807600021362,-0.5552421808242798
61,0.7571,1.2109,0,0,-0.2717132568359375,0.6575164794921875,0.1678009033203125,0.48373472690582275,-1.2595984935760498,-0.47922250628471375
62,0.7669,1.1908,0,0,-0.219085693359375,0.6957244873046875,0.1551055908203125,0.7479472160339355,-1.319213628768921,-0.36355212330818176
63,0.791,1.1678,0,0,-0.2100677490234375,0.7331085205078125,0.1767730712890625,0.9406753778457642,-1.178895115852356,-0.20631694793701172
64,0.8281,1.1401,0,0,-0.2498779296875,0.754638671875,0.2393341064453125,1.0055867433547974,-0.7855720520019531,-0.03433826565742493
65,0.8763,1.107,0,0,-0.283416748046875,0.7891998291015625,0.3621826171875,0.8508855700492859,-0.12729297578334808,0.16381317377090454
66,0.9328,1.0695,0,0,-0.3112640380859375,0.8136138916015625,0.453826904296875,0.5534093976020813,0.5286366939544678,0.347586452960968
67,0.9944,1.0295,0,0,-0.40350341796875,0.7923431396484375,0.428863525390625,0.4619966745376587,0.66453617811203,0.5375134944915771
68,1.0573,0.9899,0,0,-0.53564453125,0.76953125,0.400909423828125,0.48123931884765625,0.4952917695045471,0.6166048645973206
69,1.1179,0.9535,0,0,-0.6375732421875,0.758575439453125,0.4955596923828125,0.837212085723877,0.3171244263648987,0.5730414390563965
70,1.1724,0.9234,0,0,-0.6998291015625,0.7612762451171875,0.600616455078125,0.9323554039001465,0.1922631859779358,0.5185917615890503
71,1.2173,0.9018,0,0,-0.7474517822265625,0.809295654296875,0.438446044921875,0.6611006855964661,0.4378274083137512,0.3869767487049103
72,1.2496,0.8904,0,0,-0.7284393310546875,0.8317108154296875,0.292327880859375,0.7015655636787415,0.37207716703414917,0.2764398455619812
73,1.2673,0.8897,0,0,-0.7933349609375,0.7901763916015625,0.500396728515625,0.774897038936615,0.2293919175863266,0.16780444979667664
74,1.2691,0.899,0,0,-0.8573150634765625,0.731414794921875,0.685882568359375,0.43253010511398315,0.393085241317749,0.0031470574904233217
75,1.2552,0.9169,0,0,-0.8698272705078125,0.851348876953125,0.459228515625,0.35358282923698425,0.7179877161979675,-0.2445032149553299
76,1.227,0.941,0,0,-0.6927947998046875,1.14892578125,0.334930419921875,0.3955076336860657,0.23828206956386566,-0.4970388114452362
77,1.1872,0.9686,0,0,-0.4195709228515625,1.2253570556640625,0.039825439453125,0.4398900270462036,-0.5963155627250671,-0.5662333369255066
78,1.1397,0.9975,0,0,-0.3592376708984375,1.235565185546875,-0.14825439453125,0.8815076351165771,-0.8607141971588135,-0.500675618648529
79,1.0893,1.0261,0,0,-0.2418670654296875,1.064727783203125,0.13787841796875,1.3414191007614136,-1.396851897239685,-0.1760815531015396
80,1.0407,1.0539,0,0,-0.3824615478515625,0.7991943359375,0.2849578857421875,0.7116150259971619,-1.4530060291290283,0.20201994478702545
81,0.9984,1.0812,0,0,-0.427337646484375,0.744140625,0.0172576904296875,-0.1033647358417511,-0.923584520816803,0.01630946435034275
82,0.9659,1.1088,0,0,-0.268463134765625,0.7156982421875,-0.263946533203125,-0.10848093777894974,-0.36275342106819153,-0.27469441294670105
83,0.9453,1.1369,0,0,-0.0824737548828125,0.7631683349609375,-0.2790985107421875,0.2533086836338043,-0.014523549005389214,-0.30790722370147705
84,0.937,1.1648,0,0,0.0052490234375,0.858184814453125,-0.2637481689453125,0.6684877872467041,0.14713698625564575,0.10906630009412766
85,0.9397,1.1903,0,0,-0.1646881103515625,0.84857177734375,-0.1894378662109375,1.015119194984436,0.2569945156574249,0.5542687773704529
86,0.9509,1.21,0,0,-0.30902099609375,0.87005615234375,-0.1181793212890625,1.2371219396591187,0.34856730699539185,0.6498168706893921
87,0.9672,1.2198,0,0,-0.3973846435546875,0.942962646484375,-0.0345611572265625,1.3822468519210815,0.5364977717399597,0.6511183977127075
88,0.9851,1.2159,0,0,-0.5017852783203125,0.990447998046875,0.25244140625,1.2890218496322632,0.7353008985519409,0.6823186278343201
89,1.0012,1.1953,0,0,-0.5710601806640625,0.952880859375,0.5207977294921875,0.31918197870254517,0.9806528687477112,0.6550979614257812
90,1.0132,1.1567,0,0,-0.5142974853515625,0.9372406005859375,0.1163177490234375,-0.42031392455101013,1.1154139041900635,0.5731269121170044
91,1.0196,1.1006,0,0,-0.4832000732421875,0.8962249755859375,-0.171783447265625,-0.2911250591278076,0.791182816028595,0.5926686525344849
92,1.0202,1.0289,0,0,-0.514495849609375,0.8487701416015625,-0.2000579833984375,0.2797456383705139,0.3892372250556946,0.568296492099762
93,1.0156,0.9449,0,0,-0.5314178466796875,0.7898712158203125,-0.06414794921875,0.6196526288986206,0.3510698676109314,0.47639691829681396
94,1.0073,0.8531,0,0,-0.51116943359375,0.7742156982421875,0.073394775390625,0.5569684505462646,0.5473302006721497,0.3151683211326599
95,0.997,0.7583,0,0,-0.476715087890625,0.790435791015625,0.1212921142578125,0.38133829832077026,0.6159989833831787,0.2450222671031952
96,0.9864,0.6657,0,0,-0.4755859375,0.792816162109375,0.0757293701171875,0.33161309361457825,0.391140341758728,0.22478890419006348
97,0.9772,0.5803,0,0,-0.4846343994140625,0.80426025390625,0.03448486328125,0.422904372215271,0.14031369984149933,0.18547850847244263
98,0.9706,0.5072,0,0,-0.46673583984375,0.830230712890625,0.02410888671875,0.5068027377128601,0.012500612065196037,0.11624724417924881
99,0.9674,0.4513,0,0,-0.4232330322265625,0.87847900390625,0.01971435546875,0.5722142457962036,-0.03671753406524658,0.12268757075071335
100,0.968,0.4171,0,0,-0.437255859375,0.910675048828125,0.047515869140625,0.6288924217224121,-0.06551189720630646,0.21373306214809418
101,0.9727,0.4086,0,0,-0.472503662109375,0.89166259765625,0.091033935546875,0.5677303075790405,-0.04772118479013443,0.24370932579040527
102,0.9815,0.4292,0,0,-0.500946044921875,0.885009765625,0.11358642578125,0.37064385414123535,0.061575744301080704,0.21413946151733398
103,0.9945,0.4809,0,0,-0.5097808837890625,0.88922119140625,0.1067352294921875,0.08212043344974518,0.35063791275024414,0.1795777529478073
104,1.0117,0.5641,0,0,-0.499237060546875,0.9126129150390625,0.08453369140625,-0.09415419399738312,0.5318289995193481,0.15106727182865143
105,1.0329,0.6773,0,0,-0.5077972412109375,0.9362945556640625,0.097442626953125,-0.13832086324691772,0.4202345609664917,0.09861179441213608
106,1.058,0.8164,0,0,-0.49072265625,0.931732177734375,0.1155548095703125,-0.21763885021209717,0.3706701993942261,0.08829230815172195
107,1.0866,0.9749,0,0,-0.509857177734375,0.897430419921875,0.150299072265625,-0.3930729925632477,0.43928176164627075,0.06405647844076157
108,1.1176,1.1446,0,0,-0.5431671142578125,0.8568878173828125,0.193878173828125,-0.6871645450592041,0.6911065578460693,0.013541908003389835
109,1.1498,1.3161,0,0,-0.5853118896484375,0.854034423828125,0.1241912841796875,-1.2385653257369995,1.0754331350326538,-0.06243887543678284
110,1.1814,1.4798,0,0,-0.604827880859375,0.9738922119140625,0.0319976806640625,-1.5925666093826294,1.2117347717285156,-0.19731174409389496
111,1.21,1.627,0,0,-0.5156707763671875,1.068878173828125,-0.0167999267578125,-1.7993029356002808,0.7241904735565186,-0.5198924541473389
112,1.2332,1.7507,0,0,-0.435577392578125,1.2454376220703125,-0.0662689208984375,-1.8891586065292358,0.014675881713628769,-0.6328443288803101
113,1.2487,1.846,0,0,-0.5073394775390625,1.2686004638671875,-0.1368408203125,-1.7962651252746582,-0.40331628918647766,-0.5279724597930908
114,1.2544,1.9103,0,0,-0.5933990478515625,1.13201904296875,-0.208343505859375,-1.29887056350708,-0.6364166736602783,-0.771827220916748
115,1.2487,1.943,0,0,-0.5285491943359375,0.992523193359375,-0.135406494140625,-0.5874744057655334,-0.698157548904419,-0.9670121669769287
116,1.2309,1.9448,0,0,-0.4408416748046875,0.94677734375,0.1485137939453125,-0.1655556708574295,-0.17090782523155212,-1.096695065498352
117,1.201,1.9181,0,0,-0.3814849853515625,0.9823455810546875,1.3017425537109375,-1.5576118230819702,0.1389903724193573,-1.3067049980163574
118,1.16,1.8665,0,0,-0.2088623046875,0.8723907470703125,0.248077392578125,-2.4477858543395996,0.7493845224380493,-1.157755970954895
119,1.1097,1.7947,0,0,-0.278961181640625,1.048370361328125,-0.03472900390625,-2.0228800773620605,0.026517894119024277,-0.9985149502754211
120,1.0527,1.709,0,0,-0.351287841796875,0.9566650390625,-0.0977325439453125,-1.373514175415039,-1.1567901372909546,-0.9554502964019775
121,0.992,1.6161,0,0,-0.4683990478515625,0.8510284423828125,-0.0334930419921875,-0.7723872661590576,-1.1262990236282349,-0.7647898197174072
122,0.9314,1.523,0,0,-0.578155517578125,0.7393798828125,0.2904205322265625,-0.6015897393226624,-0.4905335009098053,-0.5750534534454346
123,0.8744,1.436,0,0,-0.5160064697265625,0.6841888427734375,0.330657958984375,-0.8846267461776733,-0.271820068359375,-0.6923174858093262
124,0.8249,1.3598,0,0,-0.4300994873046875,0.697601318359375,0.1549530029296875,-0.7644899487495422,-0.5908699631690979,-0.6595198512077332
125,0.7863,1.2971,0,0,-0.45635986328125,0.6511383056640625,0.0686492919921875,-0.3884737193584442,-0.8707937598228455,-0.5624545812606812
126,0.7616,1.2484,0,0,-0.4422149658203125,0.6292266845703125,0.0887908935546875,-0.005374525208026171,-0.9308519959449768,-0.5772953033447266
127,0.7528,1.2125,0,0,-0.306060791015625,0.6425018310546875,0.1215972900390625,0.35264885425567627,-1.0838216543197632,-0.5531255006790161
128,0.7611,1.1869,0,0,-0.23199462890625,0.6555328369140625,0.1344146728515625,0.664760172367096,-1.1585501432418823,-0.4269225597381592
129,0.7864,1.1687,0,0,-0.2171173095703125,0.6837005615234375,0.1377716064453125,0.9040566086769104,-1.1154512166976929,-0.3097570538520813
130,0.8275,1.1556,0,0,-0.21295166015625,0.7412567138671875,0.18634033203125,1.052600622177124,-0.9159367084503174,-0.14138242602348328
131,0.8818,1.146,0,0,-0.1864471435546875,0.764862060546875,0.3656158447265625,1.0690869092941284,-0.31363222002983093,0.18302148580551147
132,0.9459,1.1398,0,0,-0.2629852294921875,0.7584686279296875,0.5607452392578125,0.7859845757484436,0.504562497138977,0.6197471618652344
133,1.0155,1.138,0,0,-0.40869140625,0.747955322265625,0.5376129150390625,0.40055355429649353,0.8606023788452148,0.881751298904419
134,1.0858,1.1427,0,0,-0.5783538818359375,0.74468994140625,0.515655517578125,0.4321013391017914,0.5999673008918762,0.8936828374862671
135,1.1522,1.1558,0,0,-0.7274932861328125,0.71759033203125,0.5988006591796875,0.8553473949432373,0.09969809651374817,0.7143189311027527
136,1.2101,1.1793,0,0,-0.8455047607421875,0.77618408203125,0.526580810546875,0.7133170366287231,0.29663512110710144,0.6596676707267761
137,1.2557,1.2137,0,0,-0.8703460693359375,0.792633056640625,0.3812255859375,0.6535775661468506,0.833911120891571,0.45544955134391785
138,1.2862,1.2581,0,0,-0.8701629638671875,0.765289306640625,0.4602203369140625,0.6279478073120117,0.7713366746902466,0.28113579750061035
139,1.3,1.31,0,0,-0.9114532470703125,0.7184600830078125,0.64154052734375,0.5243574976921082,0.7611375451087952,0.10442706942558289
140,1.2967,1.365,0,0,-0.8774261474609375,0.75494384765625,0.5066375732421875,0.3257538676261902,1.3995548486709595,-0.05845265835523605
141,1.2773,1.4178,0,0,-0.847412109375,0.9717864990234375,0.397125244140625,0.48513898253440857,1.2258799076080322,-0.33394655585289
142,1.2443,1.4627,0,0,-0.5631256103515625,1.2122650146484375,0.038116455078125,0.46328005194664,-0.43378740549087524,-0.6320751905441284
143,1.2009,1.4949,0,0,-0.3576202392578125,1.240203857421875,-0.2371673583984375,0.8352048397064209,-1.4672746658325195,-0.7729822397232056
144,1.1514,1.5112,0,0,-0.2672882080078125,1.2183380126953125,-0.1951446533203125,1.3996237516403198,-2.0594842433929443,-0.547459602355957
145,1.1003,1.5105,0,0,-0.276031494140625,0.928314208984375,0.2178955078125,1.3713444471359253,-2.350848436355591,-0.05055558681488037
146,1.0519,1.4944,0,0,-0.4186248779296875,0.7698211669921875,0.10308837890625,0.18396903574466705,-1.3858493566513062,0.038790538907051086
147,1.0098,1.4662,0,0,-0.295440673828125,0.752838134765625,-0.2587890625,-0.16813254356384277,-0.22913864254951477,-0.38684144616127014
148,0.9766,1.4302,0,0,-0.082916259765625,0.8525543212890625,-0.3213348388671875,0.300217866897583,0.24493011832237244,-0.47564536333084106
149,0.9536,1.3903,0,0,0.047332763671875,0.9480133056640625,-0.287841796875,0.9911667704582214,0.20523491501808167,-0.10897095501422882
150,0.941,1.3495,0,0,-0.093597412109375,0.9043426513671875,-0.1151275634765625,1.4858555793762207,0.09148384630680084,0.49972033500671387
151,0.9375,1.3092,0,0,-0.30413818359375,0.8760986328125,0.0989837646484375,1.4831879138946533,0.19725021719932556,0.6690523624420166
152,0.9414,1.2692,0,0,-0.4107208251953125,0.8871612548828125,0.2639923095703125,0.9491812586784363,0.6084833145141602,0.6623545289039612
153,0.9504,1.2283,0,0,-0.449859619140625,0.8983001708984375,0.3201446533203125,0.4605359137058258,0.9728437066078186,0.6228846311569214
154,0.962,1.1846,0,0,-0.44384765625,0.8656463623046875,0.19610595703125,-0.06960304826498032,0.8806738257408142,0.637864351272583
155,0.9742,1.1362,0,0,-0.444488525390625,0.86328125,0.0029144287109375,-0.33262136578559875,0.986485481262207,0.6024208664894104
156,0.9851,1.0813,0,0,-0.4684295654296875,0.865966796875,-0.14801025390625,-0.18423402309417725,0.9955641627311707,0.6491974592208862
157,0.9937,1.0195,0,0,-0.542266845703125,0.8135223388671875,-0.164703369140625,0.2611924409866333,0.8924164772033691,0.6502850651741028
158,0.9994,0.9509,0,0,-0.601104736328125,0.7939605712890625,-0.0190582275390625,0.5773269534111023,0.8183372020721436,0.5730810761451721
159,1.0023,0.8771,0,0,-0.6030120849609375,0.8093109130859375,0.1330108642578125,0.5544328689575195,0.6410223245620728,0.4191906154155731
160,1.0028,0.8006,0,0,-0.5669708251953125,0.822021484375,0.133331298828125,0.3927723169326782,0.2813299298286438,0.2960396409034729
161,1.0019,0.7246,0,0,-0.5327911376953125,0.8275299072265625,0.0632476806640625,0.3918311595916748,0.04135516285896301,0.22617028653621674
162,1.0004,0.6528,0,0,-0.488006591796875,0.8346099853515625,0.0369720458984375,0.437247633934021,-0.07745937258005142,0.1952131688594818
163,0.9994,0.5891,0,0,-0.4361419677734375,0.8602752685546875,0.037109375,0.5183366537094116,-0.1260218471288681,0.24857625365257263
164,0.9996,0.5374,0,0,-0.4250335693359375,0.8726959228515625,0.038330078125,0.622776210308075,-0.2202511429786682,0.314480185508728
165,1.0019,0.5015,0,0,-0.4250335693359375,0.8713226318359375,0.069854736328125,0.5863494873046875,-0.24140170216560364,0.34939953684806824
166,1.0066,0.4849,0,0,-0.4821319580078125,0.89215087890625,0.08770751953125,0.38959941267967224,0.04807325452566147,0.40986183285713196
167,1.0139,0.4908,0,0,-0.55902099609375,0.898895263671875,0.07733154296875,0.15362177789211273,0.3457257151603699,0.3851519525051117
168,1.0239,0.5217,0,0,-0.599212646484375,0.89300537109375,0.0545196533203125,0.021275194361805916,0.49741750955581665,0.22946354746818542
169,1.0365,0.579,0,0,-0.6169586181640625,0.882049560546875,0.049041748046875,-0.03349750488996506,0.5174806714057922,0.03345249965786934
170,1.0514,0.6629,0,0,-0.5456695556640625,0.9085845947265625,0.0677032470703125,-0.04911721125245094,0.4793378412723541,-0.1841472089290619
171,1.0681,0.7716,0,0,-0.4781951904296875,0.89794921875,0.1036834716796875,-0.0993175357580185,0.3842424750328064,-0.21331307291984558
172,1.0861,0.9017,0,0,-0.4729156494140625,0.8897705078125,0.1560211181640625,-0.26166197657585144,0.49099767208099365,-0.14968615770339966
173,1.1046,1.0481,0,0,-0.5121002197265625,0.8913726806640625,0.1397857666015625,-0.6628727912902832,0.8268952965736389,-0.09358134865760803
174,1.1227,1.2044,0,0,-0.57769775390625,0.9375,0.0692901611328125,-1.0860182046890259,1.1941419839859009,-0.14406129717826843
175,1.1392,1.3634,0,0,-0.5362091064453125,1.0526275634765625,0.0128173828125,-1.4436907768249512,1.293668270111084,-0.3618879020214081
176,1.1532,1.5175,0,0,-0.4645233154296875,1.165374755859375,-0.05267333984375,-1.4286348819732666,0.716313898563385,-0.4742831587791443
177,1.1636,1.6593,0,0,-0.41143798828125,1.1961822509765625,-0.104461669921875,-1.4231029748916626,-0.13345445692539215,-0.38256654143333435
178,1.1694,1.7816,0,0,-0.52203369140625,1.0655059814453125,-0.161102294921875,-1.1604242324829102,-0.6665575504302979,-0.3265775740146637
179,1.1699,1.8778,0,0,-0.5337677001953125,0.9028472900390625,-0.10479736328125,-0.7368311285972595,-0.9812893867492676,-0.6769824624061584
180,1.1643,1.9418,0,0,-0.424957275390625,0.8538360595703125,0.111419677734375,-0.5941861271858215,-0.8528310060501099,-1.0549513101577759
181,1.1522,1.969,0,0,-0.31280517578125,0.96142578125,0.8076171875,-1.3859071731567383,-0.4627799093723297,-1.3033769130706787
182,1.1332,1.9564,0,0,-0.16900634765625,0.9805450439453125,0.3418731689453125,-2.4466633796691895,0.4924837350845337,-1.3331438302993774
183,1.1072,1.9037,0,0,-0.1607208251953125,1.07525634765625,0.1132049560546875,-2.043750762939453,0.9587297439575195,-1.0047739744186401
184,1.0743,1.8135,0,0,-0.2693328857421875,1.0522308349609375,0.0343475341796875,-1.7450146675109863,-0.033431459218263626,-0.6292998790740967
185,1.0354,1.6915,0,0,-0.4720458984375,0.95947265625,0.0264129638671875,-1.1890827417373657,-0.5409330129623413,-0.5369420051574707
186,0.9918,1.5461,0,0,-0.6427154541015625,0.832000732421875,0.272003173828125,-1.0372215509414673,-0.4657258987426758,-0.6219037771224976
187,0.9457,1.3875,0,0,-0.58892822265625,0.7855987548828125,0.2628631591796875,-1.269433856010437,0.003772101365029812,-0.7814177870750427
188,0.8996,1.2272,0,0,-0.4610748291015625,0.774871826171875,0.18060302734375,-1.2446352243423462,0.08533859997987747,-0.7363914847373962
189,0.8568,1.0763,0,0,-0.3878936767578125,0.724365234375,0.1629638671875,-0.9834569096565247,-0.09561307728290558,-0.5356884598731995
190,0.8205,0.9446,0,0,-0.3704986572265625,0.6702423095703125,0.194305419921875,-0.7104959487915039,-0.23871617019176483,-0.3762572407722473
191,0.794,0.8398,0,0,-0.3588409423828125,0.6627655029296875,0.2198944091796875,-0.4341069757938385,-0.3641100525856018,-0.23239782452583313
192,0.7801,0.7665,0,0,-0.3489837646484375,0.6699371337890625,0.2431182861328125,-0.18261881172657013,-0.4764259457588196,-0.04920722544193268
193,0.7808,0.726,0,0,-0.3331756591796875,0.6553802490234375,0.225372314453125,0.035050127655267715,-0.4771095812320709,0.12405137717723846
194,0.797,0.7161,0,0,-0.321075439453125,0.653472900390625,0.2069244384765625,0.27488216757774353,-0.419945627450943,0.2973318099975586
195,0.8286,0.7315,0,0,-0.3114013671875,0.659332275390625,0.2307891845703125,0.4830305874347687,-0.18589183688163757,0.45197996497154236
196,0.8739,0.7652,0,0,-0.3533477783203125,0.6616668701171875,0.3289031982421875,0.6214308142662048,0.07262147217988968,0.65206378698349
197,0.9301,0.809,0,0,-0.410308837890625,0.666961669921875,0.4448089599609375,0.6284160017967224,0.26213762164115906,0.7696852684020996
198,0.9932,0.8552,0,0,-0.464569091796875,0.6603240966796875,0.53912353515625,0.6360355615615845,0.38548269867897034,0.8379404544830322
199,1.0586,0.8973,0,0,-0.5338134765625,0.6798858642578125,0.6334228515625,0.5851548314094543,0.5213912725448608,0.879123330116272
200,1.1215,0.9308,0,0,-0.6454010009765625,0.700469970703125,0.6622161865234375,0.3841007947921753,0.5228714346885681,0.814410388469696
201,1.177,0.9536,0,0,-0.81939697265625,0.7225341796875,0.5371551513671875,0.37859123945236206,0.4002867043018341,0.5597133636474609
202,1.2211,0.966,0,0,-0.9157562255859375,0.82000732421875,0.3160552978515625,0.5839529037475586,0.32909825444221497,0.25481364130973816
203,1.2504,0.9703,0,0,-0.848358154296875,0.8747711181640625,0.30657958984375,0.8877328038215637,-0.030604248866438866,-0.08070389926433563
204,1.2633,0.9702,0,0,-0.7579193115234375,0.851104736328125,0.4779815673828125,1.0300194025039673,-0.41963374614715576,-0.3213023841381073
205,1.2594,0.9704,0,0,-0.715972900390625,0.85467529296875,0.539215087890625,1.0252938270568848,-0.10447767376899719,-0.3331654369831085
206,1.2398,0.9755,0,0,-0.7149810791015625,0.9273681640625,0.5426025390625,1.013487458229065,0.40934303402900696,-0.3630804717540741
207,1.2072,0.9898,0,0,-0.5389556884765625,1.1005096435546875,0.4938812255859375,0.7023006081581116,0.057376474142074585,-0.5106770992279053
208,1.1654,1.0163,0,0,-0.2958984375,1.2321624755859375,0.194549560546875,0.283331036567688,-0.19741666316986084,-0.36600542068481445
209,1.119,1.0562,0,0,-0.1567535400390625,1.1787109375,-0.06207275390625,0.45108142495155334,-0.2310611754655838,0.020370518788695335
210,1.0728,1.1091,0,0,-0.2592620849609375,0.94683837890625,0.3251495361328125,0.9489402174949646,-1.8357826471328735,0.41775596141815186
211,1.0315,1.1725,0,0,-0.6305084228515625,0.6777496337890625,0.1336822509765625,0.16651761531829834,-0.9837498664855957,0.33147433400154114
212,0.9986,1.2421,0,0,-0.49395751953125,0.6641998291015625,-0.065582275390625,-0.7608797550201416,0.5902742147445679,-0.11152786016464233
213,0.9765,1.3124,0,0,-0.2703094482421875,0.6952362060546875,-0.2484283447265625,-0.9768695831298828,1.3195582628250122,-0.34051018953323364
214,0.9658,1.3771,0,0,-0.0804595947265625,0.8097381591796875,-0.3206024169921875,-0.4165780544281006,1.1537482738494873,-0.26477253437042236
215,0.9656,1.4297,0,0,-0.0333251953125,0.8991241455078125,-0.3377227783203125,0.3772719204425812,0.4198899567127228,0.3743720054626465
216,0.9737,1.4639,0,0,-0.2818450927734375,0.889495849609375,-0.2736968994140625,1.0093910694122314,-0.08212736248970032,0.8785198330879211
217,0.9868,1.4748,0,0,-0.5063323974609375,0.904266357421875,-0.2005767822265625,1.492540717124939,-0.23931725323200226,0.8969781994819641
218,1.0017,1.4594,0,0,-0.6076507568359375,0.932891845703125,-0.103546142578125,1.8697936534881592,-0.32473307847976685,0.7102383971214294
219,1.015,1.4171,0,0,-0.6027984619140625,0.96636962890625,0.0513763427734375,2.086848020553589,-0.3725261688232422,0.48403191566467285
220,1.0245,1.3501,0,0,-0.5464019775390625,0.9358673095703125,0.4874420166015625,1.735709309577942,-0.3757147789001465,0.32919201254844666
221,1.0288,1.263,0,0,-0.4295501708984375,0.8734130859375,0.5863494873046875,0.4418892562389374,0.03657478839159012,0.21434424817562103
222,1.0276,1.1617,0,0,-0.364349365234375,0.8469696044921875,0.1584320068359375,-0.4813932478427887,0.5348594188690186,0.2604808509349823
223,1.0217,1.0531,0,0,-0.365142822265625,0.8350677490234375,-0.1362457275390625,-0.43606358766555786,0.6114532351493835,0.31104522943496704
224,1.0125,0.9437,0,0,-0.3821258544921875,0.821746826171875,-0.197845458984375,0.04905196651816368,0.38599082827568054,0.39239946007728577
225,1.0019,0.8392,0,0,-0.4433135986328125,0.8296966552734375,-0.1490020751953125,0.4748493432998657,0.3237471878528595,0.49857276678085327
226,0.9918,0.7442,0,0,-0.5115814208984375,0.828704833984375,-0.029876708984375,0.7191293835639954,0.5250150561332703,0.520114004611969
227,0.9839,0.6624,0,0,-0.5520477294921875,0.8111419677734375,0.1111602783203125,0.7919002771377563,0.4933604300022125,0.4152003824710846
228,0.9794,0.5965,0,0,-0.5133209228515625,0.81298828125,0.1957244873046875,0.6772306561470032,0.1255134493112564,0.2612997889518738
229,0.9793,0.5488,0,0,-0.4547119140625,0.8579864501953125,0.15362548828125,0.45274457335472107,-0.1348361074924469,0.22699932754039764
230,0.9838,0.5213,0,0,-0.4356689453125,0.86834716796875,0.054656982421875,0.278545618057251,-0.1871509850025177,0.27904629707336426
231,0.993,0.5156,0,0,-0.45892333984375,0.889617919921875,-0.029022216796875,0.3360970616340637,-0.17862486839294434,0.2973206341266632
232,1.0062,0.5328,0,0,-0.46343994140625,0.9075164794921875,-0.0348968505859375,0.5493930578231812,-0.11735725402832031,0.28243595361709595
233,1.0227,0.5734,0,0,-0.473968505859375,0.9306182861328125,0.04412841796875,0.5889080166816711,0.006457100156694651,0.3207641541957855
234,1.0416,0.6371,0,0,-0.51446533203125,0.9278564453125,0.127685546875,0.360886812210083,0.33009907603263855,0.3565269708633423
235,1.0619,0.7225,0,0,-0.5566253662109375,0.9159088134765625,0.165863037109375,0.07815498858690262,0.5601155161857605,0.2786835730075836
236,1.0824,0.8268,0,0,-0.567474365234375,0.9300384521484375,0.1703338623046875,-0.10563960671424866,0.5838687419891357,0.13989078998565674
237,1.1021,0.9461,0,0,-0.5439910888671875,0.909454345703125,0.167633056640625,-0.31335872411727905,0.5583271980285645,-0.004564924165606499
238,1.1199,1.0754,0,0,-0.5204925537109375,0.897491455078125,0.151702880859375,-0.5883652567863464,0.7880136370658875,-0.097618967294693
239,1.1349,1.209,0,0,-0.5166778564453125,0.88006591796875,0.075592041015625,-0.982079803943634,1.092352271080017,-0.13234126567840576
240,1.1464,1.3407,0,0,-0.5946502685546875,0.9634552001953125,-0.0369110107421875,-1.1808048486709595,1.3013195991516113,-0.19777752459049225
241,1.1536,1.4647,0,0,-0.6406707763671875,1.0701446533203125,-0.08062744140625,-1.1937379837036133,1.1326777935028076,-0.4946906864643097
242,1.1562,1.5757,0,0,-0.558349609375,1.1385040283203125,-0.084686279296875,-1.1081104278564453,0.5079425573348999,-0.864852786064148
243,1.1543,1.6691,0,0,-0.48687744140625,1.177490234375,-0.0659637451171875,-1.105657935142517,-0.3299672603607178,-0.896075963973999
244,1.1482,1.7414,0,0,-0.477508544921875,1.12591552734375,-0.068328857421875,-1.0746960639953613,-0.7235174775123596,-0.8488202691078186
245,1.1383,1.7896,0,0,-0.4015960693359375,1.0172119140625,-0.0137939453125,-0.8342282772064209,-1.0298683643341064,-0.9273518323898315
246,1.125,1.8119,0,0,-0.32177734375,0.87921142578125,0.132568359375,-0.7713617086410522,-0.8358147144317627,-0.8756955862045288
247,1.1088,1.8078,0,0,-0.30401611328125,0.864013671875,0.4285430908203125,-1.2575223445892334,-0.290499210357666,-0.9561589956283569
248,1.0895,1.778,0,0,-0.2264404296875,0.886077880859375,0.4278106689453125,-2.2587897777557373,0.23931725323200226,-1.0272347927093506
249,1.0669,1.7252,0,0,-0.21490478515625,0.9508514404296875,0.079559326171875,-2.2099602222442627,0.466871052980423,-0.8302114605903625
250,1.0405,1.6538,0,0,-0.3319854736328125,0.9712371826171875,0.042083740234375,-1.6378408670425415,-0.07521752268075943,-0.5472380518913269
251,1.0099,1.5697,0,0,-0.474029541015625,0.952239990234375,0.137939453125,-1.2431989908218384,-0.5421754121780396,-0.45193764567375183
252,0.9751,1.4798,0,0,-0.577606201171875,0.906280517578125,0.215789794921875,-1.1963236331939697,-0.31931939721107483,-0.35084617137908936
253,0.9369,1.3909,0,0,-0.678009033203125,0.800994873046875,0.1724395751953125,-1.0696109533309937,-0.09278373420238495,-0.25876709818840027
254,0.8969,1.3093,0,0,-0.7081451416015625,0.7116851806640625,0.1591339111328125,-0.8109663724899292,-0.3258518576622009,-0.5043236017227173
255,0.8577,1.2396,0,0,-0.621337890625,0.673370361328125,0.148651123046875,-0.5711830854415894,-0.7464736700057983,-0.7962931394577026
256,0.8224,1.1842,0,0,-0.4523162841796875,0.665252685546875,0.132110595703125,-0.3304274380207062,-0.8739964365959167,-0.8953906893730164
257,0.7947,1.1437,0,0,-0.3101806640625,0.663665771484375,0.159271240234375,-0.0906209796667099,-0.9101312756538391,-0.7725769281387329
258,0.7781,1.1165,0,0,-0.2265167236328125,0.6440277099609375,0.1860504150390625,0.1350765973329544,-0.9044750332832336,-0.5503134727478027
259,0.7753,1.0995,0,0,-0.2075653076171875,0.6348419189453125,0.1635284423828125,0.39034032821655273,-0.9721528887748718,-0.33152681589126587
260,0.7882,1.0886,0,0,-0.2134246826171875,0.6318817138671875,0.1562652587890625,0.6525223851203918,-0.9190821647644043,-0.1621878445148468
261,0.8172,1.0791,0,0,-0.22039794921875,0.6721954345703125,0.213165283203125,0.831901490688324,-0.6538811326026917,0.014277739450335503
262,0.861,1.0666,0,0,-0.23480224609375,0.7469940185546875,0.338409423828125,0.8261978030204773,-0.16015692055225372,0.2794193923473358
263,0.9171,1.0476,0,0,-0.3274688720703125,0.7801361083984375,0.448577880859375,0.6108652353286743,0.5074416399002075,0.6158959269523621
264,0.9815,1.0199,0,0,-0.4888763427734375,0.75567626953125,0.458770751953125,0.4866258502006531,0.9288511872291565,0.7864852547645569
265,1.0494,0.9832,0,0,-0.617279052734375,0.7158203125,0.47467041015625,0.5846973061561584,0.8319091796875,0.7781583666801453
266,1.1156,0.9391,0,0,-0.6897430419921875,0.7108001708984375,0.5704803466796875,0.6597529053688049,0.4912586808204651,0.6330485939979553
267,1.175,0.8911,0,0,-0.738861083984375,0.727813720703125,0.5877532958984375,0.6785542368888855,0.3350653350353241,0.49952247738838196
268,1.2229,0.8438,0,0,-0.8052978515625,0.78167724609375,0.46270751953125,0.6070215106010437,0.3137052059173584,0.3755062520503998
269,1.2555,0.803,0,0,-0.801177978515625,0.806396484375,0.3665313720703125,0.6409696340560913,0.10104299336671829,0.20246095955371857
270,1.2705,0.7739,0,0,-0.7739410400390625,0.7804107666015625,0.460479736328125,0.7075739502906799,-0.03659609332680702,0.018759306520223618
271,1.2672,0.7609,0,0,-0.8107757568359375,0.7995758056640625,0.57159423828125,0.5048471689224243,0.2622678279876709,-0.03081144206225872
272,1.2466,0.767,0,0,-0.8692626953125,1.028564453125,0.4676513671875,0.6514475345611572,0.6685746312141418,-0.08864092081785202
273,1.2112,0.7929,0,0,-0.7168731689453125,1.1844940185546875,0.498382568359375,0.49759620428085327,0.2831384837627411,-0.34203457832336426
274,1.1656,0.8371,0,0,-0.459228515625,1.2628173828125,0.2109527587890625,0.24520708620548248,0.2874581515789032,-0.2984607219696045
275,1.1148,0.896,0,0,-0.129486083984375,1.0863189697265625,0.0218505859375,0.4578980505466461,-0.2574874758720398,-0.03319443762302399
276,1.0647,0.9643,0,0,-0.2965850830078125,0.8798675537109375,0.023956298828125,0.6963106393814087,-1.6436185836791992,0.30289143323898315
277,1.0205,1.0351,0,0,-0.469940185546875,0.71893310546875,-0.1383514404296875,0.5919099450111389,-1.3980666399002075,0.08249540627002716
278,0.9864,1.1012,0,0,-0.34613037109375,0.6922760009765625,-0.2034759521484375,0.33265119791030884,-0.7670929431915283,-0.08798711001873016
279,0.9648,1.1554,0,0,-0.17144775390625,0.675872802734375,-0.282958984375,0.31940221786499023,-0.19748644530773163,-0.22286316752433777
280,0.9562,1.1912,0,0,-0.0383148193359375,0.7454376220703125,-0.323699951171875,0.6408596038818359,0.26408517360687256,-0.17307430505752563
281,0.9589,1.2033,0,0,-0.040191650390625,0.907318115234375,-0.3274383544921875,1.190172791481018,0.31185322999954224,0.3471542298793793
282,0.9698,1.1888,0,0,-0.2169342041015625,0.948150634765625,-0.116790771484375,1.7219929695129395,-0.004549744538962841,0.7685025334358215
283,0.9848,1.147,0,0,-0.437103271484375,0.94610595703125,0.2328338623046875,1.5427465438842773,-0.09836439043283463,0.8488748669624329
284,0.9998,1.0806,0,0,-0.611053466796875,0.97955322265625,0.3993377685546875,0.6058371663093567,0.7409297823905945,0.787972629070282
285,1.011,0.9947,0,0,-0.6309967041015625,0.970184326171875,0.296630859375,-0.005364671815186739,0.9499183893203735,0.673126220703125
286,1.0159,0.8968,0,0,-0.5776824951171875,0.9558258056640625,0.0196685791015625,-0.03726028650999069,0.3468194603919983,0.5497768521308899
287,1.0135,0.7954,0,0,-0.5785369873046875,0.9266815185546875,-0.085662841796875,0.14287778735160828,0.10410163551568985,0.4021647572517395
288,1.0042,0.6986,0,0,-0.5179443359375,0.8287811279296875,-0.0733489990234375,0.28449538350105286,0.19394710659980774,0.20350918173789978
289,0.9897,0.6135,0,0,-0.429473876953125,0.800628662109375,0.010467529296875,0.4121745228767395,0.23184388875961304,0.14253397285938263
290,0.9726,0.5449,0,0,-0.3945770263671875,0.75958251953125,0.0975341796875,0.3969156742095947,0.12803758680820465,0.16825851798057556
291,0.9558,0.4953,0,0,-0.413055419921875,0.7605133056640625,0.1026458740234375,0.27939701080322266,0.09851592034101486,0.23864905536174774
292,0.942,0.4644,0,0,-0.4168243408203125,0.7582855224609375,0.0483245849609375,0.20550788938999176,0.18853582441806793,0.309072345495224
293,0.9335,0.4502,0,0,-0.4351348876953125,0.7877044677734375,0.0073699951171875,0.3005603551864624,0.17505677044391632,0.3540523648262024
294,0.9319,0.4494,0,0,-0.48077392578125,0.7946929931640625,0.011077880859375,0.4583137631416321,-0.0046879625879228115,0.3554774224758148
295,0.938,0.4584,0,0,-0.4934539794921875,0.8125,0.038177490234375,0.5295013785362244,-0.1736689954996109,0.2873865067958832
296,0.9516,0.4739,0,0,-0.4907379150390625,0.8515777587890625,0.04974365234375,0.5259945392608643,-0.26498186588287354,0.24337004125118256
297,0.9719,0.4938,0,0,-0.469085693359375,0.89306640625,0.0286102294921875,0.5089953541755676,-0.21839891374111176,0.2154526561498642
298,0.9977,0.5176,0,0,-0.4329833984375,0.922607421875,0.0342254638671875,0.5287392139434814,-0.14672338962554932,0.24696052074432373
299,1.0273,0.5463,0,0,-0.445343017578125,0.93145751953125,0.0672149658203125,0.4376401901245117,-0.04080841690301895,0.35016199946403503
300,1.0591,0.5821,0,0,-0.5349273681640625,0.9418487548828125,0.074554443359375,0.24063125252723694,0.20133844017982483,0.41829657554626465
301,1.091,0.6283,0,0,-0.5993804931640625,0.94482421875,0.084747314453125,0.07758160680532455,0.45545274019241333,0.3454972207546234
302,1.1216,0.6882,0,0,-0.5946807861328125,0.9304351806640625,0.0848846435546875,-0.0402480885386467,0.6327231526374817,0.2310159057378769
303,1.1493,0.7649,0,0,-0.603118896484375,0.9160919189453125,0.13385009765625,-0.12563781440258026,0.6181876063346863,0.11214438080787659
304,1.1727,0.8602,0,0,-0.6078338623046875,0.9045867919921875,0.15924072265625,-0.4049014151096344,0.6073930263519287,-0.04999126121401787
305,1.1908,0.9742,0,0,-0.6312713623046875,0.947509765625,0.0681610107421875,-0.7975136637687683,0.8081953525543213,-0.1791100949048996
306,1.203,1.1051,0,0,-0.65740966796875,1.054168701171875,-0.0150909423828125,-0.9296123385429382,0.8260742425918579,-0.3988019824028015
307,1.2088,1.2488,0,0,-0.59716796875,1.1701507568359375,-0.03704833984375,-1.0267678499221802,0.4240109324455261,-0.7128696441650391
308,1.2083,1.3988,0,0,-0.5075225830078125,1.242523193359375,-0.1163177490234375,-0.8712496757507324,-0.07368141412734985,-0.7417708039283752
309,1.2017,1.5469,0,0,-0.50177001953125,1.1331329345703125,-0.1468658447265625,-0.6332160830497742,-0.5602004528045654,-0.5601807236671448
310,1.1897,1.6832,0,0,-0.4785308837890625,0.9758453369140625,-0.04400634765625,-0.1965218484401703,-0.9786602854728699,-0.7214085459709167
311,1.1729,1.7975,0,0,-0.3473663330078125,0.8799285888671875,0.32769775390625,-0.18771450221538544,-1.3061481714248657,-0.9299590587615967
312,1.1518,1.8803,0,0,-0.1721038818359375,0.906585693359375,0.9365997314453125,-1.6154510974884033,-1.1988019943237305,-0.8588632941246033
313,1.1268,1.9243,0,0,-0.3499603271484375,0.8491363525390625,0.107025146484375,-2.5360705852508545,-0.08965878188610077,-0.9018805623054504
314,1.098,1.9255,0,0,-0.29705810546875,0.9680938720703125,-0.0453948974609375,-2.0919363498687744,-0.02515728399157524,-1.178672432899475
315,1.0655,1.8842,0,0,-0.221343994140625,1.0343170166015625,0.076080322265625,-1.5881750583648682,-0.8297959566116333,-1.159626841545105
316,1.0292,1.8051,0,0,-0.3120269775390625,1.0110321044921875,0.11602783203125,-1.259596347808838,-1.1575496196746826,-0.9440405368804932
317,0.9896,1.6965,0,0,-0.4371795654296875,0.966888427734375,0.1873931884765625,-0.9855530858039856,-1.0351768732070923,-0.627924382686615
318,0.9472,1.5694,0,0,-0.5404815673828125,0.8597259521484375,0.2473602294921875,-0.7915500402450562,-0.793504536151886,-0.4839695990085602
319,0.9036,1.4357,0,0,-0.5240325927734375,0.795623779296875,0.2542877197265625,-0.6711458563804626,-0.6684752702713013,-0.6189271807670593
320,0.8609,1.3069,0,0,-0.4646759033203125,0.73370361328125,0.2067108154296875,-0.5162889361381531,-0.7137468457221985,-0.7073395848274231
321,0.8216,1.1927,0,0,-0.4127197265625,0.694244384765625,0.1703948974609375,-0.27856823801994324,-0.7837693691253662,-0.7264294028282166
322,0.789,1.0999,0,0,-0.36138916015625,0.659576416015625,0.168975830078125,-0.04971908777952194,-0.7985603213310242,-0.7064535617828369
323,0.7661,1.032,0,0,-0.3055419921875,0.635467529296875,0.179107666015625,0.19020988047122955,-0.7279207706451416,-0.6527719497680664
324,0.7557,0.9894,0,0,-0.2661285400390625,0.6460418701171875,0.1892242431640625,0.3998557925224304,-0.7219542264938354,-0.558953046798706
325,0.7599,0.9695,0,0,-0.2099609375,0.682037353515625,0.1587982177734375,0.5465477705001831,-0.670892596244812,-0.4118030071258545
326,0.7798,0.9672,0,0,-0.1652374267578125,0.7043304443359375,0.1580352783203125,0.7688865661621094,-0.47941693663597107,-0.1355423778295517
327,0.8153,0.9767,0,0,-0.214935302734375,0.70013427734375,0.2553253173828125,0.9274410605430603,-0.21054205298423767,0.1694183200597763
328,0.8648,0.9914,0,0,-0.2950897216796875,0.6935272216796875,0.406951904296875,0.8776684403419495,0.16895067691802979,0.3637084364891052
329,0.9257,1.0058,0,0,-0.3539581298828125,0.68878173828125,0.527557373046875,0.6731278300285339,0.6128159761428833,0.5188466310501099
330,0.9942,1.0158,0,0,-0.43328857421875,0.6941680908203125,0.5479888916015625,0.476511150598526,1.0286296606063843,0.6547921895980835
331,1.0655,1.0198,0,0,-0.519805908203125,0.697265625,0.541839599609375,0.3309350609779358,1.2143971920013428,0.7096416354179382
332,1.1345,1.0184,0,0,-0.605987548828125,0.72076416015625,0.54119873046875,0.38076677918434143,1.0447561740875244,0.6734561920166016
333,1.1963,1.0145,0,0,-0.7295989990234375,0.7993011474609375,0.487396240234375,0.36107325553894043,0.707565426826477,0.5953230261802673
334,1.2462,1.0122,0,0,-0.7758331298828125,0.856903076171875,0.36376953125,0.22406639158725739,0.5961078405380249,0.4465966522693634
335,1.2808,1.0166,0,0,-0.839569091796875,0.849365234375,0.4310302734375,0.36780598759651184,0.5587711334228516,0.3479486405849457
336,1.298,1.0321,0,0,-0.95208740234375,0.809173583984375,0.8520965576171875,0.20837610960006714,0.20053096115589142,0.15641677379608154
337,1.2974,1.0618,0,0,-0.890045166015625,0.841644287109375,0.557525634765625,-0.25636306405067444,1.1911765336990356,-0.006791859865188599
338,1.2804,1.1069,0,0,-0.8855743408203125,1.04144287109375,0.428680419921875,0.0052381716668605804,1.7105838060379028,-0.1816006898880005
339,1.2502,1.1666,0,0,-0.607025146484375,1.26611328125,0.3299407958984375,0.1589028388261795,0.6076579689979553,-0.4077107906341553
340,1.2111,1.2382,0,0,-0.196044921875,1.17352294921875,-0.16571044921875,0.3395833969116211,-0.32559648156166077,-0.277686208486557
341,1.1681,1.3171,0,0,-0.171417236328125,1.0550384521484375,-0.068023681640625,0.9061797261238098,-1.9344080686569214,0.04578213393688202
342,1.126,1.3978,0,0,-0.5086212158203125,0.7942962646484375,-0.181884765625,0.8696438074111938,-2.1649434566497803,0.0629669800400734
343,1.0891,1.474,0,0,-0.5385284423828125,0.7039642333984375,-0.223052978515625,0.4757777154445648,-0.8592665195465088,-0.1892506182193756
344,1.06,1.5391,0,0,-0.2888336181640625,0.7154388427734375,-0.2950286865234375,0.2527976334095001,0.24260039627552032,-0.615213930606842
345,1.0401,1.5871,0,0,0.076263427734375,0.835968017578125,-0.37103271484375,0.7140832543373108,0.4743175208568573,-0.6119278073310852
346,1.0288,1.6128,0,0,0.3013763427734375,1.0222930908203125,-0.3337860107421875,1.5364652872085571,-0.22531726956367493,0.12191711366176605
347,1.0244,1.6123,0,0,0.0013885498046875,1.0427093505859375,-0.178436279296875,2.2138290405273438,-0.8507696986198425,1.0348756313323975
348,1.0244,1.5839,0,0,-0.522430419921875,0.954345703125,0.3276214599609375,1.9629968404769897,-0.14684323966503143,1.3691837787628174
349,1.026,1.5283,0,0,-0.699859619140625,0.890533447265625,0.5126190185546875,0.7036782503128052,1.032673954963684,0.9721840023994446
350,1.0268,1.4486,0,0,-0.5465850830078125,0.9190826416015625,0.269012451171875,-0.13331757485866547,1.2336699962615967,0.5131133794784546
351,1.0251,1.3496,0,0,-0.4379730224609375,0.9587554931640625,-0.0167236328125,-0.14412228763103485,0.7189554572105408,0.45231500267982483
352,1.02,1.2373,0,0,-0.4388427734375,0.9598541259765625,-0.092926025390625,0.059049203991889954,0.6170487999916077,0.5172923803329468
353,1.0118,1.1177,0,0,-0.444732666015625,0.8870697021484375,-0.0566253662109375,0.20108330249786377,0.7403470873832703,0.5495315790176392
354,1.0011,0.9964,0,0,-0.43145751953125,0.831787109375,-0.0103302001953125,0.30924785137176514,0.8497523665428162,0.5725333094596863
355,0.9894,0.8783,0,0,-0.4582061767578125,0.797821044921875,0.0087432861328125,0.32099053263664246,0.780799150466919,0.5204163193702698
356,0.9781,0.7673,0,0,-0.439849853515625,0.8027496337890625,0.028656005859375,0.2995174825191498,0.6380667686462402,0.34458401799201965
357,0.9686,0.6666,0,0,-0.41900634765625,0.8102874755859375,0.048492431640625,0.31251049041748047,0.35940638184547424,0.3398608863353729
358,0.962,0.579,0,0,-0.4919891357421875,0.7841644287109375,0.0726776123046875,0.3463132083415985,0.2532200217247009,0.4548546075820923
359,0.9589,0.5072,0,0,-0.55670166015625,0.7709503173828125,0.073699951171875,0.3333446681499481,0.26847806572914124,0.39671486616134644
360,0.9597,0.4541,0,0,-0.536376953125,0.7941436767578125,0.051971435546875,0.3315750062465668,0.3323334753513336,0.27808675169944763
361,0.9643,0.423,0,0,-0.5071868896484375,0.8390655517578125,0.03607177734375,0.44329407811164856,0.19362671673297882,0.2228892743587494
362,0.9728,0.4171,0,0,-0.5321807861328125,0.8864593505859375,0.0212249755859375,0.5485262274742126,-0.06082446873188019,0.19712264835834503
363,0.9847,0.4399,0,0,-0.52880859375,0.8701019287109375,-0.0135040283203125,0.6318669319152832,-0.2762046754360199,0.2156958132982254
364,1.0002,0.4941,0,0,-0.557952880859375,0.95281982421875,0.0331268310546875,0.5183137059211731,-0.12729856371879578,0.1571962833404541
365,1.019,0.5813,0,0,-0.5345458984375,0.9278106689453125,0.0697021484375,0.42880141735076904,0.04953479766845703,0.03646160289645195
366,1.0412,0.7008,0,0,-0.49200439453125,0.9410247802734375,0.145294189453125,0.41997039318084717,-0.019290074706077576,-0.12392354011535645
367,1.0664,0.8495,0,0,-0.395172119140625,0.938446044921875,0.23480224609375,0.155689999461174,-0.11565469205379486,-0.23797129094600677
368,1.0942,1.0215,0,0,-0.3369140625,0.9164886474609375,0.2195892333984375,-0.34480398893356323,0.30305415391921997,-0.18066512048244476
369,1.1234,1.208,0,0,-0.3334503173828125,0.8901824951171875,0.1579742431640625,-0.7620363831520081,0.935158371925354,-0.04632781818509102
370,1.1525,1.3985,0,0,-0.4184112548828125,0.88482666015625,0.046112060546875,-1.1482125520706177,1.3232163190841675,0.03889387100934982
371,1.1792,1.5815,0,0,-0.5251312255859375,0.996124267578125,-0.0149993896484375,-1.3315571546554565,1.6120694875717163,0.009062470868229866
372,1.2011,1.746,0,0,-0.54315185546875,1.130035400390625,0.0152740478515625,-1.5711297988891602,1.2310181856155396,-0.26369768381118774
373,1.2159,1.8822,0,0,-0.431488037109375,1.287322998046875,-0.0129241943359375,-1.869787573814392,0.6937875747680664,-0.3667486906051636
374,1.2217,1.9828,0,0,-0.428924560546875,1.3564300537109375,-0.0828704833984375,-2.073559522628784,0.0214227344840765,-0.13932646811008453
375,1.2172,2.0429,0,0,-0.7002105712890625,1.1551055908203125,-0.160125732421875,-1.7883996963500977,-0.2246227264404297,-0.00780492601916194
376,1.202,2.0605,0,0,-0.76849365234375,0.89288330078125,0.004669189453125,-1.3116004467010498,-0.060566142201423645,-0.5086198449134827
377,1.1769,2.036,0,0,-0.60357666015625,0.85040283203125,0.5021209716796875,-1.337138295173645,0.15724314749240875,-1.1409549713134766
378,1.1431,1.9726,0,0,-0.337005615234375,0.9010162353515625,0.3633575439453125,-2.0856125354766846,0.1581246554851532,-1.450935959815979
379,1.1025,1.8758,0,0,-0.3010711669921875,0.99078369140625,0.0871734619140625,-1.743245005607605,0.06581443548202515,-1.339976191520691
380,1.0573,1.7531,0,0,-0.2828369140625,0.9351043701171875,0.0587158203125,-1.323398232460022,-0.3827444612979889,-1.204143762588501
381,1.0096,1.6135,0,0,-0.334136962890625,0.9102630615234375,0.0859832763671875,-1.0445921421051025,-0.7635341286659241,-1.1047836542129517
382,0.9614,1.4673,0,0,-0.3720245361328125,0.8595123291015625,0.1862945556640625,-0.9915891289710999,-0.7497312426567078,-0.9560596346855164
383,0.9147,1.3242,0,0,-0.4195556640625,0.80609130859375,0.218780517578125,-0.9644866585731506,-0.32442229986190796,-0.6959385871887207
384,0.8713,1.1934,0,0,-0.450653076171875,0.751007080078125,0.188995361328125,-0.8356693387031555,-0.20211021602153778,-0.45637258887290955
385,0.8327,1.0819,0,0,-0.4884033203125,0.70977783203125,0.1052703857421875,-0.6212515830993652,-0.4242679178714752,-0.37046220898628235
386,0.8008,0.9941,0,0,-0.5066070556640625,0.6864013671875,0.0746917724609375,-0.33536094427108765,-0.5492708683013916,-0.3967268466949463
387,0.7771,0.9314,0,0,-0.47509765625,0.669158935546875,0.110870361328125,-0.045642584562301636,-0.5966777801513672,-0.4587039351463318
388,0.7633,0.8926,0,0,-0.36968994140625,0.692352294921875,0.14324951171875,0.2239643931388855,-0.6949816942214966,-0.4567534327507019
389,0.7607,0.8739,0,0,-0.2352447509765625,0.7275238037109375,0.12872314453125,0.46278709173202515,-0.7524191737174988,-0.3201356530189514
390,0.7706,0.8702,0,0,-0.131500244140625,0.7136383056640625,0.0963134765625,0.7465101480484009,-0.6794211268424988,-0.058406583964824677
391,0.7933,0.8761,0,0,-0.147247314453125,0.71051025390625,0.15594482421875,0.9890642166137695,-0.44176727533340454,0.2269071787595749
392,0.8287,0.8864,0,0,-0.2304229736328125,0.742645263671875,0.2803192138671875,0.9882335662841797,-0.1370593160390854,0.44311776757240295
393,0.8758,0.8974,0,0,-0.3043060302734375,0.707489013671875,0.3826904296875,0.708773136138916,0.18526865541934967,0.5535606741905212
394,0.9324,0.9069,0,0,-0.409210205078125,0.672882080078125,0.3963775634765625,0.5329056978225708,0.4201038181781769,0.6415757536888123
395,0.9955,0.9148,0,0,-0.490631103515625,0.6549072265625,0.3966827392578125,0.5583799481391907,0.5332351326942444,0.6484240889549255
396,1.0614,0.9223,0,0,-0.55548095703125,0.66162109375,0.493682861328125,0.6794579029083252,0.4757747948169708,0.5915317535400391
397,1.1259,0.932,0,0,-0.67010498046875,0.720794677734375,0.5996856689453125,0.6439259648323059,0.352073609828949,0.5119365453720093
398,1.1846,0.9467,0,0,-0.82769775390625,0.825042724609375,0.44879150390625,0.3825870454311371,0.6892955899238586,0.3069964349269867
399,1.2335,0.969,0,0,-0.875640869140625,0.877288818359375,0.2349090576171875,0.41202110052108765,0.8416606187820435,0.07172292470932007
400,1.2693,1.0006,0,0,-0.8798828125,0.8819122314453125,0.348785400390625,0.628451406955719,0.2824988067150116,-0.13644146919250488
401,1.2898,1.0418,0,0,-0.9206085205078125,0.81451416015625,0.541534423828125,0.6769523620605469,-0.33208367228507996,-0.3853892385959625
402,1.2942,1.0914,0,0,-0.8714141845703125,0.8238983154296875,0.490234375,0.46739089488983154,0.2916259765625,-0.47790130972862244
403,1.283,1.1469,0,0,-0.794464111328125,0.924468994140625,0.4141845703125,0.5192977786064148,1.3069055080413818,-0.38861486315727234
404,1.2581,1.205,0,0,-0.59552001953125,1.1680908203125,0.315643310546875,0.6402369737625122,0.6498320698738098,-0.3825756013393402
405,1.2228,1.262,0,0,-0.1926422119140625,1.2757110595703125,-0.0112762451171875,0.6488967537879944,-0.9503508806228638,-0.18992732465267181
406,1.1809,1.3152,0,0,-0.22113037109375,1.26776123046875,0.0064544677734375,1.3030027151107788,-1.7203717231750488,0.23496323823928833
407,1.137,1.3625,0,0,-0.5339202880859375,0.8659210205078125,0.3531036376953125,1.0234099626541138,-2.2437424659729004,0.43159136176109314
408,1.0953,1.4031,0,0,-0.6880340576171875,0.7425994873046875,0.0279083251953125,-0.12468227744102478,-1.0687321424484253,0.055683501064777374
409,1.0592,1.437,0,0,-0.418304443359375,0.7457122802734375,-0.232452392578125,-0.6844406723976135,-0.2995702028274536,-0.5500948429107666
410,1.0314,1.4645,0,0,-0.124267578125,0.84527587890625,-0.3170318603515625,-0.5531135201454163,0.039506129920482635,-0.6987136006355286
411,1.0128,1.4852,0,0,0.0827789306640625,0.898040771484375,-0.4175567626953125,0.23875531554222107,-0.44296810030937195,-0.4504486620426178
412,1.0033,1.4981,0,0,0.0385894775390625,0.91644287109375,-0.3919525146484375,1.169761061668396,-0.6505056023597717,0.23658138513565063
413,1.0014,1.5014,0,0,-0.2523651123046875,0.8883209228515625,-0.2377166748046875,1.6541295051574707,-0.29571953415870667,0.6997452974319458
414,1.0049,1.4927,0,0,-0.4255218505859375,0.889801025390625,-0.13568115234375,1.9411253929138184,0.08714742213487625,0.5685784816741943
415,1.0109,1.4701,0,0,-0.45855712890625,0.982818603515625,0.0569915771484375,2.133960723876953,0.012937103398144245,0.4319583475589752
416,1.0169,1.4323,0,0,-0.4735565185546875,0.9755859375,0.51385498046875,1.8640873432159424,-0.20278826355934143,0.39937055110931396
417,1.0207,1.3793,0,0,-0.482330322265625,0.907623291015625,0.6332855224609375,0.5268124341964722,-0.009674998000264168,0.39045190811157227
418,1.021,1.3119,0,0,-0.4358367919921875,0.8912200927734375,0.1669464111328125,-0.6083956956863403,0.6332837343215942,0.3542739152908325
419,1.0174,1.2316,0,0,-0.3686981201171875,0.872772216796875,-0.1664581298828125,-0.6712595820426941,0.7844935059547424,0.4114706218242645
420,1.0102,1.1408,0,0,-0.3957366943359375,0.8225555419921875,-0.2444305419921875,-0.11437584459781647,0.6451720595359802,0.5591011047363281
421,1.0005,1.0418,0,0,-0.465667724609375,0.8021240234375,-0.1721954345703125,0.45774146914482117,0.568225622177124,0.665363609790802
422,0.9898,0.9379,0,0,-0.5355987548828125,0.794708251953125,-0.02777099609375,0.721927285194397,0.7574251294136047,0.653852105140686
423,0.9799,0.8325,0,0,-0.5935821533203125,0.766387939453125,0.116455078125,0.6838204264640808,0.8755229711532593,0.5539899468421936
424,0.9722,0.7302,0,0,-0.6126708984375,0.743255615234375,0.199951171875,0.5153213739395142,0.6300551891326904,0.3467952311038971
425,0.9681,0.6361,0,0,-0.5268707275390625,0.799102783203125,0.14569091796875,0.3543066680431366,0.18607959151268005,0.17498832941055298
426,0.9687,0.556,0,0,-0.4781036376953125,0.8283233642578125,0.049591064453125,0.33570078015327454,-0.0830211192369461,0.1903369277715683
427,0.9746,0.4958,0,0,-0.4805145263671875,0.848236083984375,-0.0032958984375,0.46721991896629333,-0.2584611177444458,0.17132382094860077
428,0.9858,0.4612,0,0,-0.464385986328125,0.8667755126953125,-0.0042572021484375,0.5560062527656555,-0.30842867493629456,0.14534680545330048
429,1.0019,0.4569,0,0,-0.45880126953125,0.8974456787109375,0.0204925537109375,0.49881458282470703,-0.17181995511054993,0.16844360530376434
430,1.0222,0.4861,0,0,-0.4883270263671875,0.9025115966796875,0.0546417236328125,0.3376573920249939,0.04529371112585068,0.18629956245422363
431,1.0455,0.55,0,0,-0.5059661865234375,0.9174041748046875,0.065338134765625,0.1408950686454773,0.2583569884300232,0.13435859978199005
432,1.0704,0.6475,0,0,-0.5106658935546875,0.949066162109375,0.08795166015625,0.0219095591455698,0.3978080749511719,0.03193769231438637
433,1.0953,0.775,0,0,-0.4805908203125,0.9434967041015625,0.1360015869140625,-0.1587182730436325,0.46441322565078735,-0.06111608445644379
434,1.1186,0.9266,0,0,-0.47955322265625,0.9264678955078125,0.15496826171875,-0.4749806225299835,0.7178713083267212,-0.08190258592367172
435,1.1389,1.0944,0,0,-0.5369720458984375,0.9239959716796875,0.0940399169921875,-0.868368923664093,1.1181070804595947,-0.07177485525608063
436,1.1548,1.2694,0,0,-0.61041259765625,1.012481689453125,-0.00787353515625,-1.1121826171875,1.3244147300720215,-0.1376633197069168
437,1.1656,1.4421,0,0,-0.6340484619140625,1.134796142578125,-0.0400238037109375,-1.2390093803405762,1.2076306343078613,-0.3293435275554657
438,1.1708,1.6033,0,0,-0.580322265625,1.1795501708984375,-0.041961669921875,-1.1903281211853027,0.5308297872543335,-0.45633265376091003
439,1.1706,1.7441,0,0,-0.496917724609375,1.17169189453125,-0.082275390625,-1.3605046272277832,-0.3667324483394623,-0.4876122772693634
440,1.1653,1.857,0,0,-0.5177764892578125,1.00750732421875,-0.1326446533203125,-1.2891899347305298,-0.619034469127655,-0.25978684425354004
441,1.1555,1.9358,0,0,-0.514068603515625,0.8235015869140625,0.0695037841796875,-1.1408464908599854,-0.656981885433197,-0.4719483554363251
442,1.1419,1.9762,0,0,-0.3546905517578125,0.8211517333984375,0.7306060791015625,-2.0244877338409424,-0.6157665252685547,-0.739560067653656
443,1.1246,1.9766,0,0,-0.361663818359375,0.8243560791015625,0.1244354248046875,-2.4669830799102783,0.13601775467395782,-0.9989802241325378
444,1.1037,1.938,0,0,-0.31927490234375,0.9291839599609375,0.0949859619140625,-1.9293185472488403,0.19407014548778534,-1.045661211013794
445,1.0788,1.8646,0,0,-0.3411407470703125,0.993865966796875,0.2418975830078125,-1.6376150846481323,-0.11513111740350723,-1.0350027084350586
446,1.0496,1.7635,0,0,-0.371856689453125,1.013702392578125,0.14556884765625,-1.527513027191162,-0.46961358189582825,-0.9904732704162598
447,1.0158,1.6437,0,0,-0.47674560546875,1.0319671630859375,0.1019134521484375,-1.1682840585708618,-0.7916025519371033,-0.859929621219635
448,0.9777,1.5159,0,0,-0.5718536376953125,0.974517822265625,0.19085693359375,-0.9207456111907959,-0.7937402725219727,-0.7141612768173218
449,0.9364,1.3903,0,0,-0.545928955078125,0.8352508544921875,0.2859039306640625,-0.8347121477127075,-0.35476768016815186,-0.6462221741676331
450,0.8938,1.2762,0,0,-0.4637298583984375,0.741607666015625,0.246673583984375,-0.7817911505699158,-0.23955506086349487,-0.6712039709091187
451,0.8526,1.1805,0,0,-0.4113616943359375,0.698974609375,0.177337646484375,-0.5509496927261353,-0.5406044125556946,-0.6236047148704529
452,0.816,1.1074,0,0,-0.4045257568359375,0.671905517578125,0.1659393310546875,-0.2609437108039856,-0.7920280694961548,-0.5704741477966309
453,0.7874,1.0578,0,0,-0.366241455078125,0.6333160400390625,0.1822509765625,-0.0014831144362688065,-0.9298908710479736,-0.5374618768692017
454,0.7697,1.03,0,0,-0.3318023681640625,0.6263580322265625,0.1849517822265625,0.1644214391708374,-0.9674880504608154,-0.4742186963558197
455,0.7654,1.0198,0,0,-0.248687744140625,0.642425537109375,0.135223388671875,0.38164404034614563,-0.9619534611701965,-0.38581135869026184
456,0.7757,1.0216,0,0,-0.16607666015625,0.668212890625,0.118682861328125,0.6474131345748901,-0.8824591636657715,-0.18705298006534576
457,0.8007,1.029,0,0,-0.1408843994140625,0.694000244140625,0.1689605712890625,0.855504035949707,-0.6164538860321045,0.11524643003940582
458,0.8394,1.0359,0,0,-0.1916351318359375,0.7193603515625,0.3273468017578125,0.8701180815696716,-0.19124159216880798,0.4289798438549042
459,0.8893,1.0372,0,0,-0.3004302978515625,0.716949462890625,0.515167236328125,0.610669732093811,0.3004700839519501,0.6655538082122803
460,0.9472,1.0296,0,0,-0.4177093505859375,0.722015380859375,0.549407958984375,0.35330986976623535,0.6972925066947937,0.7611162662506104
461,1.0092,1.0117,0,0,-0.526123046875,0.7078704833984375,0.5292510986328125,0.3029513359069824,0.8323749899864197,0.8188562393188477
462,1.0713,0.9847,0,0,-0.6339569091796875,0.70599365234375,0.51873779296875,0.31259599328041077,0.7478837966918945,0.8089474439620972
463,1.1295,0.952,0,0,-0.7164154052734375,0.713409423828125,0.545013427734375,0.4394918978214264,0.7265790700912476,0.6955438852310181
464,1.1803,0.9186,0,0,-0.8072662353515625,0.73333740234375,0.60064697265625,0.6750186681747437,0.5269980430603027,0.5121583938598633
465,1.2211,0.8911,0,0,-0.8224334716796875,0.7745208740234375,0.54034423828125,0.5462103486061096,0.5441943407058716,0.31495875120162964
466,1.2498,0.8761,0,0,-0.7693634033203125,0.7735137939453125,0.428863525390625,0.4090655446052551,0.6167689561843872,0.17038984596729279
467,1.2656,0.8797,0,0,-0.774932861328125,0.71624755859375,0.553680419921875,0.6136810183525085,0.42294299602508545,0.09212353825569153
468,1.2687,0.9064,0,0,-0.81121826171875,0.7289886474609375,0.662200927734375,0.5156852006912231,0.21711154282093048,-0.06245192512869835
469,1.26,0.9586,0,0,-0.7653350830078125,0.9703826904296875,0.4946746826171875,0.3849487602710724,0.7014793157577515,-0.23884133994579315
470,1.2416,1.0366,0,0,-0.5434722900390625,1.1609344482421875,0.261871337890625,0.3032616078853607,0.5931528210639954,-0.4097859263420105
471,1.2159,1.1382,0,0,-0.3892059326171875,1.2650909423828125,0.0102691650390625,0.3052147626876831,-0.14147430658340454,-0.5303938388824463
472,1.1862,1.2595,0,0,-0.0965118408203125,1.1846923828125,0.29315185546875,0.7141889333724976,-1.8720676898956299,-0.11855380982160568
473,1.1556,1.3952,0,0,-0.5014190673828125,0.9074554443359375,0.0679779052734375,0.40896087884902954,-2.720576047897339,0.24252209067344666
474,1.1269,1.5392,0,0,-0.5984344482421875,0.8427581787109375,-0.1416168212890625,-0.21965911984443665,-1.9457390308380127,0.005368666257709265
475,1.1027,1.6845,0,0,-0.447998046875,0.8788299560546875,-0.272674560546875,-0.7204380631446838,-0.9279736876487732,-0.3913864195346832
476,1.0845,1.8239,0,0,-0.23895263671875,0.905853271484375,-0.363983154296875,-0.6978667378425598,-0.16347788274288177,-0.5083450078964233
477,1.0728,1.9488,0,0,-0.142791748046875,1.00933837890625,-0.50408935546875,-0.05101658031344414,0.36900147795677185,-0.21416261792182922
478,1.0676,2.0506,0,0,-0.15911865234375,0.988250732421875,-0.5098419189453125,1.3880372047424316,0.7792459726333618,0.4362625479698181
479,1.0675,2.1204,0,0,-0.3392333984375,0.9235992431640625,-0.2840728759765625,2.561105728149414,0.1808139830827713,0.7663219571113586
480,1.0711,2.151,0,0,-0.3853759765625,0.9115753173828125,-0.0516204833984375,3.3614487648010254,-0.6604408025741577,0.5298992991447449
481,1.0763,2.1376,0,0,-0.3284912109375,0.9041595458984375,0.388397216796875,3.3886237144470215,-1.0301226377487183,0.3760058581829071
482,1.0811,2.079,0,0,-0.303955078125,0.889678955078125,0.9066925048828125,2.094731092453003,-0.5578526258468628,0.43270668387413025
483,1.0836,1.9779,0,0,-0.3349761962890625,0.86651611328125,0.7395477294921875,0.07355570793151855,0.34226253628730774,0.5800188779830933
484,1.0827,1.8401,0,0,-0.4019927978515625,0.88739013671875,0.2371826171875,-1.0749825239181519,1.0252104997634888,0.7502462863922119
485,1.0776,1.6739,0,0,-0.487518310546875,0.868499755859375,-0.1337738037109375,-1.1114457845687866,1.0613999366760254,0.7455375790596008
486,1.0681,1.4889,0,0,-0.5450592041015625,0.8472442626953125,-0.290771484375,-0.4033767580986023,0.7568248510360718,0.6023401618003845
487,1.055,1.2951,0,0,-0.5488739013671875,0.8835296630859375,-0.2622833251953125,0.5153810381889343,0.43538662791252136,0.5151618719100952
488,1.0392,1.1027,0,0,-0.542572021484375,0.909332275390625,-0.10906982421875,1.19607675075531,0.24935869872570038,0.5004433989524841
489,1.0223,0.9213,0,0,-0.576202392578125,0.8618621826171875,0.1406097412109375,1.3745160102844238,0.3883621096611023,0.5124723315238953
490,1.0062,0.76,0,0,-0.6060638427734375,0.802825927734375,0.339630126953125,0.9833575487136841,0.5107445120811462,0.3881267011165619
491,0.9927,0.6272,0,0,-0.55328369140625,0.7697601318359375,0.312225341796875,0.49320170283317566,0.2716296315193176,0.16794106364250183
492,0.9838,0.53,0,0,-0.4675140380859375,0.780517578125,0.136993408203125,0.29397037625312805,-0.1470850557088852,0.014129401184618473
493,0.981,0.4744,0,0,-0.418243408203125,0.8232879638671875,0.042388916015625,0.31822270154953003,-0.36723047494888306,0.017348896712064743
494,0.9853,0.4639,0,0,-0.4308929443359375,0.8557281494140625,0.041229248046875,0.3198208808898926,-0.2766406536102295,0.09893803298473358
495,0.9971,0.4995,0,0,-0.471588134765625,0.890289306640625,0.058807373046875,0.23395070433616638,0.0049582733772695065,0.12844160199165344
496,1.0161,0.5795,0,0,-0.49688720703125,0.9036865234375,0.083892822265625,0.14862117171287537,0.3332810401916504,0.11422883719205856
497,1.0414,0.6989,0,0,-0.5035400390625,0.9169921875,0.113372802734375,0.011656123213469982,0.6186440587043762,0.08532368391752243
498,1.0713,0.8503,0,0,-0.5361480712890625,0.922607421875,0.145904541015625,-0.19648855924606323,0.7953365445137024,0.03966885060071945
499,1.1037,1.0238,0,0,-0.57562255859375,0.910797119140625,0.1467742919921875,-0.4110668897628784,0.8550006747245789,-0.10268829762935638
500,1.1362,1.2084,0,0,-0.6053619384765625,0.886138916015625,0.1308135986328125,-0.6706739664077759,1.0019861459732056,-0.2509336769580841
501,1.166,1.3926,0,0,-0.619049072265625,0.9133453369140625,0.04852294921875,-1.0351253747940063,1.2197415828704834,-0.4899670481681824
502,1.1907,1.5653,0,0,-0.5965118408203125,1.0169677734375,-0.037750244140625,-1.2586532831192017,1.322650671005249,-0.8167939186096191
503,1.2079,1.7168,0,0,-0.5573272705078125,1.1586456298828125,-0.0933380126953125,-1.2482430934906006,1.0248667001724243,-1.1044632196426392
504,1.2159,1.839,0,0,-0.506866455078125,1.2490234375,-0.104888916015625,-1.2355804443359375,0.3001342713832855,-1.1343261003494263
505,1.2137,1.9258,0,0,-0.4284210205078125,1.212921142578125,-0.1506195068359375,-1.2852351665496826,-0.1307297796010971,-0.9612551927566528
506,1.201,1.9734,0,0,-0.4246673583984375,1.0921478271484375,-0.16033935546875,-1.0409082174301147,-0.34389424324035645,-0.8117139339447021
507,1.1783,1.98,0,0,-0.3765869140625,0.9587554931640625,0.16546630859375,-0.7600515484809875,-0.5581271648406982,-0.9586445093154907
508,1.1467,1.9466,0,0,-0.298248291015625,0.9634246826171875,0.757781982421875,-1.9921917915344238,-0.5910816788673401,-1.2137646675109863
509,1.1077,1.8763,0,0,-0.2507781982421875,0.9118194580078125,0.2015380859375,-2.3269295692443848,0.4922618865966797,-1.2924771308898926
510,1.0634,1.7754,0,0,-0.2520904541015625,0.9779205322265625,0.1248016357421875,-1.88408362865448,0.6624269485473633,-1.0840961933135986
511,1.0157,1.6527,0,0,-0.302825927734375,0.9239349365234375,0.1180267333984375,-1.3819656372070312,0.3028152585029602,-0.9182853698730469
512,0.967,1.5187,0,0,-0.35150146484375,0.9192352294921875,0.112579345703125,-1.2107313871383667,-0.3645942211151123,-0.8396946787834167
513,0.9194,1.385,0,0,-0.4023590087890625,0.8426513671875,0.1349945068359375,-0.9908458590507507,-0.48867887258529663,-0.6634179353713989
514,0.8753,1.2626,0,0,-0.5159912109375,0.7385711669921875,0.20452880859375,-0.9475774765014648,-0.1254655122756958,-0.31758809089660645
515,0.8369,1.1607,0,0,-0.6002349853515625,0.6475982666015625,0.1772308349609375,-0.9046457409858704,0.12255893647670746,-0.19990113377571106
516,0.8064,1.0852,0,0,-0.5769805908203125,0.59979248046875,0.1253814697265625,-0.6281813979148865,-0.22222907841205597,-0.31678274273872375
517,0.7858,1.0382,0,0,-0.524810791015625,0.59625244140625,0.1376190185546875,-0.26552435755729675,-0.585341215133667,-0.3612506091594696
518,0.7769,1.018,0,0,-0.48675537109375,0.6085052490234375,0.160491943359375,0.03867948427796364,-0.7465892434120178,-0.3215772211551666
519,0.7807,1.0193,0,0,-0.40960693359375,0.6334228515625,0.1266326904296875,0.3191966414451599,-0.8544432520866394,-0.29468223452568054
520,0.7974,1.0345,0,0,-0.3287353515625,0.6552581787109375,0.08892822265625,0.6600290536880493,-0.9299846291542053,-0.22804968059062958
521,0.8266,1.0552,0,0,-0.2501373291015625,0.6800537109375,0.1133575439453125,1.001734972000122,-0.861785352230072,-0.09727488458156586
522,0.8666,1.0733,0,0,-0.2127838134765625,0.7129058837890625,0.20794677734375,1.2403792142868042,-0.7040364742279053,0.1462797075510025
523,0.9149,1.0829,0,0,-0.2689208984375,0.7376708984375,0.3230743408203125,1.2554529905319214,-0.41832268238067627,0.4463431239128113
524,0.9682,1.0808,0,0,-0.378692626953125,0.7541961669921875,0.440185546875,1.0308356285095215,0.07772675156593323,0.6729613542556763
525,1.0228,1.0668,0,0,-0.539337158203125,0.757781982421875,0.5509490966796875,0.6797215342521667,0.663486123085022,0.7672537565231323
526,1.075,1.0439,0,0,-0.658172607421875,0.7291717529296875,0.6157684326171875,0.40388089418411255,0.8738721013069153,0.6858074069023132
527,1.1216,1.017,0,0,-0.73052978515625,0.7317352294921875,0.6721343994140625,0.36337020993232727,0.584511399269104,0.5168313980102539
528,1.1598,0.9922,0,0,-0.8446502685546875,0.777557373046875,0.508026123046875,0.007635815534740686,0.5795493721961975,0.2678285241127014
529,1.1881,0.9754,0,0,-0.8261260986328125,0.810211181640625,0.21722412109375,-0.022597720846533775,0.8199177980422974,0.03891810402274132
530,1.2056,0.9715,0,0,-0.8175811767578125,0.7942352294921875,0.323760986328125,0.3519369959831238,0.49866971373558044,-0.05366189777851105
531,1.2127,0.9833,0,0,-0.8126373291015625,0.718780517578125,0.57672119140625,0.44922226667404175,0.061291586607694626,-0.21419484913349152
532,1.2105,1.0117,0,0,-0.74774169921875,0.7189178466796875,0.4141387939453125,0.30911338329315186,0.8517705202102661,-0.15398477017879486
533,1.2004,1.0555,0,0,-0.7741851806640625,0.705291748046875,0.2801361083984375,0.5395132899284363,1.7570295333862305,-0.036683712154626846
534,1.1846,1.1123,0,0,-0.8247528076171875,0.8004150390625,0.3731536865234375,0.7752419114112854,0.9550167322158813,-0.37236344814300537
535,1.1651,1.179,0,0,-0.5216064453125,1.09625244140625,0.2183074951171875,0.7328904867172241,-0.3906441926956177,-0.7720280289649963
536,1.1439,1.2518,0,0,-0.239990234375,1.204620361328125,0.0697784423828125,0.8007289171218872,-0.7368735074996948,-0.45532065629959106
537,1.1228,1.3276,0,0,-0.3133392333984375,1.048431396484375,0.3818206787109375,0.25199761986732483,-1.93645441532135,0.16535674035549164
538,1.1035,1.403,0,0,-0.5463409423828125,0.8105010986328125,-0.15606689453125,-0.5770095586776733,-1.4018429517745972,0.3449922800064087
539,1.0869,1.4749,0,0,-0.551544189453125,0.8587493896484375,-0.3065338134765625,-0.7654209733009338,-1.0650734901428223,0.13281770050525665
540,1.0736,1.5396,0,0,-0.409027099609375,0.807647705078125,-0.3950347900390625,-0.23102736473083496,-0.782440185546875,-0.22912266850471497
541,1.0636,1.5934,0,0,-0.2555999755859375,0.9160308837890625,-0.4019927978515625,0.5277554392814636,-0.633151113986969,-0.2646252512931824
542,1.0565,1.6319,0,0,-0.1795806884765625,1.037322998046875,-0.3434600830078125,1.2103888988494873,-0.4952467679977417,0.04729853942990303
543,1.0515,1.6509,0,0,-0.21392822265625,1.0372161865234375,-0.2474212646484375,1.7435460090637207,-0.37546682357788086,0.50606769323349
544,1.0476,1.6471,0,0,-0.339111328125,0.992462158203125,-0.1349639892578125,1.997939109802246,-0.3273791968822479,0.8575109839439392
545,1.044,1.6188,0,0,-0.4461517333984375,0.9514923095703125,-0.025543212890625,2.329143762588501,0.11915621906518936,0.865524172782898
546,1.04,1.5665,0,0,-0.4696807861328125,0.8559417724609375,0.378662109375,2.1711952686309814,0.5615352392196655,0.8143389821052551
547,1.0351,1.4933,0,0,-0.446563720703125,0.766265869140625,0.884674072265625,0.7770435810089111,0.6720724105834961,0.6488656401634216
548,1.0291,1.404,0,0,-0.39788818359375,0.777252197265625,0.35882568359375,-0.6896705627441406,0.5540323257446289,0.4510859549045563
549,1.0221,1.3045,0,0,-0.391021728515625,0.8216400146484375,-0.0905303955078125,-0.726556122303009,0.2937690317630768,0.45856544375419617
550,1.0144,1.2005,0,0,-0.447509765625,0.8175201416015625,-0.2139739990234375,-0.13107413053512573,-0.048649828881025314,0.5819553136825562
551,1.0065,1.0971,0,0,-0.5518646240234375,0.8048248291015625,-0.17596435546875,0.43765777349472046,-0.24166162312030792,0.5856813192367554
552,0.9988,0.9978,0,0,-0.6050872802734375,0.81585693359375,-0.08416748046875,0.6812938451766968,0.0738728940486908,0.4415995180606842
553,0.9918,0.9051,0,0,-0.6132659912109375,0.8149261474609375,0.0066680908203125,0.6805441975593567,0.7148768305778503,0.38084882497787476
554,0.9858,0.8206,0,0,-0.607421875,0.805450439453125,0.088134765625,0.5523619651794434,1.2653250694274902,0.32243555784225464
555,0.9815,0.7461,0,0,-0.5463409423828125,0.8031158447265625,0.1596527099609375,0.4288482964038849,1.2436184883117676,0.23344843089580536
556,0.9792,0.6838,0,0,-0.5018463134765625,0.7938690185546875,0.1777191162109375,0.38951659202575684,0.5397130250930786,0.13247708976268768
557,0.9795,0.6369,0,0,-0.459228515625,0.8279266357421875,0.1326446533203125,0.39071714878082275,-0.20358295738697052,0.0658131018280983
558,0.983,0.609,0,0,-0.4391326904296875,0.864776611328125,0.0920562744140625,0.29762423038482666,-0.6117646098136902,0.10803192853927612
559,0.9901,0.6042,0,0,-0.4591064453125,0.900543212890625,0.049407958984375,0.09060207009315491,-0.5889892578125,0.25325995683670044
560,1.0014,0.6263,0,0,-0.534576416015625,0.9097442626953125,-0.0022430419921875,-0.11286529898643494,-0.14079174399375916,0.3726220428943634
561,1.0171,0.6777,0,0,-0.5936126708984375,0.905853271484375,-0.0218505859375,-0.20061245560646057,0.3734673261642456,0.3532238304615021
562,1.0375,0.7593,0,0,-0.6058349609375,0.90155029296875,-0.0047760009765625,-0.14215686917304993,0.7274211645126343,0.20854975283145905
563,1.0624,0.8697,0,0,-0.5692596435546875,0.8632049560546875,0.0662689208984375,-0.04555816203355789,0.7434232831001282,-5.5393749789800495e-05
564,1.0912,1.0051,0,0,-0.502227783203125,0.8711395263671875,0.178009033203125,-0.10644788295030594,0.671787440776825,-0.14558835327625275
565,1.1226,1.1593,0,0,-0.4626617431640625,0.8908538818359375,0.25885009765625,-0.5059268474578857,0.872409462928772,-0.07156260311603546
566,1.1548,1.3245,0,0,-0.511932373046875,0.86865234375,0.139801025390625,-1.1626777648925781,1.1593682765960693,-0.014091051183640957
567,1.1854,1.4914,0,0,-0.6016845703125,0.93939208984375,-0.002899169921875,-1.450185775756836,1.3371566534042358,-0.19795435667037964
568,1.2117,1.65,0,0,-0.647369384765625,1.1472930908203125,-0.057586669921875,-1.4722620248794556,0.8859034776687622,-0.5439684987068176
569,1.2309,1.7906,0,0,-0.5713958740234375,1.2053680419921875,-0.1507110595703125,-1.4786025285720825,-0.03868614137172699,-0.7377443313598633
570,1.2404,1.9044,0,0,-0.54791259765625,1.1503143310546875,-0.1941375732421875,-1.2008187770843506,-0.5000612139701843,-0.6351958513259888
571,1.2381,1.9836,0,0,-0.558013916015625,1.03131103515625,-0.1610107421875,-0.8305355310440063,-0.8122990131378174,-0.7313439846038818
572,1.2229,2.0228,0,0,-0.4246063232421875,0.9467010498046875,0.857147216796875,-1.0772918462753296,-0.8562369346618652,-0.9334478378295898
573,1.1945,2.0191,0,0,-0.4413604736328125,0.902862548828125,0.469390869140625,-2.5129284858703613,0.30698949098587036,-1.2716796398162842
574,1.1538,1.9733,0,0,-0.45050048828125,0.94915771484375,0.1666107177734375,-2.17415189743042,0.6219772696495056,-1.4412755966186523
575,1.1027,1.8897,0,0,-0.506103515625,1.0654754638671875,0.1970367431640625,-1.569529414176941,0.1968211829662323,-1.5533256530761719
576,1.0439,1.7764,0,0,-0.440643310546875,1.00341796875,0.105560302734375,-1.082659363746643,-0.14689411222934723,-1.485244870185852
577,0.981,1.6444,0,0,-0.4412384033203125,0.93231201171875,0.135955810546875,-0.7652044892311096,-0.49300864338874817,-1.2607237100601196
578,0.9182,1.5062,0,0,-0.4391326904296875,0.7887725830078125,0.156005859375,-0.76002037525177,-0.6733805537223816,-1.0575265884399414
579,0.8595,1.3747,0,0,-0.44647216796875,0.667572021484375,0.2021331787109375,-0.7941287755966187,-0.318111389875412,-0.8217157125473022
580,0.809,1.2607,0,0,-0.4440765380859375,0.603363037109375,0.135009765625,-0.7477186918258667,-0.19934239983558655,-0.6169121861457825
581,0.7703,1.1723,0,0,-0.433074951171875,0.567779541015625,0.0895233154296875,-0.4973407983779907,-0.41797754168510437,-0.47576093673706055
582,0.746,1.1135,0,0,-0.4446868896484375,0.5689544677734375,0.1087799072265625,-0.19325308501720428,-0.651158332824707,-0.3455936312675476
583,0.7376,1.0838,0,0,-0.448211669921875,0.5796966552734375,0.11712646484375,0.0724334567785263,-0.8002636432647705,-0.27774107456207275
584,0.7455,1.079,0,0,-0.4124908447265625,0.6000213623046875,0.12371826171875,0.38861992955207825,-0.9108703136444092,-0.24180756509304047
585,0.7689,1.0918,0,0,-0.335418701171875,0.63446044921875,0.118896484375,0.7506346106529236,-0.9236348867416382,-0.1838846206665039
586,0.8057,1.1133,0,0,-0.2829437255859375,0.6684722900390625,0.1436920166015625,1.1137137413024902,-0.8617104887962341,-0.07558929920196533
587,0.8532,1.1346,0,0,-0.2833251953125,0.71331787109375,0.23883056640625,1.3796439170837402,-0.7421609163284302,0.07840000092983246
588,0.9078,1.1484,0,0,-0.3530426025390625,0.757781982421875,0.3769378662109375,1.4389879703521729,-0.48781973123550415,0.31733959913253784
589,0.9659,1.1497,0,0,-0.4897003173828125,0.7736358642578125,0.5520172119140625,1.1694608926773071,-0.03934341296553612,0.5591282844543457
590,1.0238,1.1363,0,0,-0.6641998291015625,0.727447509765625,0.6525421142578125,0.5859603881835938,0.6478570699691772,0.5805619359016418
591,1.0784,1.1092,0,0,-0.6993560791015625,0.7002410888671875,0.5723724365234375,0.11153185367584229,1.011441946029663,0.4759122133255005
592,1.1269,1.0713,0,0,-0.6930694580078125,0.6891021728515625,0.53961181640625,0.3257453441619873,0.8367041945457458,0.351130872964859
593,1.1675,1.0273,0,0,-0.7368316650390625,0.711578369140625,0.485137939453125,0.4403534233570099,0.5053790211677551,0.28802940249443054
594,1.1987,0.9824,0,0,-0.7484283447265625,0.7909088134765625,0.285491943359375,0.3887549340724945,0.6163396239280701,0.19105783104896545
595,1.2199,0.9419,0,0,-0.71966552734375,0.7660980224609375,0.2234649658203125,0.5085703134536743,0.4534452557563782,0.23880085349082947
596,1.2308,0.9103,0,0,-0.8382415771484375,0.660797119140625,0.5627899169921875,0.6542981863021851,0.2791655957698822,0.2302989810705185
597,1.2317,0.8915,0,0,-0.8444061279296875,0.6832427978515625,0.5262298583984375,0.2410466969013214,0.8840091824531555,0.0857149064540863
598,1.2234,0.8885,0,0,-0.7977447509765625,0.864776611328125,0.3457794189453125,0.4108533263206482,1.6450161933898926,0.13218733668327332
599,1.2072,0.9039,0,0,-0.7757720947265625,1.0379638671875,0.351409912109375,0.580033004283905,0.335963636636734,-0.04948792606592178
600,1.1849,0.9394,0,0,-0.5953216552734375,1.21783447265625,0.2624053955078125,0.5678008794784546,-0.5613365769386292,-0.14278803765773773
601,1.1588,0.9965,0,0,-0.4306488037109375,1.1537322998046875,0.348968505859375,0.3413408100605011,-0.7904959917068481,-0.03388259932398796
602,1.1316,1.0756,0,0,-0.5272674560546875,0.8521881103515625,0.1379547119140625,-0.6183479428291321,-1.5715422630310059,0.18151280283927917
603,1.1057,1.1762,0,0,-0.6050567626953125,0.778839111328125,-0.2447967529296875,-1.186745047569275,-1.1316328048706055,-0.05493009462952614
604,1.0834,1.2963,0,0,-0.440399169921875,0.7832489013671875,-0.3366546630859375,-1.156328797340393,-0.4828436076641083,-0.4478454291820526
605,1.0662,1.4317,0,0,-0.2612457275390625,0.8538665771484375,-0.4390869140625,-0.5941882729530334,0.01587989740073681,-0.6044257283210754
606,1.0551,1.5756,0,0,-0.14178466796875,0.9332733154296875,-0.4676971435546875,0.268760085105896,0.11333135515451431,-0.37560132145881653
607,1.0498,1.7191,0,0,-0.109619140625,0.9980926513671875,-0.36083984375,1.028043270111084,-0.13828144967556,0.10140305012464523
608,1.0497,1.8512,0,0,-0.2299652099609375,0.98602294921875,-0.2850799560546875,1.8844802379608154,-0.4702492654323578,0.3565378785133362
609,1.0531,1.96,0,0,-0.3280792236328125,0.9611968994140625,-0.14056396484375,2.324521780014038,-0.778849720954895,0.5906760692596436
610,1.0583,2.0347,0,0,-0.381378173828125,0.9670257568359375,-0.048614501953125,2.564127206802368,-0.49735864996910095,0.6351266503334045
611,1.0636,2.0669,0,0,-0.405059814453125,0.9695281982421875,0.078155517578125,2.6458208560943604,-0.2243899554014206,0.7765654921531677
612,1.0672,2.0516,0,0,-0.480621337890625,0.9239044189453125,0.554443359375,2.3773605823516846,0.025770610198378563,0.8958532810211182
613,1.0682,1.9882,0,0,-0.5723724365234375,0.742279052734375,0.98614501953125,0.6348773837089539,0.6384246945381165,0.9359575510025024
614,1.066,1.88,0,0,-0.5540924072265625,0.7720489501953125,0.3362274169921875,-1.0940403938293457,1.1846965551376343,0.6837894916534424
615,1.0608,1.734,0,0,-0.4900970458984375,0.79290771484375,-0.1432647705078125,-1.1813652515411377,1.17657470703125,0.583388090133667
616,1.0532,1.5594,0,0,-0.5002899169921875,0.7935028076171875,-0.2649688720703125,-0.5167379379272461,0.7875550389289856,0.7397971153259277
617,1.0441,1.3671,0,0,-0.563812255859375,0.7958221435546875,-0.2375335693359375,0.22608213126659393,0.5179808139801025,0.824432373046875
618,1.0346,1.1683,0,0,-0.6443939208984375,0.7716827392578125,-0.1251678466796875,0.7531960010528564,0.52712082862854,0.800075113773346
619,1.0259,0.9744,0,0,-0.7353515625,0.7177276611328125,0.052947998046875,0.9635636210441589,0.7049728035926819,0.6461108326911926
620,1.0189,0.7959,0,0,-0.7082366943359375,0.7247772216796875,0.2479400634765625,0.8002543449401855,0.5507699251174927,0.2164825052022934
621,1.0144,0.6424,0,0,-0.580963134765625,0.791473388671875,0.2700347900390625,0.4556761682033539,0.08139738440513611,-0.1485026478767395
622,1.013,0.5219,0,0,-0.492828369140625,0.8716888427734375,0.148895263671875,0.25492602586746216,-0.32113727927207947,-0.2392197698354721
623,1.015,0.4405,0,0,-0.488494873046875,0.8828125,0.0562744140625,0.2162039428949356,-0.5075345635414124,-0.10510911047458649
624,1.0209,0.4022,0,0,-0.5503692626953125,0.888458251953125,0.0327911376953125,0.15251630544662476,-0.43868041038513184,0.006960437633097172
625,1.0305,0.4087,0,0,-0.61126708984375,0.8865203857421875,0.0302886962890625,0.043124567717313766,-0.10808385908603668,0.0005241101025603712
626,1.0439,0.4588,0,0,-0.614501953125,0.884033203125,0.054046630859375,-0.061706241220235825,0.3263845145702362,-0.09455127269029617
627,1.0607,0.5493,0,0,-0.5559844970703125,0.897247314453125,0.077362060546875,-0.18413016200065613,0.5731367468833923,-0.1663636714220047
628,1.0803,0.6742,0,0,-0.515167236328125,0.891143798828125,0.1032257080078125,-0.24074895679950714,0.6340126395225525,-0.15669001638889313
629,1.102,0.826,0,0,-0.4973297119140625,0.8737335205078125,0.119720458984375,-0.368882954120636,0.563080906867981,-0.15287770330905914
630,1.1248,0.9957,0,0,-0.4999847412109375,0.8660125732421875,0.090667724609375,-0.6849234700202942,0.6646270155906677,-0.10742712020874023
631,1.1473,1.1736,0,0,-0.574493408203125,0.9724578857421875,0.0447235107421875,-1.0374701023101807,0.9287492036819458,-0.07589822262525558
632,1.1683,1.3498,0,0,-0.5930328369140625,1.155181884765625,0.016815185546875,-1.3566619157791138,1.0392426252365112,-0.10678796470165253
633,1.1865,1.515,0,0,-0.59771728515625,1.2262420654296875,-0.0385284423828125,-1.4643343687057495,0.8494844436645508,0.03087242878973484
634,1.2008,1.6606,0,0,-0.6632537841796875,1.1544952392578125,-0.0554046630859375,-1.3241852521896362,0.20392224192619324,0.09543810784816742
635,1.2102,1.7793,0,0,-0.665985107421875,1.0078125,-0.1320648193359375,-1.2676867246627808,-0.6575608253479004,-0.18891985714435577
636,1.2138,1.865,0,0,-0.614349365234375,0.86376953125,-0.20166015625,-0.9298954010009766,-1.1553764343261719,-0.6103320717811584
637,1.211,1.9138,0,0,-0.5228271484375,0.7823944091796875,-0.2201080322265625,-0.3703884482383728,-1.2753078937530518,-1.0272728204727173
638,1.201,1.9238,0,0,-0.396209716796875,0.8000946044921875,-0.0835113525390625,0.17413903772830963,-1.2058547735214233,-1.2363629341125488
639,1.1831,1.8957,0,0,-0.078643798828125,0.9766387939453125,1.3732452392578125,-1.496302604675293,-1.9129784107208252,-1.129817008972168
640,1.1569,1.8335,0,0,-0.2577362060546875,0.817108154296875,0.4418792724609375,-2.1431519985198975,0.0626031905412674,-1.3197321891784668
641,1.1221,1.7439,0,0,-0.3897857666015625,0.99786376953125,0.09130859375,-1.7999911308288574,-0.062434080988168716,-0.9422663450241089
642,1.0794,1.6362,0,0,-0.4979248046875,1.092498779296875,-0.0673370361328125,-1.2889004945755005,-0.7949477434158325,-0.7117476463317871
643,1.03,1.5212,0,0,-0.4998779296875,0.9968109130859375,0.0370330810546875,-0.6964845061302185,-0.9308940768241882,-0.5407947897911072
644,0.9761,1.4096,0,0,-0.5910491943359375,0.8408203125,0.279052734375,-0.5785845518112183,-0.6736260652542114,-0.36314037442207336
645,0.9205,1.311,0,0,-0.5899505615234375,0.7063751220703125,0.28594970703125,-0.605815052986145,-0.3804123103618622,-0.3704954981803894
646,0.867,1.2322,0,0,-0.5436248779296875,0.64874267578125,0.1883392333984375,-0.3857623338699341,-0.6063016653060913,-0.44526243209838867
647,0.8195,1.1771,0,0,-0.442535400390625,0.6336517333984375,0.1170654296875,-0.02322489582002163,-1.0786832571029663,-0.5057723522186279
648,0.7819,1.1461,0,0,-0.3763885498046875,0.6136016845703125,0.158843994140625,0.25397127866744995,-1.1787800788879395,-0.49796345829963684
649,0.7574,1.1369,0,0,-0.32659912109375,0.6136627197265625,0.1964874267578125,0.4366476237773895,-1.192119836807251,-0.44239526987075806
650,0.7485,1.1449,0,0,-0.2769775390625,0.619720458984375,0.193115234375,0.5698480010032654,-1.1191716194152832,-0.3325127065181732
651,0.7565,1.1647,0,0,-0.230743408203125,0.6251373291015625,0.1456298828125,0.7620483636856079,-1.0414211750030518,-0.1972781866788864
652,0.7813,1.1902,0,0,-0.2327117919921875,0.6549224853515625,0.1668548583984375,0.9593151211738586,-0.8959060311317444,-0.035170502960681915
653,0.8213,1.216,0,0,-0.263885498046875,0.717041015625,0.23858642578125,1.0511696338653564,-0.516291081905365,0.1325380653142929
654,0.8738,1.2379,0,0,-0.2611846923828125,0.7309722900390625,0.4297027587890625,0.9642547369003296,0.07154369354248047,0.3744252622127533
655,0.9351,1.2527,0,0,-0.3173065185546875,0.742767333984375,0.591949462890625,0.6590237021446228,0.7557417154312134,0.6309276223182678
656,1.0009,1.2588,0,0,-0.4401092529296875,0.7574005126953125,0.595794677734375,0.2640873193740845,1.2987722158432007,0.7880719900131226
657,1.0665,1.2559,0,0,-0.5724029541015625,0.747802734375,0.5453338623046875,0.16940687596797943,1.4877156019210815,0.768696129322052
658,1.1276,1.2447,0,0,-0.6637420654296875,0.725677490234375,0.588958740234375,0.37316372990608215,1.116881251335144,0.6323798298835754
659,1.1801,1.227,0,0,-0.7536468505859375,0.76116943359375,0.552490234375,0.27529841661453247,0.6360813975334167,0.42113497853279114
660,1.221,1.2044,0,0,-0.7227935791015625,0.80914306640625,0.3455352783203125,0.16867263615131378,0.5900366306304932,0.220976322889328
661,1.2478,1.1788,0,0,-0.709259033203125,0.7747955322265625,0.3938446044921875,0.3154817819595337,0.6371109485626221,0.22848057746887207
662,1.2596,1.1519,0,0,-0.8013153076171875,0.71728515625,0.7606353759765625,0.32960399985313416,0.7748099565505981,0.13506408035755157
663,1.2563,1.1254,0,0,-0.7509765625,0.814605712890625,0.648193359375,-0.09373048692941666,1.7108091115951538,0.04476773738861084
664,1.2396,1.1015,0,0,-0.7841796875,0.8697052001953125,0.45977783203125,-0.19609999656677246,2.2592508792877197,0.046534743160009384
665,1.2118,1.0832,0,0,-0.8914794921875,1.0583343505859375,0.4068450927734375,0.15813344717025757,0.8869175910949707,-0.10884445905685425
666,1.1767,1.0739,0,0,-0.6288909912109375,1.1485137939453125,0.0411529541015625,0.25211241841316223,-0.35030820965766907,-0.459695428609848
667,1.1385,1.0779,0,0,-0.33056640625,1.1135101318359375,0.058929443359375,0.33530688285827637,-0.9165516495704651,-0.4854910671710968
668,1.1016,1.0991,0,0,-0.4628753662109375,0.897979736328125,0.00439453125,0.14877988398075104,-1.6799638271331787,-0.02364460937678814
669,1.0699,1.1406,0,0,-0.558624267578125,0.7719268798828125,-0.1858978271484375,-0.2030591070652008,-1.1615166664123535,-0.07612219452857971
670,1.0464,1.2035,0,0,-0.43133544921875,0.7086944580078125,-0.259246826171875,-0.373359739780426,-0.8373660445213318,-0.3461132049560547
671,1.0327,1.2863,0,0,-0.26971435546875,0.7095489501953125,-0.3267822265625,-0.09104921668767929,-0.39115336537361145,-0.5187749862670898
672,1.0287,1.3846,0,0,-0.155487060546875,0.85443115234375,-0.3718719482421875,0.4072796106338501,-0.3778620660305023,-0.44524911046028137
673,1.0329,1.491,0,0,-0.0734100341796875,0.9753265380859375,-0.3544464111328125,0.8693628311157227,-0.4362873136997223,0.023614514619112015
674,1.0428,1.5958,0,0,-0.1615753173828125,1.051513671875,-0.28826904296875,1.583656668663025,-0.3574649393558502,0.5453978180885315
675,1.0549,1.6885,0,0,-0.3887939453125,1.0417938232421875,-0.19805908203125,2.04978609085083,-0.5594332218170166,0.8300018310546875
676,1.0659,1.7588,0,0,-0.5559539794921875,1.035247802734375,-0.051177978515625,2.5293290615081787,-0.6115062832832336,0.7485716938972473
677,1.0732,1.7987,0,0,-0.57989501953125,0.9720001220703125,0.3359832763671875,2.529859781265259,-0.6982712745666504,0.5462939739227295
678,1.0747,1.8027,0,0,-0.53533935546875,0.8560638427734375,0.836456298828125,1.4134831428527832,-0.3384755253791809,0.3419418931007385
679,1.0699,1.7688,0,0,-0.4097137451171875,0.8370819091796875,0.5955810546875,-0.4247291684150696,0.7509453892707825,0.2582712173461914
680,1.0592,1.6978,0,0,-0.3491363525390625,0.8753509521484375,0.0366973876953125,-1.0922528505325317,1.2136938571929932,0.4090522229671478
681,1.044,1.5933,0,0,-0.3692169189453125,0.8508148193359375,-0.1876068115234375,-0.7377983927726746,1.1147397756576538,0.6441227793693542
682,1.0264,1.4606,0,0,-0.4367218017578125,0.80633544921875,-0.2176971435546875,-0.08184852451086044,0.7816540002822876,0.8319219946861267
683,1.0085,1.3067,0,0,-0.532073974609375,0.76116943359375,-0.1614990234375,0.5486245155334473,0.595206618309021,0.8296825289726257
684,0.9925,1.14,0,0,-0.6056365966796875,0.727935791015625,-0.04351806640625,0.9608978033065796,0.6881131529808044,0.737382173538208
685,0.9802,0.9696,0,0,-0.6766204833984375,0.7054443359375,0.1388397216796875,1.0180199146270752,0.9458898305892944,0.5623664259910583
686,0.973,0.8053,0,0,-0.6724395751953125,0.70513916015625,0.3299407958984375,0.6961795687675476,0.9178656339645386,0.24980343878269196
687,0.9714,0.6576,0,0,-0.535888671875,0.7746124267578125,0.25653076171875,0.261104553937912,0.3733365535736084,-0.0029025792609900236
688,0.976,0.5362,0,0,-0.4542236328125,0.8424072265625,0.0712890625,0.18562819063663483,-0.0026320021133869886,0.0223202183842659
689,0.9865,0.45,0,0,-0.4942779541015625,0.8508758544921875,0.002349853515625,0.2980271577835083,-0.20067983865737915,0.15907354652881622
690,1.0025,0.406,0,0,-0.5679473876953125,0.854766845703125,0.00811767578125,0.3597691059112549,-0.2777698338031769,0.17927122116088867
691,1.0232,0.4085,0,0,-0.6097564697265625,0.9012908935546875,0.053436279296875,0.3213742971420288,0.047500140964984894,0.08727151900529861
692,1.0478,0.4589,0,0,-0.589996337890625,0.917510986328125,0.117034912109375,0.1743457019329071,0.3608575165271759,0.01398878637701273
693,1.0751,0.5556,0,0,-0.5713653564453125,0.9259490966796875,0.1588287353515625,0.007194796111434698,0.4210425615310669,-0.0529702752828598
694,1.1039,0.6934,0,0,-0.548248291015625,0.889556884765625,0.181243896484375,-0.20661789178848267,0.4337828755378723,-0.15724022686481476
695,1.1328,0.8644,0,0,-0.555694580078125,0.882171630859375,0.173583984375,-0.49430906772613525,0.7006102800369263,-0.22160083055496216
696,1.1601,1.0584,0,0,-0.5507659912109375,0.8832855224609375,0.06536865234375,-0.9048805832862854,1.0378764867782593,-0.30293670296669006
697,1.184,1.2633,0,0,-0.5542449951171875,1.0020599365234375,-0.0240325927734375,-1.1201969385147095,1.1501764059066772,-0.41977542638778687
698,1.2028,1.4663,0,0,-0.4967803955078125,1.1500701904296875,-0.0640716552734375,-1.1228339672088623,0.8483041524887085,-0.5288859605789185
699,1.2148,1.6542,0,0,-0.448944091796875,1.235260009765625,-0.0874481201171875,-1.0804615020751953,-0.10471096634864807,-0.39371535181999207
700,1.2185,1.8144,0,0,-0.4849853515625,1.17315673828125,-0.151275634765625,-1.1195846796035767,-0.7465420961380005,-0.08877620846033096
701,1.213,1.9358,0,0,-0.577728271484375,1.0347747802734375,-0.1455078125,-0.9998782277107239,-1.0646862983703613,-0.06772338598966599
702,1.1977,2.0096,0,0,-0.4702911376953125,0.9491119384765625,0.7874755859375,-1.292751431465149,-1.432249665260315,-0.38440653681755066
703,1.1728,2.0308,0,0,-0.471038818359375,0.843048095703125,0.414947509765625,-2.56411075592041,-0.6881360411643982,-0.8200610876083374
704,1.1391,1.9986,0,0,-0.4253692626953125,0.8900909423828125,0.0483856201171875,-2.3082501888275146,0.024828650057315826,-1.1751246452331543
705,1.0976,1.9172,0,0,-0.3296966552734375,1.045135498046875,0.1985626220703125,-1.8625227212905884,0.14531618356704712,-1.3051915168762207
706,1.0503,1.7958,0,0,-0.2323760986328125,1.0608673095703125,0.23980712890625,-1.6567597389221191,0.3328818082809448,-1.1863781213760376
707,0.9992,1.6477,0,0,-0.2878875732421875,0.9495086669921875,0.2452392578125,-1.3537849187850952,0.19436602294445038,-0.8078911900520325
708,0.9469,1.4889,0,0,-0.4128570556640625,0.87237548828125,0.1832275390625,-1.1566494703292847,-0.4451335370540619,-0.5132457613945007
709,0.8963,1.3356,0,0,-0.5199432373046875,0.77392578125,0.1985015869140625,-0.8875042796134949,-0.5261071920394897,-0.4372665584087372
710,0.8505,1.2028,0,0,-0.52362060546875,0.7006988525390625,0.1890106201171875,-0.8237016201019287,-0.33841320872306824,-0.37878167629241943
711,0.8125,1.102,0,0,-0.4833526611328125,0.62786865234375,0.1376953125,-0.6287121176719666,-0.30995652079582214,-0.34343671798706055
712,0.785,1.0398,0,0,-0.40185546875,0.6038818359375,0.150604248046875,-0.31266042590141296,-0.49277082085609436,-0.34755903482437134
713,0.77,1.0171,0,0,-0.375030517578125,0.5999908447265625,0.193389892578125,0.002239984693005681,-0.7096743583679199,-0.2702815532684326
714,0.769,1.0297,0,0,-0.3880767822265625,0.61834716796875,0.204071044921875,0.2575029134750366,-0.7999390363693237,-0.2122534066438675
715,0.7822,1.0685,0,0,-0.35467529296875,0.654296875,0.16021728515625,0.5332173109054565,-0.8628990650177002,-0.1930469572544098
716,0.8089,1.1215,0,0,-0.2794342041015625,0.692108154296875,0.11773681640625,0.8878449201583862,-0.9302189946174622,-0.12461862713098526
717,0.8474,1.1757,0,0,-0.2481842041015625,0.7161407470703125,0.1584320068359375,1.2473807334899902,-0.8723128437995911,0.008829710073769093
718,0.8949,1.2189,0,0,-0.2618865966796875,0.724884033203125,0.31158447265625,1.4296964406967163,-0.5806934833526611,0.18121719360351562
719,0.948,1.2416,0,0,-0.333251953125,0.7585906982421875,0.511871337890625,1.258222222328186,0.010775416158139706,0.392939031124115
720,1.0031,1.2386,0,0,-0.42620849609375,0.7476654052734375,0.6575775146484375,0.8731272220611572,0.7504169940948486,0.520698606967926
721,1.0564,1.209,0,0,-0.5223388671875,0.763763427734375,0.6658477783203125,0.33933040499687195,1.352912425994873,0.5613613128662109
722,1.1049,1.157,0,0,-0.574859619140625,0.7805023193359375,0.607879638671875,0.11176115274429321,1.5173320770263672,0.4719923138618469
723,1.1461,1.0905,0,0,-0.659332275390625,0.7647705078125,0.615203857421875,0.2777314782142639,1.0929999351501465,0.3663705289363861
724,1.1781,1.0206,0,0,-0.7720947265625,0.779754638671875,0.512420654296875,0.10953181982040405,0.6253549456596375,0.22733089327812195
725,1.2005,0.959,0,0,-0.769744873046875,0.7830657958984375,0.2705230712890625,0.0007984156836755574,0.6043047904968262,0.024147680029273033
726,1.2133,0.9174,0,0,-0.7724151611328125,0.736175537109375,0.42620849609375,0.5200905799865723,0.41435617208480835,-0.07217193394899368
727,1.2175,0.9051,0,0,-0.7865753173828125,0.68292236328125,0.713165283203125,0.4149274230003357,0.22137713432312012,-0.18340018391609192
728,1.2147,0.9283,0,0,-0.740142822265625,0.7325286865234375,0.54571533203125,0.16096438467502594,1.1965398788452148,-0.1862867921590805
729,1.2067,0.9893,0,0,-0.766326904296875,0.9964752197265625,0.466766357421875,-0.03566931560635567,1.0079455375671387,-0.283480703830719
730,1.1955,1.0865,0,0,-0.407012939453125,1.138763427734375,0.104095458984375,0.0783267617225647,0.01369290892034769,-0.23398452997207642
731,1.1833,1.2148,0,0,-0.3067474365234375,1.2000885009765625,-0.0148468017578125,0.5253080129623413,-0.8922612071037292,0.04313415288925171
732,1.1714,1.3664,0,0,-0.3519439697265625,0.866668701171875,0.207672119140625,0.32646653056144714,-2.815436840057373,0.4800321161746979
733,1.161,1.5315,0,0,-0.798004150390625,0.6900482177734375,-0.224853515625,-0.5079575181007385,-2.170591115951538,0.14594416320323944
734,1.1525,1.6991,0,0,-0.6736602783203125,0.8237152099609375,-0.3936004638671875,-0.8483792543411255,-1.0274806022644043,-0.438624769449234
735,1.1455,1.8581,0,0,-0.411346435546875,0.868408203125,-0.5242919921875,-0.023393472656607628,0.06117973476648331,-0.7645066976547241
736,1.1392,1.9974,0,0,-0.218048095703125,1.0303192138671875,-0.5547637939453125,0.9925883412361145,0.23932337760925293,-0.5533100366592407
737,1.1326,2.1069,0,0,-0.1080474853515625,1.13336181640625,-0.4181671142578125,1.919352412223816,-0.07944049686193466,0.00535428524017334
738,1.1243,2.1778,0,0,-0.23980712890625,1.0714111328125,-0.1814422607421875,2.8064401149749756,-1.0656322240829468,0.46890518069267273
739,1.1136,2.2041,0,0,-0.3856964111328125,1.008758544921875,0.05810546875,3.0753636360168457,-1.3654447793960571,0.5735772252082825
740,1.0998,2.1827,0,0,-0.3827362060546875,0.9263458251953125,0.614776611328125,2.643969774246216,-0.644580066204071,0.4614459276199341
741,1.0832,2.1143,0,0,-0.3003082275390625,0.8604583740234375,1.0140838623046875,0.7558777928352356,0.2921767234802246,0.4999150037765503
742,1.0644,2.0025,0,0,-0.3498687744140625,0.8472137451171875,0.423187255859375,-0.9847022294998169,1.224094033241272,0.6330611109733582
743,1.0445,1.8539,0,0,-0.40313720703125,0.8278656005859375,-0.1002960205078125,-1.1148031949996948,1.53761887550354,0.6975333094596863
744,1.025,1.677,0,0,-0.419097900390625,0.7860260009765625,-0.2579193115234375,-0.3189984858036041,1.1753305196762085,0.8206746578216553
745,1.0074,1.4817,0,0,-0.5014495849609375,0.7861175537109375,-0.1688690185546875,0.47966405749320984,0.8311427235603333,0.9135284423828125
746,0.9932,1.2786,0,0,-0.6083526611328125,0.771636962890625,0.0234832763671875,0.8400560617446899,0.8620836138725281,0.8343452215194702
747,0.9832,1.0783,0,0,-0.6733245849609375,0.7197265625,0.2223968505859375,0.7346833348274231,1.1248244047164917,0.6040491461753845
748,0.9781,0.8911,0,0,-0.6793365478515625,0.69061279296875,0.303070068359375,0.35069409012794495,0.9864090085029602,0.28714656829833984
749,0.9781,0.7266,0,0,-0.617889404296875,0.7296142578125,0.1617279052734375,0.1254418045282364,0.40516427159309387,0.014800517819821835
750,0.9831,0.593,0,0,-0.54058837890625,0.801513671875,0.003173828125,0.20270463824272156,-0.023395869880914688,-0.05968863144516945
751,0.9925,0.4966,0,0,-0.491485595703125,0.8535919189453125,-0.041961669921875,0.41689762473106384,-0.14660541713237762,-0.02486087568104267
752,1.0056,0.4416,0,0,-0.45648193359375,0.904449462890625,0.0005340576171875,0.5972407460212708,-0.22926461696624756,0.06283808499574661
753,1.0215,0.4301,0,0,-0.47021484375,0.9170379638671875,0.060516357421875,0.5731492638587952,-0.28634679317474365,0.1641489863395691
754,1.0394,0.4615,0,0,-0.52545166015625,0.9268951416015625,0.0899658203125,0.3857612907886505,-0.15333868563175201,0.1927417516708374
755,1.0583,0.5333,0,0,-0.546905517578125,0.940826416015625,0.101470947265625,0.14766934514045715,0.17948614060878754,0.14118854701519012
756,1.0774,0.6409,0,0,-0.547760009765625,0.94854736328125,0.115692138671875,-0.07190055400133133,0.48620933294296265,0.10064777731895447
757,1.0959,0.7779,0,0,-0.548980712890625,0.9312591552734375,0.1259002685546875,-0.2708301544189453,0.6709794402122498,0.0006900250446051359
758,1.1133,0.9365,0,0,-0.5556488037109375,0.8826141357421875,0.1233062744140625,-0.4440096616744995,0.8617243766784668,-0.1302778422832489
759,1.1289,1.1082,0,0,-0.55572509765625,0.8671417236328125,0.0802154541015625,-0.7353741526603699,1.1377726793289185,-0.27424460649490356
760,1.1421,1.2839,0,0,-0.5299072265625,0.97589111328125,0.0001220703125,-0.9874042272567749,1.3985353708267212,-0.42603254318237305
761,1.1524,1.4545,0,0,-0.4671630859375,1.12603759765625,-0.0510101318359375,-1.0549331903457642,1.2801090478897095,-0.5126329660415649
762,1.1595,1.6112,0,0,-0.435333251953125,1.2354278564453125,-0.03216552734375,-0.9596607685089111,0.6244391202926636,-0.30904385447502136
763,1.163,1.7454,0,0,-0.4774627685546875,1.18072509765625,-0.05078125,-1.1364986896514893,-0.21373865008354187,-0.02714480273425579
764,1.1627,1.8492,0,0,-0.5678558349609375,0.978515625,-0.086151123046875,-1.245753288269043,-0.493583083152771,0.042997267097234726
765,1.1583,1.9158,0,0,-0.53924560546875,0.801544189453125,0.0041961669921875,-1.150290846824646,-0.4888405203819275,-0.3572031259536743
766,1.1494,1.9404,0,0,-0.3001556396484375,0.8281097412109375,0.8694000244140625,-2.0961875915527344,-0.501659095287323,-0.7463892102241516
767,1.1357,1.9207,0,0,-0.2869720458984375,0.8595428466796875,0.166900634765625,-2.7657549381256104,0.44261232018470764,-1.0823369026184082
768,1.1166,1.8584,0,0,-0.218231201171875,0.98785400390625,0.0574951171875,-2.1726157665252686,0.5116541981697083,-1.0916070938110352
769,1.0916,1.759,0,0,-0.2673187255859375,1.050140380859375,0.2584381103515625,-1.6544348001480103,0.3434327244758606,-0.8443464040756226
770,1.0605,1.6321,0,0,-0.3756561279296875,1.0455780029296875,0.2181396484375,-1.4606168270111084,0.4072820246219635,-0.5237234234809875
771,1.0235,1.4901,0,0,-0.5157012939453125,1.024383544921875,0.176666259765625,-1.2594528198242188,0.36104580760002136,-0.28999266028404236
772,0.9818,1.3469,0,0,-0.6063079833984375,0.8919830322265625,0.216766357421875,-1.0814484357833862,0.4510321617126465,-0.28183674812316895
773,0.9372,1.2162,0,0,-0.6141510009765625,0.758392333984375,0.1763763427734375,-0.9408604502677917,0.3930074870586395,-0.36964941024780273
774,0.8923,1.1096,0,0,-0.5879364013671875,0.6791229248046875,0.148101806640625,-0.5785123705863953,-0.01423246506601572,-0.5656301379203796
775,0.8506,1.0351,0,0,-0.517486572265625,0.6595611572265625,0.2011260986328125,-0.3118215501308441,-0.37851187586784363,-0.631442129611969
776,0.8155,0.9964,0,0,-0.43157958984375,0.6436767578125,0.191436767578125,-0.15574485063552856,-0.4711856245994568,-0.48956385254859924
777,0.7906,0.9925,0,0,-0.4101104736328125,0.611236572265625,0.170135498046875,0.002715891692787409,-0.5994924902915955,-0.44486933946609497
778,0.7786,1.0178,0,0,-0.3599090576171875,0.6029052734375,0.129150390625,0.27044054865837097,-0.8938029408454895,-0.4349493384361267
779,0.7812,1.0636,0,0,-0.258941650390625,0.6298675537109375,0.0987396240234375,0.581371009349823,-1.0780049562454224,-0.35568806529045105
780,0.799,1.1188,0,0,-0.2169647216796875,0.6622467041015625,0.097015380859375,0.8664764761924744,-1.0435240268707275,-0.18409207463264465
781,0.831,1.1721,0,0,-0.2082366943359375,0.7060394287109375,0.15777587890625,1.1089158058166504,-0.8271320462226868,0.03826563060283661
782,0.875,1.2131,0,0,-0.24188232421875,0.741180419921875,0.3146514892578125,1.1766042709350586,-0.3636282682418823,0.3662000894546509
783,0.9278,1.2337,0,0,-0.3323974609375,0.753692626953125,0.510589599609375,0.9487111568450928,0.330702006816864,0.6537892818450928
784,0.9854,1.229,0,0,-0.465545654296875,0.7727508544921875,0.6054229736328125,0.5009235739707947,0.8957438468933105,0.7988609671592712
785,1.0436,1.1975,0,0,-0.6071929931640625,0.7860565185546875,0.5614776611328125,0.13199985027313232,1.134960651397705,0.7893127202987671
786,1.0985,1.1416,0,0,-0.689178466796875,0.7674407958984375,0.5058746337890625,-0.019399797543883324,1.0172327756881714,0.6720945239067078
787,1.1468,1.0667,0,0,-0.743743896484375,0.7679290771484375,0.527618408203125,0.13853071630001068,0.8898875713348389,0.5109748840332031
788,1.186,0.9809,0,0,-0.8141937255859375,0.8084259033203125,0.4407501220703125,0.1313878446817398,0.8637872338294983,0.31961020827293396
789,1.2144,0.8937,0,0,-0.7874603271484375,0.834930419921875,0.275115966796875,0.2102389931678772,0.896902859210968,0.0371931754052639
790,1.2313,0.8152,0,0,-0.7181243896484375,0.7755889892578125,0.393585205078125,0.4794030785560608,0.37036633491516113,-0.11062957346439362
791,1.2369,0.7549,0,0,-0.75543212890625,0.7374725341796875,0.5347747802734375,0.46051540970802307,0.09584716707468033,-0.18745671212673187
792,1.2321,0.7207,0,0,-0.7441253662109375,0.7490692138671875,0.363037109375,0.4621814787387848,0.5997931361198425,-0.16369439661502838
793,1.2183,0.7182,0,0,-0.7584228515625,0.945587158203125,0.3347625732421875,0.7736173868179321,0.12111657112836838,-0.1980326622724533
794,1.1976,0.7505,0,0,-0.5650634765625,1.10430908203125,0.49627685546875,0.6630735993385315,-0.41268983483314514,-0.23681414127349854
795,1.1722,0.8177,0,0,-0.4053497314453125,1.201141357421875,0.312591552734375,0.16349785029888153,-0.04427345469594002,-0.011936288326978683
796,1.1449,0.9171,0,0,-0.3311920166015625,1.122528076171875,0.3697662353515625,-0.1917089819908142,-1.1663529872894287,0.24693627655506134
797,1.1181,1.0431,0,0,-0.6788177490234375,0.8002166748046875,-0.156005859375,-0.36504802107810974,-1.674049973487854,0.13167306780815125
798,1.0943,1.1884,0,0,-0.6961822509765625,0.7501220703125,-0.3008575439453125,-0.43041396141052246,-1.3008396625518799,-0.36965954303741455
799,1.075,1.3433,0,0,-0.443756103515625,0.764434814453125,-0.3312835693359375,-0.42469164729118347,-0.8996488451957703,-0.7101478576660156
800,1.0612,1.4973,0,0,-0.1935882568359375,0.78509521484375,-0.375030517578125,-0.14490525424480438,-0.1884079873561859,-0.790587306022644
801,1.0528,1.6387,0,0,-0.061492919921875,0.9147186279296875,-0.4093017578125,0.5873441696166992,-0.18778455257415771,-0.48834943771362305
802,1.049,1.7563,0,0,-0.0531463623046875,0.983489990234375,-0.33197021484375,1.3501830101013184,-0.6566559076309204,0.13840501010417938
803,1.048,1.8398,0,0,-0.2371978759765625,0.9981689453125,-0.234771728515625,2.003898859024048,-0.8040834069252014,0.5813664793968201
804,1.0479,1.8814,0,0,-0.431243896484375,1.027008056640625,-0.07562255859375,2.3717598915100098,-0.7773005366325378,0.8044999241828918
805,1.0469,1.877,0,0,-0.531402587890625,0.9999237060546875,0.0897216796875,2.5498993396759033,-0.741878092288971,0.7454541921615601
806,1.0434,1.8264,0,0,-0.52789306640625,0.9318695068359375,0.4005279541015625,2.4031577110290527,-0.8260425329208374,0.6099211573600769
807,1.0365,1.7339,0,0,-0.464569091796875,0.8361663818359375,0.7475433349609375,1.2967280149459839,-0.5281879305839539,0.5540299415588379
808,1.0264,1.6068,0,0,-0.460052490234375,0.8050994873046875,0.4855194091796875,-0.24246057868003845,0.19262191653251648,0.5106284022331238
809,1.0136,1.4546,0,0,-0.464569091796875,0.78021240234375,0.0831298828125,-0.8391039967536926,0.7362071871757507,0.37836194038391113
810,0.9994,1.2876,0,0,-0.4432830810546875,0.776641845703125,-0.0844573974609375,-0.5738904476165771,0.8660544157028198,0.33153530955314636
811,0.9852,1.1152,0,0,-0.4239349365234375,0.795928955078125,-0.105560302734375,-0.019887687638401985,0.4858221113681793,0.3854518234729767
812,0.9727,0.9458,0,0,-0.454833984375,0.8258819580078125,-0.057830810546875,0.437510222196579,0.2823643088340759,0.48543062806129456
813,0.963,0.7865,0,0,-0.515228271484375,0.8121795654296875,0.0197296142578125,0.6938826441764832,0.5102800130844116,0.5674466490745544
814,0.9572,0.6431,0,0,-0.585906982421875,0.7519683837890625,0.1051177978515625,0.7593876123428345,0.7993613481521606,0.5732629895210266
815,0.9558,0.5205,0,0,-0.6170806884765625,0.721588134765625,0.1911163330078125,0.6808770895004272,0.6465877890586853,0.34037381410598755
816,0.9591,0.4235,0,0,-0.552581787109375,0.7689208984375,0.219512939453125,0.49947744607925415,0.11375878751277924,0.05819299817085266
817,0.9668,0.3565,0,0,-0.47393798828125,0.8321075439453125,0.1708221435546875,0.2732613682746887,-0.0737232193350792,0.002960103563964367
818,0.9787,0.3235,0,0,-0.4602813720703125,0.871917724609375,0.11468505859375,0.09582852572202682,0.010833739303052425,0.09999717026948929
819,0.9943,0.3274,0,0,-0.496002197265625,0.8721160888671875,0.0721588134765625,-0.005864014383405447,0.09028009325265884,0.1864340603351593
820,1.0129,0.37,0,0,-0.5449371337890625,0.889129638671875,0.0477447509765625,-0.02779248170554638,0.19379156827926636,0.2040921449661255
821,1.0339,0.4511,0,0,-0.5743408203125,0.898223876953125,0.04486083984375,-0.04051680117845535,0.34331128001213074,0.14796283841133118
822,1.0566,0.5681,0,0,-0.5539703369140625,0.9156341552734375,0.06146240234375,-0.05315243452787399,0.4966108202934265,0.06852872669696808
823,1.0803,0.7164,0,0,-0.53277587890625,0.9076385498046875,0.10125732421875,-0.09862084686756134,0.5859191417694092,0.031031684949994087
824,1.1043,0.8892,0,0,-0.5438995361328125,0.882232666015625,0.1519012451171875,-0.19030416011810303,0.7762965559959412,-0.02532160095870495
825,1.1277,1.0779,0,0,-0.5673675537109375,0.8504180908203125,0.1919097900390625,-0.43605878949165344,1.0133599042892456,-0.08693809062242508
826,1.1494,1.2728,0,0,-0.59600830078125,0.898651123046875,0.175811767578125,-0.8029158711433411,1.1932718753814697,-0.2650255262851715
827,1.1685,1.4639,0,0,-0.5883941650390625,1.0333709716796875,0.1580963134765625,-1.0919415950775146,1.1490567922592163,-0.4842745363712311
828,1.184,1.6412,0,0,-0.5507659912109375,1.1644134521484375,0.140472412109375,-1.395809531211853,0.9018187522888184,-0.523768424987793
829,1.195,1.7956,0,0,-0.509674072265625,1.2270050048828125,0.103607177734375,-1.7158045768737793,0.4826420247554779,-0.44277316331863403
830,1.201,1.9191,0,0,-0.45941162109375,1.2218170166015625,-0.0274810791015625,-1.9573382139205933,-0.04970390722155571,-0.3084225356578827
831,1.2012,2.0055,0,0,-0.5589141845703125,1.00067138671875,-0.182037353515625,-1.5772159099578857,-0.5926196575164795,-0.27949076890945435
832,1.1954,2.0502,0,0,-0.5751495361328125,0.8163299560546875,-0.2431640625,-0.7600882649421692,-1.1192065477371216,-0.6242715716362
833,1.1831,2.0507,0,0,-0.4856414794921875,0.78131103515625,-0.1517333984375,0.06850022822618484,-1.4706600904464722,-1.0880740880966187
834,1.1641,2.0074,0,0,-0.3501739501953125,0.8681640625,0.153289794921875,0.5703074336051941,-1.5912669897079468,-1.440019130706787
835,1.138,1.9232,0,0,-0.1903228759765625,0.9921417236328125,1.258270263671875,-1.3909149169921875,-1.578566074371338,-1.3791844844818115
836,1.1049,1.8042,0,0,-0.228179931640625,0.903076171875,0.2893524169921875,-2.053772449493408,0.12687751650810242,-1.0864834785461426
837,1.0655,1.6595,0,0,-0.3785400390625,1.086181640625,-0.0411376953125,-1.7872042655944824,-0.18378181755542755,-0.7698261141777039
838,1.0208,1.5004,0,0,-0.40032958984375,0.990936279296875,-0.07623291015625,-1.124659538269043,-0.5458393692970276,-0.6611379981040955
839,0.973,1.3396,0,0,-0.47222900390625,0.878326416015625,0.2324371337890625,-0.7535672783851624,-0.5703383088111877,-0.44057953357696533
840,0.9245,1.1893,0,0,-0.5019989013671875,0.7557220458984375,0.29595947265625,-0.8002093434333801,-0.47504696249961853,-0.3433733284473419
841,0.8786,1.0605,0,0,-0.4831695556640625,0.702484130859375,0.2409820556640625,-0.7192492485046387,-0.33496999740600586,-0.3661937117576599
842,0.8386,0.961,0,0,-0.4413909912109375,0.6762542724609375,0.1900482177734375,-0.5130792856216431,-0.4247584640979767,-0.34671932458877563
843,0.8078,0.8951,0,0,-0.4176788330078125,0.6433563232421875,0.172210693359375,-0.24725772440433502,-0.5829550623893738,-0.3398619592189789
844,0.7888,0.8627,0,0,-0.387481689453125,0.6293487548828125,0.1676483154296875,0.04502686485648155,-0.6509231925010681,-0.31620749831199646
845,0.7835,0.8603,0,0,-0.3574981689453125,0.6248321533203125,0.154144287109375,0.3264521360397339,-0.6376869678497314,-0.2802066206932068
846,0.7928,0.8812,0,0,-0.2973480224609375,0.6480255126953125,0.14569091796875,0.5894867181777954,-0.5675843358039856,-0.19219660758972168
847,0.8162,0.9168,0,0,-0.253631591796875,0.6717529296875,0.1533966064453125,0.8756295442581177,-0.45900779962539673,-0.010366354137659073
848,0.852,0.9582,0,0,-0.2612152099609375,0.7046051025390625,0.244781494140625,1.1091307401657104,-0.23635953664779663,0.25292840600013733
849,0.8975,0.9973,0,0,-0.3333587646484375,0.7081298828125,0.42340087890625,1.1278915405273438,-0.012953349389135838,0.4882913827896118
850,0.9493,1.0281,0,0,-0.420379638671875,0.7289886474609375,0.558349609375,0.918353259563446,0.31064414978027344,0.6313995122909546
851,1.0034,1.0477,0,0,-0.4896240234375,0.7585601806640625,0.59088134765625,0.6001697182655334,0.8863692283630371,0.7370378375053406
852,1.056,1.0563,0,0,-0.53955078125,0.761322021484375,0.59375,0.3084459900856018,1.218947172164917,0.7668913006782532
853,1.1039,1.057,0,0,-0.5937957763671875,0.7394866943359375,0.667236328125,0.4602014124393463,0.8641499876976013,0.6387365460395813
854,1.1443,1.055,0,0,-0.650177001953125,0.808074951171875,0.6524810791015625,0.28190386295318604,0.4249398410320282,0.5618066191673279
855,1.1754,1.0566,0,0,-0.6675567626953125,0.8022613525390625,0.4600830078125,0.009094960987567902,0.5071441531181335,0.506209135055542
856,1.1963,1.0678,0,0,-0.7115936279296875,0.7850341796875,0.3877410888671875,0.16256999969482422,0.6398409605026245,0.4569193422794342
857,1.2072,1.0934,0,0,-0.7371673583984375,0.74871826171875,0.595855712890625,0.29469582438468933,0.5374006032943726,0.28905072808265686
858,1.2088,1.1361,0,0,-0.6566619873046875,0.7951202392578125,0.4629974365234375,0.20258000493049622,1.1434109210968018,0.21179933845996857
859,1.2027,1.1962,0,0,-0.67059326171875,0.8075408935546875,0.339569091796875,0.30989980697631836,1.679814100265503,0.18206754326820374
860,1.1907,1.2716,0,0,-0.707550048828125,1.0666656494140625,0.3779144287109375,0.5705010294914246,0.5593059062957764,-0.10756774246692657
861,1.1753,1.3586,0,0,-0.4344940185546875,1.165374755859375,0.1338958740234375,0.5911074876785278,-0.6635843515396118,-0.3201218247413635
862,1.1587,1.452,0,0,-0.339508056640625,1.2921905517578125,0.1621551513671875,0.7756741642951965,-1.55791437625885,-0.22699986398220062
863,1.1433,1.5462,0,0,-0.4441986083984375,1.014923095703125,0.3484344482421875,0.23449772596359253,-2.681990385055542,0.2215006947517395
864,1.1308,1.6356,0,0,-0.5760955810546875,0.786468505859375,-0.0977630615234375,-0.6438626050949097,-1.7010935544967651,0.25089213252067566
865,1.1224,1.7149,0,0,-0.503204345703125,0.78680419921875,-0.2738494873046875,-0.9891366362571716,-1.3222557306289673,-0.06636703759431839
866,1.1183,1.7797,0,0,-0.3029327392578125,0.7569427490234375,-0.4178924560546875,-0.640324056148529,-1.0845481157302856,-0.46558499336242676
867,1.1177,1.8257,0,0,-0.2313385009765625,0.898590087890625,-0.52911376953125,0.18987007439136505,-0.40873104333877563,-0.38012441992759705
868,1.1193,1.8493,0,0,-0.17523193359375,1.0440216064453125,-0.4794769287109375,1.0778398513793945,0.5395298004150391,0.13225284218788147
869,1.1209,1.8477,0,0,-0.2744903564453125,1.072235107421875,-0.3756866455078125,1.888197660446167,1.0088509321212769,0.7226240038871765
870,1.1203,1.8195,0,0,-0.4405517578125,1.041839599609375,-0.18389892578125,2.5115537643432617,0.9859547019004822,0.9578362107276917
871,1.1159,1.7651,0,0,-0.5384063720703125,0.9390411376953125,0.2454071044921875,2.87668776512146,0.9985373020172119,0.8360698819160461
872,1.1064,1.6871,0,0,-0.4838409423828125,0.808258056640625,1.2760467529296875,1.846563696861267,0.4301692247390747,0.4866527318954468
873,1.0919,1.5901,0,0,-0.324798583984375,0.786224365234375,0.7923126220703125,-0.5486772060394287,-0.09858596324920654,0.1475154161453247
874,1.073,1.4798,0,0,-0.274078369140625,0.86328125,-0.006500244140625,-1.1676254272460938,0.12731854617595673,0.2629362940788269
875,1.0513,1.362,0,0,-0.329498291015625,0.8261566162109375,-0.2260894775390625,-0.5831742286682129,0.008105331100523472,0.4629431366920471
876,1.0289,1.2419,0,0,-0.420745849609375,0.79534912109375,-0.216552734375,0.11306636780500412,0.0037356161046773195,0.5297957062721252
877,1.0079,1.1237,0,0,-0.4806671142578125,0.811920166015625,-0.1362762451171875,0.5104176998138428,0.45446524024009705,0.5005277991294861
878,0.9902,1.0103,0,0,-0.5254364013671875,0.8184814453125,-0.0674591064453125,0.6953252553939819,1.0538605451583862,0.5123913884162903
879,0.9774,0.9046,0,0,-0.5840606689453125,0.799468994140625,0.0242462158203125,0.8752236366271973,1.5081568956375122,0.4908299148082733
880,0.9705,0.8095,0,0,-0.612945556640625,0.7762908935546875,0.2123870849609375,0.9473668336868286,1.3353813886642456,0.30759403109550476
881,0.9699,0.7288,0,0,-0.5217437744140625,0.7729644775390625,0.332061767578125,0.7168036699295044,0.33898311853408813,0.00043649208964779973
