id,ASVM,GSVM,walking_nonwalking,normal_abnormal,ax,ay,az,gx,gy,gz
1,0.8131,3.6054,0,0,0.1089019775390625,0.785247802734375,-0.2555084228515625,-1.8175691366195679,3.5473978519439697,-0.38686490058898926
2,0.8397,3.3126,0,0,0.02691650390625,0.7735748291015625,-0.3905487060546875,-0.4903971552848816,3.6398441791534424,-0.49095720052719116
3,0.8677,3.054,0,0,0.1278839111328125,0.88629150390625,-0.2196044921875,-0.4903971552848816,3.6398441791534424,-0.49095720052719116
4,0.8955,2.8169,0,0,0.2232818603515625,0.919952392578125,-0.02783203125,0.2539057731628418,3.0636394023895264,-0.35289838910102844
5,0.9219,2.5914,0,0,0.25347900390625,0.868865966796875,0.1871795654296875,-0.44868698716163635,0.37248915433883667,-0.5887287855148315
6,0.9459,2.3715,0,0,0.3335723876953125,0.8682861328125,0.20599365234375,-0.6286695599555969,-1.6553173065185547,-0.953474223613739
7,0.9676,2.1563,0,0,0.354705810546875,0.8932037353515625,0.031951904296875,-0.8333044052124023,-2.494614362716675,-1.0187944173812866
8,0.9875,1.9496,0,0,0.351715087890625,0.929718017578125,-0.02398681640625,-0.8865282535552979,-2.390007257461548,-0.8272454738616943
9,1.0067,1.7604,0,0,0.36553955078125,0.95782470703125,-0.0076904296875,-0.7144073247909546,-2.1572494506835938,-0.6305896639823914
10,1.0267,1.6012,0,0,0.3363037109375,0.963104248046875,-0.0135650634765625,-0.55836421251297,-1.6595189571380615,-0.5176399350166321
11,1.0495,1.4872,0,0,0.3313751220703125,0.94293212890625,0.0329437255859375,-0.406273752450943,-1.1889115571975708,-0.4206793010234833
12,1.077,1.4333,0,0,0.325927734375,0.9663543701171875,0.1396484375,-0.406273752450943,-1.1889115571975708,-0.4206793010234833
13,1.1107,1.4519,0,0,0.340362548828125,1.0392913818359375,0.1973114013671875,-0.26715099811553955,-1.514154314994812,-0.3033961057662964
14,1.152,1.5502,0,0,0.4017791748046875,1.14837646484375,0.0948028564453125,-0.37160685658454895,-1.3272942304611206,-0.34031790494918823
15,1.2014,1.7276,0,0,0.4545745849609375,1.232391357421875,-0.0187225341796875,-0.7152907252311707,-0.07860159873962402,-0.18818482756614685
16,1.2587,1.9754,0,0,0.5005340576171875,1.2610626220703125,-0.0103302001953125,-0.7152907252311707,-0.07860159873962402,-0.18818482756614685
17,1.3223,2.2758,0,0,0.44744873046875,1.264923095703125,-0.311187744140625,-0.44234251976013184,1.8179848194122314,0.27949902415275574
18,1.3894,2.6036,0,0,0.40972900390625,1.16424560546875,-0.70849609375,1.1840693950653076,2.3672072887420654,0.5402155518531799
19,1.4555,2.9288,0,0,0.47052001953125,1.12261962890625,-0.2225341796875,3.100236177444458,0.6688776612281799,1.091090202331543
20,1.5147,3.2199,0,0,0.4942626953125,1.0207672119140625,0.295257568359375,3.010843515396118,-1.4824988842010498,1.6447075605392456
21,1.5602,3.4478,0,0,0.4664764404296875,1.088104248046875,0.34478759765625,3.010843515396118,-1.4824988842010498,1.6447075605392456
22,1.5842,3.5889,0,0,0.3495635986328125,1.344146728515625,0.210601806640625,1.4925073385238647,-3.6634535789489746,2.41239333152771
23,1.5797,3.6279,0,0,0.246246337890625,1.54144287109375,0.0451812744140625,1.1114500761032104,-3.4769115447998047,2.310551643371582
24,1.5412,3.5592,0,0,0.120330810546875,1.6767730712890625,-0.10858154296875,1.1192450523376465,-2.0912704467773438,1.9078843593597412
25,1.4662,3.3874,0,0,-0.148468017578125,1.87396240234375,-0.362823486328125,1.5091081857681274,1.2910258769989014,1.1917552947998047
26,1.356,3.1266,0,0,-0.415557861328125,1.8985595703125,-0.5703887939453125,1.5091081857681274,1.2910258769989014,1.1917552947998047
27,1.2165,2.7989,0,0,-0.3183746337890625,1.3742523193359375,-0.0902252197265625,2.454202890396118,4.308873176574707,0.3251535892486572
28,1.0578,2.4322,0,0,-0.070709228515625,0.911834716796875,0.5101776123046875,1.3364973068237305,1.5431652069091797,0.5748236179351807
29,0.8936,2.0581,0,0,0.2320404052734375,0.6362762451171875,0.54901123046875,1.3364973068237305,1.5431652069091797,0.5748236179351807
30,0.7394,1.7087,0,0,0.19891357421875,0.5460662841796875,0.0691375732421875,-0.0868627279996872,-1.335857629776001,1.1629960536956787
31,0.6111,1.4137,0,0,-0.0469207763671875,0.43231201171875,-0.0354766845703125,-0.05215321481227875,-1.1929235458374023,1.2795897722244263
32,0.5228,1.1966,0,0,-0.138641357421875,0.3551483154296875,0.074493408203125,0.2530170679092407,-0.23841683566570282,0.5526943206787109
33,0.4852,1.0729,0,0,-0.110687255859375,0.34771728515625,0.2024078369140625,0.39539048075675964,-0.08464537560939789,-0.015620770864188671
34,0.5041,1.0474,0,0,-0.084442138671875,0.371063232421875,0.17791748046875,0.3308255970478058,-0.2391212433576584,-0.2837827205657959
35,0.5799,1.114,0,0,-0.0248870849609375,0.397705078125,0.0954132080078125,0.3308255970478058,-0.2391212433576584,-0.2837827205657959
36,0.7068,1.2562,0,0,-0.1518707275390625,0.4041900634765625,-0.0968017578125,0.17220692336559296,-0.3746708035469055,-0.360549658536911
37,0.8738,1.4493,0,0,-0.3706817626953125,0.3740692138671875,-0.1746368408203125,0.11334440112113953,-0.6122777462005615,-0.5397159457206726
38,1.0656,1.6637,0,0,-0.366912841796875,0.4033966064453125,-0.2136993408203125,-0.519065260887146,-2.0865554809570312,-1.6570712327957153
39,1.2646,1.869,0,0,0.0625,0.578826904296875,-0.8784027099609375,-0.7918387651443481,-2.9847521781921387,-2.0867621898651123
40,1.4529,2.038,0,0,0.919189453125,1.1319732666015625,-1.5514373779296875,-0.1653095930814743,-1.1240310668945312,-1.2195954322814941
41,1.6145,2.1505,0,0,1.4201202392578125,2.0555572509765625,-1.10821533203125,-0.1653095930814743,-1.1240310668945312,-1.2195954322814941
42,1.7371,2.1951,0,0,1.2537689208984375,1.9792938232421875,-0.851287841796875,-0.3302178680896759,2.5658891201019287,2.0986673831939697
43,1.8136,2.1707,0,0,1.099517822265625,1.4072418212890625,-0.53900146484375,-0.45772308111190796,2.701467990875244,1.7420709133148193
44,1.8421,2.0859,0,0,0.5781707763671875,1.0540008544921875,0.1219940185546875,-0.16462862491607666,1.4822946786880493,0.7671147584915161
45,1.8254,1.9579,0,0,0.1633148193359375,1.025390625,0.5731658935546875,-0.3442401885986328,0.2000228315591812,0.23630067706108093
46,1.7703,1.8094,0,0,-0.1755218505859375,1.150604248046875,0.4551239013671875,-1.0641515254974365,-0.7045341730117798,-0.3257006108760834
47,1.6859,1.6661,0,0,-0.594512939453125,1.2893524169921875,-2.6477203369140625,1.0496643781661987,2.944091796875,-0.6962531208992004
48,1.5824,1.5537,0,0,-0.523834228515625,0.9240875244140625,0.0679168701171875,1.624516487121582,1.4609792232513428,-0.5480010509490967
49,1.4702,1.4941,0,0,-0.314971923828125,0.872039794921875,0.97637939453125,-0.22309327125549316,-0.13263288140296936,-0.6074159145355225
50,1.3588,1.5037,0,0,-0.280792236328125,1.0489959716796875,0.497314453125,-0.22309327125549316,-0.13263288140296936,-0.6074159145355225
51,1.2557,1.5902,0,0,-0.1708221435546875,1.123931884765625,0.2879638671875,-0.6500288844108582,-0.07056018710136414,-1.005316972732544
52,1.1662,1.752,0,0,-0.0950927734375,1.0658111572265625,0.31597900390625,-0.16386856138706207,-0.6949660181999207,-1.2278634309768677
53,1.0933,1.9776,0,0,-0.024139404296875,0.9681549072265625,0.3403472900390625,-0.10869771987199783,-1.2950371503829956,-1.4229629039764404
54,1.0374,2.247,0,0,0.112701416015625,0.964202880859375,0.355072021484375,-0.10869771987199783,-1.2950371503829956,-1.4229629039764404
55,0.9974,2.5336,0,0,0.21771240234375,1.0035858154296875,0.3045196533203125,-0.8924817442893982,-2.0860536098480225,-0.9383296370506287
56,0.9704,2.8075,0,0,0.258514404296875,0.9970245361328125,0.2012176513671875,-1.2679363489151,-2.354574680328369,-0.6140884757041931
57,0.9533,3.0388,0,0,0.293792724609375,0.6585845947265625,-0.8807525634765625,-1.2679363489151,-2.354574680328369,-0.6140884757041931
58,0.9426,3.2012,0,0,0.414093017578125,0.8384246826171875,-0.155517578125,-2.595442056655884,4.502198219299316,-1.3103127479553223
59,0.9355,3.2753,0,0,0.324859619140625,0.82916259765625,-0.188568115234375,-1.735671043395996,3.589911937713623,-0.8744127154350281
60,0.9298,3.25,0,0,0.1363677978515625,0.8541412353515625,-0.359466552734375,-1.735671043395996,3.589911937713623,-0.8744127154350281
61,0.9247,3.1239,0,0,0.1085968017578125,0.9075469970703125,-0.036163330078125,-0.3583565652370453,-0.24262169003486633,-0.5128329396247864
62,0.9202,2.9051,0,0,0.1569671630859375,0.903228759765625,0.0613250732421875,-0.4452243447303772,-2.2735660076141357,-0.5582590103149414
63,0.9174,2.61,0,0,0.1601104736328125,0.915924072265625,-0.0187530517578125,-0.6762493252754211,-2.7321999073028564,-0.691285252571106
64,0.9183,2.2622,0,0,0.263824462890625,0.929229736328125,0.0058135986328125,-0.8644506335258484,-2.1385395526885986,-0.8292348384857178
65,0.9254,1.8909,0,0,0.3455963134765625,0.9019775390625,0.06097412109375,-0.8644506335258484,-2.1385395526885986,-0.8292348384857178
66,0.9415,1.5287,0,0,0.374542236328125,0.8755645751953125,0.053619384765625,-0.6535487771034241,-1.354797124862671,-0.6888362169265747
67,0.969,1.2101,0,0,0.328033447265625,0.85626220703125,0.01708984375,-0.6535487771034241,-1.354797124862671,-0.6888362169265747
68,1.0098,0.9681,0,0,0.2725982666015625,0.8907012939453125,-0.019927978515625,-0.6255243420600891,-0.624861478805542,-0.5118491649627686
69,1.0649,0.8319,0,0,0.2869415283203125,0.951263427734375,0.0798797607421875,-0.4055240750312805,1.0362471342086792,-0.3579600155353546
70,1.1338,0.8233,0,0,0.332275390625,1.0243988037109375,0.190216064453125,-0.01882721669971943,0.47404026985168457,-0.31809088587760925
71,1.2148,0.9543,0,0,0.3968048095703125,1.0854034423828125,0.1886749267578125,-0.039323437958955765,-0.04184119030833244,-0.39268630743026733
72,1.3048,1.2242,0,0,0.55364990234375,1.1951751708984375,0.05755615234375,-0.542306661605835,0.4103156328201294,-0.5449501276016235
73,1.3993,1.619,0,0,0.781036376953125,1.3757171630859375,0.0272369384765625,-0.9653002619743347,0.9307103157043457,-0.35638555884361267
74,1.4928,2.1112,0,0,0.838165283203125,1.370513916015625,-0.3121185302734375,-0.9653002619743347,0.9307103157043457,-0.35638555884361267
75,1.5787,2.6613,0,0,0.7198028564453125,1.378570556640625,-0.7350311279296875,-0.3966970145702362,0.9673528075218201,0.21550032496452332
76,1.6502,3.2214,0,0,0.5374603271484375,1.31011962890625,0.0400390625,2.7367730140686035,-1.2780544757843018,1.7719041109085083
77,1.7001,3.7402,0,0,0.2818603515625,1.245330810546875,0.1779022216796875,2.7367730140686035,-1.2780544757843018,1.7719041109085083
78,1.7215,4.168,0,0,0.0360565185546875,1.4112396240234375,0.187591552734375,1.7468045949935913,-4.099941730499268,2.45418119430542
79,1.7087,4.4631,0,0,0.064849853515625,1.607177734375,0.222320556640625,1.475305199623108,-4.822241306304932,2.2105822563171387
80,1.6576,4.5967,0,0,-0.0740509033203125,1.7285919189453125,0.014404296875,1.475305199623108,-4.822241306304932,2.2105822563171387
81,1.567,4.5569,0,0,-0.37738037109375,1.83331298828125,-0.24114990234375,1.426491618156433,-3.475297451019287,1.6274335384368896
82,1.4394,4.3499,0,0,-0.665283203125,1.7454986572265625,-0.686920166015625,2.3058156967163086,5.266706943511963,-0.20253846049308777
83,1.281,3.9997,0,0,-0.4745330810546875,1.4730987548828125,-0.372406005859375,3.235395669937134,5.018630027770996,0.25403493642807007
84,1.1022,3.5448,0,0,-0.365142822265625,0.9850921630859375,0.36529541015625,2.2626593112945557,2.649629831314087,1.0073715448379517
85,0.9166,3.0334,0,0,-0.1832122802734375,0.6516876220703125,0.5362701416015625,0.5398834943771362,0.7993523478507996,1.1852840185165405
86,0.7398,2.517,0,0,-0.033935546875,0.5918426513671875,0.2987823486328125,-0.5260989665985107,0.011725897900760174,1.0987472534179688
87,0.588,2.044,0,0,0.01251220703125,0.5082855224609375,-0.057952880859375,-0.43466225266456604,0.22276809811592102,1.0604939460754395
88,0.4759,1.654,0,0,0.0230255126953125,0.3765716552734375,0.0213775634765625,0.08947928249835968,0.4154009222984314,0.9616554975509644
89,0.4153,1.3736,0,0,0.0092315673828125,0.269989013671875,0.1752777099609375,0.4821099042892456,-0.19411514699459076,0.7554730176925659
90,0.4135,1.2148,0,0,0.0321807861328125,0.2460174560546875,0.268218994140625,0.5623094439506531,-0.9578466415405273,0.4289361834526062
91,0.4723,1.1743,0,0,0.043121337890625,0.33013916015625,0.1863861083984375,0.2941621243953705,-1.4673782587051392,0.15412752330303192
92,0.5877,1.2358,0,0,-0.02642822265625,0.38873291015625,-0.0549774169921875,0.2941621243953705,-1.4673782587051392,0.15412752330303192
93,0.7499,1.373,0,0,-0.121612548828125,0.3594512939453125,-0.160675048828125,-0.05474873259663582,-0.17934125661849976,-0.7404879331588745
94,0.9443,1.5537,0,0,-0.1698760986328125,0.328460693359375,-0.109893798828125,-0.3589578866958618,-0.16259877383708954,-1.2434605360031128
95,1.153,1.7438,0,0,-0.055633544921875,0.40338134765625,-0.25079345703125,-0.9667514562606812,-1.511396884918213,-1.6647905111312866
96,1.357,1.9124,0,0,0.578857421875,0.78155517578125,-1.178314208984375,-0.7912051677703857,-2.7026455402374268,-1.526240348815918
97,1.5382,2.0349,0,0,1.830596923828125,2.029541015625,-1.7628326416015625,0.4245606064796448,-0.8036376237869263,0.5882377028465271
98,1.6824,2.0964,0,0,1.3249969482421875,2.22589111328125,-0.9547271728515625,-0.25577425956726074,1.5057182312011719,2.1091578006744385
99,1.7799,2.0925,0,0,1.1788330078125,1.445098876953125,-0.875823974609375,-0.25577425956726074,1.5057182312011719,2.1091578006744385
100,1.8271,2.0299,0,0,0.5655975341796875,0.8236236572265625,-0.2149200439453125,-0.19029884040355682,3.676211357116699,1.182415246963501
101,1.8255,1.9246,0,0,0.0938568115234375,0.91851806640625,0.2936553955078125,0.015058045275509357,2.007749080657959,0.16244296729564667
102,1.7812,1.7989,0,0,-0.332763671875,1.086639404296875,0.498199462890625,-0.48334801197052,0.4103201627731323,-0.38168877363204956
103,1.7033,1.6779,0,0,-1.0868072509765625,2.037200927734375,-2.282012939453125,-0.48334801197052,0.4103201627731323,-0.38168877363204956
104,1.6027,1.585,0,0,-0.4359588623046875,1.1848907470703125,0.3075408935546875,1.0576025247573853,-0.8192034959793091,-0.7896967530250549
105,1.4904,1.5385,0,0,-0.2389373779296875,0.8729400634765625,0.698516845703125,-0.14369378983974457,0.5301586985588074,-0.6980654001235962
106,1.3767,1.5484,0,0,-0.147918701171875,0.86297607421875,0.555908203125,-0.5286542773246765,0.9896005392074585,-0.8215649724006653
107,1.2699,1.6156,0,0,-0.056121826171875,0.9170989990234375,0.423828125,-0.4264538586139679,0.5955802798271179,-0.9124777913093567
108,1.1759,1.7314,0,0,0.02008056640625,0.979766845703125,0.3693695068359375,-0.4264538586139679,0.5955802798271179,-0.9124777913093567
109,1.0976,1.8793,0,0,0.106475830078125,1.0408935546875,0.447662353515625,-0.14777880907058716,0.00805952399969101,-1.0547603368759155
110,1.0359,2.0378,0,0,0.2220458984375,1.06817626953125,0.4376220703125,-0.41018912196159363,-2.0456347465515137,-1.3056375980377197
111,0.9894,2.1836,0,0,0.267730712890625,1.121002197265625,0.3620452880859375,-1.0339603424072266,-2.7122433185577393,-1.0942639112472534
112,0.9558,2.2956,0,0,0.2550811767578125,0.925506591796875,-0.6634368896484375,-2.2747159004211426,0.22452472150325775,-1.15885591506958
113,0.9323,2.3577,0,0,0.330780029296875,0.9070281982421875,-0.280975341796875,-2.6247026920318604,3.66739559173584,-1.1337507963180542
114,0.9161,2.361,0,0,0.271697998046875,0.84765625,-0.0897979736328125,-1.848135232925415,2.7677581310272217,-0.5716544389724731
115,0.9051,2.3045,0,0,0.104217529296875,0.7506866455078125,-0.29205322265625,-0.820401132106781,1.7367600202560425,-0.2485693395137787
116,0.8976,2.1936,0,0,0.1074981689453125,0.8315277099609375,-0.0864410400390625,-0.31280025839805603,0.42822086811065674,-0.13820794224739075
117,0.8927,2.039,0,0,0.1749725341796875,0.9114837646484375,0.1085357666015625,-0.31280025839805603,0.42822086811065674,-0.13820794224739075
118,0.8902,1.8538,0,0,0.16424560546875,0.9042205810546875,0.11376953125,-0.7521494030952454,-1.6111096143722534,-0.31330224871635437
119,0.8905,1.6522,0,0,0.18145751953125,0.8482818603515625,0.025665283203125,-0.7521494030952454,-1.6111096143722534,-0.31330224871635437
120,0.8942,1.4479,0,0,0.2121734619140625,0.823944091796875,-0.00860595703125,-1.0341829061508179,-1.0944370031356812,-0.6888684034347534
121,0.9023,1.254,0,0,0.2936553955078125,0.8212890625,0.0377044677734375,-0.8248422145843506,-0.8986442685127258,-0.6901882886886597
122,0.9157,1.0828,0,0,0.306854248046875,0.803192138671875,0.0632171630859375,-0.6222230792045593,-0.8212727904319763,-0.5852325558662415
123,0.9355,0.946,0,0,0.255645751953125,0.836822509765625,0.040069580078125,-0.7170851230621338,-0.4192281663417816,-0.5352525115013123
124,0.9626,0.8545,0,0,0.2623748779296875,0.9464263916015625,0.0459442138671875,-0.9407405853271484,0.10474638640880585,-0.44977301359176636
125,0.9976,0.8189,0,0,0.2458953857421875,1.0351409912109375,0.0113372802734375,-1.0494945049285889,0.5521779656410217,-0.4211709201335907
126,1.0412,0.8487,0,0,0.2392425537109375,1.06597900390625,0.0161895751953125,-0.7717715501785278,0.7010198831558228,-0.544461727142334
127,1.0937,0.9511,0,0,0.3006134033203125,1.1477813720703125,0.007659912109375,-0.7717715501785278,0.7010198831558228,-0.544461727142334
128,1.155,1.1305,0,0,0.3467254638671875,1.1308441162109375,-0.050201416015625,-0.319269061088562,0.7524910569190979,-0.6477401852607727
129,1.2247,1.3868,0,0,0.3995208740234375,1.124847412109375,-0.052337646484375,-0.2626073956489563,0.7625471949577332,-0.7493064403533936
130,1.3014,1.7141,0,0,0.5228424072265625,1.2087554931640625,-0.28204345703125,0.0925307348370552,0.9563353061676025,-0.6042696237564087
131,1.3828,2.1,0,0,0.708099365234375,1.3531646728515625,-0.3748321533203125,1.0541640520095825,0.7823879718780518,-0.12607458233833313
132,1.4654,2.5255,0,0,0.7808685302734375,1.2528228759765625,-0.1965484619140625,2.116909980773926,-0.08885876834392548,0.5661212205886841
133,1.5441,2.9659,0,0,0.6991729736328125,1.04583740234375,0.15985107421875,2.509139060974121,-1.482471227645874,1.1479220390319824
134,1.6125,3.3924,0,0,0.5948333740234375,0.9807891845703125,0.31451416015625,2.063178300857544,-2.4772369861602783,1.6256697177886963
135,1.6634,3.7748,0,0,0.5629119873046875,1.17169189453125,0.253814697265625,1.5592129230499268,-3.3985044956207275,2.236889600753784
136,1.689,4.0837,0,0,0.3525848388671875,1.4838409423828125,0.0862579345703125,1.465209722518921,-3.513148546218872,2.4853501319885254
137,1.6823,4.2936,0,0,0.206207275390625,1.69842529296875,0.021026611328125,1.465209722518921,-3.513148546218872,2.4853501319885254
138,1.6383,4.3855,0,0,-0.0287017822265625,1.951812744140625,-0.1293182373046875,1.8667219877243042,-0.2570922374725342,1.550307035446167
139,1.5549,4.3487,0,0,-0.4225311279296875,2.1353302001953125,-0.4549560546875,1.8667219877243042,-0.2570922374725342,1.550307035446167
140,1.4344,4.1832,0,0,-0.5409088134765625,1.7839508056640625,-0.531402587890625,3.0452780723571777,5.712864398956299,0.1383219212293625
141,1.2833,3.9002,0,0,-0.3474884033203125,1.1368255615234375,0.24896240234375,3.0452780723571777,5.712864398956299,0.1383219212293625
142,1.1123,3.5228,0,0,-0.001129150390625,0.7185821533203125,0.786529541015625,2.4824202060699463,3.7822184562683105,0.3679654896259308
143,0.9354,3.0843,0,0,0.2226409912109375,0.68829345703125,0.4372406005859375,-0.8134718537330627,-1.8830649852752686,1.4260830879211426
144,0.7681,2.6251,0,0,0.0579986572265625,0.636016845703125,-0.0441131591796875,-0.8134718537330627,-1.8830649852752686,1.4260830879211426
145,0.6261,2.1884,0,0,-0.0861358642578125,0.491241455078125,-0.01385498046875,-0.6229187250137329,-1.810469150543213,1.5137969255447388
146,0.5236,1.8148,0,0,-0.158233642578125,0.3527984619140625,0.1487579345703125,0.09958943724632263,0.1590525060892105,0.5059137940406799
147,0.4712,1.5371,0,0,-0.07733154296875,0.2920379638671875,0.35272216796875,-0.1297265738248825,0.11135981231927872,0.1936248540878296
148,0.4755,1.3768,0,0,-0.0282440185546875,0.31048583984375,0.307037353515625,-0.5126672983169556,-0.5570707321166992,0.1886889636516571
149,0.5377,1.3413,0,0,-0.059326171875,0.3374176025390625,-0.0622100830078125,-0.5126672983169556,-0.5570707321166992,0.1886889636516571
150,0.6536,1.4235,0,0,-0.309814453125,0.3366241455078125,-0.135223388671875,0.11307568848133087,-0.9148656129837036,-0.4412362575531006
151,0.8141,1.6036,0,0,-0.4203948974609375,0.415191650390625,-0.18157958984375,0.4067898690700531,-1.260988712310791,-1.2934882640838623
152,1.0059,1.8523,0,0,-0.3507537841796875,0.55938720703125,-0.2599334716796875,0.4642139971256256,-1.8162074089050293,-1.902610421180725
153,1.2129,2.1348,0,0,0.060699462890625,0.7898406982421875,-0.639739990234375,0.24511894583702087,-2.360399007797241,-1.87531578540802
154,1.418,2.4152,0,0,0.7610931396484375,1.0714569091796875,-1.334014892578125,0.010922955349087715,-1.180911898612976,-0.9416207671165466
155,1.6048,2.6612,0,0,1.1313934326171875,1.5510406494140625,-1.1210784912109375,-0.8099868297576904,1.7881851196289062,0.49192285537719727
156,1.7595,2.8476,0,0,1.3905487060546875,1.6653900146484375,-0.684539794921875,-0.955702543258667,3.890603542327881,2.185018539428711
157,1.8719,2.9586,0,0,1.3526458740234375,1.356292724609375,-0.14373779296875,-0.955702543258667,3.890603542327881,2.185018539428711
158,1.9365,2.9894,0,0,0.9514312744140625,1.2148895263671875,0.37225341796875,-0.4808041751384735,2.8333003520965576,2.5310192108154297
159,1.952,2.9454,0,0,0.6638336181640625,1.4117279052734375,0.229278564453125,-0.5315209031105042,-0.5067569613456726,0.3768031895160675
160,1.9215,2.8412,0,0,0.393707275390625,1.375335693359375,0.4974517822265625,-1.3563807010650635,-0.18687906861305237,0.07444733381271362
161,1.8513,2.6973,0,0,-0.4402618408203125,1.4119415283203125,-2.4633636474609375,-0.3877541124820709,3.961280584335327,-0.48216772079467773
162,1.7506,2.5376,0,0,-0.9399261474609375,1.1908111572265625,-1.0092620849609375,2.0046255588531494,3.8201191425323486,-0.6839154958724976
163,1.6297,2.3858,0,0,-0.3502197265625,0.700927734375,1.2572021484375,0.6560447216033936,-0.9150432348251343,-0.5738145112991333
164,1.4996,2.2626,0,0,-0.2678680419921875,0.8699951171875,0.7214508056640625,0.6560447216033936,-0.9150432348251343,-0.5738145112991333
165,1.3706,2.183,0,0,-0.2014007568359375,1.046783447265625,0.3631744384765625,-0.43841251730918884,-1.5489271879196167,-0.7207823991775513
166,1.2509,2.1544,0,0,-0.1585235595703125,1.0433807373046875,0.33807373046875,-0.07476265728473663,-0.9758549332618713,-1.3104033470153809
167,1.1469,2.1761,0,0,-0.0270843505859375,1.0374298095703125,0.410614013671875,-0.2201283723115921,-1.1442737579345703,-1.4843183755874634
168,1.062,2.2394,0,0,0.0663909912109375,1.00830078125,0.3834075927734375,-0.5843566656112671,-1.6537175178527832,-1.366897463798523
169,0.9972,2.3293,0,0,0.1297454833984375,0.9829254150390625,0.3277740478515625,-1.077406883239746,-2.1349356174468994,-1.1005958318710327
170,0.9514,2.427,0,0,0.1748046875,0.94781494140625,0.2255859375,-1.4974749088287354,-2.4640891551971436,-0.7680956125259399
171,0.9219,2.5125,0,0,0.18658447265625,0.824066162109375,-0.3638916015625,-1.9337244033813477,-1.0420325994491577,-0.6110780239105225
172,0.9053,2.5673,0,0,0.2560882568359375,0.799102783203125,-0.59149169921875,-1.9337244033813477,-1.0420325994491577,-0.6110780239105225
173,0.8977,2.5767,0,0,0.294769287109375,0.958465576171875,0.020477294921875,-2.0918874740600586,4.176297664642334,-0.8486354351043701
174,0.896,2.5311,0,0,0.1276702880859375,0.8938751220703125,-0.2012939453125,-0.7419832944869995,2.665536880493164,-0.2828993499279022
175,0.8974,2.4271,0,0,0.08221435546875,0.9369964599609375,-0.0977325439453125,-0.33654341101646423,1.527971863746643,-0.3238891363143921
176,0.9004,2.2671,0,0,0.115386962890625,0.9067230224609375,0.0819244384765625,-0.33654341101646423,1.527971863746643,-0.3238891363143921
177,0.9044,2.0587,0,0,0.1739501953125,0.8703460693359375,0.0536956787109375,-0.5367883443832397,-1.2997016906738281,-0.5103498101234436
178,0.9097,1.8139,0,0,0.19366455078125,0.8455963134765625,0.0075836181640625,-0.7576035261154175,-1.4886854887008667,-0.5926372408866882
179,0.9174,1.5475,0,0,0.2827301025390625,0.8638763427734375,0.056854248046875,-0.7576035261154175,-1.4886854887008667,-0.5926372408866882
180,0.9289,1.2772,0,0,0.3171234130859375,0.8504791259765625,0.0448760986328125,-0.756669819355011,-1.178808331489563,-0.6690044403076172
181,0.9457,1.0219,0,0,0.3360443115234375,0.818939208984375,0.0085296630859375,-0.6353610157966614,-0.7126637697219849,-0.6292125582695007
182,0.9692,0.8016,0,0,0.3459930419921875,0.8712005615234375,0.0034637451171875,-0.5599378943443298,-0.20843097567558289,-0.5922353267669678
183,1.0005,0.6359,0,0,0.3387603759765625,0.938262939453125,0.0146331787109375,-0.5599378943443298,-0.20843097567558289,-0.5922353267669678
184,1.0401,0.5428,0,0,0.309417724609375,0.941192626953125,0.05657958984375,-0.4635506272315979,0.5478814840316772,-0.5043161511421204
185,1.0878,0.5376,0,0,0.350372314453125,1.0079498291015625,0.1432647705078125,-0.06245405599474907,-0.01552223414182663,-0.4780840277671814
186,1.143,0.6307,0,0,0.3555755615234375,1.122528076171875,0.114471435546875,-0.06245405599474907,-0.01552223414182663,-0.4780840277671814
187,1.2045,0.8265,0,0,0.3701629638671875,1.1877899169921875,0.0409393310546875,-0.4976164400577545,0.40303561091423035,-0.33126100897789
188,1.2706,1.1223,0,0,0.3991546630859375,1.2182769775390625,0.0981597900390625,-0.842581033706665,0.6698814034461975,-0.41794106364250183
189,1.339,1.5069,0,0,0.51318359375,1.36138916015625,-0.0245361328125,-0.7384077310562134,0.4899428188800812,-0.2973938584327698
190,1.4071,1.9611,0,0,0.537811279296875,1.408905029296875,-0.5828704833984375,0.2127053439617157,1.1866888999938965,0.16207385063171387
191,1.4715,2.4583,0,0,0.551727294921875,1.380950927734375,-0.6676025390625,2.1962099075317383,1.0634665489196777,0.7022143006324768
192,1.5284,2.9658,0,0,0.4781951904296875,1.212005615234375,-0.05615234375,3.0713577270507812,-0.3586689531803131,1.1476013660430908
193,1.573,3.4477,0,0,0.4206085205078125,1.1112213134765625,0.274261474609375,2.5157504081726074,-1.799033522605896,1.5367387533187866
194,1.6002,3.8676,0,0,0.385894775390625,1.1346893310546875,0.387542724609375,2.5157504081726074,-1.799033522605896,1.5367387533187866
195,1.6043,4.192,0,0,0.2814788818359375,1.2413787841796875,0.2931976318359375,1.4526512622833252,-4.304835796356201,2.1418163776397705
196,1.5806,4.3931,0,0,0.195220947265625,1.4438018798828125,0.077911376953125,1.2485764026641846,-3.7080459594726562,2.0541603565216064
197,1.5253,4.4525,0,0,-0.01300048828125,1.6751556396484375,-0.199462890625,1.3547968864440918,-0.5710629820823669,1.529188632965088
198,1.4373,4.3627,0,0,-0.3493804931640625,1.8813018798828125,-0.484619140625,1.6713250875473022,4.496992588043213,0.6419438123703003
199,1.319,4.1295,0,0,-0.433746337890625,1.810333251953125,-0.786529541015625,2.925097703933716,6.997951030731201,0.413257360458374
200,1.1764,3.7719,0,0,-0.2505340576171875,1.290557861328125,0.159637451171875,3.0768537521362305,4.471555233001709,0.9171724319458008
201,1.0194,3.3209,0,0,-0.0500946044921875,0.7837066650390625,0.7528839111328125,1.2257851362228394,0.2856208384037018,1.1655972003936768
202,0.8605,2.8171,0,0,0.0582427978515625,0.6174774169921875,0.4287567138671875,-0.16255243122577667,-1.9250702857971191,1.184064269065857
203,0.714,2.3058,0,0,-0.012786865234375,0.5006866455078125,0.0412750244140625,-0.5031275749206543,-1.8745721578598022,1.0504900217056274
204,0.5939,1.8325,0,0,-0.1006317138671875,0.3705902099609375,-0.0558624267578125,-0.5031275749206543,-1.8745721578598022,1.0504900217056274
205,0.5125,1.4376,0,0,-0.1203460693359375,0.28204345703125,0.0582733154296875,0.11855380982160568,0.10911423712968826,0.40078097581863403
206,0.4786,1.152,0,0,-0.0274200439453125,0.254547119140625,0.34454345703125,-0.027414048090577126,-0.00047936898772604764,0.2590976059436798
207,0.4968,0.9942,0,0,-0.022705078125,0.32281494140625,0.28143310546875,-0.33839455246925354,-0.49145814776420593,0.32236525416374207
208,0.5667,0.9688,0,0,-0.01300048828125,0.403472900390625,0.1033935546875,-0.4551358222961426,-0.7056090235710144,0.24881914258003235
209,0.6829,1.0661,0,0,-0.1040802001953125,0.5101318359375,-0.123931884765625,-0.228803351521492,-0.5992708802223206,-0.1366523802280426
210,0.8355,1.2643,0,0,-0.2511749267578125,0.5523529052734375,-0.1957550048828125,0.009258746169507504,-0.5836940407752991,-0.8764686584472656
211,1.0117,1.5323,0,0,-0.1977996826171875,0.684417724609375,-0.2306060791015625,0.12044918537139893,-1.2005690336227417,-1.5325911045074463
212,1.1965,1.834,0,0,0.210968017578125,0.9117889404296875,-0.714813232421875,0.19969314336776733,-2.182791233062744,-1.6382057666778564
213,1.375,2.1323,0,0,0.962127685546875,1.14923095703125,-1.24859619140625,-0.0014615427935495973,-1.3670101165771484,-0.8679636120796204
214,1.5336,2.3933,0,0,1.25341796875,1.5278167724609375,-0.9953155517578125,-0.7701007127761841,1.2515922784805298,0.43057483434677124
215,1.6617,2.5907,0,0,1.3973846435546875,1.5792388916015625,-0.802947998046875,-0.9287976622581482,3.4177467823028564,1.688625693321228
216,1.7521,2.7077,0,0,1.2570648193359375,1.04620361328125,-0.620941162109375,-0.0941573902964592,3.3465049266815186,1.92038094997406
217,1.8016,2.7393,0,0,0.9031524658203125,0.630462646484375,-0.019805908203125,-0.0941573902964592,3.3465049266815186,1.92038094997406
218,1.8103,2.6919,0,0,0.177642822265625,0.707794189453125,0.89947509765625,0.4326387643814087,1.8140984773635864,1.3716882467269897
219,1.7811,2.5819,0,0,-0.0745849609375,0.891387939453125,0.756500244140625,-0.3915262222290039,-0.44923532009124756,0.4074053168296814
220,1.7195,2.4332,0,0,-0.2483062744140625,1.72381591796875,-0.5946807861328125,-1.4730918407440186,-2.017043352127075,-0.5527811646461487
221,1.6327,2.2733,0,0,-0.3563385009765625,2.8137359619140625,-2.38671875,0.036849092692136765,4.2553300857543945,-0.1127912625670433
222,1.529,2.1298,0,0,-0.2042388916015625,1.0510711669921875,0.30242919921875,0.7043901085853577,2.252321243286133,0.31215816736221313
223,1.4175,2.0264,0,0,-0.4251556396484375,0.6990203857421875,0.748138427734375,0.35440388321876526,0.41829046607017517,-0.5051015019416809
224,1.307,1.9796,0,0,-0.2349395751953125,0.8095550537109375,0.4374237060546875,0.24579325318336487,-0.20554782450199127,-1.016459584236145
225,1.2053,1.996,0,0,-0.09722900390625,0.8536224365234375,0.326202392578125,0.23388519883155823,-0.4168374240398407,-1.0094949007034302
226,1.1179,2.0713,0,0,-0.037994384765625,0.84283447265625,0.3678436279296875,0.10407127439975739,-0.799924910068512,-1.010918378829956
227,1.0481,2.191,0,0,0.0328521728515625,0.869293212890625,0.4084014892578125,0.10407127439975739,-0.799924910068512,-1.010918378829956
228,0.9967,2.3324,0,0,0.137481689453125,0.953643798828125,0.4219970703125,-0.494853138923645,-2.4971718788146973,-1.0544400215148926
229,0.9624,2.4689,0,0,0.1863861083984375,0.9860076904296875,0.3736419677734375,-0.494853138923645,-2.4971718788146973,-1.0544400215148926
230,0.9421,2.5737,0,0,0.179901123046875,0.98577880859375,0.2261810302734375,-1.415373682975769,-3.9868128299713135,-0.8162341117858887
231,0.9323,2.6247,0,0,0.1200103759765625,0.841278076171875,-0.7872161865234375,-2.773287057876587,-0.1839490681886673,-0.8433014154434204
232,0.929,2.6073,0,0,0.2068328857421875,0.901123046875,-0.3360748291015625,-2.8712656497955322,3.265662670135498,-0.769748330116272
233,0.9289,2.5166,0,0,0.2419586181640625,0.924072265625,-0.1117706298828125,-1.5384842157363892,2.549323081970215,-0.5542302131652832
234,0.9295,2.3568,0,0,0.1262054443359375,0.8869781494140625,-0.2052459716796875,-0.14934581518173218,1.5265913009643555,-0.3926823139190674
235,0.9293,2.1402,0,0,0.1322784423828125,0.923431396484375,-0.121124267578125,0.31220316886901855,1.298359990119934,-0.3515300750732422
236,0.9279,1.8845,0,0,0.1659088134765625,0.8873443603515625,0.0837554931640625,-0.1843772977590561,1.0491936206817627,-0.3793734312057495
237,0.9261,1.6097,0,0,0.2017364501953125,0.8476104736328125,0.1131591796875,-0.6545501351356506,0.2919570207595825,-0.5157091617584229
238,0.925,1.336,0,0,0.24176025390625,0.830474853515625,-0.00341796875,-0.7626835107803345,-0.19083067774772644,-0.6441107988357544
239,0.9264,1.0818,0,0,0.3039398193359375,0.856781005859375,-0.0577392578125,-0.6192365884780884,-0.20733773708343506,-0.7818005084991455
240,0.9322,0.8627,0,0,0.3720550537109375,0.8679962158203125,0.058624267578125,-0.4644249379634857,-0.42097359895706177,-0.7896469831466675
241,0.9442,0.6913,0,0,0.3582916259765625,0.854217529296875,0.070556640625,-0.5196613073348999,-0.6308602690696716,-0.6722108721733093
242,0.9642,0.5777,0,0,0.3004150390625,0.9440155029296875,0.0102691650390625,-0.7652377486228943,-0.3817143440246582,-0.4947138726711273
243,0.9933,0.5294,0,0,0.2276153564453125,0.933868408203125,-0.039031982421875,-0.8095402717590332,0.0510176457464695,-0.475687175989151
244,1.0321,0.5515,0,0,0.298828125,0.9604949951171875,0.065460205078125,-0.22166341543197632,-0.3801547884941101,-0.526160717010498
245,1.0807,0.6469,0,0,0.3568572998046875,1.041748046875,0.1172332763671875,0.21407100558280945,-0.9974371790885925,-0.3649028539657593
246,1.1383,0.8149,0,0,0.3916778564453125,1.0980682373046875,0.0468597412109375,0.10034604370594025,-0.7654635906219482,-0.37192216515541077
247,1.2034,1.0512,0,0,0.4324798583984375,1.1831207275390625,-0.0830078125,0.10034604370594025,-0.7654635906219482,-0.37192216515541077
248,1.2738,1.3464,0,0,0.5026092529296875,1.2084808349609375,0.0382232666015625,-0.403812438249588,0.8427461385726929,-0.3272670805454254
249,1.3463,1.6859,0,0,0.564788818359375,1.27166748046875,-0.069091796875,0.08581370860338211,0.44106021523475647,-0.19270767271518707
250,1.4169,2.0496,0,0,0.6206817626953125,1.2623291015625,-0.3300323486328125,0.7632656693458557,1.2674909830093384,0.22650504112243652
251,1.4811,2.4132,0,0,0.601593017578125,1.238616943359375,-0.3051605224609375,1.7891563177108765,1.2821786403656006,0.8618897199630737
252,1.5333,2.7501,0,0,0.49212646484375,1.227264404296875,-0.0289154052734375,2.4176766872406006,0.27020618319511414,1.5727585554122925
253,1.568,3.0338,0,0,0.3002166748046875,1.2449493408203125,0.047119140625,2.425471305847168,-1.203389286994934,2.148599624633789
254,1.5794,3.2413,0,0,0.1537933349609375,1.450714111328125,0.043365478515625,2.059279203414917,-2.1825428009033203,2.4272871017456055
255,1.5628,3.3551,0,0,0.135345458984375,1.55206298828125,0.0841827392578125,1.5893665552139282,-2.6080169677734375,2.3151023387908936
256,1.5151,3.3664,0,0,0.0061798095703125,1.6012115478515625,-0.0248870849609375,1.5893665552139282,-2.6080169677734375,2.3151023387908936
257,1.4355,3.2755,0,0,-0.2429962158203125,1.6869964599609375,-0.251953125,1.4106234312057495,0.3687133193016052,0.900873601436615
258,1.3264,3.0926,0,0,-0.3718109130859375,1.7166290283203125,-0.473846435546875,1.6940375566482544,3.557298183441162,0.14497236907482147
259,1.1935,2.8366,0,0,-0.1425933837890625,1.3690185546875,-0.1771392822265625,1.6940375566482544,3.557298183441162,0.14497236907482147
260,1.0456,2.5337,0,0,-0.0078277587890625,0.8749847412109375,0.3915863037109375,1.5243457555770874,2.6852903366088867,0.8353180289268494
261,0.8941,2.2149,0,0,0.1861572265625,0.618133544921875,0.5701141357421875,0.2543822228908539,0.5725338459014893,1.2491871118545532
262,0.7517,1.9121,0,0,0.1807861328125,0.5905303955078125,0.278472900390625,-0.4556921720504761,-0.8016679286956787,1.4899590015411377
263,0.6312,1.6552,0,0,0.012176513671875,0.49456787109375,0.01849365234375,-0.4556921720504761,-0.8016679286956787,1.4899590015411377
264,0.5442,1.4681,0,0,-0.122802734375,0.395660400390625,-0.026947021484375,0.004037352278828621,0.27325549721717834,0.6825796365737915
265,0.4996,1.366,0,0,-0.114532470703125,0.36505126953125,0.1748504638671875,0.004037352278828621,0.27325549721717834,0.6825796365737915
266,0.5027,1.3538,0,0,-0.0497894287109375,0.3614349365234375,0.36578369140625,-0.3123682737350464,0.011529889889061451,-0.029532326385378838
267,0.5546,1.4257,0,0,0.0012969970703125,0.3956451416015625,0.422454833984375,-0.8637206554412842,-1.4776253700256348,-0.051605403423309326
268,0.6519,1.5658,0,0,-0.095855712890625,0.4462127685546875,-0.0650177001953125,-0.8294905424118042,-1.961910605430603,-0.18936672806739807
269,0.787,1.7508,0,0,-0.25860595703125,0.417755126953125,-0.3074951171875,-0.2654303312301636,-1.4353857040405273,-0.7093830108642578
270,0.9488,1.9526,0,0,-0.2458648681640625,0.4873199462890625,-0.286041259765625,0.12496484071016312,-1.153480887413025,-1.2852191925048828
271,1.1235,2.1418,0,0,-0.052337646484375,0.7058258056640625,-0.4777679443359375,0.5557636022567749,-2.031933307647705,-1.6355918645858765
272,1.2967,2.2913,0,0,0.704986572265625,1.06475830078125,-1.01104736328125,0.5557636022567749,-2.031933307647705,-1.6355918645858765
273,1.4542,2.3797,0,0,1.2749176025390625,1.3284912109375,-0.84783935546875,-0.3690589964389801,-1.2985632419586182,0.15719015896320343
274,1.5842,2.3936,0,0,1.121368408203125,1.5164031982421875,-0.77734375,-1.2109150886535645,1.6001217365264893,1.3242038488388062
275,1.6781,2.3298,0,0,1.1464385986328125,1.4643707275390625,-0.7662353515625,-0.6072020530700684,3.125021457672119,1.662831425666809
276,1.731,2.1957,0,0,1.12371826171875,1.0460662841796875,-0.6255035400390625,-0.6072020530700684,3.125021457672119,1.662831425666809
277,1.7421,2.009,0,0,0.62249755859375,1.0733795166015625,0.119781494140625,0.19443047046661377,2.2929883003234863,0.8000583052635193
278,1.7143,1.7956,0,0,0.2423858642578125,0.9984283447265625,0.556060791015625,-0.7124627232551575,0.6074736714363098,0.1245613694190979
279,1.653,1.5864,0,0,-0.0823211669921875,1.0934600830078125,0.54266357421875,-1.4085201025009155,-0.9780182242393494,-0.5076602697372437
280,1.5662,1.4131,0,0,-0.5160675048828125,2.2724609375,-2.1590728759765625,-0.36598944664001465,0.6038480997085571,-0.753305971622467
281,1.4627,1.3037,0,0,-0.2080841064453125,1.3614349365234375,-0.12738037109375,0.7103987336158752,1.053501009941101,-0.3239559531211853
282,1.3521,1.279,0,0,-0.2391204833984375,0.779083251953125,0.5544586181640625,0.1574988067150116,0.20236028730869293,-0.356702983379364
283,1.2433,1.3488,0,0,-0.216339111328125,0.791717529296875,0.353759765625,-0.12401941418647766,0.24707023799419403,-0.7254011034965515
284,1.1437,1.511,0,0,-0.0895233154296875,0.8426971435546875,0.285400390625,-0.06604798883199692,0.09922298789024353,-0.7751742601394653
285,1.059,1.7511,0,0,-0.0452423095703125,0.890289306640625,0.323394775390625,0.04316797852516174,-0.5474202036857605,-0.902969241142273
286,0.9922,2.0442,0,0,0.0180511474609375,0.93780517578125,0.3633270263671875,0.04316797852516174,-0.5474202036857605,-0.902969241142273
287,0.944,2.3582,0,0,0.089263916015625,0.943023681640625,0.3538055419921875,0.02557353675365448,-2.9175312519073486,-1.255028247833252
288,0.9132,2.6583,0,0,0.149810791015625,0.960052490234375,0.2955169677734375,-0.3542952239513397,-3.7133541107177734,-1.1342829465866089
289,0.8971,2.9115,0,0,0.1736907958984375,0.953521728515625,0.211151123046875,-0.3542952239513397,-3.7133541107177734,-1.1342829465866089
290,0.892,3.0909,0,0,0.1811676025390625,0.86669921875,-0.00579833984375,-1.5127489566802979,-3.357118606567383,-0.573158323764801
291,0.8944,3.1785,0,0,0.1617584228515625,0.763214111328125,-0.4366912841796875,-3.0949227809906006,1.4868444204330444,-0.6622320413589478
292,0.9009,3.167,0,0,0.3061676025390625,0.993499755859375,-0.01715087890625,-2.8162240982055664,2.091392755508423,-0.296406626701355
293,0.909,3.0592,0,0,0.1675262451171875,0.924957275390625,-0.226959228515625,-1.6910723447799683,1.834834337234497,-0.04752304404973984
294,0.9171,2.8673,0,0,-0.03045654296875,0.8760833740234375,-0.4466705322265625,-1.6910723447799683,1.834834337234497,-0.04752304404973984
295,0.9249,2.6098,0,0,0.03656005859375,0.910369873046875,-0.153167724609375,0.4620344638824463,2.4997036457061768,-0.1379386931657791
296,0.9327,2.3098,0,0,0.0886077880859375,0.846221923828125,0.0933990478515625,0.2827241122722626,2.0359323024749756,-0.1091533824801445
297,0.9417,1.9919,0,0,0.15460205078125,0.8367919921875,0.19317626953125,-0.22411486506462097,1.2168078422546387,-0.3265632092952728
298,0.9535,1.6804,0,0,0.2292022705078125,0.8463287353515625,0.1698455810546875,-0.616789698600769,0.19204694032669067,-0.6498206257820129
299,0.9696,1.3975,0,0,0.2996063232421875,0.862640380859375,0.1383056640625,-0.9158605337142944,-0.7021629214286804,-0.9118213653564453
300,0.9915,1.1628,0,0,0.332733154296875,0.9069366455078125,0.0390167236328125,-1.060246229171753,-1.1238774061203003,-0.9459580183029175
301,1.0203,0.9927,0,0,0.3582916259765625,0.9709625244140625,-0.0015716552734375,-1.0533816814422607,-1.1734322309494019,-0.7997128963470459
302,1.0567,0.8999,0,0,0.3398284912109375,1.01519775390625,-0.0869293212890625,-1.0019168853759766,-0.6912636756896973,-0.6978384852409363
303,1.101,0.8934,0,0,0.3851470947265625,1.0472259521484375,-0.0337371826171875,-0.6490467190742493,-0.19310180842876434,-0.7360361814498901
304,1.1529,0.9777,0,0,0.4911956787109375,1.1244964599609375,0.0613555908203125,-0.11866167187690735,-0.48832547664642334,-0.6999011039733887
305,1.2117,1.1521,0,0,0.5421295166015625,1.181427001953125,-0.030426025390625,-0.08398571610450745,0.115102618932724,-0.6258239150047302
306,1.2757,1.4096,0,0,0.530303955078125,1.1699676513671875,-0.015594482421875,-0.27214762568473816,1.037693738937378,-0.6132274866104126
307,1.3431,1.7366,0,0,0.56243896484375,1.2057647705078125,-0.024169921875,-0.22074036300182343,1.302105188369751,-0.46926867961883545
308,1.4109,2.1135,0,0,0.6255645751953125,1.2756195068359375,-0.239898681640625,0.22168605029582977,1.679663896560669,-0.06571216881275177
309,1.4754,2.5147,0,0,0.6840362548828125,1.30096435546875,-0.452239990234375,1.5392740964889526,1.6771196126937866,0.605588436126709
310,1.5319,2.9111,0,0,0.670257568359375,1.2358856201171875,-0.126922607421875,1.5392740964889526,1.6771196126937866,0.605588436126709
311,1.5752,3.272,0,0,0.4709320068359375,1.157379150390625,0.0946044921875,2.448525905609131,-1.2193149328231812,2.2914559841156006
312,1.5993,3.5683,0,0,0.1917877197265625,1.3440704345703125,0.0185394287109375,2.2151243686676025,-2.39062762260437,2.5762839317321777
313,1.5989,3.7751,0,0,0.100250244140625,1.54534912109375,0.0870361328125,2.0082383155822754,-3.1857478618621826,2.4354641437530518
314,1.5691,3.8748,0,0,0.0528564453125,1.5219879150390625,0.1342010498046875,1.6804929971694946,-3.3073811531066895,2.0012779235839844
315,1.507,3.8585,0,0,-0.16156005859375,1.576171875,-0.03326416015625,1.4676320552825928,-1.3573918342590332,1.1520071029663086
316,1.4126,3.7279,0,0,-0.415374755859375,1.7611236572265625,-0.458160400390625,1.5170886516571045,2.773181915283203,0.23444420099258423
317,1.289,3.4948,0,0,-0.3249359130859375,1.6439056396484375,-0.6075286865234375,2.3826792240142822,5.5051045417785645,0.22110016644001007
318,1.143,3.1811,0,0,-0.2420806884765625,1.12835693359375,0.2101593017578125,2.281402349472046,4.144923686981201,0.6723363399505615
319,0.9849,2.8163,0,0,0.0084686279296875,0.7344207763671875,0.7079925537109375,0.7673254013061523,1.3718427419662476,0.9930791854858398
320,0.8272,2.4349,0,0,0.215606689453125,0.6591033935546875,0.4756011962890625,-0.3968173861503601,-1.1557838916778564,1.317846655845642
321,0.6838,2.0723,0,0,0.1349029541015625,0.543609619140625,0.0876617431640625,-0.44592607021331787,-1.695629358291626,1.3999212980270386
322,0.5684,1.7608,0,0,-0.0059356689453125,0.4069671630859375,-0.04559326171875,-0.04945836216211319,-0.7387419939041138,1.1369847059249878
323,0.4926,1.5255,0,0,-0.113494873046875,0.2935333251953125,0.0466766357421875,0.1764192432165146,0.4407174587249756,0.584213376045227
324,0.4651,1.3821,0,0,-0.0861663818359375,0.2644500732421875,0.288604736328125,-0.04217328503727913,0.5395532250404358,0.1168280839920044
325,0.4902,1.3343,0,0,-0.0184783935546875,0.312896728515625,0.386688232421875,-0.49823614954948425,-0.4229579269886017,-0.036138031631708145
326,0.5672,1.3751,0,0,-0.0074615478515625,0.371856689453125,0.2014312744140625,-0.749565839767456,-1.3106070756912231,-0.07027123123407364
327,0.6906,1.4873,0,0,-0.159149169921875,0.39935302734375,-0.1319122314453125,-0.5275096297264099,-1.4386662244796753,-0.40711769461631775
328,0.8506,1.6468,0,0,-0.2609405517578125,0.4669036865234375,-0.24267578125,-0.5275096297264099,-1.4386662244796753,-0.40711769461631775
329,1.0338,1.8262,0,0,-0.1614532470703125,0.6374359130859375,-0.1777496337890625,-0.0015643407823517919,-1.963205099105835,-1.585369348526001
330,1.225,1.9984,0,0,0.2418975830078125,0.8920135498046875,-0.5881500244140625,-0.0015643407823517919,-1.963205099105835,-1.585369348526001
331,1.4085,2.1403,0,0,1.0440826416015625,1.200164794921875,-1.290740966796875,-0.1121869906783104,-3.0683016777038574,-0.6333521604537964
332,1.5706,2.2353,0,0,1.2068023681640625,1.728302001953125,-1.3078765869140625,-0.8638708591461182,1.1700949668884277,0.7184721231460571
333,1.7003,2.2748,0,0,1.1550140380859375,1.8364410400390625,-1.12335205078125,-0.8638708591461182,1.1700949668884277,0.7184721231460571
334,1.7904,2.2591,0,0,1.185699462890625,1.2516021728515625,-0.5944366455078125,-0.1329340785741806,3.610382556915283,1.759278655052185
335,1.8378,2.1966,0,0,0.7762298583984375,0.6051025390625,-0.0549163818359375,0.0480884313583374,1.8355227708816528,1.38004469871521
336,1.8429,2.1028,0,0,0.0075531005859375,0.4417724609375,0.9544525146484375,-0.6629484295845032,0.14738360047340393,0.36028867959976196
337,1.8091,1.9975,0,0,-0.2842864990234375,0.6064453125,0.8868255615234375,-0.6629484295845032,0.14738360047340393,0.36028867959976196
338,1.7421,1.9032,0,0,-0.345245361328125,1.3143157958984375,0.086181640625,-1.8605258464813232,-2.1351311206817627,-1.7482986450195312
339,1.6493,1.842,0,0,-0.4366912841796875,3.479400634765625,-2.8394622802734375,1.9322410821914673,0.4931606948375702,-1.3549226522445679
340,1.5397,1.8335,0,0,-0.083984375,1.2696075439453125,0.495513916015625,0.9124714136123657,1.8338156938552856,-0.21624282002449036
341,1.4226,1.8918,0,0,-0.3572998046875,0.7089080810546875,0.597625732421875,-0.23177437484264374,1.905739665031433,-0.18647293746471405
342,1.3073,2.024,0,0,-0.27777099609375,0.633758544921875,0.388275146484375,-0.23177437484264374,1.905739665031433,-0.18647293746471405
343,1.2017,2.2278,0,0,-0.11346435546875,0.6406097412109375,0.258514404296875,-0.10120091587305069,1.1323102712631226,-0.6882050037384033
344,1.1118,2.4913,0,0,-0.021697998046875,0.671600341796875,0.3351593017578125,0.21783725917339325,-0.055693622678518295,-0.6879187226295471
345,1.0406,2.7929,0,0,0.0426483154296875,0.8159027099609375,0.423614501953125,0.41535139083862305,-1.786644458770752,-0.8163206577301025
346,0.9886,3.1036,0,0,0.1417388916015625,1.0503997802734375,0.45648193359375,0.22519397735595703,-3.174926996231079,-0.8455339074134827
347,0.9542,3.3902,0,0,0.223114013671875,1.2344818115234375,0.3909149169921875,-0.23984135687351227,-4.063192844390869,-0.743809163570404
348,0.934,3.6194,0,0,0.23443603515625,1.1793670654296875,0.2649688720703125,-0.9234159588813782,-4.269631385803223,-0.6159561276435852
349,0.9246,3.7623,0,0,0.16448974609375,0.960845947265625,-0.0903472900390625,-0.9234159588813782,-4.269631385803223,-0.6159561276435852
350,0.9221,3.7981,0,0,0.1837615966796875,0.865753173828125,-0.2569122314453125,-3.9733340740203857,1.8617095947265625,-0.5025922656059265
351,0.9236,3.7169,0,0,0.25494384765625,0.928619384765625,-0.087982177734375,-3.469369888305664,2.4633026123046875,-0.40987539291381836
352,0.9269,3.5207,0,0,0.0433502197265625,0.760894775390625,-0.441986083984375,-1.9331886768341064,2.8581087589263916,-0.47190016508102417
353,0.9309,3.223,0,0,-0.006011962890625,0.8239288330078125,-0.4057464599609375,-0.2128821760416031,3.0954294204711914,-0.2965666949748993
354,0.9351,2.8476,0,0,0.0274200439453125,0.8323516845703125,-0.1649017333984375,0.44046393036842346,2.6928722858428955,-0.08382192999124527
355,0.9398,2.4252,0,0,0.1186981201171875,0.8336029052734375,0.053985595703125,0.14126524329185486,2.207202434539795,-0.22764673829078674
356,0.9457,1.9909,0,0,0.192169189453125,0.8714447021484375,0.20391845703125,-0.2522956430912018,0.9772509336471558,-0.6699013710021973
357,0.954,1.5809,0,0,0.28076171875,0.896392822265625,0.1514129638671875,-0.6324062347412109,-0.2441530078649521,-0.9711272716522217
358,0.9658,1.2292,0,0,0.30487060546875,0.8422698974609375,0.0376434326171875,-0.6324062347412109,-0.2441530078649521,-0.9711272716522217
359,0.9827,0.9654,0,0,0.3510589599609375,0.930938720703125,-0.0135498046875,-0.8617762923240662,-0.9199051260948181,-0.8925579190254211
360,1.0063,0.8128,0,0,0.3580169677734375,1.0413665771484375,-0.070709228515625,-0.8110830187797546,-0.5050088167190552,-0.6862649321556091
361,1.0383,0.7864,0,0,0.3688812255859375,1.0334320068359375,0.023773193359375,-0.4374505579471588,-0.32799357175827026,-0.7705550193786621
362,1.0804,0.8922,0,0,0.4229888916015625,1.0610198974609375,0.061126708984375,-0.05669257417321205,-0.569271981716156,-0.8012546300888062
363,1.1341,1.1264,0,0,0.49139404296875,1.1702423095703125,-0.0157623291015625,-0.061399176716804504,-0.0796080082654953,-0.6771366596221924
364,1.2001,1.475,0,0,0.511444091796875,1.21075439453125,-0.0561981201171875,-0.1833711564540863,0.7945780754089355,-0.6087464094161987
365,1.2783,1.9143,0,0,0.5308074951171875,1.2094268798828125,-0.1346282958984375,-0.1833711564540863,0.7945780754089355,-0.6087464094161987
366,1.367,2.4125,0,0,0.533050537109375,1.227752685546875,-0.35784912109375,0.4273023307323456,2.5220139026641846,-0.41277503967285156
367,1.4623,2.9315,0,0,0.5933380126953125,1.2367401123046875,-0.6067047119140625,2.213571310043335,2.4876883029937744,0.1615055352449417
368,1.5583,3.4305,0,0,0.682952880859375,1.0103302001953125,0.165679931640625,3.1230292320251465,0.4870316982269287,1.1468788385391235
369,1.6465,3.8689,0,0,0.5310211181640625,0.8116912841796875,0.33966064453125,2.4242565631866455,-1.1223615407943726,2.055241823196411
370,1.7167,4.2105,0,0,0.497711181640625,0.968841552734375,0.3722076416015625,1.5384002923965454,-2.7284181118011475,3.0519368648529053
371,1.758,4.4267,0,0,0.3974456787109375,1.451690673828125,-0.03533935546875,1.0449085235595703,-3.178868055343628,3.715622663497925
372,1.7603,4.4997,0,0,0.2682342529296875,1.8455657958984375,-0.177154541015625,1.271254301071167,-2.775139331817627,3.514376163482666
373,1.7162,4.4244,0,0,0.0699005126953125,2.2383270263671875,-0.250457763671875,1.271254301071167,-2.775139331817627,3.514376163482666
374,1.6225,4.2098,0,0,-0.3178558349609375,2.6316070556640625,-0.45184326171875,2.1431777477264404,2.8810737133026123,1.4344738721847534
375,1.4821,3.878,0,0,-0.62982177734375,2.1312408447265625,-0.3817596435546875,2.3225204944610596,5.747696399688721,0.3969106078147888
376,1.304,3.4627,0,0,-0.36480712890625,1.1824951171875,0.2910614013671875,1.7043373584747314,4.197669506072998,0.33835726976394653
377,1.1027,3.0053,0,0,0.003448486328125,0.6087188720703125,0.6582489013671875,0.15502206981182098,0.919174075126648,0.7129455208778381
378,0.8967,2.5511,0,0,0.214935302734375,0.4918212890625,0.2623748779296875,-0.7214524745941162,-1.4209219217300415,1.273033857345581
379,0.7065,2.1434,0,0,0.1501312255859375,0.43463134765625,0.0026397705078125,-0.7214524745941162,-1.4209219217300415,1.273033857345581
380,0.5517,1.8192,0,0,-0.09063720703125,0.3689727783203125,-0.03106689453125,-0.12735874950885773,-1.4157623052597046,1.1365578174591064
381,0.4491,1.6047,0,0,-0.1902008056640625,0.2838134765625,0.11102294921875,0.034572891891002655,-0.7600605487823486,0.33516865968704224
382,0.4102,1.5128,0,0,-0.127197265625,0.2510528564453125,0.2566986083984375,-0.19442620873451233,-0.7145341038703918,-0.11977913230657578
383,0.4402,1.5422,0,0,-0.0858001708984375,0.2337188720703125,0.30133056640625,-0.5108464956283569,-0.979925811290741,-0.32700130343437195
384,0.5372,1.6776,0,0,-0.187042236328125,0.21209716796875,0.0552825927734375,-0.47423067688941956,-1.3466987609863281,-0.5345462560653687
385,0.6924,1.8923,0,0,-0.3130645751953125,0.169830322265625,-0.0814971923828125,-0.08513007313013077,-1.565624475479126,-1.020020842552185
386,0.8905,2.1518,0,0,-0.319183349609375,0.23004150390625,-0.0984344482421875,0.14203277230262756,-1.7203506231307983,-1.5142831802368164
387,1.1122,2.4188,0,0,-0.2591094970703125,0.433013916015625,-0.171478271484375,0.14203277230262756,-1.7203506231307983,-1.5142831802368164
388,1.3359,2.6574,0,0,0.0913543701171875,0.9129791259765625,-0.8913421630859375,0.1810922920703888,-2.1668334007263184,-1.8699744939804077
389,1.5406,2.8386,0,0,1.3909454345703125,1.84490966796875,-1.9228668212890625,0.319119393825531,-3.390963315963745,-1.9613702297210693
390,1.7084,2.9432,0,0,1.59814453125,2.192657470703125,-1.1121368408203125,-0.1687040627002716,1.9286324977874756,1.9797537326812744
391,1.8265,2.9649,0,0,1.26806640625,1.7603607177734375,-0.7124176025390625,-1.2185215950012207,3.56899356842041,2.821803092956543
392,1.8884,2.9103,0,0,0.88330078125,0.9232330322265625,-0.42352294921875,-1.2185215950012207,3.56899356842041,2.821803092956543
393,1.8938,2.798,0,0,0.2276153564453125,0.8068084716796875,0.458770751953125,-0.03483973816037178,1.4583624601364136,0.2477988749742508
394,1.8478,2.6548,0,0,-0.01177978515625,1.0428619384765625,0.844512939453125,-0.4589383006095886,-1.2934826612472534,-0.9616045951843262
395,1.7599,2.5121,0,0,-0.2650604248046875,2.2080230712890625,-0.5689697265625,-1.1355897188186646,-1.032077670097351,-1.165144443511963
396,1.6422,2.4006,0,0,-0.3938751220703125,2.1648406982421875,-1.46954345703125,-1.1355897188186646,-1.032077670097351,-1.165144443511963
397,1.5081,2.3461,0,0,-0.511962890625,0.838348388671875,0.205474853515625,-0.11792823672294617,3.821031093597412,0.16438281536102295
398,1.3708,2.3657,0,0,-0.4517364501953125,0.60650634765625,0.6987762451171875,-0.08714209496974945,1.645891547203064,-0.2793869078159332
399,1.2419,2.4653,0,0,-0.290863037109375,0.6488189697265625,0.449432373046875,-0.16371463239192963,1.058668613433838,-0.91790372133255
400,1.1301,2.6389,0,0,-0.1635894775390625,0.7936248779296875,0.35614013671875,0.29110586643218994,-0.19949713349342346,-1.2140451669692993
401,1.0408,2.8683,0,0,-0.0667266845703125,0.878387451171875,0.4318084716796875,0.6004536151885986,-1.7666683197021484,-1.3518266677856445
402,0.9762,3.1266,0,0,-0.042724609375,0.8734893798828125,0.4844818115234375,0.29337382316589355,-3.1534318923950195,-1.4705946445465088
403,0.9353,3.3805,0,0,0.0092620849609375,0.964874267578125,0.4323577880859375,-0.5672072172164917,-3.617063045501709,-1.334691047668457
404,0.9147,3.596,0,0,0.1081695556640625,1.054351806640625,0.3208160400390625,-1.3096216917037964,-3.8758769035339355,-0.93277508020401
405,0.91,3.7427,0,0,0.1367950439453125,0.9861907958984375,0.2171630859375,-1.8993241786956787,-3.901088237762451,-0.44271349906921387
406,0.9162,3.7978,0,0,0.089263916015625,0.8654022216796875,0.08251953125,-2.4183294773101807,-3.3871712684631348,-0.23798780143260956
407,0.9287,3.7493,0,0,0.03961181640625,0.7422332763671875,-1.0117950439453125,-2.4183294773101807,-3.3871712684631348,-0.23798780143260956
408,0.9441,3.5975,0,0,0.174774169921875,0.943572998046875,-0.29095458984375,-2.2790005207061768,4.6406965255737305,-0.4563491642475128
409,0.9601,3.3544,0,0,0.1016845703125,0.9438323974609375,-0.079345703125,-0.5789448618888855,3.2578861713409424,-0.24246616661548615
410,0.9759,3.0419,0,0,0.0220184326171875,0.902099609375,-0.16357421875,0.5911847352981567,1.980026125907898,-0.12937504053115845
411,0.9915,2.6889,0,0,0.088775634765625,0.8829193115234375,-0.09515380859375,0.5824152231216431,2.155914068222046,-0.2149202972650528
412,1.0077,2.3275,0,0,0.166534423828125,0.8539276123046875,0.1601715087890625,0.07850226759910583,1.6733142137527466,-0.5821664929389954
413,1.0259,1.989,0,0,0.266265869140625,0.89776611328125,0.289825439453125,-0.20994365215301514,0.061461497098207474,-0.892047107219696
414,1.0473,1.7017,0,0,0.2984466552734375,0.931671142578125,0.237030029296875,-0.5890121459960938,-1.3280225992202759,-0.9819698333740234
415,1.0729,1.4878,0,0,0.291351318359375,0.965972900390625,0.083404541015625,-0.5890121459960938,-1.3280225992202759,-0.9819698333740234
416,1.1036,1.3627,0,0,0.3043212890625,1.0241851806640625,-0.000244140625,-1.5422648191452026,-1.0322257280349731,-0.8884273171424866
417,1.1398,1.3342,0,0,0.366455078125,1.102569580078125,-0.0070343017578125,-1.3021867275238037,-0.7163026928901672,-0.9137688875198364
418,1.1817,1.4027,0,0,0.4943695068359375,1.199127197265625,-0.0578765869140625,-0.7517560124397278,-0.4178891181945801,-0.8496536016464233
419,1.2293,1.5612,0,0,0.587005615234375,1.2484283447265625,-0.0950164794921875,-0.44737163186073303,0.394278347492218,-0.6839391589164734
420,1.2822,1.7964,0,0,0.5689849853515625,1.2965240478515625,-0.16864013671875,-0.38701269030570984,1.5365417003631592,-0.5024575591087341
421,1.3398,2.0893,0,0,0.511505126953125,1.33001708984375,-0.2335205078125,-0.07535627484321594,2.3941619396209717,-0.3032592236995697
422,1.4006,2.4167,0,0,0.543670654296875,1.3025665283203125,-0.38446044921875,0.9861525893211365,2.2170603275299072,-0.030345922335982323
423,1.4623,2.753,0,0,0.6837158203125,1.1958770751953125,-0.20904541015625,2.2583136558532715,1.0084365606307983,0.671410858631134
424,1.5214,3.0721,0,0,0.6808624267578125,1.0480194091796875,0.1309051513671875,2.265394449234009,-0.4311450123786926,1.4453281164169312
425,1.5727,3.3491,0,0,0.5806121826171875,0.9838409423828125,0.34954833984375,1.514298677444458,-1.8915482759475708,2.070664405822754
426,1.6102,3.5628,0,0,0.3651123046875,1.17584228515625,0.1162109375,1.2912319898605347,-3.039093255996704,2.4681358337402344
427,1.6271,3.6969,0,0,0.18212890625,1.5344390869140625,-0.03924560546875,1.385927677154541,-3.2628157138824463,2.5537540912628174
428,1.6166,3.7418,0,0,0.1226959228515625,1.64483642578125,0.09735107421875,1.4577070474624634,-3.390735387802124,2.352782964706421
429,1.5737,3.6948,0,0,-0.0096588134765625,1.7612762451171875,0.0251922607421875,1.5883222818374634,-2.4635913372039795,1.940094232559204
430,1.4958,3.5606,0,0,-0.363677978515625,1.90277099609375,-0.1689453125,1.7462983131408691,0.8545705676078796,1.0983635187149048
431,1.384,3.3506,0,0,-0.6980133056640625,1.8311309814453125,-0.4228363037109375,1.7462983131408691,0.8545705676078796,1.0983635187149048
432,1.2436,3.0814,0,0,-0.4967803955078125,1.2999114990234375,-0.08416748046875,2.4748706817626953,5.070814609527588,0.28322717547416687
433,1.0836,2.7745,0,0,-0.14239501953125,0.744720458984375,0.63458251953125,1.254224181175232,2.0478315353393555,0.8567399978637695
434,0.9166,2.4538,0,0,0.1379241943359375,0.673980712890625,0.3681182861328125,1.254224181175232,2.0478315353393555,0.8567399978637695
435,0.7569,2.144,0,0,0.079010009765625,0.6463470458984375,0.02801513671875,-0.2943999469280243,-1.3632407188415527,1.6157562732696533
436,0.6192,1.8683,0,0,-0.1126251220703125,0.51953125,-0.045379638671875,-0.2943999469280243,-1.3632407188415527,1.6157562732696533
437,0.517,1.6461,0,0,-0.1743927001953125,0.3595123291015625,0.1057891845703125,0.11424534767866135,0.6752490401268005,0.5828421115875244
438,0.4608,1.4909,0,0,-0.1324615478515625,0.29119873046875,0.222869873046875,0.08279767632484436,0.8644932508468628,0.20634332299232483
439,0.4572,1.4089,0,0,-0.02728271484375,0.2742462158203125,0.3188323974609375,0.08279767632484436,0.8644932508468628,0.20634332299232483
440,0.508,1.3985,0,0,0.03350830078125,0.3453521728515625,0.186492919921875,-0.25053954124450684,-1.0747843980789185,0.17659740149974823
441,0.6096,1.4506,0,0,-0.211212158203125,0.3691864013671875,-0.1928253173828125,-0.25053954124450684,-1.0747843980789185,0.17659740149974823
442,0.7539,1.5505,0,0,-0.2489013671875,0.3777618408203125,-0.2823028564453125,0.6209554076194763,-1.9838770627975464,-0.8455360531806946
443,0.9285,1.6798,0,0,-0.114501953125,0.414764404296875,-0.263946533203125,0.7040857076644897,-1.9520944356918335,-1.2236210107803345
444,1.1184,1.8188,0,0,0.080108642578125,0.55767822265625,-0.3393402099609375,0.33977648615837097,-1.8185621500015259,-1.3123693466186523
445,1.3075,1.9488,0,0,0.5933837890625,1.10675048828125,-1.0469970703125,-0.12538614869117737,-1.145111322402954,-1.0199382305145264
446,1.4807,2.0548,0,0,1.4043121337890625,1.8224334716796875,-1.1676483154296875,-0.18893902003765106,0.32982876896858215,0.5376195311546326
447,1.6254,2.1261,0,0,1.56927490234375,1.8457183837890625,-0.942230224609375,0.013579724356532097,1.8180351257324219,2.198962450027466
448,1.7329,2.1583,0,0,1.3510284423828125,1.4100341796875,-0.4751434326171875,-0.18645909428596497,2.1487019062042236,2.230776309967041
449,1.7984,2.1533,0,0,0.836212158203125,0.758636474609375,-0.0401153564453125,-0.18645909428596497,2.1487019062042236,2.230776309967041
450,1.8213,2.1194,0,0,0.2138671875,0.9062347412109375,0.4133453369140625,-1.1860393285751343,0.14329217374324799,-0.15553899109363556
451,1.8044,2.0699,0,0,-0.18804931640625,0.8223876953125,0.40496826171875,-1.5451027154922485,-0.7851043939590454,-1.2164331674575806
452,1.7528,2.0214,0,0,-0.8883514404296875,1.338470458984375,-1.0956268310546875,-0.6715349555015564,-0.4754043519496918,-2.092318534851074
453,1.6734,1.9913,0,0,-0.8683013916015625,2.257476806640625,-2.0985565185546875,2.2663841247558594,0.9288693070411682,-1.8645437955856323
454,1.5743,1.9956,0,0,-0.0643463134765625,1.0551605224609375,0.933502197265625,0.5791507363319397,1.0565977096557617,-0.305597722530365
455,1.4641,2.0454,0,0,-0.22991943359375,0.8880462646484375,0.8446807861328125,-0.9322291612625122,1.0952774286270142,-0.15230298042297363
456,1.3512,2.1456,0,0,-0.186492919921875,0.9454803466796875,0.579193115234375,-0.9281020164489746,0.3296077251434326,-0.7680585980415344
457,1.243,2.2931,0,0,-0.0390625,0.9322509765625,0.39508056640625,-0.4478651285171509,-0.847373902797699,-1.1672073602676392
458,1.1453,2.4769,0,0,0.0629119873046875,0.9081878662109375,0.3035736083984375,-0.13972380757331848,-1.7229522466659546,-1.2820789813995361
459,1.0621,2.6793,0,0,0.172271728515625,0.915435791015625,0.30682373046875,-0.10591071844100952,-2.639209508895874,-1.1949819326400757
460,0.9952,2.878,0,0,0.2676849365234375,0.9586639404296875,0.279144287109375,-0.4180542230606079,-3.233370304107666,-0.7843092083930969
461,0.9449,3.0493,0,0,0.2877349853515625,0.9454345703125,0.148895263671875,-0.4180542230606079,-3.233370304107666,-0.7843092083930969
462,0.9096,3.1714,0,0,0.183685302734375,0.7135009765625,-0.7274322509765625,-2.441102981567383,2.3138928413391113,-0.7295612692832947
463,0.8875,3.2269,0,0,0.3966827392578125,1.01318359375,0.0811920166015625,-2.5378096103668213,3.2408595085144043,-0.4393201172351837
464,0.8761,3.2053,0,0,0.257537841796875,0.872833251953125,-0.0912933349609375,-1.9760375022888184,2.4828877449035645,-0.018759572878479958
465,0.8731,3.1041,0,0,0.0670928955078125,0.7631378173828125,-0.393218994140625,-1.1408188343048096,3.3460004329681396,0.0002085255109705031
466,0.8767,2.9283,0,0,0.10455322265625,0.8950653076171875,-0.15325927734375,-0.33344748616218567,3.076047658920288,0.0954093411564827
467,0.8854,2.6902,0,0,0.10198974609375,0.8902740478515625,0.0213165283203125,-0.03711940348148346,2.2080976963043213,0.11601688712835312
468,0.8983,2.4074,0,0,0.1328887939453125,0.829071044921875,0.069732666015625,-0.03711940348148346,2.2080976963043213,0.11601688712835312
469,0.9149,2.1005,0,0,0.1982269287109375,0.8097991943359375,0.1373138427734375,-0.27283766865730286,1.5219757556915283,-0.09169716387987137
470,0.9347,1.7919,0,0,0.23529052734375,0.8250579833984375,0.113037109375,-0.8166881799697876,-0.27143043279647827,-0.752626895904541
471,0.9575,1.5032,0,0,0.32568359375,0.8562164306640625,0.07684326171875,-1.0117982625961304,-0.8785496950149536,-0.8539665937423706
472,0.9832,1.2546,0,0,0.348602294921875,0.892669677734375,-0.0201568603515625,-1.1394201517105103,-0.9146274924278259,-0.7442717552185059
473,1.0115,1.0634,0,0,0.34423828125,0.95263671875,-0.0042266845703125,-0.9802438020706177,-0.8756404519081116,-0.6499655246734619
474,1.0425,0.9439,0,0,0.3380279541015625,0.9942169189453125,-0.00103759765625,-0.7685448527336121,-0.7587340474128723,-0.6299582123756409
475,1.0761,0.9065,0,0,0.329498291015625,1.05615234375,0.03692626953125,-0.5539923906326294,-0.44309088587760925,-0.5951384902000427
476,1.1129,0.957,0,0,0.36395263671875,1.133514404296875,0.134552001953125,-0.28114593029022217,-0.7179272174835205,-0.45468947291374207
477,1.1532,1.0964,0,0,0.3358306884765625,1.2037353515625,0.111663818359375,-0.3274742662906647,-0.6252966523170471,-0.2890949249267578
478,1.1979,1.3206,0,0,0.2915496826171875,1.178009033203125,0.023040771484375,-0.5520123243331909,0.22604325413703918,-0.32770970463752747
479,1.2474,1.6198,0,0,0.276123046875,1.224395751953125,-0.1484832763671875,-0.6873690485954285,1.522151231765747,-0.33214837312698364
480,1.3018,1.979,0,0,0.224884033203125,1.2636260986328125,-0.500457763671875,0.1131497249007225,2.7260584831237793,-0.3373010754585266
481,1.3607,2.3789,0,0,0.57611083984375,1.4317626953125,-0.36517333984375,1.7232569456100464,1.8093596696853638,0.02105601690709591
482,1.422,2.7964,0,0,0.7091217041015625,1.154022216796875,-0.13177490234375,1.7232569456100464,1.8093596696853638,0.02105601690709591
483,1.4824,3.206,0,0,0.6794281005859375,0.9466552734375,0.16021728515625,2.692145347595215,-0.5044964551925659,0.9314632415771484
484,1.5371,3.5811,0,0,0.5902099609375,0.88494873046875,0.329559326171875,2.692145347595215,-0.5044964551925659,0.9314632415771484
485,1.5796,3.896,0,0,0.5822906494140625,0.98846435546875,0.315185546875,1.638535737991333,-3.0779073238372803,1.9816408157348633
486,1.6028,4.1274,0,0,0.4023590087890625,1.3604736328125,0.014373779296875,1.5021599531173706,-3.3637850284576416,2.3790576457977295
487,1.5999,4.2571,0,0,0.2714996337890625,1.653472900390625,-0.04046630859375,1.5021599531173706,-3.3637850284576416,2.3790576457977295
488,1.5653,4.2735,0,0,0.06341552734375,1.88726806640625,-0.103179931640625,1.6286758184432983,-2.9007561206817627,2.315723180770874
489,1.4963,4.1734,0,0,-0.2728424072265625,2.1481475830078125,-0.2930450439453125,1.8139008283615112,-0.9917545318603516,1.8850796222686768
490,1.394,3.9634,0,0,-0.44036865234375,1.8983917236328125,-0.5605010986328125,2.5068657398223877,6.0225982666015625,0.650336742401123
491,1.2634,3.6594,0,0,-0.341461181640625,1.1957550048828125,0.0804595947265625,2.5068657398223877,6.0225982666015625,0.650336742401123
492,1.1136,3.286,0,0,-0.0374603271484375,0.708404541015625,0.6358642578125,0.8246163725852966,1.2301740646362305,1.0809485912322998
493,0.9566,2.8734,0,0,0.048248291015625,0.6399688720703125,0.4392852783203125,0.8246163725852966,1.2301740646362305,1.0809485912322998
494,0.8057,2.4548,0,0,-0.0693817138671875,0.5534210205078125,0.158416748046875,-0.39899158477783203,-1.0843771696090698,1.2246559858322144
495,0.6746,2.0622,0,0,-0.1384429931640625,0.4720001220703125,0.0619049072265625,-0.6725816130638123,-1.6763259172439575,0.9289808869361877
496,0.5751,1.7232,0,0,-0.122802734375,0.372283935546875,0.2097015380859375,-0.29816457629203796,-0.7127929329872131,0.09442530572414398
497,0.5168,1.4582,0,0,-0.0446929931640625,0.3056640625,0.379302978515625,-0.29816457629203796,-0.7127929329872131,0.09442530572414398
498,0.5052,1.2796,0,0,0.0277862548828125,0.2955780029296875,0.4030609130859375,-0.8773747086524963,-1.6564656496047974,0.17742139101028442
499,0.5423,1.1911,0,0,0.0882568359375,0.4105072021484375,-0.0682220458984375,-0.8037920594215393,-1.5578112602233887,0.4500875473022461
500,0.6257,1.1884,0,0,-0.11578369140625,0.4658966064453125,-0.4374847412109375,-0.8037920594215393,-1.5578112602233887,0.4500875473022461
501,0.7496,1.2607,0,0,-0.2079010009765625,0.559051513671875,-0.371429443359375,0.5538493394851685,-0.0767858549952507,-0.5173720121383667
502,0.905,1.3919,0,0,-0.1164703369140625,0.730804443359375,-0.304718017578125,0.42264845967292786,-0.9223421812057495,-1.0011006593704224
503,1.081,1.562,0,0,0.1875,0.864288330078125,-0.6374969482421875,0.13728302717208862,-1.6405775547027588,-1.0499951839447021
504,1.2655,1.7497,0,0,0.8421783447265625,0.9554290771484375,-0.9052886962890625,0.061107560992240906,-0.8964794278144836,-0.2613295912742615
505,1.4461,1.9331,0,0,1.144287109375,1.058258056640625,-0.29254150390625,0.061107560992240906,-0.8964794278144836,-0.2613295912742615
506,1.6115,2.0929,0,0,1.2496490478515625,1.30108642578125,-0.406341552734375,-0.5623559951782227,1.5630683898925781,1.5299311876296997
507,1.7517,2.2134,0,0,1.4475860595703125,1.37322998046875,-0.4686737060546875,0.2812231481075287,2.9686360359191895,1.6070454120635986
508,1.8587,2.2849,0,0,1.3779296875,0.9532318115234375,-0.1436920166015625,0.3415277600288391,2.858243465423584,1.40708589553833
509,1.9266,2.3046,0,0,0.6952056884765625,0.6247100830078125,0.5686798095703125,-0.7968899607658386,1.1041295528411865,0.7062689661979675
510,1.9522,2.2774,0,0,-0.0566864013671875,0.6899261474609375,0.84906005859375,-0.7968899607658386,1.1041295528411865,0.7062689661979675
511,1.9348,2.2148,0,0,-0.2151031494140625,0.8625030517578125,0.2297210693359375,-2.3446919918060303,-2.500230312347412,-1.9055991172790527
512,1.8766,2.1339,0,0,-1.7914581298828125,2.8623809814453125,-4.3306121826171875,1.2814984321594238,-1.7339622974395752,-2.8893918991088867
513,1.7833,2.0544,0,0,0.2076263427734375,1.8267974853515625,-0.33331298828125,1.6308902502059937,1.032747745513916,-0.8957765698432922
514,1.6633,1.9956,0,0,0.0847320556640625,1.0341339111328125,0.9832000732421875,-0.1162208840250969,0.7458515763282776,0.07515466958284378
515,1.5274,1.9729,0,0,-0.2017669677734375,0.8622894287109375,0.41064453125,-0.3323020339012146,0.8857700228691101,-0.5203153491020203
516,1.387,1.9945,0,0,-0.04339599609375,0.782135009765625,0.372161865234375,-0.1367168426513672,0.7085958123207092,-0.9558340907096863
517,1.253,2.0597,0,0,0.0842132568359375,0.8001708984375,0.3516693115234375,-0.07939548790454865,0.1462584137916565,-0.8807662129402161
518,1.134,2.1582,0,0,0.1243896484375,0.7611846923828125,0.3866424560546875,-0.11066365987062454,-0.6957311034202576,-0.7710237503051758
519,1.0358,2.272,0,0,0.176788330078125,0.8387298583984375,0.3795013427734375,-0.17440162599086761,-1.8835930824279785,-0.799919068813324
520,0.9612,2.3784,0,0,0.2612152099609375,0.9524383544921875,0.4023590087890625,-0.4594394862651825,-3.0598435401916504,-0.7526761889457703
521,0.9098,2.454,0,0,0.298370361328125,1.021636962890625,0.26666259765625,-0.9331825375556946,-3.7461531162261963,-0.5850096940994263
522,0.8793,2.4793,0,0,0.1798858642578125,0.903411865234375,-0.67523193359375,-0.9331825375556946,-3.7461531162261963,-0.5850096940994263
523,0.8659,2.4417,0,0,0.2230377197265625,0.9421844482421875,-0.1024017333984375,-2.723518133163452,2.1551899909973145,-0.36119788885116577
524,0.865,2.3376,0,0,0.134185791015625,0.8521270751953125,-0.11907958984375,-1.8683103322982788,1.58290433883667,-0.39307379722595215
525,0.8726,2.1728,0,0,0.013946533203125,0.8369293212890625,-0.322723388671875,-0.7988734841346741,1.5317647457122803,-0.357003390789032
526,0.8848,1.9608,0,0,0.0429840087890625,0.90936279296875,-0.143829345703125,-0.0621722936630249,1.2919987440109253,-0.0874643325805664
527,0.8991,1.7202,0,0,0.0314178466796875,0.8906707763671875,0.0360565185546875,-0.0621722936630249,1.2919987440109253,-0.0874643325805664
528,0.9139,1.4724,0,0,0.12890625,0.8652801513671875,0.1571502685546875,-0.37515735626220703,0.3610127866268158,-0.3523958623409271
529,0.9283,1.2383,0,0,0.21588134765625,0.866973876953125,0.14495849609375,-0.5864999890327454,-0.23240740597248077,-0.5537462830543518
530,0.9429,1.0366,0,0,0.2537078857421875,0.8573455810546875,0.0849761962890625,-0.5864999890327454,-0.23240740597248077,-0.5537462830543518
531,0.9583,0.8827,0,0,0.2995147705078125,0.8781585693359375,0.0333251953125,-0.8069189190864563,-0.45615315437316895,-0.7827171683311462
532,0.9762,0.7878,0,0,0.3134307861328125,0.8986968994140625,0.003692626953125,-0.7690452933311462,-0.24980424344539642,-0.8017569184303284
533,0.998,0.7588,0,0,0.3098297119140625,0.9481353759765625,0.0052947998046875,-0.7690452933311462,-0.24980424344539642,-0.8017569184303284
534,1.0256,0.799,0,0,0.2896728515625,0.967437744140625,-0.013336181640625,-0.7037001252174377,0.030292658135294914,-0.7649117708206177
535,1.0603,0.9081,0,0,0.33001708984375,1.022552490234375,0.062957763671875,-0.4666105806827545,0.5633046627044678,-0.818444013595581
536,1.1035,1.0821,0,0,0.426971435546875,1.10858154296875,0.0469818115234375,-0.3303411602973938,0.43029358983039856,-0.7264586687088013
537,1.1556,1.3135,0,0,0.4635772705078125,1.14056396484375,-0.0050506591796875,-0.3303411602973938,0.43029358983039856,-0.7264586687088013
538,1.2167,1.5916,0,0,0.411590576171875,1.1377105712890625,-0.1347503662109375,-0.44592902064323425,1.3970482349395752,-0.5793967843055725
539,1.2856,1.9023,0,0,0.436279296875,1.1638946533203125,-0.3484954833984375,0.21402519941329956,1.9621933698654175,-0.5563740134239197
540,1.36,2.2287,0,0,0.6457061767578125,1.33233642578125,-0.318878173828125,1.325923204421997,1.6804155111312866,-0.155337393283844
541,1.4362,2.5518,0,0,0.7943115234375,1.2372589111328125,-0.06146240234375,2.1537952423095703,0.7554756999015808,0.5379065871238708
542,1.5091,2.8516,0,0,0.7256011962890625,1.0009765625,0.2568359375,2.1537952423095703,0.7554756999015808,0.5379065871238708
543,1.5722,3.1086,0,0,0.6819610595703125,0.9194488525390625,0.1273193359375,1.653738021850586,-1.5499000549316406,1.7029708623886108
544,1.618,3.3053,0,0,0.6324920654296875,1.1225738525390625,-0.0476531982421875,1.5882197618484497,-1.664038062095642,2.581467628479004
545,1.639,3.428,0,0,0.3969879150390625,1.46319580078125,-0.0811004638671875,1.9358283281326294,-1.8733878135681152,2.9646449089050293
546,1.6283,3.4686,0,0,0.2352142333984375,1.6882781982421875,0.04266357421875,2.057037830352783,-2.1153523921966553,2.8497366905212402
547,1.5812,3.4257,0,0,0.0617523193359375,1.8239593505859375,-0.011444091796875,1.971278190612793,-1.2715691328048706,2.302785873413086
548,1.4964,3.3052,0,0,-0.34613037109375,1.986083984375,-0.2110748291015625,1.971278190612793,-1.2715691328048706,2.302785873413086
549,1.3762,3.1199,0,0,-0.54205322265625,1.837799072265625,-0.4655609130859375,1.6158082485198975,1.8196040391921997,1.21976900100708
550,1.2279,2.889,0,0,-0.2658843994140625,1.2257537841796875,0.1196441650390625,1.6192903518676758,4.518957138061523,0.11738388240337372
551,1.0625,2.636,0,0,0.1106719970703125,0.76171875,0.670654296875,0.08471834659576416,1.0138449668884277,0.8892760872840881
552,0.894,2.3867,0,0,0.3010101318359375,0.6786651611328125,0.3199615478515625,-0.6911091804504395,-0.9736402630805969,1.5924211740493774
553,0.7379,2.1666,0,0,0.1861724853515625,0.571990966796875,0.1566009521484375,-0.6255863904953003,-1.8632630109786987,1.6760902404785156
554,0.6096,1.9985,0,0,0.0299835205078125,0.4500732421875,0.08428955078125,-0.4113047122955322,-2.0379161834716797,1.2891411781311035
555,0.5219,1.8997,0,0,-0.06640625,0.336273193359375,0.0833282470703125,-0.1758493185043335,-1.369434118270874,0.6078494787216187
556,0.4845,1.8808,0,0,-0.06671142578125,0.302459716796875,0.280853271484375,-0.1758493185043335,-1.369434118270874,0.6078494787216187
557,0.5017,1.9435,0,0,-0.0574188232421875,0.3074493408203125,0.2668914794921875,-0.5652841925621033,-1.4056864976882935,-0.2701515853404999
558,0.5729,2.0811,0,0,-0.073333740234375,0.322479248046875,-0.0032501220703125,-0.4531214237213135,-1.252038598060608,-0.44193053245544434
559,0.6917,2.2786,0,0,-0.2743988037109375,0.3236541748046875,-0.167205810546875,-0.4531214237213135,-1.252038598060608,-0.44193053245544434
560,0.8472,2.5149,0,0,-0.3838958740234375,0.387115478515625,-0.1468048095703125,0.36987340450286865,-1.5247691869735718,-1.5423007011413574
561,1.0251,2.7653,0,0,-0.371002197265625,0.6025238037109375,-0.2075653076171875,0.47424426674842834,-2.8253865242004395,-2.09606671333313
562,1.2093,3.0051,0,0,0.0936126708984375,1.0199432373046875,-0.828765869140625,0.495747447013855,-3.8697404861450195,-1.9979358911514282
563,1.3839,3.2122,0,0,0.913665771484375,1.4980010986328125,-1.416839599609375,0.495747447013855,-3.8697404861450195,-1.9979358911514282
564,1.535,3.3701,0,0,1.052215576171875,1.7286376953125,-1.0428314208984375,-0.9212648868560791,1.8977220058441162,0.9899965524673462
565,1.6521,3.4687,0,0,1.047088623046875,1.59014892578125,-1.0161285400390625,-0.8002423644065857,4.195732593536377,1.9456453323364258
566,1.7289,3.5052,0,0,1.0064697265625,1.05792236328125,-0.547088623046875,-0.22844356298446655,3.9340696334838867,1.8510926961898804
567,1.7631,3.4829,0,0,0.7436981201171875,0.8271484375,0.3295440673828125,-0.14579369127750397,1.9413038492202759,1.2413851022720337
568,1.7563,3.4095,0,0,0.1010894775390625,0.6659088134765625,0.7404327392578125,-0.4052034318447113,-0.508460283279419,0.10341640561819077
569,1.7127,3.2964,0,0,0.00701904296875,0.8928680419921875,0.8298492431640625,-0.9867246150970459,-2.4437098503112793,-0.8000961542129517
570,1.6387,3.1564,0,0,-0.0390167236328125,1.5344085693359375,-0.13238525390625,-1.3295503854751587,-2.433617353439331,-1.1353015899658203
571,1.5421,3.0037,0,0,-0.1181182861328125,2.7660064697265625,-2.286773681640625,-0.008812932297587395,6.726486682891846,0.21041901409626007
572,1.4317,2.853,0,0,-0.3090667724609375,0.9495391845703125,0.497039794921875,-0.10658449679613113,4.805109977722168,0.3229391574859619
573,1.3167,2.7184,0,0,-0.3414154052734375,0.7097015380859375,0.7309722900390625,-0.029158150777220726,0.9785774946212769,-0.5121192336082458
574,1.2055,2.6122,0,0,-0.2187652587890625,0.7131500244140625,0.3652496337890625,0.13255219161510468,-0.700551450252533,-1.0612246990203857
575,1.1055,2.5426,0,0,-0.09326171875,0.7110443115234375,0.2327423095703125,0.21893607079982758,-1.2932642698287964,-1.1447787284851074
576,1.0221,2.5125,0,0,-0.0353546142578125,0.7749481201171875,0.2624664306640625,0.19433219730854034,-1.7231459617614746,-1.092587947845459
577,0.958,2.5185,0,0,0.0181121826171875,0.8770904541015625,0.2861480712890625,0.04748282954096794,-2.230454921722412,-0.9856758713722229
578,0.914,2.5513,0,0,0.0936279296875,1.007232666015625,0.2826080322265625,0.04748282954096794,-2.230454921722412,-0.9856758713722229
579,0.8886,2.5968,0,0,0.1097869873046875,1.044677734375,0.2320404052734375,-0.31172460317611694,-2.6002583503723145,-0.725424587726593
580,0.8788,2.6382,0,0,0.09490966796875,0.9699554443359375,0.115478515625,-1.3021248579025269,-2.325331449508667,-0.41133296489715576
581,0.881,2.6589,0,0,-0.017486572265625,0.7430267333984375,-0.553192138671875,-2.49530291557312,1.0732864141464233,-0.4968015253543854
582,0.8912,2.6446,0,0,0.0885162353515625,0.878997802734375,-0.285125732421875,-2.2055859565734863,3.263800621032715,-0.5570136904716492
583,0.9059,2.5853,0,0,0.143096923828125,0.930755615234375,-0.1015472412109375,-0.9747755527496338,2.9157779216766357,-0.42591428756713867
584,0.922,2.477,0,0,0.135528564453125,0.8742828369140625,-0.094512939453125,0.25680941343307495,1.9619102478027344,-0.5346993803977966
585,0.9375,2.3218,0,0,0.1859130859375,0.849395751953125,-0.1059417724609375,0.25680941343307495,1.9619102478027344,-0.5346993803977966
586,0.9513,2.1274,0,0,0.2752685546875,0.88873291015625,0.0858001708984375,0.07463615387678146,2.1582589149475098,-0.9332981109619141
587,0.9632,1.9067,0,0,0.359710693359375,0.933349609375,0.2275238037109375,-0.2610968351364136,1.198766827583313,-0.9396178126335144
588,0.9738,1.6756,0,0,0.3886260986328125,0.8959808349609375,0.176513671875,-0.45226386189460754,-0.004051999654620886,-0.9795615077018738
589,0.9847,1.4525,0,0,0.41015625,0.8381195068359375,0.0467071533203125,-0.7223544716835022,-0.45348653197288513,-1.101926326751709
590,0.9977,1.2561,0,0,0.4144744873046875,0.8318939208984375,-0.0057830810546875,-0.777214527130127,-0.6380377411842346,-1.0986090898513794
591,1.0152,1.1045,0,0,0.3869171142578125,0.890777587890625,-0.009246826171875,-0.5987241268157959,-0.7927072048187256,-1.0227787494659424
592,1.0396,1.0138,0,0,0.4333038330078125,1.0206146240234375,0.04833984375,-0.5987241268157959,-0.7927072048187256,-1.0227787494659424
593,1.073,0.9968,0,0,0.477752685546875,1.065216064453125,0.0881195068359375,-0.3462176024913788,-0.9574649930000305,-0.9322730898857117
594,1.1171,1.0613,0,0,0.50457763671875,1.1044158935546875,0.044342041015625,-0.20222286880016327,-1.1693596839904785,-0.8025028705596924
595,1.1731,1.2092,0,0,0.4585723876953125,1.12335205078125,-0.0241546630859375,-0.4215352535247803,-0.44834449887275696,-0.6812525987625122
596,1.2408,1.4349,0,0,0.4261932373046875,1.1234130859375,-0.0331878662109375,-0.4142187535762787,-0.004887699615210295,-0.48668763041496277
597,1.3186,1.7251,0,0,0.488311767578125,1.2078094482421875,-0.149139404296875,-0.04694034531712532,0.259419322013855,-0.26595231890678406
598,1.4033,2.0586,0,0,0.573883056640625,1.2611541748046875,-0.4160308837890625,0.757339358329773,1.1583038568496704,0.13340839743614197
599,1.4897,2.4084,0,0,0.64227294921875,1.2128143310546875,-0.364227294921875,2.0888211727142334,1.256830096244812,0.7360508441925049
600,1.5708,2.744,0,0,0.6711883544921875,1.076263427734375,0.11090087890625,2.5843522548675537,0.047869786620140076,1.4979479312896729
601,1.6384,3.035,0,0,0.623443603515625,1.0598907470703125,0.3178863525390625,2.088611125946045,-1.5061113834381104,2.318131446838379
602,1.6835,3.2547,0,0,0.4599609375,1.2956390380859375,0.218658447265625,1.4587960243225098,-2.7097232341766357,2.940452814102173
603,1.6973,3.3836,0,0,0.2869415283203125,1.685028076171875,-0.0120849609375,1.4587960243225098,-2.7097232341766357,2.940452814102173
604,1.6729,3.4113,0,0,0.1093902587890625,1.8079376220703125,-0.0471343994140625,0.9542087316513062,-2.5498733520507812,2.6471645832061768
605,1.6066,3.3384,0,0,-0.13092041015625,1.9814453125,-0.202667236328125,1.2628257274627686,-0.6722814440727234,1.732421636581421
606,1.4984,3.1755,0,0,-0.5693511962890625,2.09423828125,-0.3775482177734375,1.5393009185791016,2.521368980407715,0.5949693322181702
607,1.3536,2.9426,0,0,-0.4970855712890625,1.70379638671875,-0.254180908203125,1.915098786354065,3.7781264781951904,0.12020017951726913
608,1.1821,2.6663,0,0,-0.206207275390625,1.0678253173828125,0.36383056640625,1.3597967624664307,2.1862807273864746,0.4726911187171936
609,0.9976,2.3778,0,0,0.065277099609375,0.5991363525390625,0.5088653564453125,0.22230631113052368,-0.13059449195861816,0.8720195889472961
610,0.8166,2.109,0,0,0.181671142578125,0.5095977783203125,0.33013916015625,-0.4972846210002899,-1.5694814920425415,1.264749526977539
611,0.656,1.8897,0,0,0.1624603271484375,0.4393463134765625,0.174713134765625,-0.6607036590576172,-2.051126480102539,1.497645378112793
612,0.5315,1.7447,0,0,0.1214599609375,0.3654022216796875,0.134979248046875,-0.5994845032691956,-1.9783867597579956,1.4663050174713135
613,0.4557,1.6909,0,0,-0.0851593017578125,0.317626953125,0.000762939453125,-0.37402287125587463,-1.0868871212005615,0.9898626208305359
614,0.4368,1.7355,0,0,-0.220916748046875,0.2783203125,0.0518798828125,-0.37402287125587463,-1.0868871212005615,0.9898626208305359
615,0.4775,1.8747,0,0,-0.135498046875,0.2541351318359375,0.3082122802734375,-0.34707513451576233,0.27776849269866943,-0.32438021898269653
616,0.5748,2.0933,0,0,-0.217132568359375,0.2429656982421875,0.2364959716796875,-0.4671911597251892,-0.5364647507667542,-0.7104509472846985
617,0.7205,2.3661,0,0,-0.360565185546875,0.303131103515625,0.012939453125,-0.2241010069847107,-1.1290234327316284,-1.2754837274551392
618,0.9016,2.6602,0,0,-0.39471435546875,0.4564666748046875,-0.076812744140625,0.10398472100496292,-1.5716432332992554,-1.8485435247421265
619,1.1024,2.9397,0,0,-0.2922210693359375,0.71075439453125,-0.1444091796875,0.3687037229537964,-2.324725389480591,-2.1912238597869873
620,1.3058,3.1699,0,0,0.2164459228515625,1.305694580078125,-0.7746124267578125,0.8658538460731506,-4.4940032958984375,-1.9681068658828735
621,1.4953,3.3225,0,0,1.0891571044921875,1.653778076171875,-1.5275115966796875,0.147248312830925,-3.713080644607544,-0.7188636064529419
622,1.6568,3.3794,0,0,1.53350830078125,1.8011932373046875,-1.2852630615234375,-0.9897041320800781,2.1115660667419434,1.4780863523483276
623,1.7802,3.3357,0,0,1.2030792236328125,1.34478759765625,-0.51068115234375,-1.0360982418060303,4.657251834869385,2.8028223514556885
624,1.859,3.1999,0,0,1.0582733154296875,0.903472900390625,0.024871826171875,-0.7445710897445679,3.3923697471618652,2.480348825454712
625,1.8913,2.9931,0,0,0.7540435791015625,0.6582183837890625,0.3561248779296875,-0.28610900044441223,0.5545290112495422,1.3524895906448364
626,1.8783,2.7459,0,0,0.1671600341796875,0.828704833984375,0.667022705078125,-0.6195425987243652,-1.642359733581543,-0.2719452381134033
627,1.8246,2.4943,0,0,0.024444580078125,1.00250244140625,0.575927734375,-1.336560606956482,-2.9345383644104004,-1.079911231994629
628,1.7367,2.2751,0,0,-0.54315185546875,2.4820404052734375,-2.2464599609375,-1.341920256614685,0.787152111530304,-0.8286446928977966
629,1.6233,2.1209,0,0,-0.5277557373046875,2.3538055419921875,-1.3848114013671875,-1.341920256614685,0.787152111530304,-0.8286446928977966
630,1.4945,2.0565,0,0,-0.4424896240234375,0.7325439453125,0.7310028076171875,0.4875963032245636,2.309422731399536,0.14563815295696259
631,1.3612,2.0954,0,0,-0.32086181640625,0.75628662109375,0.5645904541015625,0.4875963032245636,2.309422731399536,0.14563815295696259
632,1.2336,2.2377,0,0,-0.16424560546875,0.6909332275390625,0.414306640625,0.6395139098167419,-0.12312406301498413,-0.7956667542457581
633,1.1204,2.4694,0,0,0.008331298828125,0.6701202392578125,0.3711700439453125,0.6395139098167419,-0.12312406301498413,-0.7956667542457581
634,1.028,2.7642,0,0,0.0290679931640625,0.67022705078125,0.3990631103515625,0.16316868364810944,-1.9330905675888062,-0.5609046220779419
635,0.9595,3.0858,0,0,0.0811614990234375,0.804107666015625,0.3845367431640625,-0.15914598107337952,-2.953136682510376,-0.5594670176506042
636,0.9152,3.3926,0,0,0.1160736083984375,0.9319610595703125,0.3873138427734375,-0.4972691535949707,-3.939286947250366,-0.6642706394195557
637,0.8928,3.643,0,0,0.1605682373046875,1.0213165283203125,0.3258056640625,-0.9969218373298645,-4.552022933959961,-0.7743598818778992
638,0.8881,3.801,0,0,0.223724365234375,1.0323486328125,0.2009429931640625,-0.9969218373298645,-4.552022933959961,-0.7743598818778992
639,0.8959,3.8407,0,0,0.1821746826171875,0.9016265869140625,0.06964111328125,-2.24434232711792,-3.809319496154785,-0.5255261063575745
640,0.911,3.7496,0,0,0.1095428466796875,0.82177734375,-0.47137451171875,-3.8956406116485596,1.024599552154541,-0.2678218483924866
641,0.9289,3.5299,0,0,0.1609039306640625,0.8957366943359375,-0.19427490234375,-3.4944703578948975,2.5402987003326416,-0.342913419008255
642,0.9459,3.1982,0,0,-0.0309295654296875,0.9080352783203125,-0.47784423828125,-1.8169217109680176,2.679656744003296,-0.4978896677494049
643,0.9602,2.7824,0,0,-0.121551513671875,0.9786224365234375,-0.445037841796875,0.18065926432609558,2.304865837097168,-0.3961942195892334
644,0.971,2.3193,0,0,0.0894012451171875,0.904998779296875,-0.0578765869140625,0.6524574160575867,1.5673784017562866,-0.09009527415037155
645,0.9794,1.8493,0,0,0.162078857421875,0.8288116455078125,0.1554107666015625,0.1268647313117981,1.0245311260223389,-0.21725454926490784
646,0.9874,1.413,0,0,0.2410736083984375,0.8800048828125,0.19647216796875,-0.43066829442977905,0.22230124473571777,-0.5713870525360107
647,0.9977,1.0475,0,0,0.318939208984375,0.9408721923828125,0.1230316162109375,-0.43066829442977905,0.22230124473571777,-0.5713870525360107
648,1.0136,0.7831,0,0,0.3433074951171875,0.9987030029296875,0.01593017578125,-0.9733968377113342,-0.18587718904018402,-0.7014782428741455
649,1.0382,0.6423,0,0,0.3518829345703125,1.04766845703125,-0.0122528076171875,-0.8107256293296814,0.1394822597503662,-0.6861402988433838
650,1.0744,0.6381,0,0,0.377197265625,1.02740478515625,0.0665740966796875,-0.8107256293296814,0.1394822597503662,-0.6861402988433838
651,1.124,0.7736,0,0,0.4022369384765625,1.0187225341796875,0.082183837890625,-0.1303074061870575,-0.097142793238163,-0.8195965886116028
652,1.1877,1.0422,0,0,0.4329986572265625,0.9990997314453125,-0.0148162841796875,-0.23472915589809418,0.5063305497169495,-0.9129307866096497
653,1.2647,1.4276,0,0,0.54498291015625,1.09881591796875,-0.0769805908203125,-0.28027665615081787,1.3572055101394653,-0.8557487726211548
654,1.3524,1.9045,0,0,0.72943115234375,1.233612060546875,-0.0394744873046875,0.1142386943101883,1.2750853300094604,-0.5224863886833191
655,1.4465,2.4397,0,0,0.90399169921875,1.3596649169921875,-0.3007354736328125,0.8210538625717163,1.2635663747787476,0.22364427149295807
656,1.5408,2.9941,0,0,0.769927978515625,1.3170318603515625,-0.4183197021484375,2.1300241947174072,0.8889168500900269,1.0653674602508545
657,1.6277,3.5251,0,0,0.568939208984375,1.1996612548828125,-0.0279083251953125,2.769245147705078,-0.6101334095001221,1.7347722053527832
658,1.6984,3.9905,0,0,0.4632720947265625,1.1717681884765625,0.322357177734375,2.769245147705078,-0.6101334095001221,1.7347722053527832
659,1.7437,4.3519,0,0,0.392669677734375,1.318572998046875,0.3362274169921875,1.9446860551834106,-4.526140213012695,2.883181571960449
660,1.755,4.5788,0,0,0.290191650390625,1.5240325927734375,0.2274627685546875,1.4860215187072754,-5.126795768737793,2.9345550537109375
661,1.7254,4.6516,0,0,0.1339111328125,1.841827392578125,-0.0459442138671875,1.4057996273040771,-3.445362091064453,2.5265681743621826
662,1.6511,4.5644,0,0,-0.224151611328125,2.08197021484375,-0.197540283203125,1.3910952806472778,1.8200514316558838,1.4960960149765015
663,1.5328,4.325,0,0,-0.752166748046875,2.04327392578125,-0.8455963134765625,1.7008147239685059,6.620230674743652,0.25287672877311707
664,1.3756,3.9545,0,0,-0.43121337890625,1.5741424560546875,-0.5943603515625,3.1140661239624023,4.2754926681518555,0.3263147175312042
665,1.1901,3.4853,0,0,-0.353363037109375,0.941192626953125,0.4712066650390625,1.9565805196762085,1.1717418432235718,0.6116170287132263
666,0.9905,2.9575,0,0,-0.169677734375,0.6230010986328125,0.7489166259765625,1.9565805196762085,1.1717418432235718,0.6116170287132263
667,0.7941,2.4148,0,0,-0.0304718017578125,0.5189666748046875,0.3135986328125,-0.9773388504981995,-1.6236257553100586,0.5989177823066711
668,0.6186,1.8998,0,0,0.0781707763671875,0.38983154296875,-0.0660400390625,-0.8816959261894226,-0.8957289457321167,0.8437458872795105
669,0.4809,1.4502,0,0,0.0522613525390625,0.300445556640625,-0.102020263671875,-0.33943238854408264,0.20543837547302246,1.03041672706604
670,0.3944,1.0957,0,0,-0.03173828125,0.20068359375,0.0574188232421875,0.05229010060429573,0.7303559184074402,0.8906622529029846
671,0.3681,0.8554,0,0,-0.075469970703125,0.1802215576171875,0.1830902099609375,0.14351269602775574,0.5735399723052979,0.5476500391960144
672,0.4054,0.7371,0,0,-0.0402069091796875,0.1946563720703125,0.2690887451171875,-0.017640246078372,-0.1104133278131485,0.1769723743200302
673,0.5037,0.7375,0,0,-0.0285797119140625,0.326446533203125,0.1094207763671875,-0.23511238396167755,-0.713551938533783,-0.18394826352596283
674,0.6547,0.8433,0,0,-0.112579345703125,0.495452880859375,-0.1231842041015625,-0.2257162183523178,-0.41203734278678894,-0.6950304508209229
675,0.8456,1.0332,0,0,-0.1789398193359375,0.664459228515625,-0.1702117919921875,-0.2257162183523178,-0.41203734278678894,-0.6950304508209229
676,1.0599,1.2806,0,0,-0.1590728759765625,0.815277099609375,-0.2715911865234375,-0.19637750089168549,-0.7652678489685059,-1.8298920392990112
677,1.2796,1.5562,0,0,0.2603759765625,0.9649658203125,-0.7845001220703125,0.0144697530195117,-1.5698317289352417,-1.869789719581604
678,1.487,1.8315,0,0,1.1341705322265625,1.35003662109375,-1.1958160400390625,0.07681301981210709,-0.5008729696273804,-0.8887847065925598
679,1.6664,2.0808,0,0,1.42913818359375,1.6706390380859375,-0.7061004638671875,0.07681301981210709,-0.5008729696273804,-0.8887847065925598
680,1.8055,2.2836,0,0,1.437835693359375,1.5222015380859375,-0.675933837890625,-0.6119717955589294,2.1325414180755615,0.8683345913887024
681,1.8964,2.4267,0,0,1.4091796875,1.04913330078125,-0.5296630859375,-0.08020588755607605,4.019083023071289,1.9051433801651
682,1.9355,2.5049,0,0,0.830963134765625,0.7861328125,0.392364501953125,0.009178584441542625,1.9090946912765503,1.0042247772216797
683,1.9237,2.5217,0,0,0.12762451171875,0.7462310791015625,0.9658355712890625,-0.6516813635826111,-1.2979860305786133,-0.1279587596654892
684,1.8654,2.4887,0,0,-0.1306610107421875,0.935760498046875,0.592254638671875,-1.4710556268692017,-3.1312642097473145,-0.8775339722633362
685,1.7684,2.4237,0,0,-0.7781982421875,2.630859375,-2.5995635986328125,-1.4710556268692017,-3.1312642097473145,-0.8775339722633362
686,1.6428,2.349,0,0,-0.34698486328125,2.04962158203125,-0.5762939453125,-0.9478896260261536,0.8959702253341675,-0.9354388117790222
687,1.5003,2.2875,0,0,-0.3346405029296875,0.84613037109375,0.549072265625,0.28710901737213135,3.8183505535125732,-0.08798285573720932
688,1.353,2.26,0,0,-0.2418060302734375,0.815948486328125,0.4901275634765625,0.4620400667190552,0.5174753665924072,-0.6805199384689331
689,1.2126,2.2814,0,0,-0.137054443359375,0.74725341796875,0.3535919189453125,0.4620400667190552,0.5174753665924072,-0.6805199384689331
690,1.0883,2.3582,0,0,-0.022247314453125,0.7340087890625,0.2740478515625,0.2725452482700348,-0.2430291622877121,-0.8134992718696594
691,0.987,2.4876,0,0,0.027496337890625,0.737701416015625,0.30670166015625,0.384346604347229,-1.1831101179122925,-0.8317520618438721
692,0.912,2.6574,0,0,0.096221923828125,0.8608551025390625,0.3342132568359375,0.4398692548274994,-2.474238634109497,-0.9432855248451233
693,0.8636,2.8484,0,0,0.14410400390625,0.95965576171875,0.3237152099609375,0.21050983667373657,-3.7288999557495117,-0.953548789024353
694,0.8394,3.0376,0,0,0.1707611083984375,0.9718475341796875,0.23590087890625,-0.2826356887817383,-4.374008655548096,-0.8174932599067688
695,0.8353,3.2016,0,0,0.16619873046875,0.90850830078125,0.127593994140625,-0.8520293831825256,-4.419715404510498,-0.5746387839317322
696,0.8458,3.3199,0,0,0.079193115234375,0.7385711669921875,-0.385711669921875,-2.8005831241607666,-0.6968027949333191,-0.37300020456314087
697,0.8656,3.3773,0,0,0.217315673828125,0.89874267578125,-0.0346221923828125,-2.8005831241607666,-0.6968027949333191,-0.37300020456314087
698,0.8896,3.3648,0,0,0.2389678955078125,0.919708251953125,0.0010528564453125,-3.296664237976074,1.3331546783447266,-0.15037699043750763
699,0.9137,3.2802,0,0,0.080657958984375,0.8374786376953125,-0.4051666259765625,-2.3441014289855957,1.2635143995285034,-0.19983269274234772
700,0.9353,3.1276,0,0,0.0327606201171875,0.904937744140625,-0.4312744140625,-1.0443814992904663,2.642512559890747,-0.30283549427986145
701,0.9529,2.9172,0,0,0.0722198486328125,0.9313201904296875,-0.166595458984375,0.1275704801082611,3.224344253540039,-0.2428765594959259
702,0.9667,2.6635,0,0,0.17559814453125,0.901214599609375,0.02178955078125,0.5618423223495483,3.0518949031829834,-0.2625780999660492
703,0.9777,2.385,0,0,0.27581787109375,0.896331787109375,0.1591033935546875,0.4067368805408478,2.414872884750366,-0.5017467141151428
704,0.988,2.1025,0,0,0.3549041748046875,0.875274658203125,0.2415618896484375,-0.12634408473968506,1.2085046768188477,-0.836095929145813
705,1.0,1.8378,0,0,0.3697357177734375,0.870880126953125,0.153228759765625,-0.6622493267059326,-0.3352237939834595,-0.9737291932106018
706,1.0164,1.6124,0,0,0.3265838623046875,0.8305816650390625,0.01873779296875,-0.9426282644271851,-1.2256218194961548,-0.9500328898429871
707,1.0399,1.4459,0,0,0.3767242431640625,0.9127197265625,0.012359619140625,-1.02518892288208,-1.3174492120742798,-0.9706042408943176
708,1.0724,1.3551,0,0,0.4877777099609375,1.0609130859375,0.1151275634765625,-0.6409379243850708,-1.6753534078598022,-0.8784516453742981
709,1.1156,1.3524,0,0,0.50689697265625,1.122833251953125,0.0256500244140625,-0.24851128458976746,-2.1206283569335938,-0.5732787251472473
710,1.1702,1.4445,0,0,0.5224456787109375,1.21759033203125,-0.097320556640625,-0.39348605275154114,-0.9347458481788635,-0.48869219422340393
711,1.2359,1.6309,0,0,0.4642791748046875,1.1735382080078125,-0.0733489990234375,-0.5418275594711304,0.618582010269165,-0.4272890090942383
712,1.3111,1.9029,0,0,0.502716064453125,1.2097625732421875,-0.0809173583984375,-0.23739923536777496,1.2083699703216553,-0.3938061594963074
713,1.3927,2.243,0,0,0.5220489501953125,1.276611328125,-0.30120849609375,0.2963850498199463,1.2765889167785645,-0.0744531974196434
714,1.4759,2.6253,0,0,0.5024261474609375,1.2597808837890625,-0.47515869140625,1.2252050638198853,1.818392038345337,0.4889771342277527
715,1.5543,3.0175,0,0,0.3869171142578125,1.1719970703125,-0.316650390625,2.36318039894104,1.8433047533035278,1.104162335395813
716,1.62,3.3834,0,0,0.3050537109375,1.1627044677734375,0.0385894775390625,2.885753870010376,0.5772971510887146,1.6923574209213257
717,1.6641,3.6869,0,0,0.221435546875,1.35211181640625,0.1500091552734375,2.83906888961792,-1.3885176181793213,2.3166186809539795
718,1.678,3.8956,0,0,0.3355865478515625,1.5034332275390625,0.2605743408203125,2.2454614639282227,-2.6357624530792236,2.6835641860961914
719,1.6545,3.9848,0,0,0.2107391357421875,1.6834259033203125,0.068389892578125,1.6172813177108765,-3.0854601860046387,2.7384073734283447
720,1.5889,3.9409,0,0,-0.054046630859375,1.998504638671875,-0.380950927734375,1.46537184715271,-1.4070502519607544,2.2300078868865967
721,1.4808,3.7629,0,0,-0.3834228515625,2.0909576416015625,-0.7115325927734375,1.7165684700012207,3.1493139266967773,1.2885526418685913
722,1.3345,3.4638,0,0,-0.348297119140625,1.6636199951171875,-0.513214111328125,2.292910575866699,5.953223705291748,0.6556039452552795
723,1.1593,3.0693,0,0,-0.287811279296875,1.0373077392578125,0.3664093017578125,2.4490275382995605,3.6506052017211914,0.7091034054756165
724,0.9689,2.6154,0,0,-0.0615997314453125,0.7001495361328125,0.457855224609375,1.0504341125488281,0.4634283781051636,0.6452109813690186
725,0.7796,2.1446,0,0,-0.00592041015625,0.59136962890625,0.1749420166015625,-0.031328096985816956,-0.839153528213501,0.7304707169532776
726,0.6093,1.7005,0,0,-0.07232666015625,0.4493865966796875,0.073974609375,-0.3167121708393097,-0.8955893516540527,0.7398085594177246
727,0.4747,1.3226,0,0,-0.148712158203125,0.3038482666015625,-0.04315185546875,-0.17256325483322144,-0.33664512634277344,0.5367441177368164
728,0.3897,1.0421,0,0,-0.125244140625,0.20050048828125,0.0873260498046875,0.09979263693094254,0.7446408867835999,0.2012779861688614
729,0.3642,0.8785,0,0,-0.0446319580078125,0.1756439208984375,0.275726318359375,0.06438697874546051,1.090966820716858,0.05913043022155762
730,0.402,0.8376,0,0,0.01507568359375,0.204681396484375,0.321502685546875,-0.1245374009013176,0.4081030786037445,0.1406436711549759
731,0.5012,0.9116,0,0,0.012359619140625,0.306732177734375,-0.0030059814453125,-0.2935810089111328,-0.4561946988105774,0.27345311641693115
732,0.6539,1.0802,0,0,-0.0519256591796875,0.3444366455078125,-0.1910552978515625,-0.07818161696195602,-0.562022864818573,0.15976276993751526
733,0.8468,1.3137,0,0,-0.08154296875,0.400177001953125,-0.17889404296875,0.22165489196777344,-0.6113775968551636,-0.31416085362434387
734,1.0629,1.5766,0,0,0.0091400146484375,0.61773681640625,-0.2476348876953125,0.21448379755020142,-1.3903237581253052,-1.0237675905227661
735,1.2831,1.8324,0,0,0.64727783203125,0.979156494140625,-0.887847900390625,0.19355161488056183,-2.553025960922241,-1.5622220039367676
736,1.4886,2.0479,0,0,1.2154693603515625,1.40350341796875,-1.2417755126953125,-0.16558043658733368,-1.82124662399292,-1.166623592376709
737,1.663,2.1979,0,0,1.30572509765625,1.640869140625,-0.8937225341796875,-1.02759850025177,1.1307811737060547,0.03646852821111679
738,1.7938,2.2677,0,0,1.569580078125,1.66241455078125,-0.8065032958984375,-1.0628303289413452,3.562767505645752,1.4544963836669922
739,1.8738,2.2551,0,0,1.132080078125,1.4020233154296875,-0.2384033203125,-0.231997549533844,3.7920258045196533,2.0209102630615234
740,1.901,2.1703,0,0,0.5247344970703125,1.4440460205078125,0.0438232421875,0.30329862236976624,2.0745291709899902,1.0841563940048218
741,1.8785,2.0334,0,0,0.1434173583984375,1.2266998291015625,0.4928741455078125,-0.05125333368778229,0.631134569644928,0.06228308007121086
742,1.813,1.8713,0,0,-0.238739013671875,1.1324462890625,-1.2940521240234375,-0.7237041592597961,-0.5724778771400452,-0.31497499346733093
743,1.7141,1.7131,0,0,-0.8297882080078125,1.0179443359375,-1.4783477783203125,0.8089476823806763,0.45716381072998047,-0.3808663785457611
744,1.5928,1.5861,0,0,-0.3893585205078125,0.82403564453125,1.1245269775390625,1.7272884845733643,-0.04670891538262367,-0.8539761304855347
745,1.4605,1.5121,0,0,-0.250579833984375,1.1231689453125,0.815521240234375,0.12509267032146454,-0.3612295687198639,-1.433529257774353
746,1.328,1.5045,0,0,-0.095458984375,1.3663787841796875,0.4768218994140625,-0.41786035895347595,-0.23005370795726776,-1.4353172779083252
747,1.2046,1.5666,0,0,-0.0533294677734375,1.1885986328125,0.3284454345703125,-0.2240690439939499,-0.014881477691233158,-1.1290154457092285
748,1.0977,1.6921,0,0,0.0015106201171875,0.9481353759765625,0.32177734375,-0.06793510913848877,-0.10481110215187073,-1.0272067785263062
749,1.0122,1.865,0,0,0.0447998046875,0.8311920166015625,0.2747650146484375,-0.11194278299808502,-0.7192385792732239,-1.055177927017212
750,0.9502,2.0627,0,0,0.0998687744140625,0.78271484375,0.262237548828125,-0.28810369968414307,-1.4124397039413452,-1.0690847635269165
751,0.9114,2.2583,0,0,0.1208343505859375,0.8117523193359375,0.23748779296875,-0.5736547708511353,-2.1427788734436035,-0.9729893803596497
752,0.8934,2.4251,0,0,0.1541748046875,0.812347412109375,0.044219970703125,-0.9697759747505188,-2.7789082527160645,-0.8498733043670654
753,0.892,2.5397,0,0,0.127166748046875,0.787139892578125,-0.6676177978515625,-2.6823527812957764,0.23445270955562592,-0.8372198343276978
754,0.9023,2.5854,0,0,0.1256103515625,0.90478515625,-0.369903564453125,-3.222907304763794,3.341214179992676,-0.8130854368209839
755,0.9192,2.5545,0,0,0.0982513427734375,0.97882080078125,-0.253814697265625,-1.7227238416671753,3.238276481628418,-0.8198205828666687
756,0.9381,2.4482,0,0,0.1650238037109375,0.9826202392578125,-0.1136627197265625,0.16251274943351746,1.5934797525405884,-0.7529746890068054
757,0.9554,2.2761,0,0,0.3017120361328125,0.9514617919921875,-0.029632568359375,0.887116551399231,0.6625750064849854,-0.663784921169281
758,0.9691,2.0537,0,0,0.374755859375,0.916961669921875,0.156982421875,0.33055582642555237,0.7395968437194824,-0.7760888338088989
759,0.9785,1.8001,0,0,0.404754638671875,0.8981170654296875,0.21514892578125,-0.3346879780292511,0.17299388349056244,-0.9000791907310486
760,0.9844,1.5357,0,0,0.405914306640625,0.8585205078125,0.0899658203125,-0.7248903512954712,-0.6264939904212952,-0.9227088689804077
761,0.9888,1.2799,0,0,0.39825439453125,0.8694305419921875,-0.0009307861328125,-0.9565249085426331,-0.797082245349884,-0.9378742575645447
762,0.9942,1.0507,0,0,0.378143310546875,0.919281005859375,-0.0274810791015625,-0.9180592894554138,-0.7278342247009277,-0.8437253832817078
763,1.0037,0.8636,0,0,0.333831787109375,0.927276611328125,-0.0425872802734375,-0.758459746837616,-0.552456259727478,-0.6577448844909668
764,1.0202,0.7319,0,0,0.322296142578125,0.912078857421875,0.0096893310546875,-0.6079674363136292,-0.2870083451271057,-0.5352175831794739
765,1.0459,0.6661,0,0,0.357025146484375,0.902374267578125,0.0796356201171875,-0.3802706301212311,-0.32608115673065186,-0.5607059001922607
766,1.0825,0.6735,0,0,0.3738861083984375,0.9436798095703125,0.15020751953125,-0.29270032048225403,-0.6086511015892029,-0.4663469195365906
767,1.1303,0.7579,0,0,0.3611602783203125,1.03057861328125,0.1204071044921875,-0.31792736053466797,-1.0791016817092896,-0.4081811010837555
768,1.1885,0.9189,0,0,0.414459228515625,1.1646270751953125,0.0102386474609375,-0.4319109320640564,-1.1777704954147339,-0.44629067182540894
769,1.2553,1.1508,0,0,0.4812774658203125,1.27008056640625,-0.007232666015625,-0.7076173424720764,-0.5381806492805481,-0.3722156286239624
770,1.3277,1.4422,0,0,0.5914154052734375,1.4153900146484375,-0.1430511474609375,-0.526539146900177,-0.43668943643569946,-0.24572907388210297
771,1.4014,1.7757,0,0,0.623291015625,1.302764892578125,-0.3890380859375,-0.011708054691553116,0.1998358815908432,0.1377277672290802
772,1.4716,2.1284,0,0,0.6288909912109375,1.1943359375,-0.37847900390625,1.2168056964874268,0.44953733682632446,0.6814253926277161
773,1.5324,2.4738,0,0,0.5257415771484375,1.1006317138671875,0.0822296142578125,2.394110918045044,-0.1973777860403061,1.4372541904449463
774,1.5775,2.7835,0,0,0.398529052734375,1.0968475341796875,0.0859527587890625,2.3552908897399902,-1.205793023109436,2.069082498550415
775,1.6007,3.0312,0,0,0.114471435546875,1.345916748046875,0.099212646484375,2.1971349716186523,-1.9682449102401733,2.4420056343078613
776,1.5962,3.1951,0,0,-0.009857177734375,1.7094879150390625,-0.0198822021484375,1.813620924949646,-2.53806471824646,2.4112327098846436
777,1.5598,3.2609,0,0,-0.1284637451171875,1.788421630859375,-0.12799072265625,1.468491792678833,-2.0484349727630615,2.1750473976135254
778,1.4897,3.2233,0,0,-0.450225830078125,1.8644561767578125,-0.4176483154296875,1.5786267518997192,-0.2611114978790283,1.4558098316192627
779,1.3872,3.087,0,0,-0.6004180908203125,1.6020660400390625,-0.4492645263671875,2.026519298553467,2.5755441188812256,0.505091667175293
780,1.257,2.8662,0,0,-0.467132568359375,1.138397216796875,-0.082763671875,2.392153024673462,3.633466958999634,0.07933743298053741
781,1.1071,2.5833,0,0,-0.148162841796875,0.7940521240234375,0.45025634765625,1.790885329246521,2.577573776245117,0.3146759271621704
782,0.9481,2.2666,0,0,0.2080841064453125,0.68292236328125,0.39617919921875,0.43536797165870667,0.48401939868927,0.9147175550460815
783,0.7924,1.9477,0,0,0.2611083984375,0.7306365966796875,-0.066192626953125,-0.21590113639831543,-0.6364614367485046,1.5164308547973633
784,0.6532,1.6577,0,0,0.088226318359375,0.646453857421875,-0.0468597412109375,0.10420309752225876,-0.10104113072156906,1.5443447828292847
785,0.5428,1.4244,0,0,-0.0329132080078125,0.50506591796875,0.039306640625,0.3636642396450043,0.9106759428977966,1.007858395576477
786,0.472,1.2693,0,0,0.01800537109375,0.45916748046875,0.252777099609375,0.33291909098625183,1.447411298751831,0.47206342220306396
787,0.4487,1.2052,0,0,0.1315460205078125,0.45550537109375,0.3559722900390625,0.04105689004063606,0.6300421357154846,0.31076374650001526
788,0.4772,1.235,0,0,-0.01416015625,0.4611358642578125,0.079833984375,-0.223664790391922,-0.8327856659889221,0.42593613266944885
789,0.5575,1.3517,0,0,-0.233612060546875,0.3568572998046875,-0.0989990234375,-0.09779074043035507,-1.1198701858520508,0.12274669110774994
790,0.685,1.5384,0,0,-0.275634765625,0.263427734375,-0.0886077880859375,0.030833279713988304,-0.6754609942436218,-0.5368911623954773
791,0.8505,1.7711,0,0,-0.2390899658203125,0.310272216796875,-0.024383544921875,-0.10546118021011353,-0.5151917338371277,-1.122918725013733
792,1.0414,2.0207,0,0,-0.1260528564453125,0.532012939453125,-0.092681884765625,-0.5425149202346802,-1.0459003448486328,-1.4992446899414062
793,1.2424,2.2573,0,0,0.3390350341796875,0.805755615234375,-0.5986785888671875,-0.9222084879875183,-2.4382944107055664,-1.7512611150741577
794,1.4373,2.4536,0,0,1.1857757568359375,1.189117431640625,-1.3084716796875,-1.0794901847839355,-3.385629177093506,-1.2266429662704468
795,1.6108,2.5884,0,0,1.279449462890625,1.6916961669921875,-1.004058837890625,-1.1336711645126343,-0.10054178535938263,0.30366161465644836
796,1.7504,2.6496,0,0,1.3337554931640625,1.6401824951171875,-0.7130584716796875,-0.9115475416183472,3.1075193881988525,1.4503343105316162
797,1.8472,2.6355,0,0,1.5478363037109375,1.3025665283203125,-0.66937255859375,-0.267488956451416,4.122170448303223,1.8597623109817505
798,1.8968,2.5551,0,0,0.70654296875,1.353424072265625,0.0494842529296875,0.1327093094587326,2.8757917881011963,1.3005328178405762
799,1.8991,2.4261,0,0,0.1208343505859375,1.18902587890625,0.4298553466796875,-0.23749138414859772,1.4363937377929688,0.2694581151008606
800,1.8577,2.2731,0,0,-0.178802490234375,1.185546875,0.408416748046875,-0.6589009165763855,-0.025139175355434418,-0.2467581182718277
801,1.7791,2.1238,0,0,-1.07421875,1.353302001953125,-2.1366119384765625,-0.5967547297477722,-1.9575248956680298,-0.4722016155719757
802,1.672,2.0051,0,0,-0.8306732177734375,1.315399169921875,-0.480712890625,1.8143898248672485,-1.9316143989562988,-0.6712031364440918
803,1.5464,1.9404,0,0,-0.317535400390625,1.140655517578125,0.692962646484375,1.5001490116119385,-0.1453244388103485,-1.1235970258712769
804,1.4124,1.9465,0,0,-0.1423492431640625,1.2546844482421875,0.673309326171875,0.44157713651657104,0.9653423428535461,-1.4677586555480957
805,1.2801,2.032,0,0,0.00299072265625,1.2035369873046875,0.489227294921875,0.04706764221191406,0.08865050971508026,-1.3149237632751465
806,1.1578,2.1959,0,0,0.017364501953125,0.9687652587890625,0.383697509765625,-0.07109308242797852,-0.9095826745033264,-1.0447160005569458
807,1.0524,2.4283,0,0,0.0705108642578125,0.854156494140625,0.2971954345703125,-0.18245822191238403,-1.8747577667236328,-1.0501160621643066
808,0.9685,2.7111,0,0,0.1835174560546875,0.8706817626953125,0.269195556640625,-0.24446992576122284,-2.8217012882232666,-0.9518212080001831
809,0.908,3.02,0,0,0.207916259765625,0.8703155517578125,0.1836395263671875,-0.33060428500175476,-3.684823989868164,-0.6581416726112366
810,0.8708,3.3276,0,0,0.214874267578125,0.8113250732421875,0.08563232421875,-0.4975613057613373,-3.964487075805664,-0.3813968896865845
811,0.8546,3.6058,0,0,0.114593505859375,0.72894287109375,-0.4459075927734375,-0.8566946983337402,-3.2426373958587646,-0.2649341821670532
812,0.8555,3.8287,0,0,0.2030792236328125,0.8117523193359375,-0.1929168701171875,-2.668642282485962,2.2176735401153564,-0.23835504055023193
813,0.8688,3.9745,0,0,0.293548583984375,0.9267120361328125,0.0451812744140625,-2.7859978675842285,3.547959804534912,-0.08427812904119492
814,0.8893,4.0277,0,0,0.195098876953125,0.9034881591796875,-0.085296630859375,-2.0532374382019043,2.952667474746704,0.03563842177391052
815,0.9121,3.9799,0,0,0.0130767822265625,0.862945556640625,-0.3863067626953125,-1.1620386838912964,3.307666540145874,0.026939472183585167
816,0.9329,3.8308,0,0,0.0746917724609375,0.8980865478515625,-0.20343017578125,-0.41007566452026367,4.265944957733154,-0.020011259242892265
817,0.9488,3.5884,0,0,0.139556884765625,0.930633544921875,-0.10626220703125,-0.006838198751211166,4.342953205108643,-0.09807596355676651
818,0.958,3.2684,0,0,0.2232513427734375,0.9501495361328125,0.06353759765625,-0.17998920381069183,3.9608304500579834,-0.3723839521408081
819,0.9603,2.8933,0,0,0.325531005859375,0.8798065185546875,0.187103271484375,-0.5779757499694824,2.2580127716064453,-0.8746931552886963
820,0.957,2.4903,0,0,0.41082763671875,0.8364105224609375,0.0930633544921875,-0.7298347353935242,-0.1989506483078003,-1.2914371490478516
821,0.9508,2.0896,0,0,0.466522216796875,0.8638916015625,-0.1179046630859375,-0.7019892930984497,-1.655436396598816,-1.3377907276153564
822,0.9452,1.7213,0,0,0.4441375732421875,0.904632568359375,-0.25030517578125,-0.6557051539421082,-1.414642095565796,-1.0715867280960083
823,0.9446,1.4137,0,0,0.3948822021484375,0.8988800048828125,-0.06121826171875,-0.30336785316467285,-0.729697585105896,-0.6894969344139099
824,0.9533,1.1905,0,0,0.3833160400390625,0.9116058349609375,0.086181640625,0.33849069476127625,-1.1382968425750732,-0.36334678530693054
825,0.9754,1.0695,0,0,0.3232879638671875,0.8694000244140625,0.0757598876953125,0.7458904385566711,-1.6699274778366089,-0.12134959548711777
826,1.0139,1.0603,0,0,0.29656982421875,0.85650634765625,0.0547332763671875,0.751209557056427,-1.5403577089309692,-0.13737596571445465
827,1.07,1.1638,0,0,0.38275146484375,0.9606781005859375,0.0370025634765625,0.4675120711326599,-1.0310606956481934,-0.2718091309070587
828,1.1434,1.3706,0,0,0.44317626953125,1.0643310546875,0.0145416259765625,0.07212293148040771,-0.43047869205474854,-0.2922414541244507
829,1.2311,1.6614,0,0,0.5099029541015625,1.13958740234375,0.0018768310546875,-0.1693621277809143,0.05452875420451164,-0.2787943482398987
830,1.328,2.0076,0,0,0.4958953857421875,1.2256927490234375,-0.29766845703125,-0.03978549689054489,0.26661330461502075,-0.08848805725574493
831,1.4268,2.3741,0,0,0.4657440185546875,1.133941650390625,-0.6487274169921875,0.657809317111969,1.8280593156814575,0.33184266090393066
832,1.5185,2.7224,0,0,0.530364990234375,1.0725250244140625,-0.2930450439453125,2.2868337631225586,2.6542978286743164,0.9154024720191956
833,1.5934,3.0155,0,0,0.47320556640625,1.1529388427734375,-0.05816650390625,3.4296953678131104,1.2105467319488525,2.0333199501037598
834,1.6414,3.2226,0,0,0.3139190673828125,1.5436859130859375,0.02862548828125,3.0935497283935547,0.13201183080673218,3.414616346359253
835,1.6541,3.323,0,0,0.1460723876953125,1.52569580078125,0.17413330078125,1.4488648176193237,-0.4280083477497101,4.016180515289307
836,1.6254,3.3088,0,0,0.0819854736328125,1.7406158447265625,-0.0462188720703125,0.7451596856117249,-1.664548635482788,3.1164445877075195
837,1.5531,3.1858,0,0,-0.00054931640625,2.221710205078125,-0.5727386474609375,0.7908592224121094,-1.2413060665130615,2.032921075820923
838,1.4395,2.972,0,0,-0.1167449951171875,2.0699920654296875,-0.5536651611328125,1.1736679077148438,1.3774422407150269,1.236801266670227
839,1.2922,2.6952,0,0,-0.040252685546875,1.4059600830078125,0.0404510498046875,1.464758038520813,2.9453535079956055,0.7607346177101135
840,1.1228,2.39,0,0,0.1589508056640625,0.8702392578125,0.4085540771484375,0.7944942116737366,2.431107521057129,0.7908581495285034
841,0.9463,2.0932,0,0,0.2868194580078125,0.635711669921875,0.1685943603515625,-0.11082638055086136,0.5495824217796326,1.155817985534668
842,0.7793,1.8404,0,0,0.11517333984375,0.522003173828125,-0.0576019287109375,-0.1408575177192688,-0.9916805028915405,1.3665907382965088
843,0.6379,1.6616,0,0,-0.048004150390625,0.4720916748046875,0.0295562744140625,0.10303184390068054,-1.4622538089752197,0.9598532915115356
844,0.5358,1.5786,0,0,-0.07183837890625,0.460662841796875,0.1726226806640625,0.029033249244093895,-1.3791488409042358,0.3629654049873352
845,0.4833,1.6025,0,0,-0.109619140625,0.4000244140625,0.2419281005859375,-0.39567995071411133,-1.4322106838226318,-0.0410238653421402
846,0.4855,1.7322,0,0,-0.1526641845703125,0.3248748779296875,0.154937744140625,-0.8290364742279053,-1.3933826684951782,-0.369740754365921
847,0.5421,1.9549,0,0,-0.219390869140625,0.2758941650390625,-0.0122222900390625,-0.9295929074287415,-1.0497422218322754,-0.6810405850410461
848,0.6475,2.2469,0,0,-0.27557373046875,0.2281341552734375,-0.0525360107421875,-0.7575033903121948,-0.42842936515808105,-0.9970512986183167
849,0.7913,2.5765,0,0,-0.3432159423828125,0.2202606201171875,-0.0146026611328125,-0.5725293159484863,-0.2136606127023697,-1.319731593132019
850,0.9597,2.9073,0,0,-0.375762939453125,0.4805145263671875,-0.0506134033203125,-0.5081478953361511,-1.299774169921875,-1.6610431671142578
851,1.1372,3.2033,0,0,0.2563934326171875,1.0405120849609375,-0.8588104248046875,-0.5138574838638306,-4.014457702636719,-1.9889615774154663
852,1.3082,3.4334,0,0,1.1102142333984375,1.6127777099609375,-1.5240631103515625,0.8662309646606445,-6.557254314422607,-1.12493896484375
853,1.4592,3.5756,0,0,1.06884765625,1.702972412109375,-1.0037841796875,0.21197377145290375,-3.2796597480773926,0.1350502222776413
854,1.5799,3.6205,0,0,0.9235687255859375,1.2587738037109375,-0.6598968505859375,-1.273931622505188,1.8239915370941162,1.1069879531860352
855,1.6635,3.5713,0,0,0.696319580078125,0.73052978515625,-0.575225830078125,-1.5996521711349487,4.424628257751465,1.3776319026947021
856,1.7076,3.4441,0,0,0.54510498046875,0.750640869140625,-0.269989013671875,-0.5306657552719116,4.291714191436768,1.1114466190338135
857,1.7128,3.2647,0,0,0.3707275390625,1.16839599609375,0.1219635009765625,0.38371703028678894,2.8406007289886475,0.8011773824691772
858,1.6827,3.0647,0,0,0.1085205078125,1.2439727783203125,0.954010009765625,0.006089051254093647,1.425705909729004,0.7523645758628845
859,1.6232,2.8778,0,0,0.46826171875,2.2985076904296875,-1.473907470703125,-1.4604642391204834,-0.35641589760780334,0.4460025131702423
860,1.5417,2.7349,0,0,-0.068634033203125,1.640838623046875,-0.9472808837890625,-0.7282970547676086,4.185364723205566,0.6219229698181152
861,1.4466,2.6603,0,0,-0.374664306640625,0.8686065673828125,0.7655487060546875,0.4289470911026001,2.2623562812805176,0.07357621937990189
862,1.3465,2.669,0,0,-0.3936920166015625,0.8563995361328125,0.51226806640625,0.4381083846092224,-1.2623229026794434,-0.7509374022483826
863,1.2494,2.7651,0,0,-0.205657958984375,0.882598876953125,0.267486572265625,0.2582879960536957,-2.101041555404663,-1.1351079940795898
864,1.1617,2.9415,0,0,-0.1275634765625,0.89508056640625,0.304107666015625,0.33398357033729553,-2.34435772895813,-1.147970199584961
865,1.0878,3.1808,0,0,-0.0930633544921875,0.8845367431640625,0.3878326416015625,0.25460484623908997,-3.0010366439819336,-1.287964940071106
866,1.0299,3.4574,0,0,-0.0551605224609375,0.9450225830078125,0.4085235595703125,-0.08730774372816086,-3.8634204864501953,-1.437867283821106
867,0.9881,3.7404,0,0,0.0308380126953125,1.0430450439453125,0.35308837890625,-0.6316632032394409,-4.289453506469727,-1.329223871231079
868,0.9607,3.997,0,0,0.0327606201171875,1.0831451416015625,0.224853515625,-1.1658999919891357,-4.134463310241699,-0.870903730392456
869,0.9449,4.1954,0,0,0.0766143798828125,1.066070556640625,0.0756988525390625,-1.6681727170944214,-2.865795373916626,-0.44244346022605896
870,0.9374,4.3083,0,0,-0.0136871337890625,0.8252410888671875,-0.5908660888671875,-2.0129923820495605,-0.6310431957244873,-0.22337529063224792
871,0.9348,4.3151,0,0,0.1577301025390625,0.9188995361328125,-0.1407318115234375,-2.690734624862671,4.722463607788086,-0.6016634702682495
872,0.9343,4.2046,0,0,0.1780548095703125,0.8890380859375,-0.035308837890625,-2.072920083999634,5.170189380645752,-0.47526267170906067
873,0.9337,3.9763,0,0,0.0796661376953125,0.77545166015625,-0.3694915771484375,-1.0712226629257202,4.647796154022217,-0.44791892170906067
874,0.9316,3.6415,0,0,0.130279541015625,0.833892822265625,-0.15106201171875,-0.26973453164100647,4.633153438568115,-0.5378565192222595
875,0.9278,3.222,0,0,0.2704010009765625,0.8506011962890625,0.1295928955078125,-0.19574446976184845,3.305783987045288,-0.552378237247467
876,0.923,2.7485,0,0,0.329376220703125,0.8898468017578125,0.1516876220703125,-0.3928684592247009,0.8377977013587952,-0.6080704927444458
877,0.9189,2.2573,0,0,0.362091064453125,0.93511962890625,0.0554046630859375,-0.44027137756347656,-0.997327983379364,-0.7554906010627747
878,0.918,1.787,0,0,0.3664398193359375,0.9090118408203125,0.0370941162109375,-0.49397775530815125,-1.5715774297714233,-0.8410102725028992
879,0.9236,1.3745,0,0,0.3387451171875,0.875152587890625,0.00830078125,-0.5357358455657959,-1.5645517110824585,-0.8312865495681763
880,0.939,1.0529,0,0,0.335601806640625,0.912200927734375,-0.0246429443359375,-0.55238276720047,-1.049045205116272,-0.784615159034729
881,0.9676,0.8479,0,0,0.333099365234375,0.9563140869140625,-0.0243682861328125,-0.4734727442264557,-0.3839777708053589,-0.6633502840995789
882,1.0122,0.7766,0,0,0.3436737060546875,0.9737548828125,0.107269287109375,-0.19521982967853546,-0.09258373081684113,-0.594681441783905
883,1.0743,0.8453,0,0,0.36932373046875,0.983428955078125,0.1433258056640625,0.28446662425994873,-0.7246474623680115,-0.4500845968723297
884,1.1538,1.0491,0,0,0.4114837646484375,0.950408935546875,0.01275634765625,0.47599929571151733,-1.0093302726745605,-0.3333337604999542
885,1.2484,1.3713,0,0,0.488494873046875,1.005523681640625,-0.0954132080078125,0.14987364411354065,0.1290397346019745,-0.4410274624824524
886,1.3538,1.7848,0,0,0.6435089111328125,1.176513671875,0.051971435546875,-0.11491646617650986,1.1593033075332642,-0.437470018863678
