id,ASVM,GSVM,walking_nonwalking,normal_abnormal,ax,ay,az,gx,gy,gz
1,0.9001,0.0416,0,0,0.61993408203125,0.713287353515625,-0.183990478515625,0,0,0
2,0.9053,0.1469,0,0,0.5914154052734375,0.71136474609375,-0.19873046875,-0.5012663006782532,-0.0805789977312088,-0.149358332157135
3,0.9152,0.2457,0,0,0.5792999267578125,0.6984405517578125,-0.2137451171875,-0.45908448100090027,-0.008947954513132572,-0.1854979544878006
4,0.9281,0.335,0,0,0.6100311279296875,0.7068634033203125,-0.2163238525390625,-0.3727818429470062,0.037083983421325684,-0.23632971942424774
5,0.9428,0.4124,0,0,0.63922119140625,0.7351226806640625,-0.2151031494140625,-0.26178446412086487,0.11368901282548904,-0.28198933601379395
6,0.9587,0.4763,0,0,0.6568145751953125,0.739501953125,-0.201324462890625,-0.13241688907146454,0.24165523052215576,-0.31003376841545105
7,0.9755,0.5257,0,0,0.665863037109375,0.712158203125,-0.1565704345703125,-0.015422365628182888,0.39502108097076416,-0.3206794857978821
8,0.9936,0.5605,0,0,0.6554718017578125,0.67333984375,-0.1150360107421875,0.011583419516682625,0.44327065348625183,-0.32816189527511597
9,1.0132,0.5813,0,0,0.66119384765625,0.6707000732421875,-0.0965728759765625,-0.0006958839949220419,0.42314672470092773,-0.332529753446579
10,1.0342,0.5892,0,0,0.693145751953125,0.6616668701171875,-0.111358642578125,-0.06483838707208633,0.3469286561012268,-0.3311275839805603
11,1.0566,0.5859,0,0,0.7510528564453125,0.6942291259765625,-0.137420654296875,-0.20298773050308228,0.26605963706970215,-0.34866344928741455
12,1.0794,0.5736,0,0,0.7849578857421875,0.7161712646484375,-0.1398773193359375,-0.3054983913898468,0.16445845365524292,-0.3792674243450165
13,1.1014,0.5552,0,0,0.7674560546875,0.755645751953125,-0.119110107421875,-0.3865397274494171,0.11444827914237976,-0.39509379863739014
14,1.121,0.5341,0,0,0.7136688232421875,0.758026123046875,-0.1120452880859375,-0.4173128008842468,0.005652293097227812,-0.42194992303848267
15,1.1362,0.5146,0,0,0.700408935546875,0.7552337646484375,-0.12493896484375,-0.5485246181488037,0.1488880217075348,-0.3776269257068634
16,1.1456,0.5017,0,0,0.7624359130859375,0.8118743896484375,-0.1642303466796875,-0.6901917457580566,0.3553610146045685,-0.2836325168609619
17,1.1478,0.5007,0,0,0.8388824462890625,0.8749542236328125,-0.1956787109375,-0.647197961807251,0.3174019157886505,-0.14202691614627838
18,1.1426,0.517,0,0,0.91961669921875,0.953826904296875,-0.208221435546875,-0.4907108545303345,0.06932128220796585,-0.06994632631540298
19,1.1305,0.5552,0,0,0.9125213623046875,0.9738616943359375,-0.215850830078125,-0.33131322264671326,-0.039979372173547745,0.057487260550260544
20,1.1132,0.6184,0,0,0.80572509765625,0.9223175048828125,-0.2230682373046875,-0.096580870449543,-0.11568452417850494,0.2172476351261139
21,1.0931,0.7078,0,0,0.67950439453125,0.8917999267578125,-0.1620330810546875,0.2143077701330185,-0.29799360036849976,0.2726815938949585
22,1.073,0.822,0,0,0.57025146484375,0.8211517333984375,-0.0903167724609375,0.44632023572921753,-0.41688457131385803,0.32844313979148865
23,1.0555,0.9572,0,0,0.49237060546875,0.724090576171875,-0.0074615478515625,0.5557015538215637,-0.5111759305000305,0.40640050172805786
24,1.0426,1.1078,0,0,0.43145751953125,0.652069091796875,0.0268096923828125,0.6883970499038696,-0.7789690494537354,0.4490385055541992
25,1.0349,1.2663,0,0,0.42529296875,0.66473388671875,-0.0766143798828125,0.8568659424781799,-1.064508318901062,0.4461130201816559
26,1.032,1.4251,0,0,0.4944610595703125,0.7632598876953125,-0.1441497802734375,1.1435070037841797,-1.3082677125930786,0.3667337894439697
27,1.032,1.5764,0,0,0.6097564697265625,0.8676605224609375,-0.14959716796875,1.340522050857544,-1.3364293575286865,0.33842357993125916
28,1.0326,1.7135,0,0,0.7011871337890625,0.98760986328125,-0.194305419921875,1.287520408630371,-1.3394272327423096,0.3425227403640747
29,1.0308,1.8304,0,0,0.71722412109375,0.99078369140625,-0.1735076904296875,1.1131161451339722,-1.2810553312301636,0.30799564719200134
30,1.0244,1.9224,0,0,0.6957244873046875,0.9612884521484375,-0.1761627197265625,0.8189585208892822,-1.3700083494186401,0.2887503206729889
31,1.0118,1.9857,0,0,0.6669921875,0.8620758056640625,-0.21099853515625,0.5511041879653931,-1.6029540300369263,0.2169450968503952
32,0.9922,2.0173,0,0,0.60955810546875,0.755340576171875,-0.1855316162109375,0.3971652090549469,-1.8065502643585205,0.1583627462387085
33,0.9662,2.0151,0,0,0.51983642578125,0.666534423828125,-0.1756134033203125,0.21579407155513763,-1.8331520557403564,0.06971543282270432
34,0.9352,1.9782,0,0,0.4527130126953125,0.6346435546875,-0.1827239990234375,0.03274223208427429,-1.8303693532943726,0.020563332363963127
35,0.9013,1.9071,0,0,0.3818206787109375,0.63427734375,-0.197998046875,-0.0745735689997673,-1.9616907835006714,0.027583956718444824
36,0.8672,1.8043,0,0,0.3171844482421875,0.649658203125,-0.238922119140625,-0.0641385093331337,-2.152780294418335,-0.020900221541523933
37,0.8357,1.6747,0,0,0.341705322265625,0.7598114013671875,-0.3274383544921875,0.06245166063308716,-2.2206132411956787,-0.14019492268562317
38,0.8098,1.5255,0,0,0.416717529296875,0.79876708984375,-0.3761749267578125,0.2836684584617615,-1.904035210609436,-0.1655048131942749
39,0.7923,1.3659,0,0,0.4304351806640625,0.737091064453125,-0.404449462890625,0.41191911697387695,-1.479466438293457,-0.06295792758464813
40,0.7859,1.2064,0,0,0.4176177978515625,0.63946533203125,-0.390625,0.33720332384109497,-0.9994395971298218,-0.04989751800894737
41,0.7929,1.0574,0,0,0.3665618896484375,0.592071533203125,-0.350860595703125,0.07703832536935806,-0.5276331901550293,-0.050276488065719604
42,0.8146,0.9279,0,0,0.313873291015625,0.610870361328125,-0.3358001708984375,-0.2616177499294281,-0.124470554292202,-0.06447380036115646
43,0.8514,0.8248,0,0,0.254852294921875,0.6170196533203125,-0.3746490478515625,-0.5471006631851196,0.22235503792762756,-0.02947986125946045
44,0.9023,0.7518,0,0,0.2225494384765625,0.644622802734375,-0.425811767578125,-0.6866883635520935,0.4599848985671997,-0.029517944902181625
45,0.9649,0.7095,0,0,0.267547607421875,0.6641387939453125,-0.4944305419921875,-0.6946051120758057,0.5235649347305298,-0.15462179481983185
46,1.0351,0.6957,0,0,0.2995758056640625,0.616607666015625,-0.5880889892578125,-0.5798268914222717,0.43137723207473755,-0.31962886452674866
47,1.108,0.7061,0,0,0.2782135009765625,0.572235107421875,-0.794189453125,-0.54282546043396,0.5119500756263733,-0.3951891362667084
48,1.1777,0.735,0,0,0.3614654541015625,0.6832733154296875,-0.86920166015625,-0.5062394738197327,0.8933534026145935,-0.49577566981315613
49,1.2386,0.7759,0,0,0.5670318603515625,0.8283843994140625,-0.8822174072265625,-0.2535763382911682,0.5056730508804321,-0.5320849418640137
50,1.2855,0.8225,0,0,0.78729248046875,0.8415985107421875,-0.9651947021484375,0.2182987779378891,-0.16898609697818756,-0.36742860078811646
51,1.3147,0.8689,0,0,0.917083740234375,0.704345703125,-0.978057861328125,0.7133128046989441,-0.40900295972824097,-0.21726973354816437
52,1.3242,0.91,0,0,0.894989013671875,0.5499267578125,-0.7911376953125,0.885170578956604,0.021771341562271118,0.004348942078649998
53,1.3143,0.9417,0,0,0.824005126953125,0.6729736328125,-0.449462890625,0.7908477783203125,0.42107558250427246,0.22650930285453796
54,1.2869,0.9615,0,0,0.7434844970703125,0.971435546875,-0.3372955322265625,0.394918829202652,0.674172580242157,0.3772791028022766
55,1.2461,0.9683,0,0,0.762664794921875,1.29052734375,-0.336395263671875,-0.17808185517787933,1.149753451347351,0.2931586503982544
56,1.1968,0.9624,0,0,0.7477264404296875,1.405059814453125,-0.28558349609375,-0.476654976606369,1.288126826286316,0.30106210708618164
57,1.1445,0.9456,0,0,0.45599365234375,0.958099365234375,-0.2014007568359375,-0.4241124093532562,0.7940505146980286,0.4148286283016205
58,1.0945,0.9208,0,0,0.1386566162109375,0.59771728515625,-0.030059814453125,-0.05832136422395706,0.19629521667957306,0.6640530824661255
59,1.0508,0.8913,0,0,0.0560455322265625,0.6067657470703125,0.0945892333984375,-0.15245665609836578,0.4818057715892792,0.459664523601532
60,1.0159,0.8604,0,0,0.294281005859375,0.68804931640625,0.1631317138671875,-0.4660654366016388,0.5188450217247009,0.2092783898115158
61,0.9903,0.8311,0,0,0.376251220703125,0.8455047607421875,0.1196441650390625,-0.7087228298187256,0.0368722639977932,0.14872236549854279
62,0.9729,0.8055,0,0,0.482177734375,1.01513671875,0.0093536376953125,-0.7016233801841736,-0.15559065341949463,-0.022065620869398117
63,0.9612,0.7852,0,0,0.6699371337890625,1.0402984619140625,-0.136383056640625,-0.6221359968185425,-0.23138289153575897,-0.08735647797584534
64,0.9526,0.7709,0,0,0.722320556640625,0.864471435546875,-0.207855224609375,-0.6697725057601929,-0.16724997758865356,0.03822408616542816
65,0.9442,0.7633,0,0,0.6871795654296875,0.8246307373046875,-0.2389373779296875,-0.8958849906921387,0.36718305945396423,0.015206916257739067
66,0.9344,0.763,0,0,0.5997467041015625,0.794952392578125,-0.284637451171875,-0.9372342824935913,0.831312894821167,0.05097024142742157
67,0.9221,0.7708,0,0,0.4967498779296875,0.7049713134765625,-0.2539825439453125,-0.6805257797241211,0.8842147588729858,0.11851492524147034
68,0.9077,0.788,0,0,0.419769287109375,0.6263885498046875,-0.2878265380859375,-0.5965089201927185,0.5301077961921692,0.14034299552440643
69,0.8922,0.8157,0,0,0.3910369873046875,0.5933990478515625,-0.273895263671875,-0.5107452869415283,0.38294124603271484,0.030943535268306732
70,0.8772,0.8546,0,0,0.4467620849609375,0.605010986328125,-0.233428955078125,-0.3877573311328888,0.3853234648704529,-0.09626155346632004
71,0.8648,0.9044,0,0,0.5006866455078125,0.634002685546875,-0.1974334716796875,-0.26414215564727783,0.464406281709671,-0.1643572449684143
72,0.8569,0.9632,0,0,0.52557373046875,0.6701507568359375,-0.1676483154296875,-0.2287125438451767,0.7236573100090027,-0.17117121815681458
73,0.8553,1.0281,0,0,0.554840087890625,0.7009124755859375,-0.153411865234375,-0.25647732615470886,0.9808555245399475,-0.19680200517177582
74,0.8615,1.0947,0,0,0.5677032470703125,0.692718505859375,-0.1439666748046875,-0.27866891026496887,1.129647970199585,-0.1843610554933548
75,0.8765,1.158,0,0,0.572662353515625,0.6821746826171875,-0.15045166015625,-0.3188701272010803,1.1909728050231934,-0.16445578634738922
76,0.9009,1.2132,0,0,0.5716094970703125,0.6804351806640625,-0.1760101318359375,-0.3998587131500244,1.2137527465820312,-0.1312626749277115
77,0.9345,1.2563,0,0,0.548492431640625,0.6470489501953125,-0.27130126953125,-0.5304247140884399,1.3238747119903564,-0.10149279981851578
78,0.9768,1.2848,0,0,0.578277587890625,0.671722412109375,-0.4694061279296875,-0.5235769152641296,1.2195311784744263,-0.16745397448539734
79,1.0263,1.2985,0,0,0.6021270751953125,0.7354278564453125,-0.524932861328125,-0.19674155116081238,0.9777934551239014,-0.2513315677642822
80,1.081,1.2992,0,0,0.5870208740234375,0.7601318359375,-0.349273681640625,0.23320342600345612,1.2288464307785034,-0.26667162775993347
81,1.1383,1.2912,0,0,0.6539154052734375,0.77825927734375,-0.118896484375,0.5865598917007446,1.496301293373108,-0.34064093232154846
82,1.1949,1.2807,0,0,0.774200439453125,0.804595947265625,0.0070343017578125,0.627323567867279,1.5065784454345703,-0.4243459403514862
83,1.2475,1.2752,0,0,0.8629608154296875,0.7640380859375,0.0046844482421875,0.4234498143196106,1.348341941833496,-0.48901548981666565
84,1.2927,1.2826,0,0,1.0100860595703125,0.79547119140625,-0.006561279296875,0.10012340545654297,1.2223964929580688,-0.4628411531448364
85,1.3275,1.3099,0,0,1.1887359619140625,0.88092041015625,-0.073760986328125,-0.3377769887447357,1.0607436895370483,-0.34648656845092773
86,1.3497,1.362,0,0,1.2463226318359375,0.96844482421875,-0.131927490234375,-0.5979198813438416,0.6586713790893555,-0.025558089837431908
87,1.3579,1.4407,0,0,1.07415771484375,1.0077972412109375,-0.040496826171875,-0.378664493560791,-0.09309106320142746,0.439298540353775
88,1.3518,1.544,0,0,0.98388671875,1.075775146484375,0.0314178466796875,-0.266369104385376,-0.7051815986633301,0.6772953867912292
89,1.3322,1.6666,0,0,0.818572998046875,0.9280242919921875,-0.0883331298828125,-0.137669175863266,-1.6286420822143555,0.7389931082725525
90,1.3004,1.8002,0,0,0.5580291748046875,0.91119384765625,-0.229827880859375,0.2782483994960785,-2.2396466732025146,0.6630701422691345
91,1.2582,1.9349,0,0,0.2141876220703125,1.039947509765625,-0.310943603515625,0.9577555656433105,-2.356668710708618,0.7381789684295654
92,1.2074,2.0605,0,0,0.180572509765625,1.12066650390625,-0.27349853515625,1.4423816204071045,-2.1361234188079834,0.4286802411079407
93,1.1497,2.1676,0,0,0.4465789794921875,1.0439605712890625,-0.1712799072265625,1.6037793159484863,-1.3894577026367188,0.2418999820947647
94,1.0868,2.2482,0,0,0.465545654296875,0.9674530029296875,-0.0544281005859375,1.6819345951080322,-0.8834104537963867,0.6798123717308044
95,1.0203,2.2961,0,0,0.5831756591796875,0.9143218994140625,-0.037017822265625,1.3941309452056885,-1.0419527292251587,0.4516686499118805
96,0.9518,2.3071,0,0,0.5986480712890625,0.780181884765625,-0.067535400390625,0.9575081467628479,-1.5341291427612305,0.20286495983600616
97,0.8833,2.2793,0,0,0.518524169921875,0.664581298828125,-0.0817413330078125,0.5288896560668945,-1.9937372207641602,0.04706072062253952
98,0.8174,2.2128,0,0,0.475616455078125,0.703033447265625,-0.1556396484375,0.16076438128948212,-2.3209266662597656,-0.20164284110069275
99,0.757,2.1108,0,0,0.3674163818359375,0.7129974365234375,-0.1508331298828125,0.04524657502770424,-2.373026132583618,-0.15794223546981812
100,0.7059,1.979,0,0,0.2911224365234375,0.677459716796875,-0.132293701171875,0.005912217777222395,-2.3096282482147217,-0.08771520107984543
101,0.668,1.8267,0,0,0.278228759765625,0.6507720947265625,-0.104705810546875,-0.03964248299598694,-2.2590126991271973,-0.04318981617689133
102,0.6475,1.6656,0,0,0.2901153564453125,0.670379638671875,-0.0939483642578125,-0.1027708500623703,-2.1555798053741455,-0.05540120601654053
103,0.6483,1.5093,0,0,0.2994842529296875,0.6839752197265625,-0.138519287109375,-0.09902831166982651,-1.8630050420761108,-0.1751078963279724
104,0.6733,1.3718,0,0,0.259002685546875,0.6703948974609375,-0.1526031494140625,-0.03965819627046585,-1.1763134002685547,-0.1882988065481186
105,0.724,1.2656,0,0,0.2823486328125,0.6118927001953125,-0.1582794189453125,-0.03557717055082321,-0.22044049203395844,-0.1369599848985672
106,0.7997,1.2002,0,0,0.32568359375,0.5810546875,-0.2283477783203125,-0.12829725444316864,0.5473639965057373,-0.04359035566449165
107,0.8975,1.1807,0,0,0.2969207763671875,0.5350341796875,-0.25006103515625,-0.1560351401567459,0.8992107510566711,0.03774844482541084
108,1.0115,1.2069,0,0,0.2861480712890625,0.5688934326171875,-0.2708892822265625,-0.2613844573497772,1.2188183069229126,0.14099439978599548
109,1.1337,1.2736,0,0,0.335723876953125,0.615020751953125,-0.32232666015625,-0.460673063993454,1.6973010301589966,0.1568567305803299
110,1.2542,1.3711,0,0,0.2993316650390625,0.6490936279296875,-0.4753875732421875,-0.6189188957214355,1.7667075395584106,0.085701584815979
111,1.3627,1.4868,0,0,0.1536407470703125,0.8949737548828125,-1.0089111328125,-0.6323571801185608,0.9889822006225586,-0.26082760095596313
112,1.4494,1.6061,0,0,0.954071044921875,1.11810302734375,-2.116424560546875,-0.6888849139213562,-0.6702233552932739,-0.8695993423461914
113,1.5069,1.7143,0,0,1.1147003173828125,0.902740478515625,-1.5346832275390625,0.3600314259529114,-1.5032505989074707,-0.24759621918201447
114,1.5307,1.7977,0,0,1.01141357421875,0.8222808837890625,-1.04412841796875,1.5554413795471191,-0.6546161770820618,0.2959086298942566
115,1.5203,1.8458,0,0,0.7232818603515625,0.7299652099609375,-0.684661865234375,1.9810587167739868,0.10738185048103333,0.3441387414932251
116,1.4783,1.8517,0,0,0.612823486328125,0.785491943359375,-0.201171875,1.6774122714996338,0.9592317342758179,-0.01780056767165661
117,1.4106,1.8139,0,0,0.712677001953125,1.1638336181640625,-0.0044403076171875,0.781248152256012,1.7167857885360718,-0.17395421862602234
118,1.3249,1.7361,0,0,0.72808837890625,1.40057373046875,0.117401123046875,-0.32131731510162354,2.517207145690918,-0.27069196105003357
119,1.2299,1.6272,0,0,0.6110382080078125,1.303314208984375,0.039642333984375,-1.0282931327819824,2.5804479122161865,-0.1198292002081871
120,1.1343,1.5,0,0,0.324676513671875,0.8904571533203125,-0.01251220703125,-0.8160412907600403,1.525130033493042,0.19109086692333221
121,1.046,1.369,0,0,0.198150634765625,0.661651611328125,0.02642822265625,-0.13611789047718048,0.2685784697532654,0.2049797773361206
122,0.971,1.2489,0,0,0.2414093017578125,0.7673797607421875,0.0636444091796875,0.26562049984931946,-0.48668283224105835,0.004608067683875561
123,0.9129,1.1513,0,0,0.380889892578125,0.756927490234375,0.030242919921875,0.13042138516902924,-0.39382585883140564,-0.22709839046001434
124,0.8734,1.0834,0,0,0.45758056640625,0.75103759765625,-0.023468017578125,-0.16651281714439392,0.17974446713924408,-0.1353626251220703
125,0.8515,1.0473,0,0,0.55145263671875,0.786407470703125,-0.008819580078125,-0.3432830572128296,0.8800932168960571,-0.05762574449181557
126,0.8446,1.0401,0,0,0.5222015380859375,0.776519775390625,0.00775146484375,-0.4446496367454529,1.3152720928192139,0.062118496745824814
127,0.8491,1.0549,0,0,0.5027313232421875,0.7612152099609375,0.0334930419921875,-0.5060861110687256,1.374887228012085,0.07640209794044495
128,0.8608,1.0828,0,0,0.53839111328125,0.6988677978515625,-0.0770111083984375,-0.7021527886390686,1.2212122678756714,0.08907261490821838
129,0.8755,1.1147,0,0,0.5565185546875,0.6464691162109375,-0.1393890380859375,-0.8852326273918152,1.0595513582229614,0.07943037897348404
130,0.8899,1.1427,0,0,0.5865631103515625,0.6075286865234375,-0.2152252197265625,-1.2775402069091797,0.7735819816589355,-0.02894962579011917
131,0.9014,1.1616,0,0,0.594512939453125,0.6281890869140625,-0.349945068359375,-1.5326100587844849,0.4079451560974121,-0.12675954401493073
132,0.9091,1.169,0,0,0.5297393798828125,0.6411895751953125,-0.536834716796875,-1.1342989206314087,0.03081277385354042,-0.14705629646778107
133,0.913,1.1654,0,0,0.504150390625,0.71832275390625,-0.4734649658203125,-0.4209679961204529,0.0658559799194336,-0.19246825575828552
134,0.9147,1.1536,0,0,0.53997802734375,0.7192535400390625,-0.2867431640625,-0.0063210129737854,1.0444177389144897,-0.2128179967403412
135,0.9166,1.1376,0,0,0.5849456787109375,0.74609375,-0.116241455078125,0.2187427282333374,1.3412081003189087,-0.22766432166099548
136,0.9217,1.1219,0,0,0.5906982421875,0.6819610595703125,-0.05035400390625,0.19396761059761047,1.1086385250091553,-0.2422696202993393
137,0.9329,1.1109,0,0,0.5994110107421875,0.65264892578125,-0.038543701171875,0.031006384640932083,0.8460662961006165,-0.2690812647342682
138,0.9528,1.1078,0,0,0.5837554931640625,0.6151885986328125,-0.0678558349609375,-0.1927393525838852,0.6801601648330688,-0.2983243763446808
139,0.9829,1.1148,0,0,0.578155517578125,0.6483917236328125,-0.11505126953125,-0.4140712022781372,0.6973287463188171,-0.32603588700294495
140,1.0236,1.1328,0,0,0.597137451171875,0.73736572265625,-0.2052764892578125,-0.5984690189361572,0.969014048576355,-0.342014342546463
141,1.0736,1.1616,0,0,0.604583740234375,0.8284454345703125,-0.2945098876953125,-0.5260835289955139,1.1266518831253052,-0.3591075539588928
142,1.1305,1.2006,0,0,0.635345458984375,0.821441650390625,-0.3019256591796875,-0.22136300802230835,1.2565478086471558,-0.39262664318084717
143,1.1906,1.2493,0,0,0.777557373046875,0.7816009521484375,-0.2272491455078125,0.1623377799987793,1.4131712913513184,-0.46590858697891235
144,1.2493,1.3074,0,0,0.970123291015625,0.8678741455078125,-0.0938873291015625,0.3344022035598755,1.6652793884277344,-0.4725731313228607
145,1.3021,1.3753,0,0,1.071075439453125,0.880584716796875,-0.0348663330078125,0.2513779103755951,1.6768841743469238,-0.21641911566257477
146,1.3443,1.4533,0,0,1.1221923828125,0.9100799560546875,-0.055755615234375,-0.002014681464061141,1.2744802236557007,0.23953376710414886
147,1.3724,1.5418,0,0,1.061126708984375,1.0086669921875,0.1038665771484375,-0.09235735982656479,0.6989586353302002,0.7400581240653992
148,1.3836,1.6404,0,0,0.97430419921875,1.0559844970703125,0.1486663818359375,-0.014315822161734104,-0.21520444750785828,1.0944870710372925
149,1.3764,1.7472,0,0,0.85516357421875,0.97607421875,-0.0059661865234375,-0.011799934320151806,-0.9384154081344604,1.1360927820205688
150,1.3507,1.8591,0,0,0.785980224609375,0.9405364990234375,-0.2874603271484375,0.33588773012161255,-1.645496129989624,0.8210954070091248
151,1.3076,1.9719,0,0,0.504150390625,1.059722900390625,-0.5718841552734375,1.1626356840133667,-1.6017206907272339,0.9907829761505127
152,1.2492,2.0804,0,0,0.395233154296875,1.1667022705078125,-0.4705047607421875,2.1121842861175537,-1.4013620615005493,1.0574594736099243
153,1.1785,2.1791,0,0,0.5562591552734375,1.0594635009765625,-0.0730743408203125,2.418205738067627,-0.34162870049476624,1.0285003185272217
154,1.0992,2.2627,0,0,0.6915283203125,0.8582763671875,0.1319732666015625,2.108431816101074,-0.22318115830421448,0.857910692691803
155,1.0153,2.3263,0,0,0.70501708984375,0.7015380859375,0.0991363525390625,1.4804751873016357,-0.6510879993438721,0.6254955530166626
156,0.9311,2.3655,0,0,0.6213836669921875,0.54278564453125,0.0662078857421875,0.9182853698730469,-1.3079825639724731,0.4668276309967041
157,0.8505,2.3766,0,0,0.529510498046875,0.4941558837890625,-0.0337677001953125,0.38336071372032166,-2.031543254852295,0.24647821485996246
158,0.7777,2.3568,0,0,0.4886932373046875,0.537017822265625,-0.115570068359375,0.053474411368370056,-2.447350263595581,0.03586691990494728
159,0.7163,2.3053,0,0,0.4232635498046875,0.549560546875,-0.128692626953125,-0.11766351759433746,-2.5207128524780273,0.16326536238193512
160,0.6697,2.2236,0,0,0.394866943359375,0.5788726806640625,-0.0998077392578125,-0.26731133460998535,-2.442948341369629,0.28628501296043396
161,0.6411,2.1163,0,0,0.4080047607421875,0.635040283203125,-0.1016387939453125,-0.3927163779735565,-2.4068968296051025,0.26368623971939087
162,0.6335,1.9914,0,0,0.372344970703125,0.715850830078125,-0.092315673828125,-0.4368630647659302,-2.4182369709014893,0.21437914669513702
163,0.6493,1.8598,0,0,0.4160308837890625,0.8300018310546875,-0.06329345703125,-0.3426966369152069,-2.3325181007385254,0.00571833923459053
164,0.6901,1.7345,0,0,0.416259765625,0.8004913330078125,-0.0462646484375,-0.26748231053352356,-1.9403167963027954,-0.02106613665819168
165,0.7561,1.6289,0,0,0.3389434814453125,0.6364593505859375,-0.0567474365234375,-0.3117522895336151,-1.308891773223877,0.14304611086845398
166,0.8459,1.555,0,0,0.29290771484375,0.5200958251953125,-0.09710693359375,-0.46836453676223755,-0.6680800318717957,0.16759006679058075
167,0.9554,1.5216,0,0,0.3380126953125,0.4483795166015625,-0.13067626953125,-0.7073259949684143,0.051351070404052734,0.05826010927557945
168,1.078,1.5325,0,0,0.3888092041015625,0.46783447265625,-0.15216064453125,-0.9681565165519714,0.8099839091300964,0.061655908823013306
169,1.2047,1.5861,0,0,0.4487457275390625,0.53338623046875,-0.163543701171875,-1.288049340248108,1.4204922914505005,0.09970768541097641
170,1.325,1.6752,0,0,0.3871917724609375,0.7233123779296875,-0.507720947265625,-1.614938735961914,1.6810849905014038,0.08395801484584808
171,1.4277,1.7879,0,0,0.472808837890625,0.9939422607421875,-1.1991119384765625,-1.128683090209961,-0.3146921694278717,-0.23466230928897858
172,1.5032,1.909,0,0,1.2454376220703125,0.9078216552734375,-2.126007080078125,-0.7046913504600525,-1.6435067653656006,-0.3952946066856384
173,1.5447,2.0215,0,0,1.29205322265625,1.0000762939453125,-1.4481658935546875,0.2563476264476776,-1.0669395923614502,0.7217070460319519
174,1.5492,2.1091,0,0,0.88116455078125,1.0431365966796875,-1.059112548828125,1.5879460573196411,-1.4820257425308228,1.413062334060669
175,1.518,2.1579,0,0,0.510772705078125,1.1099090576171875,-0.9685516357421875,1.9634910821914673,-1.382866382598877,0.5616851449012756
176,1.4564,2.1587,0,0,0.5348358154296875,0.9827880859375,-0.458343505859375,1.9929933547973633,-0.17359308898448944,-0.5731210708618164
177,1.3727,2.108,0,0,0.6211090087890625,1.009490966796875,-0.0791168212890625,1.9559544324874878,1.4923404455184937,-0.9260128140449524
178,1.2767,2.0092,0,0,0.6002960205078125,0.93829345703125,0.1827239990234375,1.438840389251709,2.6099841594696045,-0.8590308427810669
179,1.1784,1.8721,0,0,0.5348663330078125,0.7590179443359375,0.1887054443359375,0.6463334560394287,2.47397518157959,-0.45505407452583313
180,1.0864,1.7114,0,0,0.480072021484375,0.5146484375,0.1698150634765625,0.2352157086133957,1.558295488357544,0.0519324392080307
181,1.0072,1.5448,0,0,0.5399627685546875,0.51800537109375,0.2054290771484375,0.04327130690217018,0.7851108312606812,0.24669313430786133
182,0.9448,1.3899,0,0,0.58447265625,0.7804718017578125,0.171844482421875,-0.21819119155406952,0.3572489321231842,0.0010655306978151202
183,0.9005,1.2621,0,0,0.548065185546875,0.93896484375,0.047210693359375,-0.4374004900455475,0.4659764766693115,-0.07903116941452026
184,0.8736,1.1717,0,0,0.553436279296875,1.020416259765625,-0.1250152587890625,-0.45015838742256165,0.6685338616371155,-0.12340076267719269
185,0.8615,1.1237,0,0,0.4834136962890625,0.8520050048828125,-0.1309814453125,-0.33770906925201416,0.9306616187095642,-0.0346519872546196
186,0.8609,1.1173,0,0,0.5078582763671875,0.7082672119140625,-0.029388427734375,-0.4392271637916565,1.3212370872497559,0.00663340138271451
187,0.8681,1.1466,0,0,0.526885986328125,0.61517333984375,-0.064910888671875,-0.6710108518600464,1.2570059299468994,0.04675578698515892
188,0.8794,1.2026,0,0,0.551544189453125,0.558929443359375,-0.139404296875,-0.8191755414009094,1.1331316232681274,0.056347694247961044
189,0.8917,1.2746,0,0,0.5735321044921875,0.5399017333984375,-0.190704345703125,-0.9406023621559143,1.1331771612167358,-0.0079173119738698
190,0.9028,1.3516,0,0,0.6065216064453125,0.5130615234375,-0.2563018798828125,-1.0361475944519043,1.150646686553955,-0.13061952590942383
191,0.9114,1.4244,0,0,0.695892333984375,0.4868011474609375,-0.3559417724609375,-1.0943166017532349,1.2762818336486816,-0.2388962060213089
192,0.9173,1.4854,0,0,0.7378692626953125,0.617523193359375,-0.5321197509765625,-1.2007898092269897,1.56277596950531,-0.28820064663887024
193,0.9214,1.53,0,0,0.74676513671875,0.7154693603515625,-0.54583740234375,-0.6382968425750732,1.2024976015090942,-0.3334895372390747
194,0.9258,1.5557,0,0,0.70208740234375,0.6417694091796875,-0.3070526123046875,0.3711543679237366,0.84229576587677,-0.35042858123779297
195,0.9331,1.5619,0,0,0.638275146484375,0.62677001953125,-0.045440673828125,0.7560759782791138,1.039526343345642,-0.3671862483024597
196,0.9463,1.5495,0,0,0.5647735595703125,0.600128173828125,0.0440521240234375,0.46105045080184937,1.2168248891830444,-0.3866928517818451
197,0.9677,1.5205,0,0,0.556488037109375,0.603546142578125,-0.0168304443359375,-0.010411628521978855,1.1790099143981934,-0.44065621495246887
198,0.9991,1.4776,0,0,0.582672119140625,0.6567840576171875,-0.19500732421875,-0.4372737407684326,1.1563512086868286,-0.5394006371498108
199,1.0406,1.4249,0,0,0.6206817626953125,0.6956939697265625,-0.3627777099609375,-0.5052695870399475,1.3899288177490234,-0.5617302060127258
200,1.0913,1.3672,0,0,0.679168701171875,0.6946868896484375,-0.349334716796875,0.053089581429958344,1.4746500253677368,-0.5958170294761658
201,1.1484,1.311,0,0,0.8014068603515625,0.6307220458984375,-0.179168701171875,0.5017456412315369,1.6638509035110474,-0.5522115230560303
202,1.2081,1.264,0,0,1.0025787353515625,0.650421142578125,-0.0404510498046875,0.634350061416626,1.7677370309829712,-0.5079724192619324
203,1.2659,1.2344,0,0,1.1357574462890625,0.7179412841796875,0.0430450439453125,0.3881879448890686,1.504868984222412,-0.3731648027896881
204,1.317,1.2304,0,0,1.2299957275390625,0.893341064453125,0.061309814453125,-0.17920304834842682,0.8304961323738098,-0.19983720779418945
205,1.3569,1.2586,0,0,1.1455230712890625,0.9618682861328125,0.0333251953125,-0.5544706583023071,0.04940057173371315,0.01769137941300869
206,1.3818,1.3229,0,0,1.08819580078125,0.965606689453125,0.0156707763671875,-0.4614890515804291,-0.27257347106933594,0.36666935682296753
207,1.3893,1.4234,0,0,1.000396728515625,0.847381591796875,-0.1291351318359375,-0.30045729875564575,-0.5705140829086304,0.5373215079307556
208,1.3777,1.5564,0,0,0.8801422119140625,0.7094573974609375,-0.4423675537109375,0.18048934638500214,-1.1384986639022827,0.5755882263183594
209,1.3471,1.7142,0,0,0.74627685546875,0.9305877685546875,-0.50555419921875,1.2265675067901611,-1.7474392652511597,0.8601371049880981
210,1.2985,1.8868,0,0,0.652496337890625,1.1209564208984375,-0.3787689208984375,2.0858325958251953,-1.499207615852356,1.0784140825271606
211,1.2339,2.0626,0,0,0.705718994140625,1.0685577392578125,0.0030670166015625,2.2812387943267822,-0.5764893889427185,1.2566308975219727
212,1.1565,2.2296,0,0,0.7220001220703125,0.927642822265625,0.1185455322265625,1.8341907262802124,-0.5876944065093994,1.173128366470337
213,1.0701,2.3765,0,0,0.7658538818359375,0.8310394287109375,0.12158203125,1.335638403892517,-0.8220281004905701,0.902575671672821
214,0.9793,2.4931,0,0,0.6451416015625,0.6931304931640625,0.07177734375,0.8076001405715942,-1.4570889472961426,0.6874159574508667
215,0.8888,2.571,0,0,0.54290771484375,0.5895538330078125,-0.0369415283203125,0.17089290916919708,-2.27011775970459,0.3987431228160858
216,0.8035,2.6038,0,0,0.456024169921875,0.54571533203125,-0.124420166015625,-0.22986063361167908,-2.521428346633911,0.2745210528373718
217,0.7283,2.5883,0,0,0.4178314208984375,0.5139617919921875,-0.1088714599609375,-0.3764878809452057,-2.5826292037963867,0.23112936317920685
218,0.6676,2.5247,0,0,0.4016876220703125,0.5448455810546875,-0.06585693359375,-0.5047124028205872,-2.81127667427063,0.15311551094055176
219,0.6255,2.4176,0,0,0.3796234130859375,0.5894622802734375,-0.0511322021484375,-0.6548396348953247,-2.989340305328369,0.07773181051015854
220,0.6051,2.2756,0,0,0.3772430419921875,0.6158294677734375,-0.0818328857421875,-0.7605361938476562,-2.9336867332458496,0.0608375184237957
221,0.6092,2.1109,0,0,0.3994140625,0.6573333740234375,-0.1310577392578125,-0.7048125267028809,-2.571883201599121,0.0022362563759088516
222,0.639,1.9381,0,0,0.4008941650390625,0.6413116455078125,-0.159210205078125,-0.4752331078052521,-1.8188450336456299,0.007769772317260504
223,0.6946,1.7721,0,0,0.3394775390625,0.5888214111328125,-0.1505126953125,-0.2680024206638336,-0.9881091713905334,0.11294040083885193
224,0.7742,1.626,0,0,0.3563995361328125,0.53900146484375,-0.1957244873046875,-0.27065786719322205,-0.29027336835861206,0.0799877792596817
225,0.874,1.5094,0,0,0.3882598876953125,0.48663330078125,-0.21026611328125,-0.33738869428634644,0.7066277265548706,0.09814947098493576
226,0.9881,1.427,0,0,0.445556640625,0.4925079345703125,-0.2066650390625,-0.44213932752609253,1.5479471683502197,0.08286479115486145
227,1.1085,1.3787,0,0,0.4589996337890625,0.4987640380859375,-0.1985626220703125,-0.6383661031723022,1.8236347436904907,0.07066138833761215
228,1.226,1.3595,0,0,0.4478302001953125,0.562530517578125,-0.3658599853515625,-0.9515485167503357,1.3777363300323486,-0.04409874975681305
229,1.3312,1.3615,0,0,0.535797119140625,0.758331298828125,-0.813751220703125,-0.9906224012374878,-0.1076606810092926,-0.23728258907794952
230,1.4153,1.3747,0,0,1.141204833984375,0.84063720703125,-2.12103271484375,-1.1895256042480469,-1.0087825059890747,-0.3606599271297455
231,1.4718,1.389,0,0,1.3925933837890625,0.9133453369140625,-1.397369384765625,-0.6915068030357361,-0.7383214831352234,0.24878504872322083
232,1.4971,1.3956,0,0,1.1356201171875,0.7183685302734375,-1.0901947021484375,1.055759310722351,-1.5107166767120361,0.9339362382888794
233,1.4913,1.3877,0,0,0.7181549072265625,0.56964111328125,-0.7092132568359375,1.504669189453125,-0.8114393353462219,0.7460755109786987
234,1.4572,1.3618,0,0,0.6402587890625,0.652252197265625,-0.4807281494140625,1.1691814661026,-0.186736598610878,0.33699825406074524
235,1.4003,1.3177,0,0,0.7034759521484375,0.878631591796875,-0.4283599853515625,1.0602678060531616,0.0038860845379531384,0.09945708513259888
236,1.3275,1.2583,0,0,0.795806884765625,1.1333160400390625,-0.103973388671875,0.8764457702636719,0.39994287490844727,-0.21928228437900543
237,1.2463,1.1891,0,0,0.761993408203125,1.16973876953125,0.0534820556640625,0.1489865481853485,1.0703915357589722,-0.24786439538002014
238,1.1638,1.1172,0,0,0.5411224365234375,1.0005950927734375,0.01531982421875,-0.32276660203933716,1.5963943004608154,0.0370086170732975
239,1.0861,1.0508,0,0,0.4251556396484375,0.7705078125,0.067291259765625,-0.07046724110841751,1.535132646560669,0.22844941914081573
240,1.0177,0.9975,0,0,0.328643798828125,0.6561737060546875,0.099395751953125,0.19032706320285797,0.7322164177894592,0.4155878722667694
241,0.9613,0.964,0,0,0.401611328125,0.8203887939453125,-0.0014801025390625,0.1510891169309616,0.21106669306755066,0.10941383987665176
242,0.9182,0.9544,0,0,0.602142333984375,0.8578033447265625,-0.0546112060546875,0.043951213359832764,0.4846732020378113,-0.15487293899059296
243,0.8877,0.9699,0,0,0.721282958984375,0.769989013671875,-0.0612030029296875,-0.11687974631786346,0.6661450266838074,-0.16807448863983154
244,0.8686,1.0088,0,0,0.677978515625,0.735198974609375,-0.03265380859375,-0.208500474691391,1.0000454187393188,-0.13480281829833984
245,0.8587,1.0666,0,0,0.6211090087890625,0.723419189453125,0.0132293701171875,-0.2582128942012787,1.3454878330230713,-0.1531677097082138
246,0.8558,1.1368,0,0,0.540802001953125,0.6338958740234375,-0.0002288818359375,-0.4330267906188965,1.267808198928833,-0.1093834787607193
247,0.8575,1.2122,0,0,0.517242431640625,0.532440185546875,-0.0067901611328125,-0.6914135813713074,0.9626759886741638,-0.12401781976222992
248,0.8621,1.2856,0,0,0.5552825927734375,0.439422607421875,-0.1523895263671875,-0.9756115078926086,0.730882465839386,-0.1549490988254547
249,0.8678,1.3507,0,0,0.6227874755859375,0.3693389892578125,-0.3376007080078125,-1.1494783163070679,1.0328303575515747,-0.24440760910511017
250,0.874,1.4029,0,0,0.723876953125,0.4502410888671875,-0.4526519775390625,-1.1997652053833008,1.6267017126083374,-0.33486002683639526
251,0.8802,1.4396,0,0,0.68115234375,0.590606689453125,-0.4459228515625,-0.7108043432235718,1.3661739826202393,-0.2942950129508972
252,0.8871,1.4597,0,0,0.6704254150390625,0.671875,-0.3999176025390625,-0.023811057209968567,0.8832514882087708,-0.3276854455471039
253,0.8958,1.4636,0,0,0.652984619140625,0.6190643310546875,-0.1983795166015625,0.41072148084640503,1.147505521774292,-0.34267371892929077
254,0.9077,1.4528,0,0,0.6277618408203125,0.626190185546875,-0.0706787109375,0.4648805856704712,1.2183059453964233,-0.4148626923561096
255,0.9249,1.4291,0,0,0.638916015625,0.6143951416015625,-0.075439453125,0.3148120045661926,0.9896585941314697,-0.4789660573005676
256,0.9488,1.3946,0,0,0.6367034912109375,0.576690673828125,-0.142608642578125,0.01870551146566868,1.0569428205490112,-0.48862481117248535
257,0.9806,1.3517,0,0,0.66400146484375,0.5866241455078125,-0.2265167236328125,-0.2693076431751251,1.3071537017822266,-0.5213625431060791
258,1.0205,1.3034,0,0,0.6738739013671875,0.62322998046875,-0.2544097900390625,-0.1870923936367035,1.3406277894973755,-0.5182487368583679
259,1.0678,1.2533,0,0,0.7252197265625,0.7279815673828125,-0.2169342041015625,0.250567227602005,1.2313652038574219,-0.483127236366272
260,1.1208,1.2065,0,0,0.8121185302734375,0.6644287109375,-0.1121368408203125,0.5045507550239563,1.3880823850631714,-0.4506393373012543
261,1.1767,1.1689,0,0,0.9682464599609375,0.6846160888671875,-0.0528717041015625,0.5449610352516174,1.3396013975143433,-0.4900061786174774
262,1.2323,1.1474,0,0,1.05157470703125,0.697113037109375,0.0063018798828125,0.35237082839012146,1.3417329788208008,-0.46835044026374817
263,1.2838,1.1494,0,0,1.1372528076171875,0.67919921875,0.03839111328125,-0.11702968180179596,1.120527982711792,-0.5316590666770935
264,1.3275,1.181,0,0,1.232757568359375,0.7393798828125,0.01165771484375,-0.5297070145606995,0.6628408432006836,-0.40588119626045227
265,1.36,1.2468,0,0,1.1259613037109375,0.8704833984375,0.008941650390625,-0.6290255784988403,-0.04818990081548691,-0.04470888152718544
266,1.3785,1.3483,0,0,1.05389404296875,0.9751739501953125,-0.0371856689453125,-0.5007871985435486,-0.5910302996635437,0.294314980506897
267,1.3809,1.4834,0,0,0.90106201171875,0.9265594482421875,-0.1593170166015625,-0.21991878747940063,-0.8912526965141296,0.5895900130271912
268,1.3661,1.6465,0,0,0.7688446044921875,0.7893524169921875,-0.3360443115234375,0.40665751695632935,-1.0874890089035034,0.7456638216972351
269,1.3336,1.8292,0,0,0.71588134765625,1.0393218994140625,-0.3956298828125,1.3553500175476074,-1.5400359630584717,1.0531967878341675
270,1.2843,2.0208,0,0,0.6329803466796875,1.1808624267578125,-0.3075714111328125,2.17777681350708,-1.396167516708374,1.3225103616714478
271,1.2198,2.2099,0,0,0.687744140625,1.0713043212890625,-0.05670166015625,2.46351957321167,-0.6095975637435913,1.287459135055542
272,1.1426,2.3854,0,0,0.7875823974609375,0.8825531005859375,0.0568084716796875,2.2128758430480957,-0.5078073143959045,0.9758309721946716
273,1.0564,2.5366,0,0,0.8527984619140625,0.7690582275390625,0.1048736572265625,1.6454426050186157,-0.8493947386741638,0.5698815584182739
274,0.9654,2.6545,0,0,0.7674407958984375,0.595001220703125,0.0184173583984375,0.7266815900802612,-1.8261849880218506,0.2580520510673523
275,0.8745,2.7314,0,0,0.581207275390625,0.5201873779296875,-0.08587646484375,0.03507329896092415,-2.4250667095184326,0.20650577545166016
276,0.7888,2.7614,0,0,0.5048980712890625,0.52606201171875,-0.152618408203125,-0.24246136844158173,-2.4935452938079834,0.14588423073291779
277,0.7136,2.7413,0,0,0.4088287353515625,0.4700927734375,-0.1117095947265625,-0.36181172728538513,-2.7051732540130615,0.19085277616977692
278,0.6534,2.6709,0,0,0.3614044189453125,0.4868011474609375,-0.0652618408203125,-0.5187252163887024,-3.0183324813842773,0.1744184046983719
279,0.6126,2.5538,0,0,0.3537750244140625,0.5082855224609375,-0.0737457275390625,-0.7360889315605164,-3.174923896789551,0.08402113616466522
280,0.5946,2.3979,0,0,0.3690948486328125,0.537353515625,-0.11029052734375,-0.8910974264144897,-3.102992057800293,0.06869890540838242
281,0.6016,2.2145,0,0,0.42791748046875,0.6574249267578125,-0.154144287109375,-0.834751307964325,-2.62339186668396,-0.009098690003156662
282,0.6347,2.0175,0,0,0.464935302734375,0.666717529296875,-0.13916015625,-0.6334941387176514,-1.7131353616714478,0.04868524894118309
283,0.6937,1.8217,0,0,0.40411376953125,0.608978271484375,-0.1374053955078125,-0.5245487093925476,-0.8433640003204346,0.2009030133485794
284,0.7764,1.6408,0,0,0.414215087890625,0.5314178466796875,-0.1295623779296875,-0.5803888440132141,-0.09437816590070724,0.14857429265975952
285,0.8788,1.4853,0,0,0.4094390869140625,0.42474365234375,-0.16143798828125,-0.7832401990890503,0.4603252708911896,0.17658622562885284
286,0.9947,1.3618,0,0,0.448394775390625,0.4195404052734375,-0.2344207763671875,-0.98739093542099,0.9932608008384705,0.14114300906658173
287,1.1163,1.2723,0,0,0.4473724365234375,0.4833221435546875,-0.2778778076171875,-1.1820735931396484,1.5152779817581177,0.14928962290287018
288,1.2347,1.2147,0,0,0.4188079833984375,0.577362060546875,-0.6237030029296875,-1.3412302732467651,1.552840232849121,-0.05762894079089165
289,1.3407,1.1832,0,0,0.540191650390625,0.681610107421875,-1.183013916015625,-0.6773137450218201,-0.07646361738443375,-0.28079330921173096
290,1.426,1.1701,0,0,1.12152099609375,0.7726898193359375,-1.9532012939453125,-0.17003484070301056,-0.03984328731894493,-0.26136982440948486
291,1.4844,1.1664,0,0,1.271881103515625,0.9812774658203125,-1.2795562744140625,0.3116207420825958,0.8740411996841431,0.3067980110645294
292,1.5124,1.1635,0,0,0.949310302734375,0.8807373046875,-1.1276702880859375,1.4001023769378662,-0.5669310688972473,0.6367847323417664
293,1.5097,1.1545,0,0,0.5630340576171875,0.6102142333984375,-0.6348724365234375,1.455043077468872,-0.4665149748325348,0.4178025722503662
294,1.4787,1.1352,0,0,0.694091796875,0.6425323486328125,-0.325958251953125,1.4752682447433472,0.09096905589103699,-0.04952361062169075
295,1.4243,1.1045,0,0,0.93743896484375,0.9515228271484375,-0.2333831787109375,1.2964187860488892,0.9686161875724792,-0.2907945513725281
296,1.3525,1.0649,0,0,1.065399169921875,1.246734619140625,-0.0694732666015625,0.8707727193832397,0.8441384434700012,-0.31220051646232605
297,1.2704,1.0214,0,0,0.830413818359375,1.1020965576171875,0.07720947265625,0.03904753550887108,0.49337881803512573,-0.12943601608276367
298,1.1847,0.9809,0,0,0.6099700927734375,0.9299468994140625,0.08343505859375,-0.554031491279602,0.4955626130104065,0.24287815392017365
299,1.1015,0.9504,0,0,0.4326171875,0.6816864013671875,0.1403656005859375,-0.4617711007595062,0.5953187346458435,0.5168567299842834
300,1.0258,0.9358,0,0,0.31610107421875,0.755706787109375,0.1606903076171875,-0.27604755759239197,0.3968496024608612,0.5571892261505127
301,0.9611,0.9409,0,0,0.4233245849609375,0.8282623291015625,0.0806427001953125,-0.35690271854400635,-0.19909313321113586,0.24225923418998718
302,0.9092,0.9666,0,0,0.5909271240234375,0.8291473388671875,-0.000152587890625,-0.6533607840538025,-0.34320715069770813,0.0928974524140358
303,0.8708,1.0112,0,0,0.675445556640625,0.8234100341796875,-0.164337158203125,-0.8091663122177124,0.3218131959438324,0.11019042134284973
304,0.8451,1.0703,0,0,0.5846710205078125,0.7740478515625,-0.0838775634765625,-0.4711153209209442,1.2318181991577148,0.152496337890625
305,0.8307,1.1382,0,0,0.4562835693359375,0.654510498046875,0.0263519287109375,-0.3338264524936676,1.3994804620742798,0.17922328412532806
306,0.8257,1.2084,0,0,0.476715087890625,0.579925537109375,-0.12835693359375,-0.5636804103851318,1.2517091035842896,0.15115489065647125
307,0.8279,1.275,0,0,0.4404449462890625,0.4362335205078125,-0.180633544921875,-0.7312843203544617,1.2845715284347534,0.14265061914920807
308,0.8351,1.3329,0,0,0.5528106689453125,0.3883209228515625,-0.2600250244140625,-0.9861043691635132,1.1569949388504028,-0.04801173508167267
309,0.8454,1.3788,0,0,0.693328857421875,0.4624481201171875,-0.39990234375,-1.068551778793335,0.9969010949134827,-0.27123016119003296
310,0.8574,1.4108,0,0,0.660614013671875,0.5440826416015625,-0.4097900390625,-0.6524001359939575,0.9738162755966187,-0.269878625869751
311,0.8706,1.4285,0,0,0.6940765380859375,0.6532745361328125,-0.4027252197265625,-0.14429698884487152,1.0150593519210815,-0.28322798013687134
312,0.8852,1.4323,0,0,0.7464752197265625,0.65869140625,-0.3109283447265625,0.22575004398822784,1.3913346529006958,-0.3174099028110504
313,0.9021,1.4234,0,0,0.7144622802734375,0.6193695068359375,-0.1206207275390625,0.42815959453582764,1.4926525354385376,-0.37766233086586
314,0.9229,1.4033,0,0,0.6785125732421875,0.6087799072265625,-0.03546142578125,0.36151984333992004,1.1782047748565674,-0.47150173783302307
315,0.9492,1.3737,0,0,0.6645660400390625,0.5382537841796875,-0.116058349609375,0.14254675805568695,0.8094931244850159,-0.5577269196510315
316,0.9824,1.3368,0,0,0.672149658203125,0.524078369140625,-0.1886444091796875,-0.1527397483587265,1.0863438844680786,-0.6040544509887695
317,1.023,1.2951,0,0,0.5930633544921875,0.5782470703125,-0.2094879150390625,-0.25226208567619324,1.224699854850769,-0.5797584652900696
318,1.0706,1.2516,0,0,0.6135101318359375,0.6634674072265625,-0.1674957275390625,0.0338226780295372,1.1310104131698608,-0.565308690071106
319,1.1236,1.2107,0,0,0.7913970947265625,0.680023193359375,-0.126708984375,0.3238510489463806,1.2729283571243286,-0.533782958984375
320,1.1792,1.1774,0,0,1.0148162841796875,0.678558349609375,-0.0607452392578125,0.41093960404396057,1.5579590797424316,-0.4911803901195526
321,1.234,1.1579,0,0,1.1544189453125,0.670196533203125,-0.0163726806640625,0.3793076276779175,1.4591158628463745,-0.47201573848724365
322,1.2843,1.1586,0,0,1.279754638671875,0.7061920166015625,-0.0074462890625,-0.04602714627981186,1.3811200857162476,-0.44052624702453613
323,1.3262,1.1851,0,0,1.2690582275390625,0.8011322021484375,-0.02825927734375,-0.45119622349739075,0.7215076088905334,-0.24520017206668854
324,1.3567,1.2416,0,0,1.08184814453125,0.8969573974609375,-0.005645751953125,-0.48409369587898254,-0.25414466857910156,0.17069797217845917
325,1.3729,1.3294,0,0,0.9816131591796875,0.8818511962890625,-0.0126953125,-0.299318790435791,-0.5804042816162109,0.4665759801864624
326,1.3732,1.4465,0,0,0.8907928466796875,0.824432373046875,-0.1201629638671875,-0.11630050837993622,-0.6698499917984009,0.5609634518623352
327,1.3564,1.5873,0,0,0.77471923828125,0.7239532470703125,-0.27154541015625,0.4040294885635376,-0.9970832467079163,0.649217426776886
328,1.3224,1.7436,0,0,0.6917572021484375,1.0473785400390625,-0.43365478515625,1.188294529914856,-1.653114914894104,0.9012946486473083
329,1.2719,1.9052,0,0,0.568939208984375,1.22235107421875,-0.383636474609375,1.9624642133712769,-1.5960835218429565,1.145784616470337
330,1.2063,2.0615,0,0,0.6404876708984375,1.1754913330078125,-0.1139373779296875,2.278226137161255,-0.8662607669830322,1.1312344074249268
331,1.1284,2.2025,0,0,0.6961212158203125,0.887725830078125,-0.0131988525390625,2.16841721534729,-0.5693801045417786,0.8994621634483337
332,1.0416,2.3198,0,0,0.8029937744140625,0.7871246337890625,0.0197906494140625,1.9122098684310913,-0.6419115662574768,0.5030586123466492
333,0.9504,2.4065,0,0,0.758880615234375,0.605621337890625,0.03594970703125,1.379432201385498,-1.1530531644821167,0.20029954612255096
334,0.8599,2.4576,0,0,0.584228515625,0.500457763671875,-0.0241851806640625,0.6240574717521667,-1.9243078231811523,0.08431754261255264
335,0.7754,2.4698,0,0,0.561614990234375,0.509674072265625,-0.09405517578125,0.11081546545028687,-2.11948561668396,-0.03592710942029953
336,0.7024,2.4419,0,0,0.470123291015625,0.4730072021484375,-0.0966949462890625,-0.21425823867321014,-2.3400914669036865,0.011446266435086727
337,0.646,2.3749,0,0,0.392303466796875,0.454559326171875,-0.0718841552734375,-0.47927019000053406,-2.574998378753662,0.07522337883710861
338,0.6103,2.2726,0,0,0.3360443115234375,0.4564361572265625,-0.0797271728515625,-0.7145964503288269,-2.7363860607147217,0.1570442169904709
339,0.5987,2.1417,0,0,0.341094970703125,0.49664306640625,-0.101806640625,-0.8442603945732117,-2.6499738693237305,0.1579694002866745
340,0.6133,1.9914,0,0,0.3948822021484375,0.6004791259765625,-0.127105712890625,-0.8467315435409546,-2.323911190032959,0.07276981323957443
341,0.6544,1.8332,0,0,0.4453887939453125,0.66864013671875,-0.1634063720703125,-0.7655956745147705,-1.7461446523666382,0.012525645084679127
342,0.7209,1.679,0,0,0.4676513671875,0.653778076171875,-0.1615447998046875,-0.6440210342407227,-1.044861912727356,0.08585391938686371
343,0.8096,1.5402,0,0,0.5020751953125,0.5624542236328125,-0.180267333984375,-0.6537980437278748,-0.5246230363845825,0.17170970141887665
344,0.9157,1.4255,0,0,0.4597015380859375,0.483856201171875,-0.2505645751953125,-0.751282274723053,-0.039809197187423706,0.3004261255264282
345,1.0324,1.3402,0,0,0.43328857421875,0.4819488525390625,-0.2838134765625,-0.7984758615493774,0.7225659489631653,0.33428052067756653
346,1.1512,1.2856,0,0,0.4183502197265625,0.4563446044921875,-0.2999725341796875,-0.8725050687789917,1.3336386680603027,0.31048810482025146
347,1.2633,1.259,0,0,0.434539794921875,0.506927490234375,-0.4873504638671875,-0.9892895221710205,1.295960545539856,0.2044018805027008
348,1.3596,1.2545,0,0,0.4283599853515625,0.6244964599609375,-1.5142059326171875,-0.9237238168716431,0.2470870167016983,-0.027964789420366287
349,1.4327,1.264,0,0,1.375946044921875,0.941925048828125,-1.5700531005859375,-1.1576297283172607,0.5282102823257446,-0.433626264333725
350,1.4773,1.2784,0,0,1.39788818359375,0.880828857421875,-1.2674102783203125,0.2961251437664032,-0.5818197131156921,0.3364086449146271
351,1.4914,1.2892,0,0,1.0115814208984375,0.820526123046875,-1.1385498046875,1.5206007957458496,-1.183141827583313,0.7090826034545898
352,1.4762,1.2895,0,0,0.4841766357421875,0.81768798828125,-0.6977386474609375,1.3490122556686401,-0.5124797821044922,0.5111503601074219
353,1.4359,1.2748,0,0,0.5194091796875,0.7375030517578125,-0.3472442626953125,1.347083330154419,-0.6644080877304077,-0.10589021444320679
354,1.3764,1.2438,0,0,0.7734375,0.9621734619140625,-0.2275543212890625,1.0398658514022827,0.08272497355937958,-0.4172675311565399
355,1.305,1.1983,0,0,0.8625640869140625,1.1105499267578125,-0.06524658203125,0.6239759922027588,0.5896565914154053,-0.47509995102882385
356,1.2289,1.1428,0,0,0.74774169921875,1.0261383056640625,0.0278167724609375,0.06060875207185745,1.050895094871521,-0.24739700555801392
357,1.1543,1.084,0,0,0.5276031494140625,0.842193603515625,0.09954833984375,-0.10725854337215424,1.3542554378509521,0.15915663540363312
358,1.0863,1.0297,0,0,0.467803955078125,0.678558349609375,0.1607666015625,0.15941496193408966,1.3099393844604492,0.4176504909992218
359,1.0278,0.9879,0,0,0.4182586669921875,0.7057342529296875,0.304473876953125,0.2859515845775604,0.8742566704750061,0.45354512333869934
360,0.9803,0.9652,0,0,0.547210693359375,0.84619140625,0.1650238037109375,-0.19491249322891235,0.38679245114326477,0.24001818895339966
361,0.9437,0.9663,0,0,0.6399383544921875,0.87139892578125,-0.00537109375,-0.4899425506591797,0.19889631867408752,0.07655762135982513
362,0.9167,0.9931,0,0,0.71527099609375,0.847198486328125,-0.17047119140625,-0.5611099004745483,0.12180393189191818,-0.016168316826224327
363,0.8974,1.0443,0,0,0.7006988525390625,0.7707061767578125,-0.1505584716796875,-0.4492094814777374,0.739998996257782,0.03333265706896782
364,0.8838,1.1158,0,0,0.67724609375,0.65924072265625,-0.1082916259765625,-0.4529173970222473,1.1340701580047607,0.09854947775602341
365,0.8743,1.2015,0,0,0.5786895751953125,0.4691619873046875,-0.2036895751953125,-0.6023164987564087,1.2358158826828003,0.1312704086303711
366,0.8673,1.294,0,0,0.507110595703125,0.4060211181640625,-0.317840576171875,-0.8926143646240234,1.6026577949523926,-0.03647172451019287
367,0.8623,1.3862,0,0,0.6036529541015625,0.4249420166015625,-0.41790771484375,-1.0608097314834595,1.8371292352676392,-0.2476593255996704
368,0.8588,1.4713,0,0,0.6343231201171875,0.4163360595703125,-0.3688507080078125,-0.515479326248169,1.279908299446106,-0.36872395873069763
369,0.8572,1.5443,0,0,0.6157073974609375,0.5357513427734375,-0.3062286376953125,0.17565491795539856,0.8044107556343079,-0.43902289867401123
370,0.8583,1.6011,0,0,0.610382080078125,0.6287994384765625,-0.21636962890625,0.3576801121234894,1.1827319860458374,-0.47618359327316284
371,0.8633,1.639,0,0,0.653594970703125,0.6628570556640625,-0.184783935546875,0.3571019470691681,1.501436710357666,-0.4732660949230194
372,0.8736,1.6569,0,0,0.690887451171875,0.6358184814453125,-0.15106201171875,0.45114827156066895,1.5123953819274902,-0.5123061537742615
373,0.8908,1.6547,0,0,0.6981658935546875,0.5896453857421875,-0.11773681640625,0.4067528545856476,1.4303483963012695,-0.5702615976333618
374,0.9164,1.6336,0,0,0.67913818359375,0.5279083251953125,-0.087860107421875,0.22180083394050598,1.45549738407135,-0.6144559979438782
375,0.9512,1.5967,0,0,0.675537109375,0.546661376953125,-0.088836669921875,-0.13745452463626862,1.606574296951294,-0.6495620012283325
376,0.9953,1.5483,0,0,0.6192169189453125,0.5810546875,-0.217315673828125,-0.4805767238140106,1.5234272480010986,-0.6570484638214111
377,1.048,1.4946,0,0,0.672576904296875,0.656402587890625,-0.3156890869140625,-0.27088502049446106,1.3763874769210815,-0.6030256748199463
378,1.1074,1.443,0,0,0.815032958984375,0.652008056640625,-0.234283447265625,0.3581078052520752,1.3372764587402344,-0.5764563679695129
379,1.1708,1.4016,0,0,0.9851531982421875,0.6187286376953125,-0.0798187255859375,0.7107417583465576,1.5167580842971802,-0.5449474453926086
380,1.2346,1.3787,0,0,1.127288818359375,0.6122894287109375,0.09393310546875,0.6845343708992004,1.5342199802398682,-0.5143283009529114
381,1.295,1.3814,0,0,1.2246246337890625,0.6493988037109375,0.15875244140625,0.06829756498336792,1.1209218502044678,-0.4717893600463867
382,1.348,1.4151,0,0,1.3134002685546875,0.69891357421875,0.0178375244140625,-0.7217344641685486,0.3809361755847931,-0.36620649695396423
383,1.3895,1.4818,0,0,1.19366455078125,0.764556884765625,-0.120880126953125,-1.0743907690048218,-0.02749234437942505,0.029679331928491592
384,1.4161,1.5804,0,0,1.1453704833984375,0.7683868408203125,-0.111663818359375,-0.7229830026626587,-0.661031186580658,0.3139438033103943
385,1.4249,1.7058,0,0,0.9838714599609375,0.7562103271484375,0.024505615234375,-0.22659239172935486,-1.2512062788009644,0.5683835744857788
386,1.414,1.8501,0,0,0.8596038818359375,0.69989013671875,-0.124359130859375,0.13235005736351013,-1.5782822370529175,0.747550368309021
387,1.3821,2.0034,0,0,0.760284423828125,1.109649658203125,-0.35504150390625,0.8082464933395386,-2.321868896484375,0.9820518493652344
388,1.3295,2.1552,0,0,0.59210205078125,1.4463653564453125,-0.3726959228515625,1.6925616264343262,-2.56144380569458,1.2709590196609497
389,1.2576,2.2956,0,0,0.5326690673828125,1.318878173828125,-0.1099700927734375,2.0010361671447754,-1.3541852235794067,1.3131389617919922
390,1.1696,2.4163,0,0,0.651397705078125,1.0523223876953125,-0.0501708984375,1.8157376050949097,-0.570690929889679,1.1227149963378906
391,1.0699,2.5107,0,0,0.740081787109375,0.816070556640625,-0.0268707275390625,1.766018033027649,-0.6980752348899841,0.7350527048110962
392,0.9645,2.574,0,0,0.7653045654296875,0.637969970703125,-0.0009613037109375,1.484392762184143,-1.3054695129394531,0.2980564534664154
393,0.8601,2.6029,0,0,0.6567535400390625,0.444244384765625,-0.06243896484375,0.8107642531394958,-2.0488364696502686,0.09637074172496796
394,0.7637,2.5954,0,0,0.5114288330078125,0.407867431640625,-0.1365966796875,0.25096166133880615,-2.4837758541107178,-0.0265975221991539
395,0.6819,2.551,0,0,0.438232421875,0.3963623046875,-0.09869384765625,-0.08214573562145233,-2.6026179790496826,-0.10625400394201279
396,0.6207,2.471,0,0,0.339874267578125,0.4116058349609375,-0.06951904296875,-0.42723149061203003,-2.688795804977417,-0.018731076270341873
397,0.5848,2.3587,0,0,0.3091278076171875,0.4348602294921875,-0.0682525634765625,-0.7382546067237854,-2.572334051132202,0.1054001897573471
398,0.5772,2.2201,0,0,0.316864013671875,0.47869873046875,-0.0865478515625,-0.9461372494697571,-2.4698400497436523,0.15221989154815674
399,0.5991,2.0633,0,0,0.3629608154296875,0.5903778076171875,-0.1360321044921875,-0.9905595779418945,-2.350294589996338,0.11579743772745132
400,0.6498,1.8983,0,0,0.4498748779296875,0.69464111328125,-0.1562347412109375,-0.853721022605896,-1.9038081169128418,0.02767769992351532
401,0.7269,1.7357,0,0,0.5080108642578125,0.6885986328125,-0.115081787109375,-0.6180709600448608,-1.2125372886657715,0.0022772690281271935
402,0.8261,1.5858,0,0,0.5174560546875,0.600738525390625,-0.1341094970703125,-0.6326320767402649,-0.6378398537635803,0.06266790628433228
403,0.9412,1.4567,0,0,0.5057830810546875,0.5082244873046875,-0.1826171875,-0.8177326321601868,0.07976913452148438,0.13053058087825775
404,1.0646,1.354,0,0,0.5340118408203125,0.4741363525390625,-0.2119293212890625,-1.0212279558181763,0.9110719561576843,0.15020442008972168
405,1.1877,1.2798,0,0,0.472198486328125,0.48260498046875,-0.374755859375,-1.2372194528579712,1.4069088697433472,0.18995608389377594
406,1.3013,1.2327,0,0,0.423004150390625,0.5802001953125,-0.7064666748046875,-1.0484082698822021,0.9563379287719727,0.1147947609424591
407,1.3968,1.2085,0,0,0.3194732666015625,0.6512908935546875,-1.7063446044921875,-0.2773596942424774,-0.2834721803665161,-0.060087837278842926
408,1.467,1.2007,0,0,1.05755615234375,0.78668212890625,-1.5980072021484375,-0.30898234248161316,1.4936761856079102,-0.35703882575035095
409,1.5071,1.2019,0,0,1.231781005859375,0.9118499755859375,-1.0005340576171875,0.4917337894439697,0.5314061045646667,0.12949487566947937
410,1.5155,1.2045,0,0,1.1337738037109375,0.808349609375,-1.02081298828125,1.0777671337127686,-0.7351709604263306,0.3699663281440735
411,1.4935,1.2021,0,0,0.71173095703125,0.678070068359375,-0.79656982421875,1.2958747148513794,-1.1578724384307861,0.4733654260635376
412,1.4454,1.1904,0,0,0.66552734375,0.6393585205078125,-0.4441680908203125,1.471782922744751,-0.8173606395721436,0.08856049180030823
413,1.3775,1.1677,0,0,1.02496337890625,0.996856689453125,-0.1779327392578125,1.0881305932998657,0.6521098613739014,-0.3564470708370209
414,1.2975,1.1353,0,0,1.0154876708984375,1.181793212890625,-0.12628173828125,0.4834095537662506,0.5529276132583618,-0.15761519968509674
415,1.2132,1.0969,0,0,0.79766845703125,1.0537872314453125,-0.0474853515625,0.03849918767809868,0.5734427571296692,0.06781180202960968
416,1.1318,1.058,0,0,0.4493865966796875,0.7447357177734375,0.0618133544921875,-0.023558055981993675,1.2568727731704712,0.5467413663864136
417,1.059,1.0249,0,0,0.3585968017578125,0.55328369140625,0.1175689697265625,0.08243229240179062,1.4031013250350952,0.701604962348938
418,0.9987,1.0038,0,0,0.4623260498046875,0.548370361328125,0.0742645263671875,0.12081856280565262,0.8268100619316101,0.6471651792526245
419,0.9526,1.0,0,0,0.495574951171875,0.671142578125,0.05340576171875,0.015044196508824825,0.35188212990760803,0.37913772463798523
420,0.9204,1.0163,0,0,0.6136627197265625,0.9713592529296875,0.0255889892578125,-0.28329429030418396,0.43230053782463074,0.015395201742649078
421,0.9003,1.0535,0,0,0.8134918212890625,0.947235107421875,0.03179931640625,-0.6677641868591309,0.30558067560195923,-0.12534406781196594
422,0.8897,1.1093,0,0,0.829803466796875,0.7661285400390625,-0.036834716796875,-0.9303606748580933,0.39060264825820923,0.0820796862244606
423,0.8857,1.179,0,0,0.681396484375,0.621673583984375,-0.01043701171875,-0.8979124426841736,0.8622745871543884,0.22162720561027527
424,0.8855,1.2563,0,0,0.6025390625,0.5589752197265625,-0.0860748291015625,-1.059061884880066,0.940247118473053,0.27763640880584717
425,0.887,1.3344,0,0,0.432220458984375,0.4339599609375,-0.2432861328125,-1.284767746925354,0.9075323343276978,0.302640825510025
426,0.8885,1.4065,0,0,0.467315673828125,0.3956756591796875,-0.5410308837890625,-1.7047500610351562,1.1285496950149536,0.0819300189614296
427,0.8892,1.4672,0,0,0.5562286376953125,0.41632080078125,-0.596649169921875,-1.5794720649719238,1.0905325412750244,-0.1133984625339508
428,0.8889,1.5123,0,0,0.583251953125,0.5262908935546875,-0.4945831298828125,-0.5227367281913757,0.5779469609260559,-0.2475815713405609
429,0.8882,1.5396,0,0,0.5999298095703125,0.647003173828125,-0.27947998046875,0.3926064074039459,0.9788153171539307,-0.2950867712497711
430,0.8882,1.5479,0,0,0.6564788818359375,0.6806793212890625,-0.1090240478515625,0.5613219141960144,1.4971675872802734,-0.3486437499523163
431,0.8906,1.5374,0,0,0.732452392578125,0.637847900390625,-0.106231689453125,0.4695342183113098,1.4649542570114136,-0.4041179120540619
432,0.8974,1.5094,0,0,0.7522430419921875,0.5807342529296875,-0.076324462890625,0.4529312551021576,1.398561954498291,-0.4564535617828369
433,0.9106,1.4661,0,0,0.7375335693359375,0.519500732421875,-0.056884765625,0.282878577709198,1.2403467893600464,-0.5243290066719055
434,0.932,1.4107,0,0,0.693695068359375,0.4536590576171875,-0.0874176025390625,-0.051238685846328735,1.0962042808532715,-0.5847744941711426
435,0.9624,1.3472,0,0,0.66363525390625,0.4949951171875,-0.13629150390625,-0.3518211543560028,1.1175966262817383,-0.6036203503608704
436,1.0022,1.2808,0,0,0.6135101318359375,0.5993499755859375,-0.2078094482421875,-0.46449416875839233,1.2578577995300293,-0.534824788570404
437,1.0503,1.2176,0,0,0.70947265625,0.7002410888671875,-0.2588958740234375,-0.2108089029788971,1.3396861553192139,-0.5090113282203674
438,1.1048,1.1645,0,0,0.8654327392578125,0.6752471923828125,-0.1756744384765625,0.16136252880096436,1.3651180267333984,-0.46834856271743774
439,1.1629,1.1289,0,0,1.0204925537109375,0.637451171875,-0.004974365234375,0.5508351922035217,1.179997444152832,-0.44994425773620605
440,1.2212,1.1175,0,0,1.1223907470703125,0.63507080078125,0.09423828125,0.536920428276062,0.8998216986656189,-0.4954182803630829
441,1.276,1.1363,0,0,1.191925048828125,0.63275146484375,0.084136962890625,-0.027359185740351677,0.7951362729072571,-0.45313286781311035
442,1.3236,1.189,0,0,1.20831298828125,0.64385986328125,-0.0252227783203125,-0.6989766955375671,0.5400121212005615,-0.25165992975234985
443,1.3609,1.2762,0,0,1.169036865234375,0.73284912109375,-0.0383148193359375,-0.8762220740318298,0.0698951929807663,0.06685493141412735
444,1.3849,1.3955,0,0,1.171112060546875,0.8522491455078125,-0.10595703125,-0.6455292105674744,-0.7602638006210327,0.3703506290912628
445,1.3935,1.541,0,0,0.9983367919921875,0.8573150634765625,-0.0617218017578125,-0.33144611120224,-1.0216940641403198,0.6850079298019409
446,1.3851,1.7042,0,0,0.8465118408203125,0.7566986083984375,-0.1263427734375,0.14033953845500946,-1.3439314365386963,0.8040506839752197
447,1.3591,1.8749,0,0,0.6508026123046875,0.992889404296875,-0.3230743408203125,0.8094536662101746,-1.6282519102096558,0.9545270204544067
448,1.3155,2.0427,0,0,0.56756591796875,1.3366546630859375,-0.438568115234375,1.6775957345962524,-2.0036797523498535,1.073479175567627
449,1.2554,2.1982,0,0,0.5470123291015625,1.2780914306640625,-0.25390625,2.256474494934082,-1.555535912513733,1.0401191711425781
450,1.1809,2.3337,0,0,0.70831298828125,0.94097900390625,-0.12164306640625,2.256617546081543,-0.8062615990638733,0.7609047889709473
451,1.0952,2.4439,0,0,0.8137359619140625,0.73260498046875,-0.0654754638671875,2.1411068439483643,-0.7480584979057312,0.37459224462509155
452,1.0024,2.5258,0,0,0.834869384765625,0.5746002197265625,-0.01434326171875,1.770290732383728,-1.1810821294784546,0.003715642262250185
453,0.9074,2.5777,0,0,0.7109527587890625,0.4494781494140625,-0.0341033935546875,1.077939510345459,-1.899168848991394,-0.1353335827589035
454,0.8158,2.5991,0,0,0.657928466796875,0.4366302490234375,-0.046356201171875,0.4661424160003662,-2.185302972793579,-0.15481221675872803
455,0.7334,2.5903,0,0,0.576171875,0.4487457275390625,-0.0442352294921875,-0.013251356780529022,-2.362466812133789,-0.026335200294852257
456,0.6657,2.5518,0,0,0.482696533203125,0.4638519287109375,-0.0479736328125,-0.43606385588645935,-2.4255847930908203,0.12898701429367065
457,0.6179,2.4848,0,0,0.4095306396484375,0.48248291015625,-0.0485992431640625,-0.8279560208320618,-2.457512140274048,0.2788332402706146
458,0.5945,2.3918,0,0,0.370361328125,0.527008056640625,-0.073211669921875,-1.1331398487091064,-2.531141996383667,0.29039934277534485
459,0.5984,2.2766,0,0,0.3574066162109375,0.5886688232421875,-0.107635498046875,-1.2507133483886719,-2.5278751850128174,0.2097657471895218
460,0.6313,2.1445,0,0,0.370330810546875,0.618194580078125,-0.14190673828125,-1.186715006828308,-2.328881025314331,0.08468559384346008
461,0.6926,2.0026,0,0,0.39825439453125,0.59039306640625,-0.1416168212890625,-0.9889797568321228,-1.7976667881011963,0.00842517614364624
462,0.7798,1.8586,0,0,0.421142578125,0.556365966796875,-0.182220458984375,-0.8202275037765503,-1.1281975507736206,0.052930060774087906
463,0.8878,1.7203,0,0,0.43316650390625,0.4986572265625,-0.209869384765625,-0.7172902226448059,-0.040705084800720215,0.0936410054564476
464,1.0092,1.5946,0,0,0.443634033203125,0.441192626953125,-0.1876068115234375,-0.7317136526107788,1.179946780204773,0.18641221523284912
465,1.1347,1.487,0,0,0.458587646484375,0.4739837646484375,-0.20709228515625,-0.9709342122077942,1.962677001953125,0.20240236818790436
466,1.2542,1.401,0,0,0.433197021484375,0.53900146484375,-0.50738525390625,-1.2070960998535156,1.9593302011489868,0.12451636046171188
467,1.3573,1.3378,0,0,0.447601318359375,0.7189483642578125,-1.2823028564453125,-0.6371687650680542,0.27866172790527344,-0.028265992179512978
468,1.4354,1.2967,0,0,1.1836700439453125,0.827880859375,-1.9965057373046875,-0.246677428483963,0.3919627070426941,-0.37036049365997314
469,1.4822,1.2751,0,0,1.373443603515625,0.9455413818359375,-1.1294403076171875,0.4404599368572235,0.6207596659660339,0.27556392550468445
470,1.4953,1.2689,0,0,1.1663665771484375,0.892333984375,-0.9720001220703125,1.2843917608261108,-0.5700781345367432,0.6504467129707336
471,1.476,1.2733,0,0,0.6935882568359375,0.6904296875,-0.85601806640625,1.4875344038009644,-1.2564085721969604,0.7130456566810608
472,1.4291,1.2835,0,0,0.4567718505859375,0.626312255859375,-0.5955657958984375,1.2302651405334473,-0.9744349122047424,0.21079584956169128
473,1.3618,1.2953,0,0,0.8081817626953125,0.8935546875,-0.4716644287109375,1.1073088645935059,0.003591006388887763,-0.39873939752578735
474,1.2828,1.3059,0,0,1.0086669921875,0.970672607421875,-0.246002197265625,1.038260817527771,-0.2067076414823532,-0.4361450970172882
475,1.2009,1.3136,0,0,0.7592315673828125,0.8430023193359375,-0.0738983154296875,0.7298081517219543,-0.32547450065612793,-0.31170517206192017
476,1.1237,1.3181,0,0,0.48138427734375,0.7658538818359375,0.0703582763671875,0.43299242854118347,1.000672698020935,0.04742211103439331
477,1.0572,1.3203,0,0,0.387115478515625,0.6318359375,0.150726318359375,0.38406750559806824,2.002498149871826,0.35665398836135864
478,1.0047,1.3221,0,0,0.4755859375,0.602386474609375,0.1307525634765625,0.32315143942832947,1.7543655633926392,0.4870532751083374
479,0.9672,1.3256,0,0,0.4972076416015625,0.72906494140625,0.07879638671875,0.16964362561702728,1.2392168045043945,0.29397594928741455
480,0.9435,1.333,0,0,0.670989990234375,0.9581298828125,0.0118560791015625,0.004430967383086681,1.08982515335083,-0.17214353382587433
481,0.9311,1.3457,0,0,0.8025054931640625,0.912506103515625,0.015960693359375,-0.2121572643518448,0.7723641395568848,-0.2598363757133484
482,0.9262,1.3637,0,0,0.837066650390625,0.7770843505859375,-0.0164031982421875,-0.5773442983627319,0.6040643453598022,-0.20358321070671082
483,0.9253,1.3855,0,0,0.796173095703125,0.6629486083984375,-0.04486083984375,-0.7956542372703552,0.7628515958786011,-0.07350457459688187
484,0.9253,1.4083,0,0,0.7156982421875,0.5546112060546875,-0.084228515625,-0.9440948367118835,0.8938383460044861,0.05648671090602875
485,0.9237,1.4286,0,0,0.6305389404296875,0.4094085693359375,-0.1306915283203125,-1.1654261350631714,0.8535809516906738,0.09918171167373657
486,0.9192,1.443,0,0,0.5766143798828125,0.3154449462890625,-0.285675048828125,-1.7563869953155518,1.1635017395019531,-0.0363372340798378
487,0.9114,1.4491,0,0,0.6080169677734375,0.47662353515625,-0.412445068359375,-2.2156710624694824,1.54873788356781,-0.17205964028835297
488,0.9008,1.4464,0,0,0.59539794921875,0.564361572265625,-0.49749755859375,-1.5902328491210938,0.7170196175575256,-0.2845984399318695
489,0.8889,1.4358,0,0,0.606109619140625,0.658721923828125,-0.4422454833984375,-0.5361419916152954,0.1163516417145729,-0.3165113627910614
490,0.8779,1.4194,0,0,0.657684326171875,0.7082672119140625,-0.3006591796875,0.00865953415632248,0.9070654511451721,-0.312092125415802
491,0.8705,1.3998,0,0,0.67816162109375,0.6548004150390625,-0.1670989990234375,0.2911660671234131,1.2905396223068237,-0.307839035987854
492,0.8698,1.3793,0,0,0.6931915283203125,0.552093505859375,-0.05853271484375,0.43864765763282776,1.0627373456954956,-0.35663536190986633
493,0.8786,1.359,0,0,0.68341064453125,0.505584716796875,0.00921630859375,0.20176774263381958,0.9288919568061829,-0.4382002651691437
494,0.899,1.3394,0,0,0.6396636962890625,0.4774169921875,0.0072479248046875,-0.23710469901561737,0.8821233510971069,-0.5156404376029968
495,0.9322,1.32,0,0,0.6057586669921875,0.48712158203125,-0.085235595703125,-0.5774329900741577,0.9266570210456848,-0.5938343405723572
496,0.9778,1.3004,0,0,0.56524658203125,0.580474853515625,-0.16357421875,-0.8099604845046997,1.3532980680465698,-0.5982114672660828
497,1.0342,1.2809,0,0,0.60638427734375,0.7573394775390625,-0.26959228515625,-0.684036374092102,1.5058772563934326,-0.6056667566299438
498,1.0982,1.2628,0,0,0.7028350830078125,0.7207183837890625,-0.2973480224609375,-0.08637616783380508,1.2955503463745117,-0.5186327695846558
499,1.1655,1.2495,0,0,0.9308013916015625,0.6259613037109375,-0.1460418701171875,0.40965062379837036,1.3131498098373413,-0.5480151772499084
500,1.2315,1.2457,0,0,1.1353302001953125,0.60369873046875,-0.0360260009765625,0.69203120470047,1.2914525270462036,-0.5850842595100403
501,1.2912,1.257,0,0,1.3151092529296875,0.62310791015625,0.0510711669921875,0.3384062647819519,1.4127635955810547,-0.571519672870636
502,1.3406,1.2892,0,0,1.387664794921875,0.7233428955078125,0.0517730712890625,-0.29180654883384705,0.9189950823783875,-0.37151575088500977
503,1.3762,1.3466,0,0,1.2366790771484375,0.8261871337890625,0.05645751953125,-0.721693754196167,0.054606787860393524,0.013163472525775433
504,1.3958,1.431,0,0,1.1716461181640625,0.8853302001953125,0.0224456787109375,-0.593552827835083,-0.3310873806476593,0.3317781984806061
505,1.3985,1.5413,0,0,1.093963623046875,0.8592376708984375,-0.0244293212890625,-0.29855605959892273,-0.7399110794067383,0.5822471976280212
506,1.3842,1.6727,0,0,0.8750152587890625,0.6958465576171875,-0.0262298583984375,0.058581821620464325,-1.1947627067565918,0.8161925673484802
507,1.3536,1.8181,0,0,0.7083740234375,0.725555419921875,-0.215972900390625,0.4681544303894043,-1.8240407705307007,0.9823588728904724
508,1.3079,1.9686,0,0,0.683563232421875,1.009246826171875,-0.3372344970703125,1.2715861797332764,-2.2611258029937744,1.1667375564575195
509,1.2486,2.1147,0,0,0.66571044921875,1.18310546875,-0.2256011962890625,2.0210492610931396,-1.7929108142852783,1.2982356548309326
510,1.1779,2.248,0,0,0.72503662109375,1.0554351806640625,-0.13372802734375,2.0143184661865234,-1.0199682712554932,1.1862760782241821
511,1.0982,2.361,0,0,0.8231353759765625,0.89239501953125,-0.026763916015625,1.7782800197601318,-0.518160343170166,0.9563691020011902
512,1.0124,2.4479,0,0,0.78302001953125,0.710113525390625,0.0282135009765625,1.28312349319458,-1.1150761842727661,0.6344994306564331
513,0.9242,2.5043,0,0,0.6634674072265625,0.5408477783203125,-0.0628814697265625,0.5503446459770203,-1.9280120134353638,0.41117554903030396
514,0.8377,2.5269,0,0,0.594879150390625,0.51837158203125,-0.0854644775390625,0.11429701745510101,-2.0219764709472656,0.2462979257106781
515,0.7576,2.5136,0,0,0.5413970947265625,0.51031494140625,-0.0994110107421875,-0.15258927643299103,-2.2304282188415527,0.20844800770282745
516,0.6886,2.4641,0,0,0.450164794921875,0.5171356201171875,-0.0707244873046875,-0.34892016649246216,-2.532078266143799,0.21053166687488556
517,0.6355,2.3803,0,0,0.3853759765625,0.5293731689453125,-0.0516510009765625,-0.6314232349395752,-2.7951977252960205,0.19709442555904388
518,0.6027,2.2668,0,0,0.3677520751953125,0.5344085693359375,-0.0842742919921875,-0.9103512763977051,-2.903238534927368,0.14630581438541412
519,0.594,2.1313,0,0,0.34613037109375,0.568756103515625,-0.125885009765625,-0.985382616519928,-2.7387349605560303,0.03786695376038551
520,0.6118,1.984,0,0,0.3567352294921875,0.631072998046875,-0.1666259765625,-0.7825145125389099,-2.2559964656829834,-0.07722421735525131
521,0.6575,1.8367,0,0,0.3566741943359375,0.61712646484375,-0.121368408203125,-0.4392892122268677,-1.5588035583496094,-0.10283343493938446
522,0.7301,1.7011,0,0,0.377105712890625,0.5657196044921875,-0.1362152099609375,-0.3557565212249756,-0.9806802868843079,-0.11223679035902023
523,0.8267,1.5866,0,0,0.4290924072265625,0.4867095947265625,-0.1401214599609375,-0.4496941864490509,-0.1533365547657013,-0.10067681223154068
524,0.9419,1.4995,0,0,0.4948272705078125,0.4390411376953125,-0.142730712890625,-0.6577779054641724,0.6246633529663086,-0.06784269958734512
525,1.0681,1.4413,0,0,0.519805908203125,0.416839599609375,-0.18243408203125,-0.9153779745101929,1.1576204299926758,0.038414765149354935
526,1.1959,1.409,0,0,0.4735260009765625,0.440155029296875,-0.2957916259765625,-1.1502478122711182,1.6123709678649902,0.04492646083235741
527,1.3153,1.3963,0,0,0.4642181396484375,0.5878753662109375,-0.6753387451171875,-1.0664945840835571,1.0745620727539062,-0.10032980144023895
528,1.4168,1.394,0,0,0.5206451416015625,0.5446319580078125,-2.303436279296875,-0.2522277235984802,-0.7327749133110046,-0.37940138578414917
529,1.4925,1.3926,0,0,1.35455322265625,0.8266143798828125,-1.5635833740234375,-0.1708894520998001,1.8802529573440552,-0.4685102105140686
530,1.5376,1.3833,0,0,1.479278564453125,0.8439483642578125,-0.96435546875,0.9663645029067993,0.5084818601608276,0.06142155081033707
531,1.5504,1.3598,0,0,1.1222381591796875,0.6539764404296875,-0.8990020751953125,1.7519559860229492,-1.7279092073440552,0.5490370392799377
532,1.5327,1.3189,0,0,0.8052520751953125,0.4935760498046875,-0.572906494140625,1.3575530052185059,-0.8793209195137024,0.46825534105300903
533,1.4891,1.2613,0,0,0.71942138671875,0.5572967529296875,-0.3590545654296875,1.0570762157440186,-0.38775572180747986,0.3591344654560089
534,1.4257,1.1906,0,0,0.95245361328125,0.9426422119140625,-0.2424468994140625,0.6213591694831848,0.15790069103240967,0.08970831334590912
535,1.3497,1.1135,0,0,0.88067626953125,1.13134765625,0.00445556640625,0.1758573204278946,-0.15045315027236938,0.19290074706077576
536,1.2678,1.038,0,0,0.7566070556640625,1.072509765625,0.1151275634765625,-0.521608829498291,0.7181898355484009,0.33316570520401
537,1.1863,0.9726,0,0,0.60931396484375,0.965911865234375,0.0548858642578125,-0.6511237025260925,1.4144091606140137,0.6291318535804749
538,1.1101,0.9257,0,0,0.5246734619140625,0.7675018310546875,0.0930023193359375,-0.15686337649822235,1.2231512069702148,0.8317880034446716
539,1.0428,0.9044,0,0,0.35113525390625,0.8596038818359375,0.118896484375,0.10431601852178574,0.32493895292282104,0.7189911603927612
540,0.9863,0.9137,0,0,0.567291259765625,0.991607666015625,0.088775634765625,-0.055083759129047394,0.2271881401538849,0.15412777662277222
541,0.9414,0.9562,0,0,0.686370849609375,0.8181610107421875,0.007354736328125,-0.5751125812530518,0.25061702728271484,0.077229805290699
542,0.9079,1.0312,0,0,0.699249267578125,0.734283447265625,-0.0333404541015625,-0.927692711353302,0.5687270760536194,0.02124643325805664
543,0.8845,1.135,0,0,0.609405517578125,0.6583404541015625,0.009246826171875,-0.8762699961662292,0.9249637722969055,-0.024594292044639587
544,0.8698,1.2609,0,0,0.5600128173828125,0.6285552978515625,0.0124969482421875,-0.8561133146286011,0.8524501323699951,-0.06946536153554916
545,0.8619,1.4001,0,0,0.5232696533203125,0.5229339599609375,-0.1373138427734375,-0.9979916214942932,0.7641541361808777,-0.08653862029314041
546,0.8587,1.5422,0,0,0.4552001953125,0.373382568359375,-0.3159332275390625,-1.1122660636901855,1.1713460683822632,-0.18324758112430573
547,0.8586,1.6767,0,0,0.5296173095703125,0.3758392333984375,-0.5301055908203125,-1.3417950868606567,1.5363233089447021,-0.34213176369667053
548,0.8602,1.7932,0,0,0.6826324462890625,0.50042724609375,-0.572601318359375,-0.7511293888092041,1.515133261680603,-0.44574499130249023
549,0.8627,1.8833,0,0,0.676666259765625,0.5601959228515625,-0.3671875,0.3816986382007599,1.4587854146957397,-0.43169042468070984
550,0.8663,1.9405,0,0,0.658203125,0.6411285400390625,-0.221160888671875,0.9158485531806946,1.6386765241622925,-0.3903493583202362
551,0.8717,1.9615,0,0,0.6792449951171875,0.662750244140625,-0.1293182373046875,0.9786185026168823,1.9258105754852295,-0.40272030234336853
552,0.8808,1.946,0,0,0.6941375732421875,0.5852203369140625,-0.0676727294921875,1.0019581317901611,1.8943586349487305,-0.4151875972747803
553,0.8955,1.897,0,0,0.721099853515625,0.495941162109375,-0.0489959716796875,0.7916240692138672,1.7622970342636108,-0.4870487451553345
554,0.9181,1.821,0,0,0.7204132080078125,0.4950103759765625,-0.1104583740234375,0.3664427101612091,1.5571798086166382,-0.59691321849823
555,0.9504,1.7269,0,0,0.674285888671875,0.5768890380859375,-0.1887969970703125,-0.036184635013341904,1.5377990007400513,-0.6633952856063843
556,0.9934,1.6256,0,0,0.5923919677734375,0.6072540283203125,-0.2988433837890625,-0.15722423791885376,1.3629459142684937,-0.6749140024185181
557,1.047,1.529,0,0,0.653106689453125,0.61920166015625,-0.2649383544921875,0.2186117023229599,1.2197812795639038,-0.6964989304542542
558,1.1098,1.4489,0,0,0.8306121826171875,0.6196441650390625,-0.095184326171875,0.6804666519165039,1.2745475769042969,-0.6882630586624146
559,1.179,1.3963,0,0,0.9779205322265625,0.6129608154296875,0.07733154296875,0.7715718150138855,1.4467869997024536,-0.6875107288360596
560,1.2506,1.38,0,0,1.14154052734375,0.6039886474609375,0.117462158203125,0.43441882729530334,1.3706544637680054,-0.7066453099250793
561,1.3198,1.4058,0,0,1.27825927734375,0.604949951171875,0.147003173828125,-0.22198618948459625,1.2374753952026367,-0.6112761497497559
562,1.3814,1.4755,0,0,1.3425140380859375,0.6941375732421875,0.0018768310546875,-0.7378119826316833,0.3605334162712097,-0.3524768352508545
563,1.4302,1.5866,0,0,1.140167236328125,0.7547149658203125,0.067718505859375,-0.6956597566604614,-0.3825947940349579,0.1434735357761383
564,1.4613,1.7325,0,0,1.0697784423828125,0.7351226806640625,-0.096710205078125,-0.5861377716064453,-0.974541962146759,0.4776930510997772
565,1.471,1.9025,0,0,1.022186279296875,0.7422637939453125,-0.2635955810546875,-0.040404148399829865,-1.434857964515686,0.816953182220459
566,1.4568,2.084,0,0,0.9735565185546875,1.1808624267578125,-0.47705078125,0.9788286089897156,-2.096602201461792,1.1024954319000244
567,1.4177,2.2634,0,0,0.7011260986328125,1.358795166015625,-0.5064697265625,2.183344602584839,-1.9786746501922607,1.3603214025497437
568,1.3547,2.4282,0,0,0.6932830810546875,1.2745819091796875,-0.1556396484375,2.8038296699523926,-0.5049020648002625,1.2721071243286133
569,1.2708,2.5686,0,0,0.7260284423828125,1.185455322265625,0.022216796875,2.649212121963501,-0.17259760200977325,1.1703213453292847
570,1.1706,2.6776,0,0,0.7393951416015625,0.965087890625,0.020721435546875,2.188710927963257,-0.7778416872024536,0.9217005968093872
571,1.0601,2.7515,0,0,0.7227325439453125,0.6890869140625,-0.000885009765625,1.6358968019485474,-1.6792622804641724,0.4272559881210327
572,0.9465,2.7891,0,0,0.6984405517578125,0.4470672607421875,-0.0744171142578125,0.9513570070266724,-2.1891894340515137,0.13070048391819
573,0.8369,2.7915,0,0,0.54150390625,0.4004364013671875,-0.0664520263671875,0.5273772478103638,-2.1861393451690674,0.07194769382476807
574,0.7383,2.7608,0,0,0.4725799560546875,0.406524658203125,-0.048431396484375,0.09816917777061462,-2.3918638229370117,-0.041605234146118164
575,0.6571,2.7003,0,0,0.4313201904296875,0.413970947265625,-0.0367431640625,-0.4127795696258545,-2.6208336353302,-0.03329244256019592
576,0.5983,2.6142,0,0,0.3836822509765625,0.4478759765625,-0.023101806640625,-0.9335628747940063,-2.6991655826568604,0.12425723671913147
577,0.5658,2.508,0,0,0.3829193115234375,0.5114288330078125,-0.07666015625,-1.3990623950958252,-2.797241449356079,0.2451825886964798
578,0.5622,2.3883,0,0,0.4706573486328125,0.6067352294921875,-0.11212158203125,-1.5960379838943481,-2.6372601985931396,0.17701978981494904
579,0.5883,2.2629,0,0,0.508819580078125,0.637939453125,-0.13525390625,-1.523058295249939,-2.2980473041534424,0.17316566407680511
580,0.6436,2.1401,0,0,0.5182952880859375,0.599639892578125,-0.154449462890625,-1.1586955785751343,-1.8085569143295288,0.26405829191207886
581,0.7258,2.0273,0,0,0.4573974609375,0.5042572021484375,-0.1297149658203125,-0.7309191823005676,-1.168371319770813,0.36125221848487854
582,0.8307,1.9305,0,0,0.383392333984375,0.427764892578125,-0.1758880615234375,-0.6046989560127258,-0.4903992712497711,0.4144376516342163
583,0.952,1.8526,0,0,0.357635498046875,0.345306396484375,-0.2188568115234375,-0.637643575668335,0.4977237582206726,0.4656563699245453
584,1.0816,1.7934,0,0,0.40179443359375,0.3847503662109375,-0.2777557373046875,-0.7539065480232239,1.5333019495010376,0.44913598895072937
585,1.2102,1.7496,0,0,0.53802490234375,0.527923583984375,-0.277740478515625,-0.9380771517753601,2.4099314212799072,0.33449089527130127
586,1.3277,1.7159,0,0,0.5149078369140625,0.7083587646484375,-0.903900146484375,-1.3476929664611816,2.7284157276153564,0.21256978809833527
587,1.425,1.6858,0,0,1.108428955078125,0.892547607421875,-2.144439697265625,-0.24954964220523834,-1.118147850036621,-0.09350518137216568
588,1.4949,1.653,0,0,1.386566162109375,0.82305908203125,-1.2661895751953125,-0.3935947120189667,-0.4257265329360962,0.24713122844696045
589,1.533,1.612,0,0,1.197906494140625,0.6622772216796875,-1.158447265625,0.4209842383861542,-1.866420030593872,0.6421040892601013
590,1.5383,1.5592,0,0,0.7112579345703125,0.51519775390625,-0.900909423828125,0.6647681593894958,-1.973454236984253,0.6310821175575256
591,1.5128,1.4931,0,0,0.6501007080078125,0.493896484375,-0.581298828125,1.1527791023254395,-0.7011533379554749,0.21938560903072357
592,1.4615,1.4147,0,0,0.9311676025390625,0.949249267578125,-0.4108428955078125,1.3754757642745972,0.16339291632175446,-0.2712450921535492
593,1.3907,1.3273,0,0,0.9365386962890625,1.2140045166015625,0.0107879638671875,1.0934572219848633,0.46073591709136963,-0.20865760743618011
594,1.3081,1.2365,0,0,0.84722900390625,1.1842041015625,0.1595916748046875,0.12569987773895264,0.9416314363479614,0.010008691810071468
595,1.2212,1.1493,0,0,0.5718994140625,0.8913116455078125,0.06683349609375,-0.5176774859428406,1.4100929498672485,0.3975508213043213
596,1.1368,1.0733,0,0,0.517547607421875,0.7568359375,0.137603759765625,-0.16802309453487396,1.5049715042114258,0.577262282371521
597,1.0606,1.0163,0,0,0.4570770263671875,0.7482757568359375,0.2104339599609375,0.14400270581245422,0.7647618651390076,0.6242486834526062
598,0.9964,0.9846,0,0,0.5322723388671875,0.8957061767578125,0.1937713623046875,-0.039014775305986404,0.24996110796928406,0.41059792041778564
599,0.9466,0.9829,0,0,0.48895263671875,0.9082794189453125,-0.006683349609375,-0.41564542055130005,0.3546946942806244,0.14759132266044617
600,0.9117,1.0128,0,0,0.60552978515625,0.83477783203125,-0.045806884765625,-0.5657462477684021,0.6324450969696045,-0.0682554841041565
601,0.8906,1.0726,0,0,0.5836029052734375,0.662872314453125,-0.0846099853515625,-0.6048669815063477,0.8070025444030762,-0.045047368854284286
602,0.8814,1.1578,0,0,0.6092529296875,0.609954833984375,-0.015380859375,-0.5223222970962524,1.1084052324295044,-0.18539169430732727
603,0.8811,1.2608,0,0,0.6383514404296875,0.5515289306640625,-0.083892822265625,-0.6636048555374146,1.137648105621338,-0.2939690351486206
604,0.8866,1.3726,0,0,0.5731353759765625,0.349273681640625,-0.16851806640625,-0.8164133429527283,1.2036329507827759,-0.37177276611328125
605,0.8947,1.4831,0,0,0.6615753173828125,0.2708282470703125,-0.6119232177734375,-1.1706169843673706,1.0940239429473877,-0.4680803716182709
606,0.9027,1.5824,0,0,0.6964263916015625,0.3647003173828125,-0.6292266845703125,-0.9717728495597839,1.016541600227356,-0.4795066714286804
607,0.9089,1.6619,0,0,0.743682861328125,0.530059814453125,-0.4877471923828125,-0.030046049505472183,1.1746386289596558,-0.4141082167625427
608,0.9124,1.7149,0,0,0.68157958984375,0.6089324951171875,-0.200042724609375,0.7508750557899475,1.7852263450622559,-0.3262161910533905
609,0.9136,1.7373,0,0,0.7082366943359375,0.6898956298828125,-0.1185150146484375,0.7933357357978821,1.9686946868896484,-0.2789109945297241
610,0.9141,1.7279,0,0,0.7662200927734375,0.62957763671875,-0.1190185546875,0.7236564755439758,1.8498055934906006,-0.27877119183540344
611,0.9164,1.6889,0,0,0.8130035400390625,0.554229736328125,-0.0777435302734375,0.670807421207428,1.5590968132019043,-0.3253251016139984
612,0.9232,1.625,0,0,0.7122802734375,0.422454833984375,0.03466796875,0.42004069685935974,1.4328246116638184,-0.33068445324897766
613,0.9373,1.5431,0,0,0.6833038330078125,0.4368133544921875,-0.002716064453125,-0.008388158865272999,1.0770987272262573,-0.4498148262500763
614,0.9609,1.4515,0,0,0.6107940673828125,0.5708770751953125,-0.13323974609375,-0.35711097717285156,0.9384223222732544,-0.5320239663124084
615,0.9951,1.3595,0,0,0.551513671875,0.6295318603515625,-0.305084228515625,-0.4533725380897522,1.1052587032318115,-0.529890239238739
616,1.0398,1.2761,0,0,0.686187744140625,0.6531524658203125,-0.3524017333984375,-0.01985519751906395,1.1379040479660034,-0.5172876119613647
617,1.0936,1.21,0,0,0.8518218994140625,0.5953216552734375,-0.2075653076171875,0.5444880723953247,1.243010401725769,-0.48959338665008545
618,1.1537,1.1689,0,0,1.058258056640625,0.614898681640625,-0.027984619140625,0.7318904399871826,1.4742319583892822,-0.49842631816864014
619,1.2166,1.1591,0,0,1.1122894287109375,0.5388641357421875,0.0774383544921875,0.5809683203697205,1.3579370975494385,-0.45711854100227356
620,1.278,1.1852,0,0,1.24359130859375,0.53363037109375,0.056182861328125,-0.022433403879404068,1.0085071325302124,-0.4808555543422699
621,1.3336,1.2489,0,0,1.3295440673828125,0.6381683349609375,-0.0149078369140625,-0.5731793642044067,0.29470300674438477,-0.3780636787414551
622,1.3792,1.3491,0,0,1.2265625,0.8061370849609375,0.0196990966796875,-0.7528207898139954,-0.35909050703048706,0.013303554616868496
623,1.411,1.4811,0,0,1.140655517578125,0.81170654296875,0.0428924560546875,-0.6149694323539734,-0.6782261729240417,0.33282670378685
624,1.4257,1.6374,0,0,1.0283050537109375,0.7047271728515625,-0.0807647705078125,-0.43300601840019226,-1.0843031406402588,0.5979968309402466
625,1.4209,1.8078,0,0,0.8471221923828125,0.69091796875,-0.253997802734375,0.10336047410964966,-1.648123025894165,0.8518397808074951
626,1.3952,1.9812,0,0,0.743011474609375,1.0967559814453125,-0.384063720703125,0.9506523609161377,-2.365417957305908,1.0296814441680908
627,1.3482,2.1463,0,0,0.569732666015625,1.3780517578125,-0.321136474609375,1.7391868829727173,-2.179917097091675,1.147039771080017
628,1.2809,2.2934,0,0,0.67388916015625,1.2081451416015625,-0.0465545654296875,2.016005277633667,-1.1270934343338013,1.0046240091323853
629,1.1958,2.415,0,0,0.7660369873046875,0.9974365234375,-0.043426513671875,1.9996802806854248,-0.7268312573432922,0.9057447910308838
630,1.0969,2.5056,0,0,0.87274169921875,0.8466644287109375,-0.027557373046875,1.952125072479248,-0.9450274705886841,0.5655291676521301
631,0.9898,2.5622,0,0,0.8592987060546875,0.639739990234375,-0.010040283203125,1.5625280141830444,-1.5546386241912842,0.21497754752635956
632,0.8812,2.5835,0,0,0.7014923095703125,0.4597625732421875,-0.0767059326171875,0.8210245966911316,-2.1173577308654785,0.09307748079299927
633,0.7783,2.5696,0,0,0.5669708251953125,0.4356842041015625,-0.1371612548828125,0.263752281665802,-2.218383312225342,-0.011068896390497684
634,0.6886,2.5218,0,0,0.4903411865234375,0.400482177734375,-0.060943603515625,-0.14785444736480713,-2.363659620285034,-0.01865118183195591
635,0.619,2.4429,0,0,0.35345458984375,0.387603759765625,-0.08709716796875,-0.6177159547805786,-2.5552515983581543,0.01477415207773447
636,0.5751,2.3369,0,0,0.30633544921875,0.3505859375,-0.083953857421875,-1.0012446641921997,-2.4882829189300537,0.08276598900556564
637,0.561,2.2099,0,0,0.2953338623046875,0.4776611328125,-0.13238525390625,-1.280937910079956,-2.437859535217285,0.09308493882417679
638,0.5788,2.0692,0,0,0.372833251953125,0.575347900390625,-0.125335693359375,-1.2614598274230957,-2.1288294792175293,-0.11206608265638351
639,0.6281,1.9236,0,0,0.4581146240234375,0.5717315673828125,-0.1315155029296875,-1.074828863143921,-1.8619272708892822,-0.1413280963897705
640,0.7065,1.7823,0,0,0.51513671875,0.51458740234375,-0.1093902587890625,-0.7524561882019043,-1.3551340103149414,-0.009148490615189075
641,0.8091,1.6535,0,0,0.5406036376953125,0.4882659912109375,-0.1377105712890625,-0.6692444086074829,-0.6689215898513794,0.06626717001199722
642,0.9291,1.5439,0,0,0.5358734130859375,0.4445343017578125,-0.198822021484375,-0.7216098308563232,0.11893890053033829,0.19347944855690002
643,1.0578,1.4575,0,0,0.5681915283203125,0.4413909912109375,-0.2095489501953125,-0.7916741371154785,1.0505433082580566,0.29283639788627625
644,1.1858,1.3951,0,0,0.563232421875,0.538604736328125,-0.2790069580078125,-0.9892250299453735,1.8634806871414185,0.27039632201194763
645,1.3032,1.3549,0,0,0.4545745849609375,0.65478515625,-0.8105316162109375,-1.0007402896881104,1.2594224214553833,0.10750462114810944
646,1.4012,1.3324,0,0,0.482025146484375,0.7530517578125,-1.967071533203125,0.026915770024061203,-0.9093579053878784,-0.16984257102012634
647,1.4729,1.3218,0,0,1.0926971435546875,0.9071807861328125,-1.388580322265625,-0.28394702076911926,1.5124027729034424,-0.17231318354606628
648,1.514,1.3164,0,0,1.191558837890625,0.8501739501953125,-0.930206298828125,0.40993425250053406,0.3941617012023926,0.09394007921218872
649,1.5235,1.3097,0,0,1.047027587890625,0.5990447998046875,-1.10089111328125,1.227373480796814,-1.2787010669708252,0.31679633259773254
650,1.5034,1.2965,0,0,0.714569091796875,0.4426422119140625,-0.86773681640625,1.3567290306091309,-0.5848605036735535,0.27809232473373413
651,1.4581,1.273,0,0,0.7660064697265625,0.60015869140625,-0.455902099609375,1.675837755203247,0.10937176644802094,-0.04770680144429207
652,1.3937,1.2381,0,0,1.0200347900390625,0.8409423828125,-0.2583770751953125,1.1972712278366089,0.7386524677276611,-0.22140295803546906
653,1.3171,1.193,0,0,0.987030029296875,1.0052337646484375,-0.0320587158203125,0.6687058806419373,0.3316895067691803,-0.009913616813719273
654,1.235,1.1409,0,0,0.7772064208984375,0.9539947509765625,0.15777587890625,-0.13359561562538147,0.7670641541481018,0.17498859763145447
655,1.1537,1.0869,0,0,0.6192626953125,0.8508758544921875,0.1998748779296875,-0.7520822882652283,1.3711165189743042,0.49844813346862793
656,1.0782,1.0371,0,0,0.5647735595703125,0.733673095703125,0.0755462646484375,-0.7078170776367188,1.1259480714797974,0.6566875576972961
657,1.0122,0.9973,0,0,0.545013427734375,0.6915740966796875,0.0999908447265625,-0.24908678233623505,0.4617937207221985,0.605437159538269
658,0.9578,0.9728,0,0,0.4461517333984375,0.9597930908203125,0.058502197265625,-0.22055953741073608,0.13690832257270813,0.2925511598587036
659,0.9161,0.9672,0,0,0.56719970703125,0.93011474609375,0.0624847412109375,-0.4495977759361267,0.3923075795173645,-0.11071426421403885
660,0.8868,0.9819,0,0,0.61956787109375,0.7720794677734375,-0.0090789794921875,-0.8460023999214172,0.30438464879989624,-0.09744932502508163
661,0.8691,1.016,0,0,0.605194091796875,0.74761962890625,-0.0538330078125,-0.877395749092102,0.6016696095466614,-0.10703057795763016
662,0.8612,1.0665,0,0,0.5542755126953125,0.6110076904296875,-0.057586669921875,-0.6624565124511719,0.9479889273643494,-0.05408001318573952
663,0.8612,1.1287,0,0,0.475189208984375,0.54522705078125,-0.059722900390625,-0.6407070159912109,1.011613130569458,0.01841416023671627
664,0.8669,1.1971,0,0,0.486785888671875,0.4822235107421875,-0.1529083251953125,-0.8087077140808105,1.02989661693573,-0.06358510255813599
665,0.8761,1.2659,0,0,0.5861053466796875,0.4065399169921875,-0.31964111328125,-1.2111736536026,1.1925650835037231,-0.20749859511852264
666,0.8868,1.3297,0,0,0.683685302734375,0.4399871826171875,-0.50823974609375,-1.392738699913025,1.0269346237182617,-0.302494078874588
667,0.8972,1.3836,0,0,0.7095489501953125,0.52783203125,-0.4936676025390625,-0.6231440305709839,0.7227675318717957,-0.34807461500167847
668,0.9064,1.4239,0,0,0.730682373046875,0.634429931640625,-0.3980560302734375,0.1153673380613327,0.8518450856208801,-0.363459974527359
669,0.9144,1.4474,0,0,0.7378692626953125,0.6587677001953125,-0.2392425537109375,0.3572942018508911,1.204002857208252,-0.37652304768562317
670,0.9217,1.4521,0,0,0.691253662109375,0.5833587646484375,-0.1320037841796875,0.44492578506469727,1.2131679058074951,-0.386544793844223
671,0.9299,1.4367,0,0,0.708526611328125,0.57177734375,-0.105712890625,0.4303540587425232,1.2442882061004639,-0.457382470369339
672,0.9409,1.4019,0,0,0.729339599609375,0.519683837890625,-0.13629150390625,0.27857622504234314,1.3382011651992798,-0.4888692796230316
673,0.9566,1.3497,0,0,0.73272705078125,0.47308349609375,-0.159820556640625,0.028595158830285072,1.4552314281463623,-0.5294135212898254
674,0.979,1.2844,0,0,0.7595977783203125,0.5419464111328125,-0.18634033203125,-0.23264895379543304,1.5084959268569946,-0.5368351936340332
675,1.0092,1.2124,0,0,0.7252349853515625,0.604644775390625,-0.208831787109375,-0.10602736473083496,1.1803334951400757,-0.4896748960018158
676,1.0476,1.1423,0,0,0.7473297119140625,0.6580810546875,-0.176300048828125,0.23899634182453156,1.0366897583007812,-0.46403104066848755
677,1.0935,1.0836,0,0,0.86407470703125,0.604705810546875,-0.0801849365234375,0.3941739499568939,1.1274555921554565,-0.47495558857917786
678,1.1454,1.0468,0,0,0.9521331787109375,0.5659637451171875,0.001800537109375,0.4939788281917572,1.0617181062698364,-0.4461117088794708
679,1.2006,1.0411,0,0,1.0463714599609375,0.5709228515625,0.0365142822265625,0.2869532108306885,0.8462897539138794,-0.489246666431427
680,1.2558,1.074,0,0,1.204620361328125,0.72540283203125,0.069793701171875,-0.22424428164958954,0.6435627341270447,-0.444491982460022
681,1.3074,1.1497,0,0,1.2220001220703125,0.8051605224609375,0.0494537353515625,-0.732611894607544,0.3481992483139038,-0.16473835706710815
682,1.3512,1.2682,0,0,1.0834503173828125,0.783111572265625,0.0695343017578125,-0.6979743242263794,-0.013745639473199844,0.22109030187129974
683,1.3833,1.4254,0,0,1.036468505859375,0.7757720947265625,-0.049407958984375,-0.622326135635376,-0.5029315948486328,0.45253658294677734
684,1.3999,1.613,0,0,0.94146728515625,0.6799163818359375,-0.1616058349609375,-0.3453129231929779,-1.1444414854049683,0.6833199858665466
685,1.3979,1.8197,0,0,0.7583160400390625,0.7238922119140625,-0.25341796875,0.32407712936401367,-1.785765290260315,0.986345112323761
686,1.3749,2.0328,0,0,0.75244140625,1.1962738037109375,-0.4346771240234375,1.2512774467468262,-2.195350170135498,1.158573865890503
687,1.33,2.2393,0,0,0.6486968994140625,1.4233551025390625,-0.3182830810546875,2.203580379486084,-1.6582454442977905,1.3048887252807617
688,1.2638,2.4276,0,0,0.7465057373046875,1.2829437255859375,-0.11505126953125,2.4955790042877197,-0.7176603674888611,1.2122395038604736
689,1.1788,2.5881,0,0,0.79168701171875,1.0224456787109375,-0.051605224609375,2.400824785232544,-0.3321869969367981,1.0691484212875366
690,1.0797,2.7136,0,0,0.8426971435546875,0.8030242919921875,0.0321044921875,2.0637545585632324,-0.6551216244697571,0.6045239567756653
691,0.9725,2.7988,0,0,0.7881927490234375,0.5351104736328125,-0.03997802734375,1.2191303968429565,-1.7032020092010498,0.18421804904937744
692,0.8647,2.8403,0,0,0.604156494140625,0.4191131591796875,-0.075531005859375,0.5338524580001831,-2.1938772201538086,-0.03567171096801758
693,0.7641,2.8359,0,0,0.51544189453125,0.4047698974609375,-0.0808563232421875,0.16855758428573608,-2.3507232666015625,-0.21320974826812744
694,0.6785,2.7854,0,0,0.433135986328125,0.424530029296875,-0.042449951171875,-0.24258601665496826,-2.723459005355835,-0.22834183275699615
695,0.6147,2.6906,0,0,0.356719970703125,0.42108154296875,-0.0177459716796875,-0.7649030089378357,-3.0245361328125,-0.1162073016166687
696,0.5779,2.5563,0,0,0.3470458984375,0.377410888671875,-0.03204345703125,-1.2387489080429077,-3.0895752906799316,0.030825557187199593
697,0.5716,2.3903,0,0,0.3349609375,0.468963623046875,-0.09283447265625,-1.5378972291946411,-2.9426987171173096,0.12993855774402618
698,0.5971,2.2039,0,0,0.4195404052734375,0.593719482421875,-0.168182373046875,-1.508387565612793,-2.433760643005371,-0.013315272517502308
699,0.6534,2.0103,0,0,0.5078887939453125,0.6338348388671875,-0.1921844482421875,-1.0020569562911987,-1.623902440071106,0.008296279236674309
700,0.7371,1.8236,0,0,0.450897216796875,0.5857696533203125,-0.1510772705078125,-0.48711374402046204,-1.0007989406585693,0.17127561569213867
701,0.8429,1.6564,0,0,0.505645751953125,0.537139892578125,-0.210418701171875,-0.4687376618385315,-0.5527113676071167,0.16370265185832977
702,0.9635,1.5186,0,0,0.47723388671875,0.456695556640625,-0.23681640625,-0.5661789774894714,0.14681820571422577,0.24658261239528656
703,1.0901,1.4154,0,0,0.489349365234375,0.460662841796875,-0.3174896240234375,-0.7211658954620361,0.935759961605072,0.24596290290355682
704,1.213,1.3473,0,0,0.4018096923828125,0.515899658203125,-0.5332183837890625,-0.7807797193527222,1.78799569606781,0.2448933720588684
705,1.3228,1.3105,0,0,0.4201202392578125,0.6106414794921875,-0.8686676025390625,-0.4621444642543793,1.6443182229995728,-0.01347639411687851
706,1.411,1.298,0,0,0.4715576171875,0.60931396484375,-2.0601806640625,-0.010818825103342533,0.8506895303726196,-0.3038272559642792
707,1.4716,1.3006,0,0,1.353912353515625,1.0024871826171875,-1.320556640625,0.07092983275651932,1.7951314449310303,-0.33909016847610474
708,1.5013,1.309,0,0,1.3417510986328125,0.941436767578125,-0.9488677978515625,0.879798412322998,0.061103034764528275,0.0497228167951107
709,1.5001,1.3144,0,0,0.9480743408203125,0.53155517578125,-1.0299072265625,1.3437259197235107,-1.277740240097046,0.39342159032821655
710,1.4711,1.3104,0,0,0.6417999267578125,0.360107421875,-0.7001800537109375,1.2778505086898804,-0.668354332447052,0.41793331503868103
711,1.4196,1.293,0,0,0.73809814453125,0.4662933349609375,-0.1722412109375,1.4936221837997437,-0.17026600241661072,0.009853695519268513
712,1.3522,1.261,0,0,1.0120849609375,0.7374725341796875,-0.046417236328125,0.7667307257652283,0.8282548189163208,-0.15909777581691742
713,1.276,1.2161,0,0,0.9636077880859375,1.0624237060546875,0.082427978515625,-0.16048581898212433,0.6061386466026306,0.01744610257446766
714,1.1974,1.1619,0,0,0.8817901611328125,1.06317138671875,-0.049224853515625,-1.1261179447174072,0.6325840950012207,0.11702648550271988
715,1.1223,1.1036,0,0,0.652374267578125,0.88397216796875,-0.093170166015625,-1.0934451818466187,0.75404292345047,0.5813859105110168
716,1.0549,1.047,0,0,0.5396270751953125,0.746490478515625,-0.0181732177734375,-0.43889346718788147,0.5954063534736633,0.7743822336196899
717,0.998,0.998,0,0,0.451141357421875,0.6081695556640625,0.1199493408203125,0.09136586636304855,0.2791541516780853,0.8382000923156738
718,0.9532,0.9616,0,0,0.3907318115234375,0.781982421875,0.1528472900390625,-0.17897507548332214,0.41483181715011597,0.6055676937103271
719,0.9203,0.9414,0,0,0.4967803955078125,0.976318359375,0.0020599365234375,-0.7040532231330872,0.4710535407066345,0.17921182513237
720,0.8984,0.9389,0,0,0.633636474609375,0.9100341796875,-0.0685272216796875,-0.757859468460083,0.23027367889881134,-0.0019361181184649467
721,0.8859,0.954,0,0,0.6206817626953125,0.7927398681640625,-0.1182708740234375,-0.6595193147659302,0.3373332917690277,-0.017949173226952553
722,0.8806,0.9845,0,0,0.5787506103515625,0.67498779296875,-0.057342529296875,-0.5240488648414612,0.8909605145454407,0.009458749555051327
723,0.8805,1.0269,0,0,0.558380126953125,0.5731964111328125,-0.0700531005859375,-0.6203799247741699,0.9621226191520691,-0.044257741421461105
724,0.8835,1.0768,0,0,0.5030364990234375,0.442596435546875,-0.13836669921875,-0.8356256484985352,0.7501099705696106,-0.08573620766401291
725,0.8879,1.1296,0,0,0.5916290283203125,0.4026641845703125,-0.3882904052734375,-1.3352434635162354,0.6878694891929626,-0.26287955045700073
726,0.8922,1.1809,0,0,0.6811676025390625,0.4075469970703125,-0.452545166015625,-1.2701174020767212,0.9574058651924133,-0.33608320355415344
727,0.8953,1.227,0,0,0.66741943359375,0.4944610595703125,-0.3796539306640625,-0.498369038105011,0.772121787071228,-0.3075287938117981
728,0.8971,1.2651,0,0,0.674407958984375,0.6521759033203125,-0.3003692626953125,0.053580936044454575,0.7377305030822754,-0.32201558351516724
729,0.8979,1.293,0,0,0.6890411376953125,0.642669677734375,-0.2494964599609375,0.1711115539073944,1.0888235569000244,-0.30517295002937317
730,0.8989,1.3094,0,0,0.7514495849609375,0.598297119140625,-0.2327880859375,0.24458125233650208,1.2256999015808105,-0.34907597303390503
731,0.9021,1.3137,0,0,0.788360595703125,0.55096435546875,-0.1971435546875,0.36782169342041016,1.2291282415390015,-0.38803374767303467
732,0.9097,1.3063,0,0,0.7848968505859375,0.53656005859375,-0.1447906494140625,0.3724531829357147,1.2309935092926025,-0.4586557149887085
733,0.9241,1.2888,0,0,0.7240142822265625,0.4801483154296875,-0.098663330078125,0.23522450029850006,1.2206223011016846,-0.49114683270454407
734,0.9475,1.2641,0,0,0.6774444580078125,0.4712371826171875,-0.13983154296875,-0.01883786916732788,1.3349518775939941,-0.5199606418609619
735,0.9809,1.2361,0,0,0.640106201171875,0.547149658203125,-0.2088470458984375,-0.2157791703939438,1.3225244283676147,-0.5128095149993896
736,1.0245,1.2103,0,0,0.63336181640625,0.5917205810546875,-0.2450103759765625,0.01480557769536972,0.9542361497879028,-0.4942387640476227
737,1.0772,1.1925,0,0,0.7839813232421875,0.5790863037109375,-0.1268768310546875,0.31345832347869873,1.018547773361206,-0.4616200923919678
738,1.1365,1.1893,0,0,0.9771728515625,0.5769195556640625,0.005401611328125,0.374218612909317,1.241446614265442,-0.4759971499443054
739,1.1988,1.2064,0,0,1.060699462890625,0.561553955078125,0.0564422607421875,0.12908580899238586,1.1074433326721191,-0.5108888149261475
740,1.26,1.2488,0,0,1.248077392578125,0.5808563232421875,-0.008819580078125,-0.4050534963607788,1.12568998336792,-0.5581013560295105
741,1.3157,1.3195,0,0,1.3813018798828125,0.682769775390625,-0.100616455078125,-0.8620463013648987,0.9299923777580261,-0.4102330505847931
742,1.3616,1.4192,0,0,1.2336883544921875,0.816070556640625,-0.10137939453125,-0.9404132962226868,-0.01866263337433338,-0.01182310376316309
743,1.3938,1.5459,0,0,1.0552978515625,0.890899658203125,0.0320587158203125,-0.6065455675125122,-0.7155311703681946,0.43437114357948303
744,1.4092,1.6951,0,0,1.01116943359375,0.85400390625,-0.0483856201171875,-0.3667135536670685,-1.0154081583023071,0.7114437818527222
745,1.4057,1.8602,0,0,0.7503662109375,0.6938629150390625,-0.1988677978515625,0.08871734887361526,-1.5574951171875,0.948307991027832
746,1.382,2.0334,0,0,0.670257568359375,0.967132568359375,-0.439788818359375,0.9303638935089111,-2.285353422164917,1.0464375019073486
747,1.3379,2.2066,0,0,0.6351165771484375,1.2107391357421875,-0.46435546875,2.0027706623077393,-2.11212158203125,1.2148339748382568
748,1.2744,2.3724,0,0,0.776641845703125,1.189788818359375,-0.206298828125,2.499018669128418,-1.1247040033340454,1.1512051820755005
749,1.1942,2.5245,0,0,0.907501220703125,1.01123046875,-0.0768890380859375,2.3240561485290527,-0.3606729805469513,1.0609527826309204
750,1.1011,2.6574,0,0,0.9716033935546875,0.855194091796875,0.029693603515625,1.9901988506317139,-0.5230858325958252,0.7229315638542175
751,1.0003,2.7664,0,0,0.8509368896484375,0.621307373046875,0.0347137451171875,1.2295958995819092,-1.4375059604644775,0.32780182361602783
752,0.8983,2.847,0,0,0.618988037109375,0.4891510009765625,-0.03826904296875,0.32628142833709717,-2.198848247528076,0.10311760008335114
753,0.8017,2.8948,0,0,0.5180511474609375,0.4907989501953125,-0.0619354248046875,-0.2168220579624176,-2.3037517070770264,-0.11595456302165985
754,0.7172,2.9061,0,0,0.4253387451171875,0.425445556640625,-0.0123291015625,-0.5105274319648743,-2.6921589374542236,-0.12755556404590607
755,0.6509,2.8785,0,0,0.3379974365234375,0.385955810546875,-0.0152740478515625,-0.904085636138916,-3.1892240047454834,-0.015108644962310791
756,0.6076,2.8126,0,0,0.3130340576171875,0.3971710205078125,-0.0561370849609375,-1.3090051412582397,-3.4421536922454834,0.07014047354459763
757,0.5908,2.7124,0,0,0.329071044921875,0.490875244140625,-0.1015167236328125,-1.51495361328125,-3.363208293914795,0.10216525197029114
758,0.6021,2.5859,0,0,0.436614990234375,0.62158203125,-0.100128173828125,-1.4877959489822388,-3.038240671157837,-0.025599902495741844
759,0.6415,2.4449,0,0,0.560882568359375,0.69061279296875,-0.145355224609375,-1.2310560941696167,-2.4281086921691895,-0.030789071694016457
760,0.7072,2.3026,0,0,0.5650482177734375,0.5849151611328125,-0.2127227783203125,-0.888395369052887,-1.7586625814437866,0.22728082537651062
761,0.7957,2.1723,0,0,0.551422119140625,0.498138427734375,-0.1968994140625,-0.6373381018638611,-1.035224199295044,0.3158530294895172
762,0.9018,2.0646,0,0,0.51055908203125,0.4365692138671875,-0.2333831787109375,-0.6748186349868774,-0.5059377551078796,0.3681042492389679
763,1.0187,1.9853,0,0,0.474700927734375,0.412689208984375,-0.2338409423828125,-0.7688503265380859,0.5120022892951965,0.4975661039352417
764,1.1383,1.935,0,0,0.461273193359375,0.47412109375,-0.3228607177734375,-1.0048085451126099,1.6623637676239014,0.510237455368042
765,1.2521,1.9087,0,0,0.4279327392578125,0.630462646484375,-0.7025146484375,-1.0393880605697632,2.1789441108703613,0.32315593957901
766,1.3513,1.8974,0,0,0.4044952392578125,0.729705810546875,-1.2294158935546875,-0.23500585556030273,1.7501356601715088,0.036256540566682816
767,1.4288,1.8901,0,0,0.6810455322265625,0.6832275390625,-1.7799224853515625,0.14668504893779755,2.7523300647735596,-0.23129794001579285
768,1.4793,1.8753,0,0,1.4134368896484375,1.0075531005859375,-0.942901611328125,0.6484890580177307,2.0411832332611084,-0.02611948549747467
769,1.5004,1.8436,0,0,1.3137054443359375,0.9015960693359375,-1.05584716796875,1.166846752166748,-0.7316305041313171,0.4670175313949585
770,1.4927,1.7889,0,0,0.7203369140625,0.649078369140625,-0.994659423828125,1.3862392902374268,-1.7480493783950806,0.5176208019256592
771,1.4595,1.7094,0,0,0.590087890625,0.495086669921875,-0.55511474609375,1.6167094707489014,-0.5525097846984863,0.13108611106872559
772,1.4061,1.6077,0,0,0.8711090087890625,0.71807861328125,-0.3024139404296875,1.6748672723770142,0.9309015870094299,-0.4075597822666168
773,1.339,1.4901,0,0,0.9464569091796875,0.97344970703125,0.0176544189453125,1.378456473350525,0.8427445292472839,-0.36115872859954834
774,1.265,1.3664,0,0,0.91229248046875,1.0047760009765625,0.2233428955078125,0.3390992283821106,0.7653775811195374,-0.07673339545726776
775,1.1904,1.2475,0,0,0.7559814453125,0.88104248046875,0.029754638671875,-0.6788011193275452,0.8028218746185303,0.39298295974731445
776,1.1203,1.1447,0,0,0.6379241943359375,0.737762451171875,0.0490570068359375,-0.4734799563884735,0.7202314138412476,0.7866948246955872
777,1.0585,1.068,0,0,0.603271484375,0.663970947265625,0.1508636474609375,0.13975310325622559,0.4988718628883362,0.9539597630500793
778,1.0072,1.0244,0,0,0.4397125244140625,0.772216796875,0.2608184814453125,0.21561351418495178,0.5249223709106445,0.7672500610351562
779,0.9673,1.0178,0,0,0.4840850830078125,1.0827484130859375,0.0411376953125,-0.18788868188858032,0.5453176498413086,0.29066911339759827
780,0.9384,1.0478,0,0,0.631378173828125,0.8472137451171875,0.0712738037109375,-0.5060250759124756,0.4994311034679413,0.20152512192726135
781,0.9191,1.1106,0,0,0.6326446533203125,0.703155517578125,0.017730712890625,-0.9057605266571045,0.4781971871852875,0.23161298036575317
782,0.9076,1.1987,0,0,0.6347198486328125,0.669891357421875,-0.0042572021484375,-0.9149875640869141,0.9666379690170288,0.17622056603431702
783,0.9019,1.3025,0,0,0.5945587158203125,0.6003265380859375,-0.0646209716796875,-1.0190143585205078,1.017861008644104,0.11619504541158676
784,0.9,1.4114,0,0,0.5161895751953125,0.4715576171875,-0.353973388671875,-1.2268974781036377,0.9348816275596619,-0.008335161954164505
785,0.9003,1.5146,0,0,0.4778594970703125,0.35626220703125,-0.7198333740234375,-1.5923564434051514,1.132548451423645,-0.14848001301288605
786,0.9015,1.6027,0,0,0.6002960205078125,0.388458251953125,-0.7160491943359375,-1.1294434070587158,1.2774512767791748,-0.37362125515937805
787,0.9031,1.6682,0,0,0.59747314453125,0.430328369140625,-0.4468994140625,0.24281850457191467,1.2410999536514282,-0.39189454913139343
788,0.9051,1.706,0,0,0.68121337890625,0.589385986328125,-0.1332550048828125,1.0800944566726685,1.3191092014312744,-0.43818986415863037
789,0.9081,1.7134,0,0,0.725982666015625,0.646881103515625,-0.011871337890625,0.9774488210678101,1.4647748470306396,-0.47356462478637695
790,0.9133,1.6904,0,0,0.78009033203125,0.6121673583984375,-0.0132598876953125,0.7384644746780396,1.3656834363937378,-0.5101266503334045
791,0.9223,1.6392,0,0,0.7769775390625,0.51397705078125,-0.0678558349609375,0.5048578381538391,1.1580963134765625,-0.542449951171875
792,0.9367,1.5642,0,0,0.7881317138671875,0.442657470703125,-0.0784912109375,0.27611786127090454,1.197580337524414,-0.6074649095535278
793,0.9579,1.4712,0,0,0.7679290771484375,0.364898681640625,-0.0902557373046875,0.025590315461158752,1.2719180583953857,-0.6658869385719299
794,0.9869,1.3679,0,0,0.80072021484375,0.455902099609375,-0.183685302734375,-0.3281475305557251,1.479050636291504,-0.7074021697044373
795,1.0237,1.2627,0,0,0.769256591796875,0.5574188232421875,-0.27264404296875,-0.4637434184551239,1.4053261280059814,-0.6218153238296509
796,1.0678,1.1651,0,0,0.830780029296875,0.6284637451171875,-0.233612060546875,-0.02093750610947609,0.9056321382522583,-0.5293440222740173
797,1.1176,1.0846,0,0,0.9258880615234375,0.6182861328125,-0.1065673828125,0.29703032970428467,1.0399761199951172,-0.4219435155391693
798,1.1707,1.0301,0,0,0.9719696044921875,0.59722900390625,0.020355224609375,0.47760412096977234,1.0380653142929077,-0.36878255009651184
799,1.2242,1.0091,0,0,1.0409698486328125,0.5684814453125,0.077880859375,0.41112974286079407,0.7280775904655457,-0.38293299078941345
800,1.2747,1.0269,0,0,1.1610260009765625,0.6150360107421875,0.04925537109375,-0.06507780402898788,0.5481405854225159,-0.45240262150764465
801,1.3188,1.0858,0,0,1.2559051513671875,0.694427490234375,-0.0022125244140625,-0.6921499967575073,0.6068018078804016,-0.2742597758769989
802,1.3532,1.1847,0,0,1.200653076171875,0.6364288330078125,-0.1032867431640625,-1.0906355381011963,0.5713378190994263,0.1074335128068924
803,1.3753,1.3193,0,0,1.2556304931640625,0.709259033203125,-0.21075439453125,-0.8783251643180847,-0.25028014183044434,0.2983883023262024
804,1.3826,1.4818,0,0,1.12200927734375,0.818450927734375,-0.1038360595703125,-0.4614613652229309,-0.9124160408973694,0.48315680027008057
805,1.3737,1.6622,0,0,0.949066162109375,0.7512054443359375,-0.1326904296875,-0.02714453637599945,-1.3383865356445312,0.7129333019256592
806,1.3478,1.8492,0,0,0.7102813720703125,0.8948211669921875,-0.3282928466796875,0.5657944083213806,-1.9142045974731445,0.9088484644889832
807,1.3052,2.0312,0,0,0.5152435302734375,1.1451568603515625,-0.4088592529296875,1.4420785903930664,-2.3004496097564697,1.0620614290237427
808,1.2468,2.1976,0,0,0.5558013916015625,1.22454833984375,-0.2494964599609375,1.969191312789917,-1.7655441761016846,0.9462970495223999
809,1.1747,2.3392,0,0,0.761810302734375,0.974273681640625,-0.1164398193359375,1.9917627573013306,-0.8133722543716431,0.7648361325263977
810,1.0918,2.4491,0,0,0.864288330078125,0.7978973388671875,-0.0469207763671875,1.8724349737167358,-0.7436973452568054,0.5740858912467957
811,1.0022,2.5219,0,0,0.8374786376953125,0.61737060546875,0.0254974365234375,1.5155991315841675,-1.1500903367996216,0.30216625332832336
812,0.9107,2.5541,0,0,0.6834716796875,0.4794464111328125,-0.047393798828125,0.7570037841796875,-1.8443719148635864,0.07540687173604965
813,0.8224,2.5437,0,0,0.5748138427734375,0.501800537109375,-0.0695037841796875,0.11850321292877197,-2.135355234146118,-0.09941953420639038
814,0.743,2.4905,0,0,0.48345947265625,0.516876220703125,-0.087646484375,-0.34588950872421265,-2.4883294105529785,-0.17700940370559692
815,0.6778,2.3969,0,0,0.40679931640625,0.53289794921875,-0.0948028564453125,-0.6468575596809387,-2.7505691051483154,-0.15255199372768402
816,0.6316,2.2678,0,0,0.3592071533203125,0.5122222900390625,-0.097991943359375,-0.8548219799995422,-2.8014485836029053,-0.12902270257472992
817,0.6084,2.1114,0,0,0.3392333984375,0.5385894775390625,-0.141754150390625,-0.9149619936943054,-2.683706521987915,-0.19123919308185577
818,0.6111,1.9388,0,0,0.3809814453125,0.5946807861328125,-0.189483642578125,-0.7404245734214783,-2.2986955642700195,-0.32652565836906433
819,0.6411,1.7632,0,0,0.420928955078125,0.58251953125,-0.1572418212890625,-0.38069114089012146,-1.6908435821533203,-0.37679335474967957
820,0.6979,1.5983,0,0,0.47003173828125,0.538726806640625,-0.12750244140625,-0.08847979456186295,-1.0710089206695557,-0.3533697724342346
821,0.7791,1.4564,0,0,0.533599853515625,0.4893646240234375,-0.0740966796875,-0.05832669138908386,-0.4136000871658325,-0.22678281366825104
822,0.8801,1.347,0,0,0.5356903076171875,0.352569580078125,-0.118804931640625,-0.42796918749809265,0.20083403587341309,-0.013570137321949005
823,0.9945,1.2753,0,0,0.557525634765625,0.35546875,-0.183197021484375,-0.7891486883163452,0.9278842210769653,0.12187424302101135
824,1.1141,1.2417,0,0,0.549957275390625,0.4256744384765625,-0.268157958984375,-0.9932975769042969,1.7628456354141235,0.14584055542945862
825,1.2299,1.2423,0,0,0.48114013671875,0.4986419677734375,-0.6352081298828125,-0.8795545101165771,1.5446221828460693,-0.018448248505592346
826,1.3327,1.2695,0,0,0.4480438232421875,0.611724853515625,-1.37237548828125,-0.1329314112663269,-0.45734652876853943,-0.08407865464687347
827,1.4148,1.3134,0,0,0.9858245849609375,0.7753448486328125,-1.9837493896484375,-0.029870280995965004,0.9607297778129578,-0.41449466347694397
828,1.4707,1.3631,0,0,1.3347320556640625,0.9257049560546875,-1.202728271484375,0.8168354630470276,1.4456593990325928,-0.18746842443943024
829,1.4974,1.4082,0,0,1.0741729736328125,0.68170166015625,-0.968170166015625,1.6823062896728516,-0.2693454623222351,0.27900341153144836
830,1.4953,1.4401,0,0,0.6682891845703125,0.4809417724609375,-0.767822265625,1.6560810804367065,-0.27337321639060974,0.344412237405777
831,1.4672,1.4527,0,0,0.696746826171875,0.4952545166015625,-0.3282318115234375,1.7967761754989624,-0.271673321723938,-0.02564118057489395
832,1.4179,1.4434,0,0,1.0746002197265625,0.7929229736328125,-0.1054534912109375,1.0120954513549805,0.937923014163971,-0.2302262783050537
833,1.3533,1.4131,0,0,1.079345703125,1.0820465087890625,-0.0409088134765625,0.06570710986852646,1.0643984079360962,-0.01560878660529852
834,1.2797,1.3653,0,0,0.9270782470703125,1.125152587890625,-0.0269622802734375,-0.6810709238052368,0.9788331389427185,0.3309299945831299
835,1.2029,1.3061,0,0,0.6954498291015625,0.9720458984375,-0.0197601318359375,-0.8878158926963806,1.296922206878662,0.63576740026474
836,1.1282,1.2426,0,0,0.502960205078125,0.70501708984375,0.0807037353515625,-0.4236351549625397,1.214539885520935,0.8522469401359558
837,1.0594,1.1823,0,0,0.519317626953125,0.5616607666015625,0.175048828125,-0.019891949370503426,0.2738720178604126,0.815989077091217
838,0.9992,1.1316,0,0,0.5969696044921875,0.67095947265625,0.1698455810546875,-0.2215864509344101,-0.17893938720226288,0.5494636297225952
839,0.9488,1.0956,0,0,0.530364990234375,0.9741668701171875,-0.0280914306640625,-0.8092917799949646,-0.17562934756278992,0.12304762750864029
840,0.9087,1.0769,0,0,0.6619110107421875,1.0243682861328125,-0.1415863037109375,-0.9751779437065125,0.3882795572280884,-0.14398273825645447
841,0.8783,1.0759,0,0,0.7394866943359375,0.7562713623046875,-0.08843994140625,-0.889509916305542,0.7814614772796631,-0.03894739970564842
842,0.8571,1.0908,0,0,0.6645965576171875,0.600494384765625,-0.075225830078125,-0.7985478043556213,0.7969988584518433,0.05862735956907272
843,0.8438,1.1182,0,0,0.551666259765625,0.4984283447265625,-0.04888916015625,-0.798955500125885,0.8363377451896667,0.10354450345039368
844,0.8373,1.1536,0,0,0.48785400390625,0.4034881591796875,-0.152679443359375,-1.0130959749221802,0.8320602178573608,-0.0017901768442243338
845,0.8363,1.1924,0,0,0.4641571044921875,0.3474884033203125,-0.314849853515625,-1.265989065170288,0.7858958840370178,-0.11883664131164551
846,0.8395,1.2302,0,0,0.50421142578125,0.3949127197265625,-0.41119384765625,-1.2699229717254639,0.8339864611625671,-0.23072482645511627
847,0.8456,1.2632,0,0,0.5678253173828125,0.5221710205078125,-0.39874267578125,-0.7470377087593079,0.6760373115539551,-0.28934207558631897
848,0.8538,1.2883,0,0,0.6356964111328125,0.644287109375,-0.3311614990234375,-0.12711293995380402,0.7506684064865112,-0.3155113458633423
849,0.8636,1.3035,0,0,0.7295684814453125,0.6635589599609375,-0.265411376953125,0.16494448482990265,1.0671381950378418,-0.36347007751464844
850,0.8752,1.3077,0,0,0.7733154296875,0.6026458740234375,-0.1832122802734375,0.3466455638408661,1.2555779218673706,-0.3541492819786072
851,0.8896,1.3007,0,0,0.8162841796875,0.565185546875,-0.09930419921875,0.4493415951728821,1.3318841457366943,-0.4252186715602875
852,0.9083,1.2835,0,0,0.7747802734375,0.500030517578125,-0.077667236328125,0.37348997592926025,1.267507791519165,-0.46762019395828247
853,0.9331,1.2586,0,0,0.7223052978515625,0.4452362060546875,-0.09197998046875,0.14161279797554016,1.157150387763977,-0.5224975347518921
854,0.9656,1.2298,0,0,0.676025390625,0.4827423095703125,-0.1281280517578125,-0.10450829565525055,1.0846914052963257,-0.5489169359207153
855,1.0069,1.202,0,0,0.6191864013671875,0.597808837890625,-0.186859130859375,-0.1381826400756836,0.9679493308067322,-0.5059627890586853
856,1.0571,1.1813,0,0,0.6911163330078125,0.6720123291015625,-0.2344512939453125,0.06234459951519966,1.0743581056594849,-0.4305010437965393
857,1.1152,1.1742,0,0,0.89105224609375,0.5823974609375,-0.2349700927734375,0.31679844856262207,1.3469456434249878,-0.3907347321510315
858,1.1791,1.1872,0,0,1.0803070068359375,0.561126708984375,-0.1298675537109375,0.5401197075843811,1.6020629405975342,-0.3420819640159607
859,1.2452,1.2258,0,0,1.181640625,0.5245208740234375,-0.0421295166015625,0.5197678208351135,1.4317591190338135,-0.4121508002281189
860,1.3095,1.2937,0,0,1.26470947265625,0.5652923583984375,0.0090789794921875,0.01944320648908615,0.921119213104248,-0.5062677264213562
861,1.3671,1.392,0,0,1.2376556396484375,0.67816162109375,0.08551025390625,-0.31225404143333435,0.08843345940113068,-0.3061372935771942
862,1.413,1.5181,0,0,1.1188507080078125,0.761749267578125,0.1380462646484375,-0.5783892869949341,-0.5198772549629211,0.06590045243501663
863,1.4424,1.6662,0,0,1.076995849609375,0.7236175537109375,-0.034759521484375,-0.6650440692901611,-1.071218490600586,0.40808603167533875
864,1.4511,1.827,0,0,0.93072509765625,0.6389923095703125,-0.28607177734375,-0.2620619833469391,-1.4994885921478271,0.8022394776344299
865,1.436,1.9897,0,0,0.9921722412109375,1.08673095703125,-0.44573974609375,0.7153096199035645,-2.164682388305664,1.1312147378921509
866,1.3956,2.1428,0,0,0.795074462890625,1.3208770751953125,-0.42791748046875,1.892220377922058,-2.149308443069458,1.3648979663848877
867,1.3304,2.2761,0,0,0.8563232421875,1.2881927490234375,-0.1121368408203125,2.502829074859619,-0.8143922686576843,1.1058273315429688
868,1.2428,2.3816,0,0,0.8795318603515625,1.058502197265625,0.0241546630859375,2.319847583770752,-0.46103498339653015,1.0190346240997314
869,1.1376,2.4542,0,0,0.8860015869140625,0.842010498046875,-0.0030364990234375,1.891983151435852,-0.7628976702690125,0.7681653499603271
870,1.0215,2.4913,0,0,0.776336669921875,0.6408233642578125,-0.0246734619140625,1.3485987186431885,-1.4596234560012817,0.41130152344703674
871,0.9025,2.4928,0,0,0.6295623779296875,0.43267822265625,-0.08978271484375,0.6894428730010986,-1.8574986457824707,0.24505768716335297
872,0.7889,2.4604,0,0,0.550079345703125,0.406646728515625,-0.1262969970703125,0.2331022322177887,-1.90664541721344,0.10289149731397629
873,0.6893,2.3974,0,0,0.4369964599609375,0.399749755859375,-0.0653533935546875,-0.11563578248023987,-2.1550581455230713,0.06970930844545364
874,0.6111,2.3086,0,0,0.356658935546875,0.4045257568359375,-0.0505218505859375,-0.5059297680854797,-2.389086961746216,0.08930564671754837
875,0.5602,2.2004,0,0,0.2918853759765625,0.411376953125,-0.037750244140625,-0.8408595323562622,-2.509906768798828,0.18694299459457397
876,0.5407,2.0814,0,0,0.263946533203125,0.4167327880859375,-0.0551300048828125,-1.0790718793869019,-2.598198652267456,0.26623329520225525
877,0.5544,1.9617,0,0,0.328643798828125,0.5020904541015625,-0.0751190185546875,-1.1343457698822021,-2.4967868328094482,0.22539344429969788
878,0.6011,1.8527,0,0,0.4478607177734375,0.6344757080078125,-0.1098785400390625,-1.0117719173431396,-2.1361093521118164,0.10804284363985062
879,0.678,1.7657,0,0,0.5787506103515625,0.6790313720703125,-0.1462860107421875,-0.6961995959281921,-1.3815635442733765,0.04240870848298073
880,0.7807,1.7101,0,0,0.568603515625,0.5781097412109375,-0.1241302490234375,-0.3850816488265991,-0.47697001695632935,0.21510431170463562
881,0.9024,1.692,0,0,0.543060302734375,0.4722747802734375,-0.1632843017578125,-0.5053532123565674,0.1266402304172516,0.28282663226127625
882,1.035,1.7125,0,0,0.4884490966796875,0.430572509765625,-0.2042083740234375,-0.7223289012908936,0.8285583853721619,0.31910181045532227
883,1.1692,1.7673,0,0,0.5208740234375,0.519073486328125,-0.2449951171875,-0.941214382648468,1.6086158752441406,0.16499587893486023
