id,ASVM,GSVM,walking_nonwalking,normal_abnormal,ax,ay,az,gx,gy,gz
1,1.053,3.3854,0,0,0.0841827392578125,1.0364837646484375,0.165283203125,-2.2671046257019043,2.2978861331939697,1.0202831029891968
2,1.0529,3.385,0,0,0.0977630615234375,0.9778289794921876,0.1989898681640625,-2.035569906234741,1.5749902725219729,1.341915488243103
3,1.0525,3.3818,0,0,0.033935546875,0.8659515380859375,0.2215728759765625,-1.7350643873214722,0.914911150932312,1.226194143295288
4,1.0509,3.3687,0,0,-0.002838134765625,0.80511474609375,0.161834716796875,-1.4196680784225464,0.1801503300666809,0.7497541308403015
5,1.0463,3.3326,0,0,-0.007415771484375,0.7917327880859375,-0.072601318359375,-0.924999177455902,-0.4944347739219665,0.3181356191635132
6,1.0368,3.256,0,0,-0.1642303466796875,0.794830322265625,-0.782440185546875,0.4103353321552276,-0.2385656982660293,-0.2640044689178467
7,1.022,3.1215,0,0,0.10479736328125,0.980224609375,0.0257720947265625,-0.2662958800792694,-0.3196427226066589,-0.0642713978886604
8,1.0039,2.9175,0,0,0.1568603515625,1.089935302734375,0.1861114501953125,-1.0595985651016235,-0.4053725302219391,0.1942600160837173
9,0.9859,2.6453,0,0,0.1537017822265625,0.9989471435546876,0.10235595703125,-1.2229763269424438,-0.3102950155735016,0.2203584760427475
10,0.9715,2.3223,0,0,0.1615142822265625,0.9365386962890624,0.010040283203125,-1.0363496541976929,-0.1247845441102981,0.1134882122278213
11,0.9627,1.9771,0,0,0.1703948974609375,0.9236907958984376,-0.181884765625,-0.8481888175010681,0.3072457015514374,0.0772513747215271
12,0.9597,1.6404,0,0,0.0439910888671875,0.94354248046875,-0.184234619140625,-0.6785222887992859,0.456857293844223,0.1859584152698516
13,0.9612,1.3378,0,0,-0.0526123046875,0.975189208984375,-0.026397705078125,-0.674776017665863,0.0837313830852508,0.2025597691535949
14,0.9654,1.086,0,0,-0.029052734375,0.94677734375,0.0670013427734375,-0.6921776533126831,-0.2027057111263275,0.1602405309677124
15,0.9707,0.8926,0,0,-0.0080413818359375,0.86065673828125,0.095703125,-0.8007984161376953,-0.347139835357666,0.13129623234272
16,0.9751,0.7583,0,0,-0.037078857421875,0.850372314453125,0.0525054931640625,-0.8624708652496338,-0.2429354190826416,0.0136841209605336
17,0.9769,0.6787,0,0,-0.0386505126953125,0.9842071533203124,-0.0142059326171875,-0.8592633008956909,0.1095222309231758,-0.0584499947726726
18,0.9751,0.6465,0,0,-0.0016021728515625,1.15234375,-0.1054534912109375,-0.8550190329551697,0.733950674533844,-0.0618718899786472
19,0.9709,0.6533,0,0,0.0521392822265625,1.236175537109375,-0.15020751953125,-0.7341607809066772,1.3403348922729492,-0.1116628795862197
20,0.9676,0.6915,0,0,0.1218414306640625,1.1855316162109375,-0.1021575927734375,-0.4404202699661255,1.27393639087677,-0.2491533607244491
21,0.9692,0.7553,0,0,0.2374420166015625,1.1559906005859375,-0.09088134765625,-0.0992307141423225,0.80747389793396,-0.3780218660831451
22,0.979,0.8368,0,0,0.3050079345703125,1.2128753662109375,-0.1805877685546875,0.0352213717997074,0.3280255496501922,-0.2493728101253509
23,0.9984,0.9231,0,0,0.2944793701171875,1.3836517333984375,-0.220001220703125,0.3635430634021759,0.1951543092727661,0.0839007571339607
24,1.0277,0.9979,0,0,0.24755859375,1.4301300048828125,-0.17352294921875,0.8188128471374512,0.1498089283704757,0.3056134581565857
25,1.0667,1.0475,0,0,0.1298980712890625,1.22900390625,0.0126800537109375,1.188438057899475,-0.4286674559116363,0.3443683087825775
26,1.1136,1.0683,0,0,-0.01800537109375,1.0818634033203125,0.01593017578125,1.5905097723007202,-1.350348949432373,0.1305644065141677
27,1.1637,1.0699,0,0,-0.120849609375,0.988983154296875,-0.1197509765625,2.419844627380371,-1.692350149154663,-0.1215112507343292
28,1.2104,1.0739,0,0,0.0798797607421875,1.1132049560546875,0.1672515869140625,2.6141061782836914,-1.3546805381774902,0.2606009542942047
29,1.2469,1.1071,0,0,0.023529052734375,1.2688446044921875,0.31011962890625,2.252781867980957,-0.0871191918849945,0.7291237115859985
30,1.2697,1.1904,0,0,-0.1868133544921875,1.504486083984375,0.1790771484375,2.0775351524353027,2.06294584274292,0.5723375678062439
31,1.2798,1.3337,0,0,-0.440216064453125,1.62164306640625,-0.1931915283203125,2.7970988750457764,3.9417338371276855,-0.1432010978460312
32,1.283,1.5405,0,0,-0.3116302490234375,1.2495574951171875,-0.0688629150390625,3.267528533935547,3.355522871017456,-0.46115243434906
33,1.2854,1.8129,0,0,-0.1906890869140625,0.9500274658203124,-0.0316009521484375,3.2271196842193604,1.6476953029632568,-0.3072406351566314
34,1.2894,2.1448,0,0,-0.2314910888671875,0.7369537353515625,0.183624267578125,2.483297824859619,-0.5803725719451904,-0.4439390897750854
35,1.292,2.5128,0,0,-0.0775604248046875,0.67486572265625,0.07122802734375,1.587432861328125,-2.0612952709198,-0.4546295702457428
36,1.2862,2.8768,0,0,0.1846923828125,0.748199462890625,-0.29638671875,1.6099565029144287,-1.7443749904632568,0.1037016287446022
37,1.2658,3.192,0,0,0.1380615234375,0.8495941162109375,-0.1633758544921875,1.6700984239578247,-1.2624592781066897,0.5040807127952576
38,1.2278,3.4206,0,0,0.06170654296875,0.9022369384765624,-0.0634002685546875,1.3612641096115112,-2.0350472927093506,0.3849239945411682
39,1.1738,3.5409,0,0,-0.0049591064453125,0.8425445556640625,-0.0285186767578125,1.1331279277801514,-2.665699243545532,0.1596722155809402
40,1.1088,3.5511,0,0,-0.2314605712890625,0.670257568359375,0.01947021484375,1.0314127206802368,-2.55002760887146,-0.251049280166626
41,1.0388,3.4678,0,0,-0.4162139892578125,0.5089263916015625,0.0114593505859375,1.0488367080688477,-2.0914409160614014,-0.785811185836792
42,0.9685,3.3177,0,0,-0.4657745361328125,0.4426422119140625,-0.1241455078125,1.183457612991333,-1.1896241903305054,-1.1497873067855835
43,0.9016,3.1282,0,0,-0.4038848876953125,0.43310546875,-0.3288421630859375,1.2548562288284302,-0.4081195890903473,-1.0848485231399536
44,0.8404,2.9201,0,0,-0.3541717529296875,0.4558563232421875,-0.4930267333984375,0.7110549211502075,-0.1730293035507202,-0.617388129234314
45,0.7873,2.7043,0,0,-0.345947265625,0.4547119140625,-0.609954833984375,-0.4673051536083221,0.0220349952578544,-0.2005141973495483
46,0.7445,2.4832,0,0,-0.307220458984375,0.5058135986328125,-0.62579345703125,-1.582885980606079,0.6034530997276306,-0.101007841527462
47,0.7144,2.2579,0,0,0.0445709228515625,0.677093505859375,-0.57794189453125,-2.0478076934814453,0.9963766932487488,0.2458664923906326
48,0.6986,2.0376,0,0,0.350677490234375,0.987640380859375,-0.50726318359375,-1.9637808799743648,0.3258500099182129,1.0507832765579224
49,0.699,1.8408,0,0,0.288909912109375,1.237091064453125,-0.4341278076171875,-1.640505313873291,-0.2593239843845367,1.4437323808670044
50,0.7175,1.6872,0,0,0.180145263671875,1.3115692138671875,-0.583831787109375,-0.9852686524391174,-0.2739724218845367,1.0779048204421997
51,0.7562,1.5874,0,0,-0.063995361328125,1.1985015869140625,-0.8962249755859375,-0.2107370048761367,-0.5697004795074463,0.029641781002283
52,0.8162,1.537,0,0,-0.3368072509765625,1.12640380859375,-0.9951934814453124,0.133351668715477,-0.7447521686553955,-0.5623317956924438
53,0.8965,1.5192,0,0,-0.5435943603515625,1.2312469482421875,-0.6591339111328125,-0.5997840762138367,-1.1883671283721924,-0.8671119213104248
54,0.9931,1.5154,0,0,-0.643402099609375,1.4071502685546875,-0.3163909912109375,-1.4802312850952148,-1.2313053607940674,-1.120099425315857
55,1.1,1.516,0,0,-0.697509765625,1.433929443359375,0.048065185546875,-1.986276388168335,0.2716690599918365,-1.259055256843567
56,1.21,1.5231,0,0,-0.6573944091796875,1.2528839111328125,0.341522216796875,-1.9565826654434204,1.1799601316452026,-0.8632586002349854
57,1.3154,1.5441,0,0,-0.5218505859375,0.9816436767578124,0.023651123046875,-0.9536822438240052,-0.3750921189785003,-0.068176656961441
58,1.4071,1.582,0,0,-0.1740875244140625,0.7661590576171875,0.0493316650390625,-0.2281676530838012,-1.035742163658142,0.3580412268638611
59,1.4751,1.6293,0,0,0.0579681396484375,0.72869873046875,0.101654052734375,-0.443148136138916,0.5617709159851074,0.6254545450210571
60,1.509,1.6719,0,0,0.070281982421875,0.767303466796875,0.176025390625,-1.215800404548645,2.077176094055176,0.6166917085647583
61,1.5026,1.7009,0,0,0.0499725341796875,0.8172149658203125,0.23089599609375,-1.9119778871536253,2.620077133178711,0.5935989022254944
62,1.4554,1.7216,0,0,0.0958709716796875,0.8771514892578125,0.1898040771484375,-2.188236951828003,2.554940223693848,0.7144624590873718
63,1.3738,1.7527,0,0,0.1515655517578125,0.955413818359375,0.1616973876953125,-2.014814615249634,1.749280571937561,0.9785622954368592
64,1.2697,1.8132,0,0,0.2473297119140625,1.02587890625,-0.3259735107421875,-0.957282543182373,0.782206654548645,1.1349340677261353
65,1.1574,1.9075,0,0,-0.0365753173828125,0.9823455810546876,-0.299468994140625,0.1607593148946762,-0.0684898421168327,0.3848416805267334
66,1.0516,2.0187,0,0,-0.108245849609375,0.980560302734375,-0.1900634765625,-0.0611339285969734,-0.5861518979072571,-0.2645088732242584
67,0.9635,2.1141,0,0,-0.0242462158203125,1.0011138916015625,-0.08282470703125,-0.6552202105522156,-0.6574058532714844,-0.0524568147957325
68,0.9002,2.1609,0,0,-0.0324859619140625,1.010772705078125,0.0336456298828125,-0.8983135223388672,-0.3117152750492096,0.1904293298721313
69,0.8637,2.1392,0,0,0.0316925048828125,0.9623870849609376,0.1619415283203125,-0.8021395802497864,0.2187352776527404,0.291694700717926
70,0.8521,2.0454,0,0,0.0437774658203125,0.88690185546875,0.1679229736328125,-0.5504090785980225,0.3701953589916229,0.2279940247535705
71,0.8605,1.8887,0,0,0.02630615234375,0.7895355224609375,0.1182403564453125,-0.3973516225814819,0.2849531769752502,0.1467196643352508
72,0.8814,1.6859,0,0,0.008636474609375,0.7872161865234375,0.08892822265625,-0.4813517034053802,0.0136313894763588,0.182923749089241
73,0.9067,1.4565,0,0,-0.087860107421875,0.8363494873046875,-0.0772552490234375,-0.7336667776107788,-0.2656319439411163,0.2483650743961334
74,0.9291,1.2217,0,0,-0.1584014892578125,0.911102294921875,-0.1598052978515625,-0.9587856531143188,-0.3096508085727691,0.2132089436054229
75,0.9443,1.0029,0,0,-0.07244873046875,0.9358978271484376,-0.06585693359375,-1.0133663415908811,-0.0299094300717115,0.2217635512351989
76,0.9507,0.8194,0,0,-0.0311279296875,0.9490966796875,0.0570831298828125,-0.976108968257904,0.0712896287441253,0.2550530731678009
77,0.9496,0.6855,0,0,-0.0694122314453125,0.9044189453125,0.0366668701171875,-0.9313287138938904,0.074583426117897,0.1205977872014045
78,0.9431,0.6074,0,0,-0.0536651611328125,0.856048583984375,-0.121429443359375,-0.884434700012207,0.3361772000789642,-0.0180639550089836
79,0.9337,0.5833,0,0,0.0289306640625,0.9289398193359376,-0.0777435302734375,-0.7382684350013733,0.7294504642486572,-0.0307235568761825
80,0.9234,0.6051,0,0,0.0847930908203125,1.076690673828125,0.023651123046875,-0.6921060085296631,0.8483179807662964,-0.0061649517156183
81,0.9145,0.6615,0,0,0.1430816650390625,1.22845458984375,0.05023193359375,-0.777947723865509,0.761897087097168,0.0280702505260705
82,0.9106,0.7403,0,0,0.218841552734375,1.2834320068359375,-0.1331024169921875,-0.8238233327865601,1.0037600994110107,-0.1358305364847183
83,0.9155,0.8303,0,0,0.3890838623046875,1.269134521484375,-0.2101287841796875,-0.4051320552825928,1.171129584312439,-0.2581194341182709
84,0.9329,0.9224,0,0,0.4993896484375,1.3106231689453125,-0.077789306640625,-0.0590057969093322,0.5679025650024414,-0.138595163822174
85,0.965,1.007,0,0,0.4796600341796875,1.4750518798828125,-0.0457763671875,-0.0427338816225528,-0.3247301578521728,0.0203627962619066
86,1.0123,1.0728,0,0,0.3925018310546875,1.4448699951171875,-0.1201629638671875,0.0817393362522125,-0.7139612436294556,0.2591245174407959
87,1.0732,1.1099,0,0,0.1790313720703125,1.301849365234375,-0.0529327392578125,0.5892400741577148,-1.090272307395935,0.3605664372444153
88,1.1439,1.116,0,0,0.0992584228515625,1.244049072265625,0.0706024169921875,1.0257409811019895,-1.6365768909454346,0.3201127648353576
89,1.2175,1.101,0,0,-0.0161590576171875,1.08233642578125,0.1556549072265625,1.216691255569458,-2.216442108154297,0.2241188585758209
90,1.2855,1.0857,0,0,-0.1810760498046875,1.033050537109375,0.0403289794921875,1.7746384143829346,-2.1933016777038574,-0.1187924295663833
91,1.3389,1.0958,0,0,-0.1534271240234375,0.9876708984375,0.38433837890625,1.7939345836639404,-1.4934165477752686,-0.1302123367786407
92,1.3713,1.1515,0,0,-0.3689727783203125,1.1961669921875,0.4158782958984375,1.8258250951766968,0.2126544713973999,-0.2648417949676513
93,1.3805,1.2604,0,0,-0.6119842529296875,1.385650634765625,0.23431396484375,2.2974746227264404,2.098721742630005,-0.6174530982971191
94,1.3702,1.4188,0,0,-0.66949462890625,1.2853546142578125,0.0404052734375,3.1131086349487305,2.376518487930298,-0.8773475289344788
95,1.3482,1.6215,0,0,-0.6595916748046875,1.036163330078125,0.113494873046875,3.393623352050781,2.0340583324432373,-0.9561805725097656
96,1.3226,1.8658,0,0,-0.4495086669921875,0.762420654296875,0.119873046875,3.11334490776062,1.718652844429016,-0.5345853567123413
97,1.2974,2.1464,0,0,-0.3535003662109375,0.6204376220703125,-0.005340576171875,2.937382221221924,0.949646770954132,-0.2500196993350982
98,1.2716,2.4488,0,0,-0.1446075439453125,0.628692626953125,0.2161407470703125,2.0521721839904785,-1.45660662651062,-0.0946253091096878
99,1.2406,2.7473,0,0,0.0213775634765625,0.797882080078125,-0.1146392822265625,1.2906885147094729,-2.2879443168640137,-0.0197726394981145
100,1.2002,3.0108,0,0,0.215179443359375,1.005767822265625,-0.3564605712890625,1.523329496383667,-1.1869785785675049,0.2987472712993622
101,1.1501,3.209,0,0,0.1498870849609375,1.0512542724609375,-0.150726318359375,1.2719347476959229,-0.7896578907966614,0.3011630475521087
102,1.0941,3.3181,0,0,0.072479248046875,0.918304443359375,-0.085052490234375,0.9464696049690248,-1.608612895011902,0.1113840490579605
103,1.0384,3.3251,0,0,-0.10723876953125,0.7191162109375,-0.145751953125,0.9658520817756652,-1.7179250717163086,-0.1178494021296501
104,0.9876,3.2324,0,0,-0.2281341552734375,0.60516357421875,-0.092315673828125,0.972974419593811,-1.3788396120071411,-0.2999478280544281
105,0.9434,3.0556,0,0,-0.33587646484375,0.5644073486328125,-0.159576416015625,0.8470417857170105,-0.9620538949966432,-0.3038778603076935
106,0.9049,2.8181,0,0,-0.345611572265625,0.561676025390625,-0.29095458984375,0.5304896831512451,-0.5729386210441589,-0.1010621711611747
107,0.8704,2.5421,0,0,-0.3880615234375,0.551513671875,-0.4709930419921875,0.0193201676011085,-0.037694115191698,-0.0061005032621324
108,0.8391,2.2444,0,0,-0.30657958984375,0.557525634765625,-0.5913848876953125,-0.6139355897903442,0.647133469581604,-0.0766763985157013
109,0.8119,1.9383,0,0,-0.23089599609375,0.614166259765625,-0.5659027099609375,-1.251079559326172,0.8012239933013916,-0.1842960715293884
110,0.7904,1.6404,0,0,-0.1502685546875,0.705352783203125,-0.517578125,-1.48494553565979,0.4589462876319885,-0.1817751228809356
111,0.7765,1.3723,0,0,-0.1296234130859375,0.85760498046875,-0.5087127685546875,-1.3719141483306885,-0.1330059915781021,-0.115856297314167
112,0.7719,1.1552,0,0,-0.064056396484375,1.0162506103515625,-0.498870849609375,-1.0777647495269775,-0.7392216324806213,0.0161438155919313
113,0.7782,1.0031,0,0,0.0767059326171875,1.0686492919921875,-0.56884765625,-0.6415663957595825,-1.0719127655029297,0.3508424460887909
114,0.797,0.9194,0,0,0.04034423828125,1.1083526611328125,-0.71942138671875,-0.0698049142956733,-0.4289100766181946,0.4371698796749115
115,0.8297,0.8955,0,0,-0.187652587890625,1.2177276611328125,-0.7947845458984375,0.3269525468349457,0.0150164999067783,0.1991674304008484
116,0.8771,0.9128,0,0,-0.3944244384765625,1.212066650390625,-0.9912109375,0.3663252592086792,-0.749052107334137,0.0961387827992439
117,0.9397,0.9493,0,0,-0.55364990234375,1.132171630859375,-0.8090972900390625,-0.2946233749389648,-1.6695772409439087,-0.0203020758926868
118,1.016,0.9894,0,0,-0.57177734375,1.128631591796875,-0.3281707763671875,-1.1883187294006348,-1.0301157236099243,-0.3055106401443481
119,1.1021,1.0288,0,0,-0.453338623046875,1.1686859130859375,0.2347412109375,-2.235896348953247,0.699353814125061,-0.3541775047779083
120,1.1907,1.0735,0,0,-0.4909515380859375,1.1903533935546875,0.3253173828125,-2.4432477951049805,1.0165640115737915,-0.2321767807006836
121,1.2733,1.1347,0,0,-0.5433502197265625,1.014739990234375,-0.0364837646484375,-1.0912331342697144,-0.169694498181343,-0.0242009442299604
122,1.3416,1.2183,0,0,-0.2200775146484375,0.811553955078125,0.153289794921875,-0.1502656638622284,-0.1804275661706924,0.0202227141708135
123,1.3882,1.3157,0,0,-0.0691986083984375,0.730316162109375,0.3306427001953125,-0.54991614818573,0.4893065690994262,0.0050874366424977
124,1.4068,1.4066,0,0,0.004425048828125,0.744781494140625,0.3142547607421875,-1.306676745414734,1.2507107257843018,0.0301459189504385
125,1.3938,1.4732,0,0,0.0123443603515625,0.8455352783203125,0.201751708984375,-1.5482252836227417,2.2128655910491943,0.1670579612255096
126,1.3501,1.5141,0,0,-0.0055084228515625,0.989898681640625,0.1526336669921875,-1.3901090621948242,2.801434278488159,0.3779403865337372
127,1.2816,1.5448,0,0,0.0660400390625,1.089813232421875,0.1575469970703125,-1.0100736618041992,2.717780590057373,0.7338614463806152
128,1.1984,1.5887,0,0,0.1696929931640625,1.0470123291015625,0.2024078369140625,-0.6906708478927612,1.9710023403167725,1.1586135625839231
129,1.1125,1.6631,0,0,0.17803955078125,0.892578125,0.2847900390625,-0.8257138729095459,0.8431048393249512,1.358049392700195
130,1.0346,1.7701,0,0,0.094940185546875,0.8726959228515625,0.2371368408203125,-1.271994709968567,-0.353518933057785,1.0817866325378418
131,0.9716,1.8969,0,0,0.073883056640625,0.8306732177734375,0.1510772705078125,-1.589176893234253,-0.9380140900611876,0.450695276260376
132,0.9263,2.0231,0,0,0.0112762451171875,0.86968994140625,-0.005279541015625,-1.6437523365020752,-1.0231797695159912,0.0435935482382774
133,0.898,2.1288,0,0,-0.10540771484375,1.01007080078125,-0.88665771484375,-0.586377739906311,0.778337836265564,-0.0590686462819576
134,0.8855,2.1975,0,0,0.0723114013671875,1.046630859375,-0.093017578125,-0.3422431051731109,0.8271706104278564,0.1922405511140823
135,0.8879,2.2151,0,0,0.0789642333984375,1.0068206787109375,0.1427764892578125,-0.5418723225593567,0.1716271489858627,0.255790501832962
136,0.9034,2.1719,0,0,0.06939697265625,0.96600341796875,0.14691162109375,-0.5379329919815063,-0.3524232804775238,0.1614408195018768
137,0.9285,2.0652,0,0,0.046600341796875,0.8446197509765625,0.126129150390625,-0.5937768220901489,-0.7328779697418213,0.2161786407232284
138,0.9576,1.9023,0,0,-0.04205322265625,0.8173828125,0.1278076171875,-0.8237112164497375,-0.8985734581947327,0.1775124669075012
139,0.9846,1.7009,0,0,-0.136199951171875,0.848663330078125,0.127410888671875,-1.1236960887908936,-0.7012225389480591,0.0177004337310791
140,1.0041,1.4862,0,0,-0.2393798828125,0.88922119140625,0.0706939697265625,-1.312958598136902,-0.4104873836040497,-0.2697151005268097
141,1.0131,1.2846,0,0,-0.251708984375,0.9682769775390624,-0.0359954833984375,-1.2923215627670288,-0.0041180457919836,-0.4353829026222229
142,1.0116,1.1187,0,0,-0.1773223876953125,1.09649658203125,-0.1035614013671875,-1.0840964317321775,0.349531888961792,-0.3452652394771576
143,1.0023,1.0023,0,0,-0.02294921875,1.1629638671875,-0.0836181640625,-0.8601576089859009,0.5719796419143677,-0.2517344951629638
144,0.9904,0.939,0,0,0.1038970947265625,1.163330078125,-0.135498046875,-0.6006290912628174,1.227103352546692,-0.1921305656433105
145,0.9812,0.925,0,0,0.20135498046875,1.2244415283203125,-0.1334686279296875,-0.3990805447101593,1.7682286500930786,-0.1451513320207595
146,0.9796,0.9529,0,0,0.2981414794921875,1.2107391357421875,-0.0795135498046875,-0.2810031771659851,1.6154154539108276,-0.0293504316359758
147,0.9886,1.0149,0,0,0.2863922119140625,1.1667633056640625,-0.0242462158203125,-0.1505357176065445,1.0583897829055786,-0.0228640362620353
148,1.0088,1.0998,0,0,0.28961181640625,1.12042236328125,-0.082733154296875,0.0382797457277774,0.290275514125824,-0.1613542735576629
149,1.0386,1.1903,0,0,0.3170623779296875,1.1486968994140625,-0.1097869873046875,0.3521852195262909,-0.1798222213983535,-0.0938367471098899
150,1.0745,1.2646,0,0,0.3674468994140625,1.3065338134765625,0.02813720703125,0.638302206993103,-0.6770463585853577,0.1513029634952545
151,1.1132,1.3052,0,0,0.2598724365234375,1.2900848388671875,0.0742645263671875,0.8268877863883972,-1.0153354406356812,0.3858701884746551
152,1.1519,1.3064,0,0,0.1482696533203125,1.2337493896484375,0.13177490234375,1.0722153186798096,-1.3085486888885498,0.4834417700767517
153,1.1884,1.2771,0,0,0.0580902099609375,1.12945556640625,0.20635986328125,1.1820347309112549,-1.8048794269561768,0.4427172243595123
154,1.2206,1.2372,0,0,-0.073028564453125,1.102264404296875,0.2009429931640625,1.3372375965118408,-1.998906135559082,0.2395654469728469
155,1.2457,1.2112,0,0,-0.3320159912109375,1.1098785400390625,0.025360107421875,1.9789459705352783,-1.664993405342102,-0.3199183344841003
156,1.2617,1.2216,0,0,-0.4192047119140625,1.315460205078125,0.2664947509765625,2.504067897796631,-0.2994961738586426,-0.8680397868156433
157,1.2687,1.2839,0,0,-0.4778900146484375,1.4122772216796875,0.42437744140625,2.350088834762573,1.7108479738235474,-1.1177289485931396
158,1.2698,1.4054,0,0,-0.5603179931640625,1.24005126953125,0.0855712890625,2.737715482711792,2.8453547954559326,-1.040724754333496
159,1.2694,1.5884,0,0,-0.5269012451171875,1.016326904296875,-0.0485992431640625,3.2874205112457275,3.003798723220825,-0.6563147306442261
160,1.2705,1.8328,0,0,-0.2600250244140625,0.792938232421875,-0.01226806640625,3.3533644676208496,2.2195990085601807,0.1338470131158828
161,1.2717,2.1335,0,0,-0.4184722900390625,0.727569580078125,-0.03094482421875,3.134629726409912,1.088634729385376,0.1725427508354187
162,1.2683,2.4732,0,0,-0.3267669677734375,0.698974609375,0.351287841796875,1.8858264684677124,-1.3744659423828125,-0.2953599989414215
163,1.2546,2.8199,0,0,-0.1094512939453125,0.7159271240234375,0.0615234375,0.7699877619743347,-2.32179856300354,-0.3163265287876129
164,1.2269,3.1322,0,0,0.165435791015625,0.997406005859375,-0.5900421142578125,1.3979324102401731,-1.0658096075057983,0.3708789944648742
165,1.1854,3.369,0,0,0.0591888427734375,1.0452880859375,-0.1754302978515625,1.501288652420044,-0.0468639098107814,0.5229729413986206
166,1.1344,3.4989,0,0,0.0821685791015625,0.992889404296875,-0.00811767578125,1.061205506324768,-1.2753857374191284,0.4521602690219879
167,1.0808,3.5064,0,0,0.026336669921875,0.8458404541015625,-0.0650482177734375,0.829953670501709,-1.980384111404419,0.3806376159191131
168,1.0303,3.3958,0,0,-0.1791534423828125,0.6731109619140625,-0.0816192626953125,0.9965940117836,-1.7532737255096436,0.0702451318502426
169,0.9859,3.1899,0,0,-0.260040283203125,0.6082916259765625,-0.113861083984375,1.1038190126419067,-1.2622307538986206,-0.0635440871119499
170,0.9471,2.9215,0,0,-0.3465423583984375,0.5592193603515625,-0.2601165771484375,1.1124529838562012,-0.7972055673599243,-0.0661369413137435
171,0.9123,2.6234,0,0,-0.378021240234375,0.5166015625,-0.3742218017578125,0.6346744298934937,-0.8284966349601746,0.0441730543971061
172,0.8797,2.3217,0,0,-0.3754119873046875,0.509307861328125,-0.5112152099609375,-0.2493195533752441,-0.3980480432510376,0.0580329410731792
173,0.849,2.0333,0,0,-0.294830322265625,0.560791015625,-0.5780487060546875,-1.0364549160003662,0.3278915882110595,-0.0424348078668117
174,0.8213,1.7675,0,0,-0.198944091796875,0.6609954833984375,-0.5434417724609375,-1.2307947874069214,0.1776371002197265,-0.1326629668474197
175,0.7986,1.5318,0,0,0.0055999755859375,0.8094940185546875,-0.4243927001953125,-1.1968791484832764,-0.4845248758792877,0.0688730701804161
176,0.7832,1.3344,0,0,0.0607452392578125,0.9598236083984376,-0.3128662109375,-1.3017395734786987,-0.5391867756843567,0.2761421203613281
177,0.7772,1.1827,0,0,0.0117645263671875,1.0538482666015625,-0.406768798828125,-1.3551580905914309,-0.264388233423233,0.3315526247024536
178,0.7827,1.0812,0,0,-0.071929931640625,1.1760711669921875,-0.7386322021484375,-1.1304383277893066,-0.3351103365421295,0.2369749993085861
179,0.802,1.029,0,0,-0.0718536376953125,1.2767791748046875,-1.07421875,-0.2628718316555023,-0.4851477742195129,0.2264166325330734
180,0.8385,1.0176,0,0,-0.125885009765625,1.173980712890625,-0.9071044921875,0.4577124416828155,-0.8522278070449829,0.3423650562763214
181,0.8944,1.0334,0,0,-0.2837677001953125,0.92193603515625,-0.5298614501953125,0.0542531199753284,-1.722913384437561,0.3988565802574157
182,0.9676,1.0646,0,0,-0.432586669921875,0.838531494140625,-0.1187286376953125,-1.0457749366760254,-1.2586346864700315,0.2001045942306518
183,1.0503,1.1063,0,0,-0.447021484375,0.9611053466796876,0.4737091064453125,-2.6179351806640625,0.4037149846553802,-0.0766343250870704
184,1.1315,1.1628,0,0,-0.59283447265625,1.1930694580078125,0.5336456298828125,-3.51444673538208,1.339233160018921,-0.3564193546772003
185,1.2025,1.2456,0,0,-0.8966064453125,1.476837158203125,-0.384246826171875,-1.657836675643921,0.6919068098068237,-0.4356726408004761
186,1.2603,1.3654,0,0,-0.6065673828125,1.3555450439453125,-0.7696075439453125,1.6886571645736694,-0.9328294396400452,-0.2553486824035644
187,1.307,1.5213,0,0,-0.0889739990234375,0.9326324462890624,-0.147857666015625,2.057911872863769,-1.310776710510254,-0.0295650828629732
188,1.3447,1.6986,0,0,-0.0129852294921875,0.77197265625,0.4612884521484375,-0.3896417617797851,-0.3994624316692352,-0.122873455286026
189,1.3713,1.8744,0,0,0.035400390625,0.8025970458984375,0.430755615234375,-2.081484794616699,1.2359107732772827,-0.0417991131544113
190,1.3819,2.0259,0,0,0.0329437255859375,0.851837158203125,0.220489501953125,-2.48416805267334,2.415609359741211,0.3083389103412628
191,1.3718,2.143,0,0,0.0260772705078125,0.9251708984375,0.13897705078125,-2.0269615650177,2.616835832595825,0.7284533977508545
192,1.3395,2.2329,0,0,0.069580078125,0.9641876220703124,0.1497344970703125,-1.283515214920044,2.235504627227783,1.1262153387069702
193,1.2876,2.3106,0,0,0.144439697265625,0.944427490234375,0.221649169921875,-0.8406294584274292,1.9257371425628664,1.419797420501709
194,1.222,2.3864,0,0,0.0704803466796875,0.9294891357421876,0.263946533203125,-0.8791491389274597,1.3927730321884155,1.2994683980941772
195,1.1502,2.46,0,0,-0.0628204345703125,0.95526123046875,0.1636199951171875,-0.9857698678970336,0.7815448045730591,0.6287976503372192
196,1.0798,2.5204,0,0,-0.0459136962890625,0.8834991455078125,-0.3939361572265625,-0.5876871943473816,-0.1982872486114502,0.1072340458631515
197,1.0171,2.5481,0,0,-0.047637939453125,0.8778076171875,-0.4803619384765625,0.2733519077301025,-0.6516486406326294,-0.1131843477487564
198,0.9669,2.5218,0,0,0.092926025390625,1.0712890625,0.138092041015625,-0.5167344808578491,-0.7738216519355774,0.1783225983381271
199,0.9318,2.4282,0,0,0.1282501220703125,1.08892822265625,0.20501708984375,-1.0705721378326416,-0.5043526291847229,0.3339433670043945
200,0.9133,2.268,0,0,0.0607452392578125,0.9105682373046876,0.115997314453125,-1.049552321434021,-0.2834644615650177,0.2233920693397522
201,0.9104,2.056,0,0,0.0128326416015625,0.803253173828125,0.0569610595703125,-0.8167198896408081,0.0557498149573802,0.0641923025250434
202,0.9191,1.814,0,0,0.0062255859375,0.7859649658203125,0.0174102783203125,-0.7288403511047363,0.2109734863042831,0.0340831354260444
203,0.9335,1.5647,0,0,-0.0305938720703125,0.8513336181640625,-0.0312042236328125,-0.8282023668289185,0.1057839542627334,0.0029867351986467
204,0.9473,1.3278,0,0,-0.0305938720703125,0.9413299560546876,-0.008941650390625,-0.9879981279373168,-0.0889895260334014,-0.0005635248962789
205,0.9562,1.1191,0,0,-0.03955078125,0.9756011962890624,0.0199432373046875,-1.025385499000549,-0.0522909015417099,-0.0279384236782789
206,0.9589,0.9507,0,0,-0.0328216552734375,1.0013275146484375,1.52587890625e-05,-0.9858103394508362,0.0579802133142948,-0.0920577570796012
207,0.9564,0.8295,0,0,-0.0260009765625,1.0358123779296875,-0.0857696533203125,-0.8994832038879395,0.2100009024143219,-0.1030435636639595
208,0.9513,0.7568,0,0,-0.028167724609375,1.0742034912109375,-0.1497039794921875,-0.7026654481887817,0.7501823902130127,-0.1119302660226821
209,0.9468,0.7289,0,0,0.042724609375,1.1417083740234375,-0.0894622802734375,-0.492834210395813,1.1229671239852903,-0.2082472145557403
210,0.9463,0.7389,0,0,0.1229705810546875,1.2164764404296875,-0.0107269287109375,-0.3424380421638489,1.1090058088302612,-0.3212616443634033
211,0.9525,0.7786,0,0,0.20159912109375,1.2439727783203125,0.0277252197265625,-0.277828961610794,0.6487971544265747,-0.3483651578426361
212,0.9675,0.8376,0,0,0.1750335693359375,1.17572021484375,-0.0716552734375,-0.1767537295818328,0.2679696679115295,-0.1604112386703491
213,0.9918,0.9017,0,0,0.1082916259765625,1.24298095703125,-0.1468505859375,0.0906777083873748,0.2631783783435821,0.0734680891036987
214,1.0247,0.9544,0,0,0.1653289794921875,1.3416595458984375,-0.1471405029296875,0.4111265540122986,0.3691426217556,0.2671310305595398
215,1.064,0.9824,0,0,0.1788482666015625,1.25732421875,-0.0367279052734375,0.7323482632637024,0.287136971950531,0.3720846176147461
216,1.1074,0.9802,0,0,0.1357269287109375,1.1391754150390625,0.0670013427734375,1.041939616203308,-0.3531519472599029,0.2800652086734772
217,1.1514,0.9531,0,0,0.08349609375,1.1183319091796875,0.1099853515625,1.3605352640151978,-1.277469038963318,0.1026909574866294
218,1.1916,0.9159,0,0,-0.040863037109375,1.059722900390625,-0.0244598388671875,1.888283491134644,-1.464239239692688,0.010187922976911
219,1.2236,0.8912,0,0,-0.019561767578125,1.1049957275390625,0.0411224365234375,2.499884605407715,-0.8881580829620361,0.1208004504442215
220,1.2438,0.9033,0,0,-0.1120758056640625,1.204254150390625,0.2902374267578125,2.2327513694763184,-0.1822566241025924,0.1898668706417083
221,1.2513,0.9701,0,0,-0.2560272216796875,1.2232818603515625,0.2425689697265625,1.933396339416504,1.5030971765518188,-0.0685034245252609
222,1.248,1.0988,0,0,-0.465057373046875,1.26702880859375,-0.0151214599609375,2.1394317150115967,3.543339490890503,-0.415836364030838
223,1.2381,1.2904,0,0,-0.5587158203125,1.1284332275390625,-0.1900177001953125,3.1322028636932373,3.302175283432007,-0.8110294938087463
224,1.2262,1.545,0,0,-0.37347412109375,0.99072265625,0.0295562744140625,3.204833984375,1.9832472801208496,-0.6290255784988403
225,1.2153,1.8594,0,0,-0.2531280517578125,0.86297607421875,-0.00457763671875,2.5681424140930176,0.7349621653556824,-0.1341375708580017
226,1.2054,2.2156,0,0,-0.2624664306640625,0.7365570068359375,0.062225341796875,1.891404747962952,-0.8022064566612244,-0.0733266770839691
227,1.1931,2.5778,0,0,-0.0619354248046875,0.7875823974609375,-0.0289154052734375,1.2213773727416992,-1.6343843936920166,0.0960205420851707
228,1.1745,2.9002,0,0,0.129119873046875,0.9198760986328124,-0.1608734130859375,0.963778555393219,-1.4785315990447998,0.4380929172039032
229,1.1468,3.1405,0,0,0.107269287109375,0.9722137451171876,-0.1566619873046875,0.9966030716896056,-1.1693543195724487,0.6354441046714783
230,1.1103,3.2703,0,0,0.0477752685546875,0.9111785888671876,-0.071319580078125,0.9680702090263368,-1.8291198015213013,0.527806282043457
231,1.0681,3.2809,0,0,0.0457000732421875,0.794830322265625,-0.0221099853515625,0.8349776864051819,-2.5191431045532227,0.4642252027988434
232,1.0237,3.1855,0,0,-0.1558074951171875,0.700958251953125,-0.0862579345703125,0.8956223726272583,-2.4029386043548584,0.2248357683420181
233,0.9797,3.0143,0,0,-0.3385009765625,0.6620635986328125,-0.134552001953125,1.077201008796692,-1.7803239822387695,-0.1694699823856353
234,0.9374,2.8035,0,0,-0.40545654296875,0.6036834716796875,-0.1605377197265625,1.0028271675109863,-0.9243611097335817,-0.3087069690227508
235,0.8977,2.5823,0,0,-0.4297943115234375,0.5025634765625,-0.245086669921875,0.5078051686286926,-0.4465172886848449,-0.2010806500911712
236,0.8609,2.3659,0,0,-0.36785888671875,0.47613525390625,-0.339691162109375,-0.2299887239933014,-0.2413076907396316,-0.1083592325448989
237,0.8276,2.1557,0,0,-0.3440093994140625,0.5643463134765625,-0.5084228515625,-0.7920350432395935,0.2991741895675659,-0.1766722351312637
238,0.7983,1.9478,0,0,-0.215301513671875,0.7047882080078125,-0.574371337890625,-1.121659755706787,0.6032723188400269,-0.2384450584650039
239,0.7749,1.7416,0,0,-0.0806427001953125,0.86444091796875,-0.5728302001953125,-1.240013837814331,0.0219087600708007,-0.08711439371109
240,0.7604,1.5441,0,0,0.048492431640625,1.038543701171875,-0.5900421142578125,-1.0547995567321775,-0.7612552642822266,0.1787702739238739
241,0.7585,1.3664,0,0,0.2311859130859375,1.152679443359375,-0.6983489990234375,-0.681340217590332,-0.7725923657417297,0.6240521669387817
242,0.7729,1.2196,0,0,0.226104736328125,1.1739044189453125,-0.68023681640625,-0.8197222948074341,0.1454847604036331,0.700923502445221
243,0.8066,1.1103,0,0,0.059539794921875,1.1090240478515625,-0.82257080078125,-0.826904296875,0.5527516007423401,0.4249297082424164
244,0.8602,1.0389,0,0,-0.1450653076171875,1.0635528564453125,-0.8790740966796875,-0.2544221580028534,-0.1779124736785888,0.2599306404590606
245,0.9312,0.9998,0,0,-0.3195343017578125,1.15728759765625,-0.5521392822265625,-0.362413614988327,-1.3263274431228638,0.0758122056722641
246,1.0144,0.9845,0,0,-0.48602294921875,1.2479248046875,-0.06781005859375,-1.2639466524124146,-1.3543881177902222,-0.2971030473709106
247,1.1028,0.9889,0,0,-0.5474853515625,1.2589569091796875,0.4283447265625,-2.3342323303222656,0.1006552353501319,-0.5160444378852844
248,1.1892,1.017,0,0,-0.75067138671875,1.320953369140625,0.4238739013671875,-2.3406081199646,1.059351682662964,-0.7060447335243225
249,1.2682,1.0765,0,0,-0.9517974853515624,1.15167236328125,-0.3421630859375,-0.1146176606416702,0.3400808870792389,-0.65542072057724
250,1.3367,1.1695,0,0,-0.45697021484375,0.752044677734375,-0.15643310546875,1.3037867546081543,-0.8150644302368164,-0.2538330852985382
251,1.3908,1.2853,0,0,-0.2144927978515625,0.7205352783203125,0.1066436767578125,0.4149532616138458,-0.138502225279808,-0.348707914352417
252,1.4248,1.4039,0,0,-0.077606201171875,0.8228607177734375,0.4088287353515625,-1.1836602687835691,1.0765846967697144,-0.3783672749996185
253,1.4323,1.506,0,0,0.0577850341796875,0.8874053955078125,0.23333740234375,-1.8712395429611208,2.373209238052368,0.0422840751707553
254,1.4104,1.5854,0,0,0.032257080078125,0.9279022216796876,0.1347808837890625,-1.8145655393600464,2.7553369998931885,0.4654558300971985
255,1.361,1.6526,0,0,0.1031646728515625,0.9895172119140624,0.139190673828125,-1.4372315406799316,2.3905370235443115,0.8860776424407959
256,1.2907,1.7269,0,0,0.14361572265625,1.0108642578125,0.228668212890625,-1.0844199657440186,1.6293059587478638,1.2295210361480713
257,1.2089,1.8221,0,0,0.221435546875,0.9579925537109376,0.2943572998046875,-1.115155816078186,0.7254999279975891,1.3659344911575315
258,1.1258,1.9378,0,0,0.13897705078125,0.9096527099609376,0.2127532958984375,-1.2365381717681885,0.125950738787651,1.1382718086242676
259,1.0504,2.0604,0,0,0.0666046142578125,0.933868408203125,0.1313018798828125,-1.3055076599121094,-0.1443265527486801,0.486298531293869
260,0.9886,2.1689,0,0,0.07904052734375,0.890869140625,-0.4730072021484375,-1.0234251022338867,0.8180535435676575,0.0808280035853385
261,0.9434,2.2428,0,0,-0.0216827392578125,0.932373046875,-0.4787139892578125,-0.3131733536720276,2.2072229385375977,-0.0222009103745222
262,0.9158,2.2694,0,0,0.03582763671875,0.9832763671875,0.009124755859375,-0.7826838493347168,0.6010634899139404,0.0838256552815437
263,0.9046,2.2455,0,0,0.0766143798828125,0.956695556640625,0.0604248046875,-0.8837734460830688,-0.5888200998306274,0.0851361975073814
264,0.9072,2.1734,0,0,0.0837860107421875,0.90576171875,0.0414581298828125,-0.6846520900726318,-0.8712169528007507,-0.0715253129601478
265,0.9193,2.0587,0,0,0.085601806640625,0.9162750244140624,-0.039215087890625,-0.696286141872406,-0.5991260409355164,-0.0178298633545637
266,0.9362,1.91,0,0,-0.0323028564453125,0.9702606201171876,-0.1272735595703125,-0.8591040968894958,-0.1009284779429435,0.0045462823472917
267,0.9534,1.7385,0,0,-0.06890869140625,0.9586334228515624,-0.0830230712890625,-0.8882124423980713,0.0640428960323333,-0.0426358766853809
268,0.9681,1.5566,0,0,-0.039398193359375,0.9103546142578124,-0.0274200439453125,-0.7612946629524231,-0.1433537006378173,-0.1000581607222557
269,0.9784,1.3761,0,0,-0.0416107177734375,0.8544921875,0.00128173828125,-0.6135523915290833,-0.4477593898773193,-0.2022580355405807
270,0.9831,1.2074,0,0,-0.062744140625,0.8987274169921875,-0.03155517578125,-0.4509258866310119,-0.3594516515731811,-0.346496433019638
271,0.982,1.0579,0,0,-0.031402587890625,1.085418701171875,-0.005584716796875,-0.3690430223941803,0.0291179381310939,-0.3193942308425903
272,0.9762,0.9317,0,0,-0.00555419921875,1.2300872802734375,0.0215606689453125,-0.527214527130127,0.5777459144592285,-0.1974864453077316
273,0.9691,0.8303,0,0,0.0310516357421875,1.2364654541015625,0.0335845947265625,-0.6457491517066956,0.9948051571846008,-0.1821263879537582
274,0.9653,0.7552,0,0,0.1492919921875,1.171661376953125,0.0221405029296875,-0.4788451492786407,0.7389025688171387,-0.2451884448528289
275,0.9693,0.7082,0,0,0.17572021484375,1.1438446044921875,-0.14263916015625,-0.2257295250892639,0.4365773200988769,-0.2027437835931778
276,0.9831,0.688,0,0,0.1572723388671875,1.216339111328125,-0.227691650390625,0.0368464328348636,0.585785984992981,-0.0920907780528068
277,1.0069,0.6886,0,0,0.2065277099609375,1.32305908203125,-0.09832763671875,0.324459046125412,0.5135954022407532,0.1015750914812088
278,1.0393,0.701,0,0,0.2140350341796875,1.2889404296875,-0.0177459716796875,0.4995565414428711,0.1461976915597915,0.2405111342668533
279,1.0784,0.717,0,0,0.1483917236328125,1.21661376953125,-0.0150604248046875,0.8507079482078552,-0.4070721566677093,0.2534123063087463
280,1.1214,0.7316,0,0,0.0215911865234375,1.1193084716796875,-0.036224365234375,1.4086854457855225,-0.9715816378593444,0.147748976945877
281,1.164,0.7474,0,0,0.039794921875,0.9874267578125,0.062286376953125,1.9238544702529907,-1.1023457050323486,0.2945791780948639
282,1.2011,0.7752,0,0,-0.0545654296875,1.0043182373046875,0.1143341064453125,2.2424561977386475,-0.9062721133232116,0.3721221685409546
283,1.2275,0.8307,0,0,-0.17449951171875,1.188995361328125,0.215606689453125,2.2508411407470703,-0.4372071623802185,0.2210365086793899
284,1.2404,0.9272,0,0,-0.3109588623046875,1.3698272705078125,0.2017974853515625,2.1271467208862305,1.018983244895935,-0.1208523884415626
285,1.2411,1.0712,0,0,-0.482269287109375,1.415374755859375,-0.0007171630859375,2.3597474098205566,2.984771013259888,-0.5102616548538208
286,1.2347,1.264,0,0,-0.419158935546875,1.18646240234375,-0.0546722412109375,2.8136000633239746,2.639564037322998,-0.5182200074195862
287,1.2273,1.5056,0,0,-0.2740020751953125,1.0075836181640625,-0.0468597412109375,2.912317991256714,1.1236001253128052,-0.169098749756813
288,1.2221,1.7906,0,0,-0.2995758056640625,0.8433685302734375,0.0207977294921875,2.5524168014526367,-0.0918068885803222,-0.0898622423410415
289,1.2184,2.1018,0,0,-0.2435455322265625,0.756927490234375,-0.0002593994140625,1.944233536720276,-1.4488121271133425,-0.2989611327648163
290,1.212,2.4107,0,0,-0.0708160400390625,0.7990570068359375,-0.186553955078125,1.7296794652938845,-1.2986140251159668,-0.2033906728029251
291,1.1978,2.6839,0,0,0.044708251953125,0.868194580078125,-0.170623779296875,1.7217930555343628,-0.9416463375091552,0.1223959550261497
292,1.1725,2.8918,0,0,0.0787353515625,0.96356201171875,-0.0933074951171875,1.416487693786621,-1.4431164264678955,0.3811018168926239
293,1.1361,3.0148,0,0,0.0354461669921875,0.907318115234375,-0.1525726318359375,1.2942134141921997,-1.9757925271987915,0.4318254292011261
294,1.0914,3.0476,0,0,-0.047027587890625,0.7305908203125,-0.025787353515625,1.0544991493225098,-2.213789463043213,0.3122444450855255
295,1.0421,3.0004,0,0,-0.1376495361328125,0.6201019287109375,-0.0283203125,0.8591823577880859,-2.4261152744293213,0.1685554534196853
296,0.991,2.8943,0,0,-0.284759521484375,0.575653076171875,-0.1334686279296875,0.8925496339797974,-2.049156427383423,-0.0276718419045209
297,0.9394,2.7544,0,0,-0.38348388671875,0.57562255859375,-0.2458648681640625,0.864853024482727,-1.1509039402008057,-0.0961622223258018
298,0.8887,2.6,0,0,-0.415313720703125,0.52099609375,-0.325958251953125,0.3899688124656677,-0.3740763962268829,0.0691886618733406
299,0.8406,2.4387,0,0,-0.44805908203125,0.4516754150390625,-0.3848724365234375,-0.4308850765228271,0.1981221437454223,0.0069180936552584
300,0.7972,2.2676,0,0,-0.3580780029296875,0.475799560546875,-0.432403564453125,-1.1529899835586548,0.6621920466423035,-0.1677309423685073
301,0.7609,2.0827,0,0,-0.2708740234375,0.5787200927734375,-0.4976806640625,-1.4346719980239868,0.958546221256256,-0.2281221151351928
302,0.7332,1.8887,0,0,-0.1112823486328125,0.7343597412109375,-0.4676361083984375,-1.4199594259262085,0.745604932308197,-0.1122972443699836
303,0.7158,1.6993,0,0,0.019744873046875,0.9473724365234376,-0.514404296875,-1.212146282196045,0.182938665151596,0.0233873482793569
304,0.7107,1.53,0,0,0.180877685546875,1.1915435791015625,-0.6793975830078125,-0.7211089134216309,-0.654371440410614,0.2779671847820282
305,0.721,1.3913,0,0,0.36383056640625,1.32073974609375,-0.8938751220703125,-0.1607073843479156,-1.435101866722107,0.6198453903198242
306,0.7513,1.2872,0,0,0.2411651611328125,1.2643585205078125,-0.9204254150390624,-0.1017836183309555,-0.4095081388950348,0.4693941175937652
307,0.8053,1.2155,0,0,-0.130279541015625,1.146453857421875,-0.9084625244140624,-0.1314983665943145,0.2529033720493316,0.1468552201986313
308,0.8838,1.1673,0,0,-0.3658905029296875,0.98883056640625,-0.9502716064453124,0.0018508969806134,-1.1254327297210691,0.1526795625686645
309,0.9822,1.1322,0,0,-0.555755615234375,1.0894622802734375,-0.350616455078125,-0.7630289196968079,-2.205220460891724,6.471481174230576e-05
310,1.0917,1.1072,0,0,-0.5321807861328125,1.2086181640625,0.3594970703125,-2.2010655403137207,-0.7842391729354858,-0.1465486884117126
311,1.2013,1.1017,0,0,-0.5994110107421875,1.318267822265625,0.599609375,-2.9969053268432617,1.2588871717453003,-0.3414388298988342
312,1.3011,1.132,0,0,-0.7432861328125,1.2867889404296875,-0.0279083251953125,-1.6640818119049072,1.0545278787612915,-0.3591136932373047
313,1.3847,1.21,0,0,-0.628326416015625,0.953704833984375,-0.324310302734375,0.4542013108730316,-0.3273507058620453,-0.211949810385704
314,1.4475,1.3312,0,0,-0.20538330078125,0.676300048828125,-0.290985107421875,1.3190146684646606,-0.6555357575416565,-0.0506261587142944
315,1.4848,1.4734,0,0,-0.133056640625,0.7598114013671875,0.07525634765625,0.2743447422981262,0.2905290424823761,-0.2837331891059875
316,1.4917,1.6068,0,0,-0.0714569091796875,0.8519744873046875,0.4059600830078125,-1.4970219135284424,1.3069795370101929,-0.3665021061897278
317,1.4656,1.7087,0,0,0.0042266845703125,0.945831298828125,0.238616943359375,-2.1564621925354004,2.2953579425811768,0.1058950051665306
318,1.409,1.7746,0,0,0.001739501953125,0.980621337890625,0.14508056640625,-1.9839186668396,2.60829496383667,0.5806724429130554
319,1.3294,1.8197,0,0,0.0650787353515625,0.952850341796875,0.1411590576171875,-1.515419602394104,2.2724497318267822,1.0374181270599363
320,1.237,1.8677,0,0,0.1546173095703125,0.8784027099609375,0.211669921875,-1.153917908668518,1.454683542251587,1.4766391515731812
321,1.1425,1.9353,0,0,0.1454010009765625,0.87774658203125,0.2794036865234375,-1.179801344871521,0.5153980851173401,1.595496654510498
322,1.0549,2.0254,0,0,0.0427093505859375,0.9641876220703124,0.18646240234375,-1.3073654174804688,-0.3433038294315338,1.1036163568496704
323,0.9809,2.1261,0,0,-0.073211669921875,1.0103912353515625,-0.5213623046875,-0.8031318783760071,-0.277307778596878,0.0850488469004631
324,0.9257,2.2162,0,0,-0.0059661865234375,0.9374542236328124,-0.6062469482421875,0.457753986120224,1.197825908660889,-0.3359063565731048
325,0.892,2.2712,0,0,0.1443939208984375,1.0470733642578125,0.260223388671875,-0.5819931030273438,-0.1656531393527984,0.1296016722917556
326,0.8807,2.2719,0,0,0.126953125,0.9984130859375,0.2591094970703125,-1.1467292308807373,-0.9372116327285768,0.2873691916465759
327,0.8894,2.2099,0,0,0.05426025390625,0.8433074951171875,0.1405487060546875,-1.064704656600952,-0.8773155808448792,0.1626890450716018
328,0.9125,2.0907,0,0,0.0108489990234375,0.761749267578125,0.0964508056640625,-0.8168452978134155,-0.526079535484314,0.0358062013983726
329,0.9422,1.9293,0,0,-0.0082855224609375,0.795196533203125,0.132781982421875,-0.8053945302963257,-0.176085814833641,-0.0232371464371681
330,0.9701,1.7436,0,0,-0.065643310546875,0.9195098876953124,0.15435791015625,-0.9999600052833556,-0.1141803711652755,-0.1217099204659462
331,0.9899,1.5507,0,0,-0.0863189697265625,0.972137451171875,0.150787353515625,-1.271637797355652,-0.3041963875293731,-0.135533332824707
332,0.9987,1.3675,0,0,-0.136566162109375,0.997344970703125,0.1080322265625,-1.540152668952942,-0.2572139501571655,-0.1598424017429351
333,0.9976,1.2103,0,0,-0.178619384765625,1.0518341064453125,-0.1684112548828125,-1.7231330871582031,0.0002982740406878,-0.1897891014814376
334,0.9899,1.0942,0,0,-0.1634979248046875,1.04376220703125,-0.4243927001953125,-1.1420689821243286,0.6461231112480164,-0.3328242897987366
335,0.9803,1.0281,0,0,-0.0245361328125,1.0835723876953125,-0.1776123046875,-0.1834433227777481,1.2009490728378296,-0.4577260017395019
336,0.9734,1.0128,0,0,0.132659912109375,1.0921783447265625,0.0316619873046875,0.1575049310922622,1.267730712890625,-0.3506757318973541
337,0.9724,1.0403,0,0,0.1944732666015625,1.13690185546875,0.0740814208984375,-0.1746764630079269,1.2062289714813232,-0.3084036409854889
338,0.979,1.0974,0,0,0.2880706787109375,1.132415771484375,0.0397796630859375,-0.3876193761825561,0.8790375590324402,-0.1842721104621887
339,0.9933,1.168,0,0,0.290985107421875,1.1025543212890625,-0.04730224609375,-0.2555412352085113,0.4866082668304443,0.0702560544013977
340,1.0146,1.234,0,0,0.2462615966796875,1.29620361328125,-0.1600341796875,-0.0445040836930274,0.1933164596557617,0.2396882176399231
341,1.0415,1.2771,0,0,0.2332000732421875,1.3891448974609375,-0.1137542724609375,0.2933120429515838,-0.1315843909978866,0.3828397989273071
342,1.0735,1.2838,0,0,0.1788330078125,1.338897705078125,0.060699462890625,0.7727212309837341,-0.7885279059410095,0.3980682790279388
343,1.11,1.2505,0,0,0.125823974609375,1.2539520263671875,0.1000213623046875,1.1061186790466309,-1.4443025588989258,0.3927052021026611
344,1.1498,1.1885,0,0,-0.012451171875,1.188934326171875,0.1008148193359375,1.3999910354614258,-1.7272295951843262,0.305335134267807
345,1.1902,1.1209,0,0,-0.20343017578125,1.1349945068359375,-0.0279541015625,2.031475067138672,-1.0970159769058228,-0.0687513649463653
346,1.2272,1.076,0,0,-0.142059326171875,1.1817779541015625,0.1676025390625,2.454170227050781,-0.4789982736110687,-0.0649667456746101
347,1.2571,1.0778,0,0,-0.3470458984375,1.3290557861328125,0.2547760009765625,2.391833782196045,1.4026672840118408,-0.1727486103773117
348,1.278,1.1427,0,0,-0.666839599609375,1.33050537109375,0.0496368408203125,2.56857967376709,3.5518791675567627,-0.8212605714797974
349,1.2911,1.2821,0,0,-0.592254638671875,1.0767669677734375,-0.049102783203125,3.099082946777344,3.362539052963257,-1.0095332860946655
350,1.2985,1.504,0,0,-0.420806884765625,0.9119873046875,0.069122314453125,3.092472553253174,2.044877052307129,-0.6200768351554871
351,1.3011,1.807,0,0,-0.2277984619140625,0.810394287109375,-0.021759033203125,2.7411248683929443,0.5334647297859192,0.0737775489687919
352,1.297,2.171,0,0,-0.27362060546875,0.7866363525390625,0.104217529296875,2.237515449523926,-1.0646612644195557,0.0433112531900405
353,1.2824,2.5559,0,0,-0.0067138671875,0.85772705078125,-0.0534820556640625,1.6225191354751587,-1.6432439088821411,0.0517755784094333
354,1.2545,2.9123,0,0,0.14544677734375,0.9228668212890624,-0.1992034912109375,1.4641807079315186,-0.173026368021965,0.3280050456523895
355,1.2131,3.1921,0,0,0.1858673095703125,0.98345947265625,-0.1402587890625,1.2635791301727295,0.2196996062994003,0.6186770796775818
356,1.1614,3.3585,0,0,0.1178436279296875,1.0231475830078125,-0.1462860107421875,1.1590343713760376,-1.3941280841827393,0.6867072582244873
357,1.1048,3.394,0,0,0.0889129638671875,0.8650054931640625,-0.0517120361328125,1.0383260250091553,-2.2662057876586914,0.6125656366348267
358,1.0492,3.306,0,0,-0.016510009765625,0.7147674560546875,0.0016937255859375,0.8273298740386963,-2.6136891841888428,0.5219507813453674
359,0.9984,3.1249,0,0,-0.1999359130859375,0.6060791015625,-0.0107269287109375,0.6559687852859497,-2.6702725887298584,0.2309200316667556
360,0.9531,2.894,0,0,-0.3225860595703125,0.567535400390625,-0.050048828125,0.6306173801422119,-1.9317002296447756,-0.0618287473917007
361,0.912,2.6544,0,0,-0.4294891357421875,0.5253753662109375,-0.1396942138671875,0.4720383882522583,-0.8888076543807983,-0.1290117800235748
362,0.8735,2.4318,0,0,-0.488250732421875,0.430084228515625,-0.26513671875,0.0112079130485653,-0.2106176912784576,-0.0555783063173294
363,0.8368,2.2318,0,0,-0.46527099609375,0.425750732421875,-0.39300537109375,-0.6754266619682312,0.0112105766311287,0.0068073058500885
364,0.8023,2.0459,0,0,-0.4710540771484375,0.5938568115234375,-0.527130126953125,-1.3420038223266602,0.5683457255363464,-0.2017901092767715
365,0.7723,1.866,0,0,-0.35955810546875,0.782257080078125,-0.650177001953125,-1.448317289352417,0.85978102684021,-0.4172840416431427
366,0.7503,1.6928,0,0,-0.1542205810546875,0.9442596435546876,-0.6309814453125,-1.1466072797775269,0.0232360810041427,-0.2839062809944153
367,0.7412,1.5346,0,0,0.1721954345703125,1.0858306884765625,-0.643951416015625,-0.7543616890907288,-0.8384389877319336,0.1600951254367828
368,0.7495,1.3997,0,0,0.3940582275390625,1.1559295654296875,-0.731353759765625,-0.3964996635913849,-0.7592996954917908,0.7669376730918884
369,0.7785,1.2925,0,0,0.3320159912109375,1.29608154296875,-0.7329559326171875,-0.6611699461936951,0.5400067567825317,0.8544209003448486
370,0.8297,1.214,0,0,0.139617919921875,1.255950927734375,-0.8107147216796875,-0.8398086428642273,1.0510090589523315,0.3771941661834717
371,0.9025,1.163,0,0,0.1090087890625,1.087890625,-1.1235198974609375,0.3724382817745209,-1.0564059019088743,0.3271674811840057
372,0.993,1.138,0,0,-0.13446044921875,1.1510467529296875,-0.480377197265625,0.2097242027521133,-2.285449266433716,0.1038973703980445
373,1.0942,1.1387,0,0,-0.3686065673828125,1.109710693359375,0.36785888671875,-1.6638692617416382,-0.974993109703064,-0.260498970746994
374,1.1965,1.1685,0,0,-0.5846405029296875,1.2227935791015625,0.7988433837890625,-3.241827726364136,0.4657722115516662,-0.6845519542694092
375,1.2907,1.2347,0,0,-0.9492645263671876,1.44818115234375,0.3225250244140625,-2.7360317707061768,1.095964789390564,-0.9540846347808838
376,1.3711,1.3442,0,0,-0.89923095703125,1.1575469970703125,-0.5700836181640625,0.4540508389472961,-0.2574352622032165,-0.3632400035858154
377,1.4361,1.4941,0,0,-0.4315948486328125,0.7958526611328125,-0.2821807861328125,2.2093822956085205,-1.5403558015823364,0.047637827694416
378,1.4838,1.6681,0,0,-0.213623046875,0.6696014404296875,-0.12286376953125,1.7549091577529907,-0.7824900150299072,-0.2819738984107971
379,1.5095,1.8439,0,0,-0.0676422119140625,0.752349853515625,0.439666748046875,-0.4921670854091644,1.0794875621795654,-0.5892981290817261
380,1.5072,2.0012,0,0,0.0464630126953125,0.80126953125,0.29119873046875,-1.8108643293380735,2.4965617656707764,-0.1279414594173431
381,1.4736,2.1271,0,0,0.05474853515625,0.9854888916015624,0.2345123291015625,-2.3430628776550293,2.407634019851685,0.5292729139328003
382,1.411,2.2226,0,0,0.0659942626953125,1.1227569580078125,0.24969482421875,-2.386730194091797,1.7265750169754028,1.1098263263702393
383,1.3276,2.3001,0,0,0.1491241455078125,1.108489990234375,0.2484893798828125,-2.087270021438598,1.1727125644683838,1.5786616802215576
384,1.235,2.3734,0,0,0.111114501953125,0.951995849609375,0.1851806640625,-1.6952128410339355,0.980135440826416,1.6327433586120603
385,1.1449,2.4492,0,0,0.0359344482421875,0.838348388671875,0.0600433349609375,-1.1506397724151611,0.8304202556610107,1.2140851020812988
386,1.0661,2.5232,0,0,-0.1886444091796875,0.7296142578125,-0.789581298828125,0.5771533250808716,1.2275992631912231,0.2561172544956207
387,1.0033,2.5809,0,0,0.083099365234375,0.97320556640625,-0.228302001953125,0.6515615582466125,0.7411023378372192,-0.1146008819341659
388,0.9588,2.6026,0,0,0.039459228515625,1.0394287109375,0.1512908935546875,-0.8754351139068604,-0.6680744886398315,0.0197649169713258
389,0.933,2.571,0,0,0.09844970703125,1.0413818359375,0.1988677978515625,-1.5565543174743652,-1.0569812059402466,0.087256871163845
390,0.9241,2.4802,0,0,0.0396575927734375,0.88897705078125,0.1124114990234375,-1.4257876873016355,-0.9191213250160216,0.033029057085514
391,0.9288,2.3383,0,0,-0.0077972412109375,0.76251220703125,0.051025390625,-1.053289771080017,-0.4376537799835205,-0.0638748556375503
392,0.9414,2.162,0,0,0.001556396484375,0.7058868408203125,0.0452117919921875,-0.8174570202827454,0.0524253919720649,-0.0532709434628486
393,0.9552,1.968,0,0,-0.067840576171875,0.83642578125,0.0281829833984375,-0.991281032562256,0.2319235056638717,-0.0937121137976646
394,0.9641,1.7699,0,0,-0.081207275390625,1.027252197265625,-0.067230224609375,-1.366665244102478,0.0100126862525939,-0.166058212518692
395,0.9651,1.5798,0,0,-0.0817413330078125,1.0605010986328125,-0.163360595703125,-1.2998732328414917,0.1755092442035675,-0.1855381727218628
396,0.9594,1.4099,0,0,-0.0436859130859375,1.053436279296875,-0.130035400390625,-0.7982247471809387,0.5673659443855286,-0.2547036707401275
397,0.9506,1.2696,0,0,0.02392578125,1.0856170654296875,-0.04541015625,-0.4645706117153168,0.6711235046386719,-0.3313992321491241
398,0.9434,1.1627,0,0,0.1201324462890625,1.1729888916015625,-0.0625457763671875,-0.4662782251834869,0.798512876033783,-0.4003133177757263
399,0.9417,1.0874,0,0,0.224090576171875,1.1802215576171875,-0.075592041015625,-0.4382393956184387,0.7908022403717041,-0.372609794139862
400,0.9483,1.0387,0,0,0.2774200439453125,1.180419921875,-0.063568115234375,-0.2884163558483124,0.6246388554573059,-0.2501770853996277
401,0.9649,1.0093,0,0,0.25927734375,1.1407928466796875,-0.08538818359375,-0.0064736120402812,0.4181272089481354,-0.050775296986103
402,0.991,0.9896,0,0,0.2056121826171875,1.2237396240234375,-0.0593414306640625,0.1703459024429321,0.081401914358139,0.1715307384729385
403,1.0251,0.9687,0,0,0.168670654296875,1.37353515625,-0.12158203125,0.1336073279380798,0.0428127124905586,0.4072245061397552
404,1.0649,0.9369,0,0,0.061370849609375,1.301422119140625,-0.1635284423828125,0.5240485668182373,0.231340542435646,0.3740769326686859
405,1.1082,0.8904,0,0,0.0090789794921875,1.189666748046875,-0.0850067138671875,1.1743568181991575,-0.1060159131884574,0.3213034570217132
406,1.1522,0.834,0,0,-0.0777130126953125,1.075347900390625,0.0055389404296875,1.7880338430404663,-0.7897945046424866,0.2008849084377288
407,1.1931,0.7825,0,0,-0.139862060546875,1.1009979248046875,0.052001953125,2.3150439262390137,-0.8549535274505615,0.145380899310112
408,1.2263,0.7581,0,0,-0.0706634521484375,1.2106781005859375,0.0984649658203125,2.6280934810638428,-0.8907067179679871,0.3151089549064636
409,1.2489,0.7841,0,0,-0.13665771484375,1.2875213623046875,0.1878814697265625,2.4741272926330566,0.2822154462337494,0.4882053732872009
410,1.2603,0.8781,0,0,-0.365234375,1.3917083740234375,0.09527587890625,2.299257516860962,2.666369199752808,0.1058886125683784
411,1.2631,1.0481,0,0,-0.4500579833984375,1.2865142822265625,-0.09954833984375,2.649704933166504,3.5181846618652344,-0.375192791223526
412,1.2616,1.2954,0,0,-0.314910888671875,1.061614990234375,-0.0473480224609375,2.760104179382324,2.321345329284668,-0.3996278345584869
413,1.2588,1.6134,0,0,-0.1707305908203125,0.8842620849609375,-0.083526611328125,2.673197031021118,0.8604156970977783,-0.1448008567094802
414,1.2549,1.9816,0,0,-0.152587890625,0.81689453125,0.095367431640625,2.05753755569458,-1.059513807296753,-0.1292360126972198
415,1.2465,2.3642,0,0,-0.017608642578125,0.8171844482421875,-0.064422607421875,1.5441540479660034,-1.9126242399215696,-0.0528155453503131
416,1.2295,2.7172,0,0,0.054779052734375,0.844268798828125,-0.1606597900390625,1.4842931032180786,-0.8429765105247498,0.1649604588747024
417,1.2009,2.9987,0,0,0.0332183837890625,0.8558197021484375,-0.033660888671875,1.2984228134155271,-0.4218777418136596,0.235487625002861
418,1.1603,3.1763,0,0,0.0145263671875,0.9214324951171876,-0.01788330078125,1.1052848100662231,-1.527310132980347,0.2477426826953888
419,1.11,3.2337,0,0,0.0184326171875,0.8902587890625,-0.0630340576171875,1.1991132497787476,-2.3814175128936768,0.3124484419822693
420,1.0545,3.1763,0,0,-0.055145263671875,0.8055267333984375,0.0047149658203125,1.134227275848389,-2.396415948867798,0.3270143270492553
421,0.9985,3.031,0,0,-0.2124786376953125,0.6399383544921875,-0.0258636474609375,1.0413066148757937,-2.2033841609954834,0.215926706790924
422,0.9454,2.8354,0,0,-0.3595428466796875,0.55230712890625,-0.071136474609375,0.8165632486343384,-2.030280590057373,0.0449118129909038
423,0.8969,2.6259,0,0,-0.4036102294921875,0.5050811767578125,-0.1492919921875,0.451778382062912,-1.3508540391921997,0.0277488064020872
424,0.8531,2.4273,0,0,-0.4211578369140625,0.43597412109375,-0.2470245361328125,-0.0639097392559051,-0.4239802956581116,0.0465917363762855
425,0.8136,2.2471,0,0,-0.3878326416015625,0.4112091064453125,-0.40863037109375,-0.5692467093467712,0.1001210063695907,-0.0453184805810451
426,0.7786,2.0794,0,0,-0.3413543701171875,0.5876007080078125,-0.5377655029296875,-1.128232479095459,0.587576150894165,-0.1810142546892166
427,0.7491,1.9153,0,0,-0.2379302978515625,0.8321685791015625,-0.6813812255859375,-1.451838731765747,0.8930806517601013,-0.2471376210451126
428,0.7281,1.7534,0,0,-0.1329345703125,1.0389251708984375,-0.73681640625,-1.3557404279708862,0.0521779842674732,-0.188636764883995
429,0.7207,1.6005,0,0,0.079620361328125,1.1020355224609375,-0.763336181640625,-0.936667025089264,-1.0864392518997192,0.0139573607593774
430,0.7323,1.467,0,0,0.3225860595703125,1.1148529052734375,-0.7085418701171875,-0.6656054258346558,-1.1891123056411743,0.5200421214103699
431,0.7664,1.3609,0,0,0.304840087890625,1.1264801025390625,-0.6622467041015625,-0.956602156162262,0.5821313261985779,0.6769579648971558
432,0.8234,1.2869,0,0,0.0898590087890625,1.014801025390625,-0.8156890869140625,-0.843936562538147,1.2919238805770874,0.3851370215415954
433,0.8995,1.245,0,0,-0.13787841796875,1.085540771484375,-0.864837646484375,-0.1686918139457702,-0.5995928645133972,0.10679941624403
434,0.9885,1.2303,0,0,-0.26123046875,1.3588104248046875,-0.270477294921875,-0.7879635691642761,-1.6437983512878418,-0.1259504705667495
435,1.0829,1.2362,0,0,-0.40924072265625,1.3883056640625,0.3700714111328125,-2.354205846786499,-0.0703463330864906,-0.2570352554321289
436,1.1759,1.2603,0,0,-0.7786102294921875,1.477294921875,0.3187255859375,-2.4911067485809326,0.7809914350509644,-0.7892048954963684
437,1.263,1.3065,0,0,-0.8585968017578125,1.2829742431640625,-0.499603271484375,0.1889110654592514,-0.9087403416633606,-0.7825691103935242
438,1.3411,1.3786,0,0,-0.3912353515625,0.725830078125,-0.23297119140625,1.9383543729782104,-2.136859893798828,-0.2528775334358215
439,1.4063,1.4752,0,0,-0.1291656494140625,0.5386810302734375,-0.03668212890625,1.1203806400299072,-1.121726393699646,-0.5744408965110779
440,1.4505,1.5895,0,0,-0.014923095703125,0.776092529296875,0.3810882568359375,-0.6800307035446167,0.7638987302780151,-0.5786899924278259
441,1.4645,1.7096,0,0,0.0328826904296875,0.90557861328125,0.214324951171875,-1.6022732257843018,2.258806705474853,-0.074740819633007
442,1.4437,1.8235,0,0,-0.0204925537109375,1.031097412109375,0.1546173095703125,-1.8277384042739868,2.552123546600342,0.3757922649383545
443,1.3902,1.927,0,0,0.0606536865234375,1.085205078125,0.198486328125,-1.6909661293029783,1.8124414682388303,0.8697665929794312
444,1.313,2.0241,0,0,0.13018798828125,1.011505126953125,0.2864990234375,-1.5482124090194702,0.645937979221344,1.3866530656814575
445,1.2241,2.1183,0,0,0.031585693359375,0.903167724609375,0.2544097900390625,-1.5609620809555054,-0.0172682031989097,1.2851059436798096
446,1.1353,2.2069,0,0,0.03070068359375,0.8486328125,0.20697021484375,-1.6079362630844116,-0.4540119767189026,0.9045666456222534
447,1.0552,2.2816,0,0,-0.0137786865234375,0.82110595703125,0.11431884765625,-1.5339136123657229,-0.5729056000709534,0.4586804807186126
448,0.9887,2.3321,0,0,-0.06866455078125,0.8776397705078125,0.1026611328125,-1.468718409538269,-0.3037255406379699,0.3114934265613556
449,0.9378,2.3488,0,0,-0.2926025390625,0.954437255859375,-0.6744842529296875,-0.9216441512107848,0.3277176916599273,0.125655397772789
450,0.9032,2.3242,0,0,-0.133087158203125,0.972747802734375,-0.584564208984375,-0.2404147386550903,1.267120599746704,0.0921208709478378
451,0.8856,2.2549,0,0,0.058013916015625,0.971160888671875,-0.0528411865234375,-0.4705504775047302,1.3942478895187378,0.1308735907077789
452,0.8849,2.1439,0,0,0.0953369140625,1.0462799072265625,0.129608154296875,-0.6415371298789978,1.222534418106079,0.2057837843894958
453,0.8987,2.0017,0,0,0.1054840087890625,0.9599151611328124,0.128448486328125,-0.5441860556602478,0.5629584193229675,0.2680799067020416
454,0.9227,1.8408,0,0,0.080474853515625,0.83782958984375,0.1497955322265625,-0.6356752514839172,-0.2011301815509796,0.1021545976400375
455,0.9512,1.6723,0,0,0.01153564453125,0.7794342041015625,0.1242218017578125,-0.9830257296562196,-0.8079274296760559,-0.0649837926030159
456,0.9778,1.506,0,0,-0.0816192626953125,0.8907928466796875,-0.0035247802734375,-1.4757275581359863,-0.8802003264427185,-0.121246799826622
457,0.9972,1.3538,0,0,-0.10284423828125,1.045654296875,-0.1713104248046875,-1.5067020654678345,-0.3251663744449615,-0.16127410531044
458,1.0069,1.2293,0,0,-0.0650177001953125,1.130645751953125,-0.173828125,-0.8576287031173706,0.3899445831775665,-0.2511089146137237
459,1.0081,1.1417,0,0,0.0221405029296875,1.1734619140625,-0.114593505859375,-0.3322437107563019,1.0188183784484863,-0.221646100282669
460,1.0049,1.0922,0,0,0.1103363037109375,1.19842529296875,-0.01910400390625,-0.3406196236610412,1.16791033744812,-0.1271443665027618
461,1.0024,1.0752,0,0,0.148284912109375,1.1830291748046875,-0.0275115966796875,-0.298900157213211,0.8227260708808899,-0.1387741267681121
462,1.0049,1.0809,0,0,0.1547393798828125,1.103546142578125,-0.12567138671875,0.01868287473917,0.5309629440307617,-0.1660976260900497
463,1.0146,1.0965,0,0,0.2292938232421875,1.23199462890625,-0.1165771484375,0.2311602532863617,0.2344138324260711,0.0540182292461395
464,1.0321,1.1074,0,0,0.2300567626953125,1.4116058349609375,-0.132232666015625,0.467357337474823,0.1310339123010635,0.3396784663200378
465,1.0574,1.1011,0,0,0.127471923828125,1.2822418212890625,-0.0596160888671875,0.920287013053894,-0.0330556891858577,0.3855476975440979
466,1.0897,1.0727,0,0,0.03533935546875,1.10577392578125,0.0175628662109375,1.4022799730300903,-0.5936422944068909,0.3263107240200043
467,1.1266,1.0285,0,0,-0.141082763671875,0.964141845703125,-0.16082763671875,2.3156588077545166,-0.5142430663108826,0.1415691077709198
468,1.1636,0.9863,0,0,0.01629638671875,1.151214599609375,0.1260528564453125,2.814305543899536,-0.6627537608146667,0.2664993405342102
469,1.1953,0.9717,0,0,0.0717620849609375,1.3172607421875,0.2509613037109375,2.726236343383789,-0.2718773186206817,0.9384260773658752
470,1.2185,1.0102,0,0,-0.227294921875,1.5413665771484375,0.148223876953125,2.507465124130249,1.5924062728881836,0.7131985425949097
471,1.2344,1.1202,0,0,-0.4342498779296875,1.6039581298828125,-0.1338348388671875,2.698858499526977,3.944730281829834,-0.0340706184506416
472,1.2474,1.3126,0,0,-0.3413543701171875,1.2848052978515625,-0.1054229736328125,3.096101760864258,3.649977922439575,-0.4982678592205047
473,1.2621,1.5917,0,0,-0.139373779296875,0.9635772705078124,-0.0363311767578125,2.8942909240722656,1.3653331995010376,-0.2715210020542145
474,1.2794,1.9479,0,0,-0.0996856689453125,0.801666259765625,0.145294189453125,2.1340489387512207,-1.2307807207107544,-0.0807510390877723
475,1.2946,2.3506,0,0,-0.0236358642578125,0.829925537109375,-0.124298095703125,1.6712563037872314,-2.588387012481689,-0.0940726995468139
476,1.3005,2.7534,0,0,0.01934814453125,0.82818603515625,-0.2097625732421875,1.7959506511688232,-1.453485131263733,-0.0231449995189905
477,1.2904,3.1073,0,0,0.0027923583984375,0.793121337890625,-0.0337677001953125,1.530778884887695,-0.3056456744670868,-0.0116955377161502
478,1.2608,3.3697,0,0,-0.046478271484375,0.81280517578125,0.0023345947265625,1.2635527849197388,-0.9176986813545228,-0.0899133756756782
479,1.2124,3.5103,0,0,0.0424957275390625,0.813323974609375,0.0283050537109375,1.102694392204285,-2.233904838562012,0.0940439403057098
480,1.1486,3.5191,0,0,-0.0200958251953125,0.7972412109375,-0.0111083984375,1.145410656929016,-2.665140151977539,0.2834109365940094
481,1.0752,3.4111,0,0,-0.16107177734375,0.6556854248046875,0.0359344482421875,1.067775011062622,-2.346209764480591,0.1783367097377777
482,0.9984,3.2205,0,0,-0.303924560546875,0.547149658203125,-3.0517578125e-05,0.8556592464447021,-2.085369110107422,-0.0593203157186508
483,0.9234,2.987,0,0,-0.424224853515625,0.5013275146484375,-0.1360626220703125,0.5251204967498779,-1.417779564857483,-0.2284520864486694
484,0.8538,2.7429,0,0,-0.4656219482421875,0.4739532470703125,-0.304351806640625,0.0746092572808265,-0.5268433094024658,-0.1482483297586441
485,0.7928,2.505,0,0,-0.4261627197265625,0.4285736083984375,-0.4662933349609375,-0.5904585123062134,0.192374512553215,0.0394693799316883
486,0.7429,2.2761,0,0,-0.3886871337890625,0.5056610107421875,-0.5571441650390625,-1.3367880582809448,0.7460057735443115,-0.1385994255542755
487,0.7064,2.0555,0,0,-0.25616455078125,0.713836669921875,-0.64239501953125,-1.5185682773590088,1.1279547214508057,-0.2703659832477569
488,0.6855,1.8478,0,0,-0.132904052734375,0.95721435546875,-0.69140625,-1.2047797441482544,0.7357320785522461,-0.2178769409656524
489,0.6827,1.6634,0,0,-0.0487060546875,1.07501220703125,-0.6744537353515625,-0.8636248111724854,-0.3277192711830139,-0.1741185337305069
490,0.7004,1.5111,0,0,0.1558685302734375,1.1023101806640625,-0.6574249267578125,-0.7253726124763489,-1.497106909751892,0.0777355432510376
491,0.7395,1.3951,0,0,0.294708251953125,1.109771728515625,-0.66387939453125,-0.897888720035553,-1.422631025314331,0.5620867609977722
492,0.799,1.3171,0,0,0.25128173828125,1.148712158203125,-0.6956634521484375,-1.0441950559616089,0.3657937049865722,0.6771925687789917
493,0.8754,1.2764,0,0,0.1460418701171875,1.055328369140625,-0.9434661865234376,-0.3849998712539673,1.0201057195663452,0.528476893901825
494,0.9636,1.2676,0,0,-0.0321807861328125,0.9127960205078124,-0.9442901611328124,0.4202143251895904,-0.7623567581176758,0.4365799725055694
495,1.0569,1.2811,0,0,-0.3411407470703125,1.0850372314453125,-0.144775390625,-0.9339383840560912,-2.261313199996948,-0.0448316521942615
496,1.1476,1.3102,0,0,-0.530426025390625,1.1625213623046875,0.5433197021484375,-3.188389539718628,-0.8230538964271545,-0.5518139004707336
497,1.2288,1.3589,0,0,-0.6263580322265625,1.3603363037109375,0.6004638671875,-3.822031974792481,0.7665291428565979,-0.7824907898902893
498,1.2964,1.4418,0,0,-1.0763092041015625,1.54522705078125,-0.198638916015625,-1.4767353534698486,1.1351779699325562,-0.7402389645576477
499,1.3514,1.5704,0,0,-0.7505645751953125,1.1097412109375,-0.3237762451171875,1.703044056892395,-1.0342506170272827,-0.4854399263858795
500,1.3963,1.7411,0,0,-0.30322265625,0.78057861328125,-0.2362823486328125,2.594198703765869,-1.4381873607635498,-0.3961875438690185
501,1.4309,1.9363,0,0,-0.0373382568359375,0.7259674072265625,0.247894287109375,0.9017711281776428,0.0775879994034767,-0.6965348720550537
502,1.4503,2.1315,0,0,0.1113128662109375,0.9275054931640624,0.451995849609375,-1.181970238685608,2.0826525688171387,-0.3921398222446441
503,1.4482,2.3031,0,0,0.076812744140625,0.92852783203125,0.2263946533203125,-2.019242525100708,2.858616590499878,0.1558702886104583
504,1.4217,2.4375,0,0,0.1134033203125,0.9582672119140624,0.138336181640625,-2.0165414810180664,2.4956743717193604,0.7255241870880127
505,1.3721,2.5363,0,0,0.166168212890625,0.9701995849609376,0.203826904296875,-1.6816834211349487,1.2981810569763184,1.384366512298584
506,1.305,2.6085,0,0,0.065093994140625,0.878082275390625,0.21307373046875,-1.403257131576538,0.2764585018157959,1.4828814268112185
507,1.2275,2.6589,0,0,-0.0188751220703125,0.8403167724609375,0.221832275390625,-1.2514095306396484,-0.1901052296161651,1.0168853998184204
508,1.147,2.6841,0,0,-0.028411865234375,0.8711395263671875,0.175445556640625,-1.1932916641235352,-0.3948400020599365,0.3978504240512848
509,1.0699,2.6749,0,0,-0.0255279541015625,0.9136962890625,0.1325836181640625,-1.333182454109192,-0.4819703698158264,0.0583834163844585
510,1.0015,2.6219,0,0,-0.03594970703125,1.018463134765625,-0.5784759521484375,-1.0083580017089844,0.1260391622781753,0.1034307852387428
511,0.9463,2.5204,0,0,-0.0433807373046875,0.973846435546875,-0.8079681396484375,-0.0252736657857894,1.5921708345413208,0.1028121337294578
512,0.9089,2.373,0,0,0.04754638671875,0.928619384765625,-0.0788421630859375,-0.5754180550575256,0.6417861580848694,0.1161612272262573
513,0.8918,2.1891,0,0,0.12322998046875,0.9652252197265624,0.118865966796875,-0.8272113800048828,-0.2269604504108429,0.1326155662536621
514,0.8936,1.9812,0,0,0.104705810546875,0.9177703857421876,0.095306396484375,-0.629575788974762,-0.8166053295135498,0.074976772069931
515,0.9097,1.7631,0,0,0.084747314453125,0.85308837890625,0.105255126953125,-0.6487151384353638,-1.0134457349777222,-0.0626463368535041
516,0.9336,1.5499,0,0,0.071258544921875,0.8674468994140625,0.12493896484375,-1.014008641242981,-1.2078125476837158,-0.0152119761332869
517,0.9585,1.3585,0,0,-0.0401458740234375,0.9060211181640624,0.0088653564453125,-1.3291075229644775,-1.2041994333267212,0.0659827440977096
518,0.9787,1.2056,0,0,-0.1373748779296875,0.93634033203125,-0.165191650390625,-1.2843928337097168,-0.6913406252861023,-0.0216903816908597
519,0.9912,1.1032,0,0,-0.1429443359375,0.986480712890625,-0.1783905029296875,-0.7988657355308533,-0.1337391585111618,-0.1251454055309295
520,0.9956,1.0531,0,0,-0.069061279296875,1.096588134765625,-0.0152130126953125,-0.4233954846858978,0.1014485955238342,-0.1011250168085098
521,0.9938,1.0444,0,0,-0.056732177734375,1.1550140380859375,0.0023345947265625,-0.5421285033226013,0.494812935590744,-0.1524856835603714
522,0.9897,1.0587,0,0,0.1121673583984375,1.2022247314453125,-0.0396270751953125,-0.6324538588523865,1.0933088064193726,-0.1865741461515426
523,0.9876,1.0793,0,0,0.205413818359375,1.2599029541015625,-0.069091796875,-0.4193770289421081,1.179553747177124,-0.1552596241235733
524,0.9917,1.0964,0,0,0.196319580078125,1.1843414306640625,-0.175537109375,0.0252259951084852,0.854766845703125,-0.0471222400665283
525,1.0047,1.1062,0,0,0.19696044921875,1.296295166015625,-0.177276611328125,0.4456357955932617,0.5111929774284363,0.1163393929600715
526,1.0278,1.1062,0,0,0.208251953125,1.4091644287109375,-0.11456298828125,0.6542273759841919,0.2978740334510803,0.3547026813030243
527,1.0606,1.0944,0,0,0.0578460693359375,1.2690277099609375,-0.0014495849609375,0.9773348569869996,-0.1869515031576156,0.4179389178752899
528,1.1015,1.0716,0,0,-0.0341796875,1.1614837646484375,0.0019378662109375,1.4312916994094849,-0.8007696270942688,0.3296141326427459
529,1.1469,1.0444,0,0,-0.14398193359375,1.10223388671875,-0.035369873046875,2.189943552017212,-0.5562669634819031,0.2351283580064773
530,1.1916,1.0267,0,0,-0.0162506103515625,1.199249267578125,0.2132415771484375,2.481519222259521,-0.5437690019607544,0.36245197057724
531,1.2301,1.0366,0,0,-0.12799072265625,1.2851104736328125,0.273681640625,2.320946216583252,0.3256702423095703,0.502702534198761
532,1.2592,1.0911,0,0,-0.41949462890625,1.4690704345703125,0.1466217041015625,2.3212108612060547,2.3840622901916504,-0.0083844298496842
533,1.2792,1.2023,0,0,-0.563385009765625,1.4273681640625,-0.06524658203125,2.8262083530426025,3.453751564025879,-0.7667496204376221
534,1.2932,1.3798,0,0,-0.395751953125,1.1121978759765625,-0.0575408935546875,3.0828840732574463,2.635394096374512,-0.8341292142868042
535,1.304,1.6288,0,0,-0.1852874755859375,0.857757568359375,-0.0503082275390625,2.91444730758667,1.206154227256775,-0.3877000510692596
536,1.3114,1.9421,0,0,-0.1393280029296875,0.7368927001953125,0.024383544921875,2.4499638080596924,-0.3997998535633087,-0.0923453792929649
537,1.311,2.2938,0,0,-0.0787506103515625,0.7383880615234375,0.053466796875,1.5335941314697266,-2.033664464950561,-0.1216800957918167
538,1.2968,2.6436,0,0,0.040679931640625,0.8200225830078125,-0.327362060546875,1.5823928117752075,-1.742112636566162,0.0225670933723449
539,1.265,2.9483,0,0,0.037994384765625,0.821502685546875,-0.08648681640625,1.3620470762252808,-0.5866166353225708,0.0201417542994022
540,1.2154,3.1703,0,0,0.053253173828125,0.8904266357421875,-0.09735107421875,1.0445263385772705,-0.708914041519165,0.0793656632304191
541,1.1519,3.2823,0,0,0.045318603515625,0.88836669921875,0.0179443359375,0.694793164730072,-1.8983709812164309,0.2269833534955978
542,1.0808,3.2743,0,0,-0.0089569091796875,0.7940673828125,0.0596466064453125,0.4394095838069916,-2.7479851245880127,0.373549610376358
543,1.0087,3.1589,0,0,-0.1462249755859375,0.6969757080078125,0.0529022216796875,0.3540294468402862,-2.547964096069336,0.3012727499008178
544,0.9414,2.9682,0,0,-0.31732177734375,0.6209564208984375,-0.013916015625,0.4257611632347107,-1.8283964395523071,0.0455770716071128
545,0.8819,2.7403,0,0,-0.416015625,0.5946044921875,-0.0906982421875,0.5141118168830872,-0.8804876804351807,-0.1083395257592201
546,0.8319,2.5044,0,0,-0.4683074951171875,0.55303955078125,-0.23394775390625,0.3558268249034881,-0.1875781565904617,0.011061705648899
547,0.792,2.2734,0,0,-0.48736572265625,0.5218658447265625,-0.3954925537109375,-0.1458898335695266,0.0846485719084739,0.1509724706411361
548,0.7624,2.0474,0,0,-0.4323272705078125,0.54803466796875,-0.5201873779296875,-0.9362614154815674,0.5926353335380554,0.0873953625559806
549,0.7435,1.8238,0,0,-0.3112335205078125,0.70550537109375,-0.6035919189453125,-1.2851555347442627,0.9708330035209656,-0.0850595012307167
550,0.7359,1.6071,0,0,-0.198089599609375,0.8741607666015625,-0.5888214111328125,-1.1268231868743896,0.6214129328727722,-0.1734309047460556
551,0.7405,1.409,0,0,-0.052215576171875,0.9700775146484376,-0.561004638671875,-0.7809232473373413,-0.1815836429595947,-0.1274948418140411
552,0.7581,1.2417,0,0,0.087921142578125,0.9995574951171876,-0.6101531982421875,-0.4496196210384369,-0.8231114745140076,0.1277321279048919
553,0.789,1.1112,0,0,0.1894989013671875,1.0979766845703125,-0.737396240234375,-0.3707477152347564,-0.933072566986084,0.3642346858978271
554,0.8329,1.0182,0,0,0.213409423828125,1.206268310546875,-0.8222198486328125,-0.6892274022102356,0.189554750919342,0.4485543668270111
555,0.8894,0.9591,0,0,0.1131439208984375,1.1472930908203125,-0.9451446533203124,-0.5247119665145874,0.9491881728172302,0.3876140415668487
556,0.9576,0.9284,0,0,-0.057281494140625,1.123443603515625,-1.1140899658203125,0.3150191903114319,-0.4041855633258819,0.3541817665100097
557,1.0359,0.9194,0,0,-0.198638916015625,1.1984710693359375,-0.4555511474609375,-0.2784856855869293,-1.7243379354476929,0.0473440811038017
558,1.1206,0.9278,0,0,-0.368560791015625,1.2296295166015625,0.3239593505859375,-2.0826570987701416,-1.5959405899047852,-0.3472825884819031
559,1.206,0.9574,0,0,-0.6341094970703125,1.340850830078125,0.6330108642578125,-3.175199031829834,0.0599267184734344,-0.60564786195755
560,1.2862,1.0206,0,0,-0.8705902099609375,1.403076171875,0.1479949951171875,-1.9912266731262207,1.025957465171814,-0.4642800688743591
561,1.357,1.1285,0,0,-0.7648773193359375,0.9022979736328124,-0.173919677734375,0.4749675989151001,-0.0720214620232582,-0.014602112583816
562,1.4155,1.2773,0,0,-0.3616790771484375,0.584625244140625,-0.176513671875,1.5268176794052124,-0.7802311182022095,-0.0223681554198265
563,1.4561,1.4455,0,0,-0.19488525390625,0.5736846923828125,0.0914306640625,0.7565007209777832,0.1413110494613647,-0.4356156587600708
564,1.4712,1.6047,0,0,-0.0957489013671875,0.7770538330078125,0.41058349609375,-1.0933610200881958,1.299336314201355,-0.6923379898071289
565,1.4543,1.7327,0,0,0.0041046142578125,0.9014434814453124,0.21356201171875,-1.9864145517349243,2.399724006652832,-0.289830207824707
566,1.4047,1.8234,0,0,0.025543212890625,1.045867919921875,0.126312255859375,-2.0828230381011963,2.448410749435425,0.3548345267772674
567,1.3284,1.8883,0,0,0.0703125,1.1116485595703125,0.1304931640625,-1.7472312450408936,1.9128154516220093,0.9642661809921264
568,1.2368,1.9472,0,0,0.1633758544921875,1.0389404296875,0.2412261962890625,-1.369929552078247,0.8179603815078735,1.5036052465438845
569,1.1429,2.0147,0,0,0.07684326171875,0.9350128173828124,0.289764404296875,-1.4182398319244385,-0.2823147773742676,1.487918496131897
570,1.0581,2.0928,0,0,-0.0169219970703125,0.8839111328125,0.181549072265625,-1.4092676639556885,-0.5906004309654236,0.8747530579566956
571,0.9896,2.173,0,0,-0.0460968017578125,0.8568878173828125,0.06756591796875,-1.2431704998016355,-0.8129581212997437,0.2078282982110977
572,0.9401,2.2402,0,0,0.0241241455078125,0.90179443359375,0.0235748291015625,-1.094697117805481,-0.4796936213970184,-0.0266688950359821
573,0.9091,2.2783,0,0,-0.1633148193359375,0.9931488037109376,-0.8703155517578125,0.2908864319324493,1.911876082420349,-0.0901131182909011
574,0.895,2.2766,0,0,-0.0184478759765625,1.0061798095703125,-0.1218719482421875,-0.1311779916286468,1.9378728866577148,0.18150295317173
575,0.8964,2.2343,0,0,0.0252685546875,0.924163818359375,0.0265045166015625,-0.8861138224601746,0.9751182794570924,0.0974490568041801
576,0.9106,2.1579,0,0,0.0789031982421875,0.95648193359375,0.0669403076171875,-0.9951484799385072,0.1470344513654709,-0.0107506485655903
577,0.9331,2.0549,0,0,0.1318511962890625,0.9085845947265624,0.0723419189453125,-0.741945207118988,-0.4930400550365448,-0.0362565405666828
578,0.9585,1.9309,0,0,0.1141357421875,0.9113311767578124,0.1163330078125,-0.7050958871841431,-0.7840298414230347,-0.117670439183712
579,0.9817,1.7912,0,0,0.069915771484375,0.9276885986328124,0.117401123046875,-0.9146376252174376,-1.0310622453689575,-0.1584852486848831
580,0.9991,1.6439,0,0,-0.0121002197265625,0.946380615234375,0.09326171875,-1.1921110153198242,-1.134946584701538,-0.0540469884872436
581,1.0087,1.5014,0,0,-0.170745849609375,0.9584808349609376,-0.0884246826171875,-1.4302096366882324,-0.675971269607544,-0.0886944457888603
582,1.0106,1.3778,0,0,-0.2029266357421875,1.0274810791015625,-0.251220703125,-1.2714823484420776,0.29857337474823,-0.1364856660366058
583,1.0066,1.2843,0,0,-0.1642913818359375,1.111358642578125,-0.1822967529296875,-0.6579195857048035,0.9417853951454164,-0.235805869102478
584,0.9999,1.225,0,0,-0.0949859619140625,1.2175750732421875,-0.0373687744140625,-0.3269802629947662,1.192644715309143,-0.313959538936615
585,0.995,1.1973,0,0,0.091339111328125,1.2245330810546875,-0.0492095947265625,-0.283926784992218,0.9888975024223328,-0.2682993710041046
586,0.9957,1.1936,0,0,0.275604248046875,1.2143096923828125,-0.086212158203125,-0.0141296675428748,0.799778163433075,-0.0485065504908561
587,1.0051,1.2028,0,0,0.2808685302734375,1.1578826904296875,-0.023468017578125,0.3836773633956909,0.3808861076831817,0.0809680894017219
588,1.024,1.2117,0,0,0.22515869140625,1.1937103271484375,-0.0903472900390625,0.4927412569522857,0.0265000499784946,0.1208020523190498
589,1.0514,1.2072,0,0,0.2066192626953125,1.2681732177734375,-0.085357666015625,0.4694543182849884,-0.0311118457466363,0.2734400629997253
590,1.0849,1.1803,0,0,0.0721282958984375,1.2213134765625,-0.0022125244140625,0.678954005241394,-0.2778547704219818,0.4085789620876312
591,1.1215,1.1287,0,0,-0.014801025390625,1.185577392578125,-0.0055084228515625,1.0933139324188232,-0.7639176249504089,0.337386280298233
592,1.1577,1.06,0,0,-0.103912353515625,1.11956787109375,-0.07733154296875,1.891255259513855,-0.8747038245201111,0.2000153809785843
593,1.1901,0.9914,0,0,-0.11749267578125,1.104156494140625,0.1352081298828125,2.4539828300476074,-0.4931103587150574,0.171639397740364
594,1.2154,0.9472,0,0,-0.0579833984375,1.196929931640625,0.2430267333984375,2.5943145751953125,-0.2960055470466614,0.3880689144134521
595,1.2317,0.9519,0,0,-0.3331451416015625,1.3607940673828125,0.21380615234375,2.5568935871124268,1.0671390295028689,0.0936026573181152
596,1.24,1.0237,0,0,-0.6515045166015625,1.4643096923828125,0.0542449951171875,2.664271116256714,2.9665367603302,-0.904975175857544
597,1.244,1.1737,0,0,-0.5063018798828125,1.2238006591796875,-0.0452728271484375,3.0210559368133545,3.131669044494629,-1.249499797821045
598,1.2483,1.4073,0,0,-0.251953125,1.0193023681640625,0.0311431884765625,2.964143991470337,2.0042340755462646,-0.7188338041305542
599,1.2549,1.7199,0,0,-0.1646270751953125,0.8491668701171875,-0.03033447265625,2.681330442428589,0.5909397006034851,-0.0922889187932014
600,1.2615,2.0894,0,0,-0.0989227294921875,0.79949951171875,0.12103271484375,1.899364352226257,-1.524745225906372,0.0818732976913452
601,1.2622,2.4764,0,0,0.092071533203125,0.851837158203125,-0.200775146484375,1.6111218929290771,-1.986356735229492,0.3126039803028106
602,1.2514,2.8337,0,0,0.1403045654296875,0.87200927734375,-0.189910888671875,1.4456887245178225,-0.6754783391952515,0.4526247382164001
603,1.2258,3.1172,0,0,0.1101837158203125,0.88055419921875,-0.1089019775390625,1.1844781637191772,-0.5343989729881287,0.4526164829730987
604,1.1858,3.293,0,0,0.118499755859375,0.886077880859375,-0.0119781494140625,0.8868677616119385,-2.0080926418304443,0.4621569812297821
605,1.1345,3.3449,0,0,0.0107574462890625,0.7865142822265625,-0.0001678466796875,0.7130523324012756,-2.732189178466797,0.4668358862400055
606,1.0763,3.2808,0,0,-0.1342620849609375,0.675048828125,0.085968017578125,0.5260579586029053,-2.646811962127685,0.261731207370758
607,1.0154,3.1296,0,0,-0.2872772216796875,0.5919189453125,0.048065185546875,0.4375914633274078,-2.4113962650299072,0.0776194259524345
608,0.9548,2.9298,0,0,-0.4090423583984375,0.5860748291015625,-0.0369873046875,0.4618895947933197,-1.7710915803909302,-0.0340581014752388
609,0.8968,2.7153,0,0,-0.5026397705078125,0.542816162109375,-0.1216583251953125,0.3991942703723907,-0.675745964050293,0.0308785531669855
610,0.8437,2.5053,0,0,-0.546600341796875,0.4882659912109375,-0.3216400146484375,0.1395528316497802,0.050788078457117,0.1519977897405624
611,0.7977,2.3021,0,0,-0.5222930908203125,0.4881591796875,-0.49981689453125,-0.453045517206192,0.4495048224925995,0.0614356622099876
612,0.7615,2.0989,0,0,-0.381744384765625,0.6276702880859375,-0.5710296630859375,-1.192477464675903,0.9380348324775696,-0.0965228080749511
613,0.7377,1.8919,0,0,-0.2964935302734375,0.821807861328125,-0.6493377685546875,-1.2612097263336182,1.0586813688278198,-0.2524058818817138
614,0.7287,1.6877,0,0,-0.1492462158203125,0.9850006103515624,-0.6617431640625,-0.8323765993118286,0.3725248277187347,-0.2385177612304687
615,0.7364,1.4988,0,0,0.124176025390625,1.0271453857421875,-0.62481689453125,-0.4553382396697998,-0.5451911687850952,0.13168266415596
616,0.7622,1.3353,0,0,0.3544769287109375,1.07354736328125,-0.65716552734375,-0.3619800508022308,-1.0877861976623535,0.7320560812950134
617,0.8059,1.2025,0,0,0.3809661865234375,1.1581573486328125,-0.6978912353515625,-0.8088390231132507,-0.2243417650461197,1.049334168434143
618,0.8658,1.1043,0,0,0.2443695068359375,1.220672607421875,-0.84130859375,-0.9001540541648865,1.133012294769287,0.7294347286224365
619,0.9397,1.043,0,0,0.108367919921875,1.26861572265625,-1.1025543212890625,-0.0333339869976043,0.1781705319881439,0.3836608529090881
620,1.0247,1.0173,0,0,-0.0536041259765625,1.3377532958984375,-0.66943359375,-0.0955768525600433,-2.0941720008850098,0.178086906671524
621,1.1174,1.0236,0,0,-0.377349853515625,1.3352813720703125,0.206573486328125,-1.7035304307937622,-2.447039127349853,-0.3699056208133697
622,1.2126,1.0635,0,0,-0.686279296875,1.328399658203125,0.6841888427734375,-2.9612345695495605,-0.3136077225208282,-0.8904569149017334
623,1.3047,1.1455,0,0,-0.966094970703125,1.300384521484375,0.254119873046875,-1.8961243629455569,1.3264994621276855,-0.7608126401901245
624,1.3885,1.2757,0,0,-1.00860595703125,0.7594451904296875,-0.1594390869140625,0.5759586691856384,0.2567079663276672,-0.2513022720813751
625,1.4592,1.4453,0,0,-0.5879669189453125,0.4481048583984375,-0.029632568359375,1.5095505714416504,-1.636607050895691,-0.3205215632915497
626,1.5099,1.6316,0,0,-0.2633209228515625,0.471710205078125,0.0596160888671875,0.7572123408317566,-1.4318981170654297,-0.6137670278549194
627,1.5314,1.8082,0,0,-0.0982208251953125,0.7504730224609375,0.305877685546875,-0.9194486141204834,0.4371704161167145,-0.7170050144195557
628,1.5162,1.9541,0,0,0.024932861328125,0.9795379638671876,0.2194366455078125,-2.0847861766815186,2.466214179992676,-0.2005261778831482
629,1.4633,2.0605,0,0,0.0110015869140625,1.15374755859375,0.1496734619140625,-2.42598819732666,3.1312716007232666,0.4371166229248047
630,1.38,2.1368,0,0,0.0854949951171875,1.2086181640625,0.137115478515625,-2.203552007675171,2.725449562072754,1.0800862312316897
631,1.2801,2.2062,0,0,0.2003173828125,1.07269287109375,0.2256622314453125,-1.8308504819869995,1.939307451248169,1.6692054271697998
632,1.1787,2.2911,0,0,0.147064208984375,0.9358673095703124,0.2292938232421875,-1.685602784156799,1.127864956855774,1.7703850269317627
633,1.0886,2.4001,0,0,0.031982421875,0.8481597900390625,0.1536102294921875,-1.396531343460083,0.6794472336769104,1.2667828798294067
634,1.0169,2.5245,0,0,0.0046539306640625,0.84124755859375,-0.0007171630859375,-0.9303982257843018,0.0443645343184471,0.5214461088180542
635,0.9658,2.6407,0,0,-0.0679168701171875,0.9322662353515624,-1.0897674560546875,0.7767303586006165,1.7153586149215698,-0.2024106234312057
636,0.9351,2.7202,0,0,0.0706939697265625,1.0188140869140625,-0.0655975341796875,0.1536084711551666,1.0682852268218994,-0.0318332985043525
637,0.9242,2.7394,0,0,0.1021270751953125,1.010711669921875,0.1030426025390625,-0.8734238743782043,-0.1276527643203735,0.1597262769937515
638,0.9307,2.6849,0,0,0.124176025390625,0.9831390380859376,0.082427978515625,-1.0664061307907104,-0.6303460001945496,0.1943271309137344
639,0.95,2.555,0,0,0.1083221435546875,0.8867034912109375,0.05999755859375,-0.7905393838882446,-0.6954317688941956,0.0578300096094608
640,0.9759,2.3597,0,0,0.0978546142578125,0.853271484375,0.03546142578125,-0.6171441674232483,-0.6384800672531128,0.0117059247568249
641,1.0014,2.1179,0,0,0.0662078857421875,0.8493499755859375,-0.000732421875,-0.7851720452308655,-0.5601016283035278,0.0976293534040451
642,1.0208,1.8527,0,0,-0.0308837890625,0.908477783203125,-0.0296783447265625,-1.0726778507232666,-0.4574311971664428,0.0289304517209529
643,1.03,1.588,0,0,-0.061187744140625,0.935943603515625,-0.052032470703125,-1.1448612213134766,-0.3160381317138672,-0.0770926550030708
644,1.028,1.3462,0,0,-0.0622100830078125,0.928253173828125,-0.0418243408203125,-0.9818374514579772,-0.1869794726371765,-0.156063362956047
645,1.0161,1.1447,0,0,-0.05706787109375,0.9716644287109376,0.0296173095703125,-0.8186202645301819,-0.1543964892625808,-0.3083836734294891
646,0.9977,0.993,0,0,-0.0433807373046875,1.136993408203125,0.027008056640625,-0.7138387560844421,-0.0939251631498336,-0.4498819410800934
647,0.9772,0.8918,0,0,0.005706787109375,1.231964111328125,-0.040283203125,-0.6529293060302734,0.3293656408786773,-0.328043133020401
648,0.9603,0.8355,0,0,0.081451416015625,1.227081298828125,-0.0813751220703125,-0.4998348653316498,0.7786286473274231,-0.2496905177831649
649,0.9523,0.8144,0,0,0.1209259033203125,1.1752471923828125,-0.0500946044921875,-0.1733797788619995,0.6750450134277344,-0.1797500550746917
650,0.9568,0.8171,0,0,0.104644775390625,1.1606597900390625,-0.026580810546875,0.1230774596333503,0.1565954685211181,-0.0115631790831685
651,0.9745,0.8305,0,0,0.1468505859375,1.276885986328125,-0.0587310791015625,0.0890963226556778,0.1474733501672744,0.1688113957643509
652,1.0041,0.8403,0,0,0.1467132568359375,1.338775634765625,-0.059814453125,0.050586212426424,0.5281908512115479,0.3028767704963684
653,1.0429,0.8358,0,0,0.0501251220703125,1.24310302734375,-0.055938720703125,0.3976736068725586,0.6387796998023987,0.2775479853153229
654,1.0878,0.8137,0,0,-0.0258026123046875,1.1436614990234375,-0.1245880126953125,1.029889702796936,0.4870500862598419,0.1419145315885543
655,1.1346,0.7797,0,0,-0.0672760009765625,1.1210784912109375,-0.1044464111328125,1.87614905834198,0.1365503817796707,0.0383535139262676
656,1.1781,0.7485,0,0,-0.0587005615234375,1.0262298583984375,0.1099853515625,2.3462107181549072,-0.0661971271038055,0.1593166887760162
657,1.2132,0.7405,0,0,-0.07440185546875,1.0466156005859375,0.0998687744140625,2.6584393978118896,-0.1134698390960693,0.2847875356674194
658,1.2359,0.7772,0,0,-0.131622314453125,1.1310577392578125,0.167572021484375,2.52619743347168,0.2145833969116211,0.4030872583389282
659,1.2443,0.8747,0,0,-0.28289794921875,1.286590576171875,0.081298828125,2.366025447845459,1.50242817401886,0.116901583969593
660,1.2402,1.0391,0,0,-0.4041595458984375,1.357421875,-0.0046844482421875,2.433135271072388,2.873039484024048,-0.3101906180381775
661,1.2282,1.2684,0,0,-0.3406524658203125,1.2135772705078125,-0.02349853515625,2.6273794174194336,2.421107053756714,-0.4103369414806366
662,1.2143,1.5541,0,0,-0.1857757568359375,1.0178070068359375,-0.0594635009765625,2.621679306030273,1.0749386548995972,-0.1689751744270324
663,1.2022,1.8794,0,0,-0.1384429931640625,0.8531646728515625,0.075897216796875,2.261850595474243,-0.328642338514328,-0.0858392715454101
664,1.192,2.2163,0,0,0.0606689453125,0.8135986328125,-0.0347137451171875,1.6845487356185913,-1.1695122718811035,0.1379645317792892
665,1.1805,2.5284,0,0,0.1212921142578125,0.8070220947265625,-0.1496124267578125,1.6438385248184204,-0.648104727268219,0.4486520886421203
666,1.1634,2.7796,0,0,0.0790863037109375,0.851348876953125,-0.0381622314453125,1.4245754480361938,-0.7348545789718628,0.4822694361209869
667,1.1376,2.942,0,0,0.012908935546875,0.8589935302734375,-0.0388031005859375,1.270880937576294,-1.5932108163833618,0.2951200604438782
668,1.1026,3.0028,0,0,0.017547607421875,0.834991455078125,-0.04742431640625,1.168119192123413,-2.0170578956604004,0.1535863578319549
669,1.0598,2.9673,0,0,-0.0259857177734375,0.7869873046875,-0.019561767578125,1.0877718925476074,-2.178361177444458,0.1577528715133667
670,1.0122,2.8565,0,0,-0.149688720703125,0.7111663818359375,-0.004913330078125,0.8472511172294617,-2.6471009254455566,0.1131667718291282
671,0.9627,2.7019,0,0,-0.2996978759765625,0.6178741455078125,-0.137298583984375,0.6523719429969788,-2.4220058917999268,0.0086161252111196
672,0.9137,2.5361,0,0,-0.377716064453125,0.5720367431640625,-0.2250213623046875,0.4058087468147278,-1.55171000957489,-0.0172447673976421
673,0.8673,2.3826,0,0,-0.429840087890625,0.51519775390625,-0.2738494873046875,-0.0756710618734359,-0.5968210697174072,0.0563855096697807
674,0.8251,2.2484,0,0,-0.480926513671875,0.4690399169921875,-0.384307861328125,-0.6265267729759216,0.1739944368600845,-0.0554390251636505
675,0.7888,2.1253,0,0,-0.4563446044921875,0.5132598876953125,-0.48919677734375,-1.1835764646530151,0.5928587913513184,-0.2588403522968292
676,0.76,2.0016,0,0,-0.4462127685546875,0.677734375,-0.5851898193359375,-1.5823291540145874,1.0514016151428225,-0.5202716588973999
677,0.7412,1.8736,0,0,-0.290283203125,0.841400146484375,-0.66021728515625,-1.6255959272384644,0.9648060202598572,-0.4816704988479614
678,0.7352,1.7486,0,0,-0.132293701171875,0.987457275390625,-0.7490386962890625,-1.3818143606185913,-0.2561407089233398,-0.2165924906730651
679,0.745,1.6377,0,0,0.2095794677734375,1.198333740234375,-0.860809326171875,-0.9076716303825378,-1.016981601715088,0.3527769744396209
680,0.774,1.5488,0,0,0.368499755859375,1.3828887939453125,-0.8911895751953125,-0.4503083229064941,0.3185763955116272,0.8626993298530579
681,0.8248,1.4836,0,0,0.297698974609375,1.3437042236328125,-0.8008270263671875,-0.1905976384878158,1.7988049983978271,0.7364460825920105
682,0.8984,1.4398,0,0,0.288238525390625,0.8621978759765625,-1.0256805419921875,0.4483583569526672,0.2482731938362121,0.6278333067893982
683,0.9917,1.4139,0,0,0.1326751708984375,0.8303680419921875,-0.487457275390625,-0.3922016024589538,-2.2063562870025635,0.2496803998947143
684,1.0954,1.4046,0,0,-0.0972442626953125,1.0854034423828125,0.449920654296875,-2.855220317840576,-1.7549781799316406,-0.3090478479862213
685,1.1971,1.4192,0,0,-0.454071044921875,1.2907257080078125,0.766937255859375,-4.261617660522461,-0.5077196955680847,-0.7838372588157654
686,1.2858,1.475,0,0,-0.7996673583984375,1.479400634765625,0.1755523681640625,-2.559346437454224,0.5913429260253906,-1.0465043783187866
687,1.3568,1.5888,0,0,-1.073516845703125,1.3990020751953125,-0.6769561767578125,1.5493991374969482,-0.0341867320239543,-1.0153850317001345
688,1.4114,1.7619,0,0,-0.58404541015625,0.8852081298828125,-0.203399658203125,3.41980528831482,-1.2391070127487185,-0.754872739315033
689,1.4518,1.9782,0,0,-0.2613525390625,0.5946044921875,0.196441650390625,1.5225512981414795,-0.8838440179824829,-0.8909810185432434
690,1.4766,2.2126,0,0,-0.116455078125,0.734527587890625,0.455841064453125,-0.8990877270698547,1.0044881105422974,-0.7720724940299988
691,1.4801,2.4348,0,0,-0.020721435546875,0.8676300048828125,0.249969482421875,-1.9998387098312376,2.112640857696533,-0.0891908630728721
692,1.4577,2.6178,0,0,-0.0118255615234375,0.9970245361328124,0.1578521728515625,-2.318292617797852,2.153424024581909,0.6368398666381836
693,1.4091,2.7477,0,0,0.0277252197265625,1.0867156982421875,0.1701507568359375,-2.198184013366699,1.631592035293579,1.1957066059112549
694,1.3397,2.8264,0,0,0.0909423828125,1.057373046875,0.285003662109375,-2.026315689086914,1.0200186967849731,1.6182777881622314
695,1.2585,2.8637,0,0,0.0149993896484375,0.9399871826171876,0.181732177734375,-1.7246482372283936,0.4720218777656555,1.5503687858581543
696,1.1754,2.8693,0,0,-0.0201568603515625,0.8899688720703125,0.1167144775390625,-1.211387038230896,0.0841356515884399,1.0203994512557983
697,1.0983,2.8463,0,0,0.0146484375,0.85784912109375,0.078460693359375,-0.7754669785499573,-0.0506693013012409,0.4457583129405975
698,1.032,2.7894,0,0,0.057281494140625,0.8549346923828125,-0.064666748046875,-0.6355226635932922,0.0652495771646499,0.1646438091993332
699,0.9787,2.6891,0,0,-0.1327972412109375,0.909088134765625,-0.7167510986328125,0.1236295327544212,2.012571334838867,-0.0972788855433464
700,0.9393,2.541,0,0,0.0596923828125,0.9823150634765624,-0.0492095947265625,-0.4595340490341186,0.980233669281006,0.1316693425178527
701,0.9144,2.3514,0,0,0.08575439453125,1.0036773681640625,0.1582794189453125,-0.9993967413902284,-0.2615221440792084,0.1605270951986313
702,0.9038,2.1345,0,0,0.0746002197265625,0.8981475830078125,0.1173248291015625,-0.9516941905021667,-0.8754518628120422,0.0118830250576138
703,0.9054,1.9069,0,0,0.0797576904296875,0.8078460693359375,0.0882415771484375,-0.765637218952179,-1.008760929107666,-0.1024078652262687
704,0.9151,1.6857,0,0,0.0332489013671875,0.84918212890625,0.0996856689453125,-0.7725577354431152,-0.8659971356391907,-0.161948949098587
705,0.928,1.4866,0,0,-0.009735107421875,0.9416351318359376,0.1335296630859375,-0.9974989891052246,-0.7818702459335327,-0.1277790069580078
706,0.9399,1.3213,0,0,-0.0681915283203125,1.0261688232421875,0.1292724609375,-1.2902264595031738,-0.6590407490730286,-0.1131550520658493
707,0.9487,1.1978,0,0,-0.1758880615234375,1.066741943359375,-0.0544281005859375,-1.5666934251785278,-0.2309868782758712,-0.1387192606925964
708,0.9547,1.12,0,0,-0.196533203125,1.11273193359375,-0.320098876953125,-1.27505362033844,0.7026675939559937,-0.222996324300766
709,0.9602,1.088,0,0,-0.02520751953125,1.1194305419921875,-0.1979217529296875,-0.5309339165687561,1.055224895477295,-0.2564552128314972
710,0.9678,1.0962,0,0,0.099365234375,1.1499481201171875,-0.08624267578125,0.0043699811212718,1.1416995525360107,-0.2285357117652893
711,0.9798,1.1335,0,0,0.206329345703125,1.1376953125,-0.0447235107421875,-0.0009366337326355,0.8390493988990784,-0.1466411054134369
712,0.9971,1.1845,0,0,0.225921630859375,1.1075439453125,-0.0470428466796875,0.0118294954299926,0.444302350282669,-0.0308439321815967
713,1.0194,1.2311,0,0,0.237548828125,1.1045379638671875,0.0239715576171875,0.2023291289806366,-0.0798620730638504,0.1604293584823608
714,1.0451,1.2557,0,0,0.180084228515625,1.203857421875,0.0072784423828125,0.2303794175386428,-0.3376062512397766,0.2394780963659286
715,1.0723,1.2447,0,0,0.189178466796875,1.3422698974609375,-0.07635498046875,0.374106764793396,-0.2187214195728302,0.4096674025058746
716,1.1001,1.1937,0,0,0.05126953125,1.3136749267578125,-0.032562255859375,0.8403724431991577,-0.3491414785385132,0.4762578904628753
717,1.1281,1.1093,0,0,-0.029052734375,1.2336578369140625,0.050750732421875,1.431888461112976,-0.7412354946136475,0.3861876428127289
718,1.1563,1.0094,0,0,-0.10003662109375,1.116302490234375,0.08734130859375,1.8887665271759035,-1.0125585794448853,0.341978371143341
719,1.1833,0.9199,0,0,-0.216796875,1.177886962890625,0.0931854248046875,2.4103546142578125,-0.8110108375549316,0.1457625329494476
720,1.2072,0.8697,0,0,-0.3425140380859375,1.3427276611328125,0.1792755126953125,2.5765976905822754,0.0347534529864788,-0.2605413198471069
721,1.227,0.8833,0,0,-0.62579345703125,1.5160980224609375,0.2255401611328125,2.4014148712158203,2.2119481563568115,-0.928595781326294
722,1.244,0.9777,0,0,-0.645660400390625,1.2752685546875,-0.0110015869140625,2.822212219238281,3.4747393131256104,-1.402979850769043
723,1.2613,1.1636,0,0,-0.497802734375,1.0179901123046875,0.0090484619140625,3.0380992889404297,2.8717188835144043,-1.0144606828689575
724,1.28,1.4438,0,0,-0.2152557373046875,0.804412841796875,0.0091400146484375,2.8867130279541016,1.451995849609375,-0.0232675056904554
725,1.2969,1.8058,0,0,-0.23162841796875,0.6945037841796875,0.026763916015625,2.526621103286743,0.1330347508192062,0.3310439586639404
726,1.3051,2.2161,0,0,-0.091522216796875,0.7361907958984375,0.1399993896484375,1.6463632583618164,-1.7955710887908936,0.1535339057445526
727,1.2972,2.6258,0,0,0.1179656982421875,0.8351898193359375,-0.2240142822265625,1.3608289957046509,-1.535529613494873,0.274845689535141
728,1.2688,2.9825,0,0,0.17974853515625,0.9072418212890624,-0.173675537109375,1.2523424625396729,-0.1248995885252952,0.5081439018249512
729,1.2206,3.2408,0,0,0.0874176025390625,0.9914703369140624,-0.15228271484375,1.1062995195388794,-0.4999350011348724,0.4676782488822937
730,1.158,3.3699,0,0,0.065643310546875,0.9293365478515624,-0.0380859375,0.8811771273612976,-2.1320037841796875,0.3096475899219513
731,1.0888,3.3615,0,0,0.0325775146484375,0.795806884765625,-0.0097198486328125,0.6251967549324036,-2.7916173934936523,0.3781686127185821
732,1.0205,3.2342,0,0,-0.165985107421875,0.6587982177734375,0.042816162109375,0.3984797298908233,-2.360438108444214,0.33197021484375
733,0.958,3.0259,0,0,-0.353424072265625,0.575958251953125,-0.008544921875,0.2794492244720459,-1.8915154933929443,0.103620670735836
734,0.9033,2.7789,0,0,-0.4450225830078125,0.55267333984375,-0.0351715087890625,0.1967543363571167,-1.1342169046401978,-0.0456489771604537
735,0.8566,2.5252,0,0,-0.5160980224609375,0.51593017578125,-0.139068603515625,0.0903059244155883,-0.1788576245307922,-0.0356767699122428
736,0.8175,2.2796,0,0,-0.5601806640625,0.472381591796875,-0.361968994140625,-0.0559519492089748,0.3673149049282074,0.0114798219874501
737,0.7861,2.0427,0,0,-0.52227783203125,0.5796966552734375,-0.542083740234375,-0.541104793548584,0.5808253288269043,-0.0991952940821647
738,0.7636,1.8111,0,0,-0.4167633056640625,0.78387451171875,-0.67767333984375,-1.048952341079712,0.9446746110916138,-0.3597557842731476
739,0.7521,1.5871,0,0,-0.2385406494140625,0.945281982421875,-0.7575531005859375,-0.931812345981598,0.8022780418395996,-0.4463540613651275
740,0.755,1.3808,0,0,0.054168701171875,1.0028076171875,-0.706390380859375,-0.544687032699585,0.0354040637612342,-0.0771477818489074
741,0.775,1.2028,0,0,0.2255401611328125,1.0134429931640625,-0.6472015380859375,-0.3796506524085998,-0.4134040772914886,0.405116856098175
742,0.8129,1.0586,0,0,0.3022613525390625,1.1429443359375,-0.661590576171875,-0.7091851234436035,-0.015017032623291,0.6351450085639954
743,0.8673,0.9488,0,0,0.273345947265625,1.2095489501953125,-0.821807861328125,-0.941664218902588,0.8475400805473328,0.4625029265880584
744,0.9357,0.8727,0,0,0.3506011962890625,1.1051788330078125,-1.111328125,-0.0105708856135606,-0.0063321981579065,0.5345760583877563
745,1.0151,0.8293,0,0,0.158843994140625,1.14678955078125,-0.897430419921875,0.5270038843154907,-2.1593267917633057,0.4367906451225281
746,1.1017,0.819,0,0,-0.164031982421875,1.267547607421875,-0.0653839111328125,-1.1243549585342407,-2.1264102458953857,-0.0314916148781776
747,1.1905,0.8476,0,0,-0.5167236328125,1.3037872314453125,0.60394287109375,-3.1809329986572266,-0.5546411275863647,-0.5241114497184753
748,1.2754,0.9265,0,0,-0.883758544921875,1.5069580078125,0.440185546875,-3.105797052383423,0.2501328885555267,-0.8699899911880493
749,1.3522,1.0646,0,0,-1.0410614013671875,1.2248077392578125,-0.2606201171875,-0.0726009681820869,-0.0679004862904548,-0.3501244485378265
750,1.4188,1.2568,0,0,-0.6243438720703125,0.5692291259765625,0.0201873779296875,1.7430860996246338,-1.4592809677124023,-2.663161103555467e-05
751,1.472,1.4797,0,0,-0.2991790771484375,0.4687042236328125,-0.00555419921875,1.6432380676269531,-1.236419677734375,-0.20366071164608
752,1.5042,1.7029,0,0,-0.1803131103515625,0.6328277587890625,0.35443115234375,-0.0959347859025001,0.1308530867099762,-0.6888697743415833
753,1.5063,1.8977,0,0,-0.004791259765625,0.8662109375,0.2827301025390625,-1.4211503267288208,1.8286726474761963,-0.5210237503051758
754,1.4731,2.0444,0,0,0.007415771484375,0.998779296875,0.1611175537109375,-1.9012326002120967,2.7725744247436523,0.1967663168907165
755,1.407,2.14,0,0,0.0009307861328125,1.14263916015625,0.138519287109375,-1.9157017469406128,2.874480962753296,0.8427815437316895
756,1.3175,2.2007,0,0,0.1000518798828125,1.1428680419921875,0.2111358642578125,-1.6704938411712646,2.259307622909546,1.4075969457626345
757,1.2183,2.2509,0,0,0.1000518798828125,0.9889678955078124,0.330657958984375,-1.6603200435638428,1.123000979423523,1.6993420124053955
758,1.123,2.3093,0,0,-0.0265960693359375,0.8892822265625,0.19268798828125,-1.6507947444915771,0.2807736098766327,1.3029686212539673
759,1.0419,2.3803,0,0,-0.024749755859375,0.833953857421875,0.0990142822265625,-1.441609025001526,-0.4181908667087555,0.7188681364059448
760,0.9796,2.4539,0,0,-0.0177001953125,0.8506011962890625,0.0538482666015625,-1.2073485851287842,-0.822639524936676,0.1459691971540451
761,0.9368,2.5112,0,0,-0.116729736328125,0.953826904296875,-1.000091552734375,0.0222919899970293,1.0341448783874512,-0.1691368222236633
762,0.9125,2.5313,0,0,0.025726318359375,1.0211181640625,-0.126251220703125,-0.1439928561449051,1.1979920864105225,0.0535218156874179
763,0.9057,2.4978,0,0,0.0667572021484375,0.9626312255859376,0.084625244140625,-0.7999739050865173,0.3700765967369079,0.1693898290395736
764,0.9144,2.4033,0,0,0.054656982421875,0.9914093017578124,0.0979156494140625,-0.9159561395645142,-0.078241541981697,0.0665595829486846
765,0.9344,2.2499,0,0,0.0909576416015625,0.9271087646484376,0.0897674560546875,-0.76847243309021,-0.3247040510177612,-0.0413562282919883
766,0.9599,2.0486,0,0,0.088653564453125,0.861907958984375,0.07257080078125,-0.9024795293807985,-0.4667024612426758,0.0189254879951477
767,0.9853,1.8167,0,0,-0.015533447265625,0.8530426025390625,-0.004180908203125,-1.1430548429489136,-0.4826497435569763,-0.0219340603798627
768,1.0051,1.5764,0,0,-0.1027984619140625,0.917724609375,-0.0809326171875,-1.1957582235336304,-0.4045631885528564,-0.1734881699085235
769,1.0161,1.3506,0,0,-0.1096954345703125,0.9748687744140624,-0.148101806640625,-0.9337593913078308,-0.0846488401293754,-0.2702314853668213
770,1.0172,1.1583,0,0,-0.0550994873046875,1.0410614013671875,-0.1198883056640625,-0.601167619228363,0.1123116239905357,-0.2661195695400238
771,1.0104,1.0098,0,0,0.0372772216796875,1.1224212646484375,-0.0261993408203125,-0.4204958081245422,0.3295845687389374,-0.2500756084918976
772,0.9995,0.9053,0,0,0.1625518798828125,1.170074462890625,0.0277862548828125,-0.4589928686618805,0.5207896828651428,-0.1542428284883499
773,0.9893,0.8382,0,0,0.13885498046875,1.1804046630859375,-0.0441741943359375,-0.5354841947555542,0.7829291224479675,-0.1450357586145401
774,0.9844,0.8003,0,0,0.0980987548828125,1.16143798828125,-0.1033172607421875,-0.3563847541809082,0.8176804780960083,-0.0452076904475688
775,0.988,0.7839,0,0,0.022796630859375,1.10357666015625,-0.1220703125,-0.0159739069640636,0.6845354437828064,-0.0189952626824378
776,1.0007,0.7825,0,0,0.0390472412109375,1.1004638671875,-0.139190673828125,0.2414461821317672,0.4616698920726776,-0.0281743798404932
777,1.0214,0.7885,0,0,0.0934906005859375,1.228607177734375,-0.054107666015625,0.3182658553123474,0.2004902213811874,0.0580151006579399
778,1.0476,0.7937,0,0,0.11895751953125,1.25079345703125,-0.1152191162109375,0.4243108034133911,0.2484446913003921,0.1538079380989074
779,1.0768,0.791,0,0,0.0936737060546875,1.200897216796875,-0.120819091796875,0.9277307987213136,0.1565989255905151,0.1604727655649185
780,1.1072,0.7786,0,0,0.0461273193359375,1.1099090576171875,-0.0797576904296875,1.6369985342025757,-0.1929561346769333,0.1333732306957245
781,1.1364,0.7628,0,0,0.0315704345703125,1.044921875,0.111083984375,2.1543538570404053,-0.256092220544815,0.2677488923072815
782,1.1617,0.759,0,0,0.0829620361328125,1.1778717041015625,0.1606597900390625,2.501750946044922,-0.5668501257896423,0.5685862302780151
783,1.1809,0.7874,0,0,-0.066131591796875,1.3314361572265625,0.2270050048828125,2.52493667602539,-0.0223244801163673,0.6899747252464294
784,1.1936,0.8665,0,0,-0.3098297119140625,1.4607696533203125,0.1526336669921875,2.3558061122894287,1.7001996040344238,0.1350923031568527
785,1.2024,1.0086,0,0,-0.55419921875,1.49041748046875,-0.1307373046875,2.6797754764556885,3.429636716842652,-0.7184739708900452
786,1.212,1.2198,0,0,-0.34906005859375,1.2415771484375,-0.05743408203125,2.930187463760376,2.8348934650421143,-0.7549792528152466
787,1.2261,1.5012,0,0,-0.1908721923828125,0.9822235107421876,-0.0234222412109375,2.7490038871765137,1.1448538303375244,-0.2590669691562652
788,1.2445,1.8421,0,0,-0.1716461181640625,0.8100738525390625,0.0034332275390625,2.281225204467773,-0.3760279715061188,0.0368738621473312
789,1.2622,2.2141,0,0,-0.0864410400390625,0.7718505859375,0.0384063720703125,1.5080740451812744,-2.0727627277374268,-0.025906965136528
790,1.2713,2.5763,0,0,0.053802490234375,0.7884063720703125,-0.23779296875,1.4675657749176023,-1.808258891105652,0.1646579205989837
791,1.2646,2.8863,0,0,0.0171966552734375,0.8100433349609375,-0.07012939453125,1.302343249320984,-0.6607550382614136,0.146777719259262
792,1.2383,3.1091,0,0,0.0336151123046875,0.842071533203125,0.0076141357421875,1.0512250661849976,-1.0305708646774292,0.0757637396454811
793,1.1929,3.2213,0,0,0.08343505859375,0.9111480712890624,0.0419158935546875,0.7735292315483093,-2.338560104370117,0.1977684646844864
794,1.1327,3.2174,0,0,0.0286865234375,0.8320770263671875,0.0189971923828125,0.6614701151847839,-2.546278238296509,0.4063794612884521
795,1.0641,3.1132,0,0,-0.133636474609375,0.7210540771484375,0.0744781494140625,0.4993554949760437,-2.3877711296081543,0.3938522338867187
796,0.9939,2.9409,0,0,-0.3006591796875,0.6341094970703125,0.0207672119140625,0.3431493639945984,-2.2499141693115234,0.2529249489307403
797,0.9272,2.7366,0,0,-0.390380859375,0.5654754638671875,-0.081451416015625,0.1993991285562515,-1.61664879322052,0.1816110759973526
798,0.8674,2.5296,0,0,-0.4456939697265625,0.5306549072265625,-0.241912841796875,-0.0224592369049787,-0.7836093306541443,0.3330450654029846
799,0.8165,2.3349,0,0,-0.4714202880859375,0.482879638671875,-0.359466552734375,-0.5406193137168884,-0.0640498250722885,0.3373585939407348
800,0.7754,2.154,0,0,-0.4765167236328125,0.5037078857421875,-0.4073333740234375,-1.2674622535705566,0.7324143052101135,0.1337684541940689
801,0.7453,1.9831,0,0,-0.4642181396484375,0.7137603759765625,-0.4352874755859375,-1.5368239879608154,1.2916083335876465,-0.1553262025117874
802,0.727,1.8232,0,0,-0.3722076416015625,0.9138336181640624,-0.56744384765625,-1.143013596534729,1.22200345993042,-0.3111757338047027
803,0.7224,1.6812,0,0,-0.1538238525390625,1.0264434814453125,-0.797698974609375,-0.2585652470588684,0.0394366234540939,-0.3564744889736175
804,0.7342,1.5619,0,0,0.3094024658203125,1.104705810546875,-0.817169189453125,0.4596687853336334,-0.77623450756073,0.1284911334514618
805,0.7651,1.4628,0,0,0.45037841796875,1.25390625,-0.593841552734375,0.1776789128780365,-0.0295208748430013,0.6328187584877014
806,0.8168,1.3762,0,0,0.2914886474609375,1.278656005859375,-0.62945556640625,-0.4215680062770843,0.5586142539978027,0.5387377738952637
807,0.8885,1.2944,0,0,0.1923065185546875,1.0293121337890625,-1.112884521484375,0.2384442687034607,0.1155939772725105,0.3904441893100738
808,0.9765,1.2123,0,0,0.3347625732421875,0.73272705078125,-1.04144287109375,0.6721147298812866,-0.5932694673538208,0.7907662987709045
809,1.0743,1.1296,0,0,0.09619140625,0.795318603515625,-0.2977142333984375,-0.8107247948646545,-1.245686173439026,0.3102023303508758
810,1.1717,1.0534,0,0,-0.2202911376953125,1.2105712890625,0.426727294921875,-3.1638708114624023,-1.1482282876968384,-0.5114589929580688
811,1.2578,1.0031,0,0,-0.52374267578125,1.4674835205078125,0.570465087890625,-4.215236663818359,-0.9535813331604004,-1.024137020111084
812,1.3258,1.0088,0,0,-0.8357696533203125,1.6241912841796875,-0.0072479248046875,-2.4779717922210693,-0.4803008437156677,-1.09010112285614
813,1.376,1.0968,0,0,-1.0881805419921875,1.424713134765625,-0.3893585205078125,0.968640923500061,-0.1712985187768936,-0.8439573645591736
814,1.4137,1.2714,0,0,-0.680633544921875,0.8381805419921875,-0.300506591796875,2.9072070121765137,-0.7719228267669678,-0.5623642802238464
815,1.4434,1.512,0,0,-0.2154541015625,0.4743804931640625,-0.0587615966796875,2.078650712966919,-0.6357591152191162,-0.3643582463264465
816,1.4629,1.7852,0,0,-0.19580078125,0.6003875732421875,0.51495361328125,-0.7970423102378845,0.5543995499610901,-0.6242449283599854
817,1.465,2.0536,0,0,-0.0487213134765625,0.874481201171875,0.3550872802734375,-2.22097396850586,1.568895936012268,-0.3397024273872375
818,1.443,2.2847,0,0,0.0139923095703125,1.0399169921875,0.1858367919921875,-2.549443483352661,1.9823564291000368,0.4671546816825866
819,1.3956,2.4609,0,0,0.0675506591796875,1.129730224609375,0.188232421875,-2.289685010910034,1.5079926252365112,1.2129780054092407
820,1.3283,2.5827,0,0,0.0440216064453125,1.0418548583984375,0.23370361328125,-1.7726706266403198,0.7138144969940186,1.608432054519653
821,1.25,2.6588,0,0,0.0350189208984375,0.908538818359375,0.2328033447265625,-1.385916233062744,0.2101439088582992,1.489043116569519
822,1.1703,2.6968,0,0,-0.0831756591796875,0.8214569091796875,0.1565399169921875,-1.0121668577194214,-0.0168391671031713,0.8851290345191956
823,1.0963,2.6973,0,0,-0.02117919921875,0.89404296875,0.1294403076171875,-0.8304175734519958,0.0441163294017314,0.271595299243927
824,1.0322,2.6541,0,0,0.0886688232421875,0.9212799072265624,0.139404296875,-0.8838562965393066,-0.0507297553122043,0.1231951713562011
825,0.9805,2.5603,0,0,-0.1912994384765625,0.947509765625,-1.0104827880859375,0.2403889000415802,1.6592934131622314,-0.0133251268416643
826,0.9435,2.4153,0,0,-0.0206146240234375,1.017120361328125,-0.15118408203125,0.0178194772452116,1.5516724586486816,0.1577118635177612
827,0.9235,2.23,0,0,0.044403076171875,0.9998931884765624,0.05279541015625,-0.8716251850128174,0.2221694141626358,0.2813123762607574
828,0.9206,2.022,0,0,0.0820159912109375,0.9886474609375,0.0706329345703125,-1.1692723035812378,-0.4707483351230621,0.2332276552915573
829,0.9319,1.8094,0,0,0.1285247802734375,0.919525146484375,0.0531005859375,-0.9291713237762452,-0.8853843808174133,0.2304401248693466
830,0.9524,1.6088,0,0,0.1194305419921875,0.8560333251953125,0.0500946044921875,-0.6871727705001831,-0.9308131337165833,0.1587068289518356
831,0.9759,1.4333,0,0,0.05035400390625,0.869659423828125,0.05230712890625,-0.788499116897583,-0.9446735382080078,0.0368719957768917
832,0.9964,1.2918,0,0,-0.05694580078125,0.9193115234375,-0.085418701171875,-1.0348823070526123,-0.8003326058387756,0.0266899336129426
833,1.0098,1.1884,0,0,-0.1687469482421875,0.9162445068359376,-0.1954803466796875,-0.929106056690216,-0.2202356904745102,-0.0748334974050521
834,1.0141,1.1218,0,0,-0.1510009765625,0.9835357666015624,-0.099822998046875,-0.5272009372711182,0.2176335155963897,-0.161848559975624
835,1.01,1.0845,0,0,-0.0381622314453125,1.04241943359375,0.0698699951171875,-0.3374129235744476,0.3085543811321258,-0.1585387736558914
836,1.0001,1.0638,0,0,0.01068115234375,1.058074951171875,0.13421630859375,-0.4194217622280121,0.3368198275566101,-0.2330830544233322
837,0.9883,1.046,0,0,0.079132080078125,1.1455535888671875,0.1513214111328125,-0.6522893905639648,0.3147779107093811,-0.1443670392036438
838,0.9786,1.021,0,0,0.04827880859375,1.2355499267578125,0.0577392578125,-0.826218843460083,0.4346233606338501,0.0010753844399005
839,0.9749,0.9855,0,0,-0.0095062255859375,1.1385955810546875,-0.106689453125,-0.6507527232170105,0.8326090574264526,0.023232351988554
840,0.9799,0.9426,0,0,-0.0649871826171875,1.062255859375,-0.2285919189453125,-0.2139152139425277,1.0805150270462036,-0.0310023911297321
841,0.9942,0.8996,0,0,-0.0513458251953125,1.1065216064453125,-0.1896514892578125,0.1978166699409485,0.9397491216659546,-0.0544560514390468
842,1.0162,0.8641,0,0,0.102508544921875,1.2821044921875,-0.033203125,0.4977940618991852,0.6085234880447388,0.0049598710611462
843,1.0437,0.8408,0,0,0.189971923828125,1.2735748291015625,-0.056488037109375,0.7005985975265503,0.5788761377334595,0.1244194209575653
844,1.0745,0.8307,0,0,0.1952056884765625,1.161102294921875,-0.0445709228515625,1.0346442461013794,0.4137010276317596,0.2197454124689102
845,1.1068,0.8336,0,0,0.166778564453125,1.11199951171875,-0.0600128173828125,1.5489554405212402,0.004335360135883,0.3130537867546081
846,1.1383,0.8507,0,0,0.0712890625,1.0257720947265625,0.0481719970703125,2.0551788806915283,-0.6698787808418274,0.2557151317596435
847,1.1657,0.8878,0,0,0.0250701904296875,1.108001708984375,0.0184783935546875,2.457298755645752,-0.6797202229499817,0.4135401844978332
848,1.1858,0.9543,0,0,-0.0216827392578125,1.2070159912109375,0.1764373779296875,2.570582151412964,-0.0814402624964714,0.6436769962310791
849,1.1974,1.0603,0,0,-0.2107391357421875,1.3777618408203125,0.2148590087890625,2.221705436706543,1.5625817775726318,0.3329153656959533
850,1.2019,1.2126,0,0,-0.4080657958984375,1.5086517333984375,0.0100250244140625,2.223698854446411,3.7226693630218506,-0.2088019549846649
851,1.2037,1.4158,0,0,-0.3936920166015625,1.3149871826171875,-0.1157073974609375,2.8705222606658936,3.564235210418701,-0.4472110569477081
852,1.208,1.6741,0,0,-0.2381591796875,1.04180908203125,-0.03363037109375,2.8438963890075684,1.7943782806396484,-0.2183986455202102
853,1.217,1.9847,0,0,-0.2440948486328125,0.8412933349609375,0.0514068603515625,2.351396083831787,-0.2306332141160965,-0.1394095569849014
854,1.2284,2.3279,0,0,-0.1553955078125,0.8039703369140625,0.0439910888671875,1.6555708646774292,-1.9905991554260252,-0.2997497022151947
855,1.236,2.6683,0,0,0.093475341796875,0.8479156494140625,-0.3192291259765625,1.7167249917984009,-1.8198684453964236,0.090582899749279
856,1.2335,2.966,0,0,0.0909576416015625,0.88519287109375,-0.0770416259765625,1.5939445495605469,-0.9483290314674376,0.3398254811763763
857,1.2168,3.1866,0,0,0.069854736328125,0.8900146484375,-0.099578857421875,1.2766815423965454,-1.0353797674179075,0.3118271231651306
858,1.1852,3.3064,0,0,0.0445556640625,0.8182373046875,-0.0731048583984375,1.104313611984253,-1.669624924659729,0.2933541238307953
859,1.1405,3.3163,0,0,-0.01507568359375,0.6748809814453125,-0.003143310546875,0.8661920428276062,-2.372529983520508,0.3013563752174377
860,1.086,3.2258,0,0,-0.1169281005859375,0.6036224365234375,0.0245819091796875,0.5786257982254028,-2.7496278285980225,0.2284502238035202
861,1.0246,3.0614,0,0,-0.2816619873046875,0.57672119140625,-0.010406494140625,0.349565178155899,-2.464395523071289,-0.0495592951774597
862,0.9592,2.8582,0,0,-0.4176177978515625,0.5514678955078125,-0.0706634521484375,0.1880647093057632,-1.5360628366470337,-0.2918198704719543
863,0.8928,2.6468,0,0,-0.467315673828125,0.5339508056640625,-0.1190185546875,-0.1257818937301635,-0.5625602602958679,-0.2350458055734634
864,0.8292,2.4428,0,0,-0.4880828857421875,0.5667572021484375,-0.2431640625,-0.5875652432441711,0.1723760366439819,-0.0685857161879539
865,0.7728,2.2472,0,0,-0.466278076171875,0.6778411865234375,-0.4138641357421875,-1.0614880323410034,0.603649914264679,-0.0654644966125488
866,0.7281,2.0553,0,0,-0.4297637939453125,0.8650970458984375,-0.591156005859375,-1.3116248846054075,1.0519675016403198,-0.2374836653470993
867,0.6998,1.8676,0,0,-0.2201080322265625,1.0248870849609375,-0.714813232421875,-1.0414581298828125,1.2210588455200195,-0.2096054255962371
868,0.6929,1.6917,0,0,-0.0443115234375,1.1233062744140625,-0.757415771484375,-0.3423054218292236,0.7096482515335083,0.0241934861987829
869,0.7109,1.5361,0,0,0.1688385009765625,1.0537872314453125,-0.716644287109375,0.1925955414772033,-0.35232874751091,0.2924861907958984
870,0.7548,1.4036,0,0,0.35552978515625,0.9854583740234376,-0.6486968994140625,0.0817265510559082,-1.3014745712280271,0.6274971961975098
871,0.8216,1.293,0,0,0.4330291748046875,1.0030975341796875,-0.63275146484375,-0.7219587564468384,-0.9413749575614928,0.7798784971237183
872,0.9048,1.2048,0,0,0.2642059326171875,1.095123291015625,-0.60198974609375,-1.355676531791687,0.3340930342674255,0.4985083341598511
873,0.9961,1.1418,0,0,0.0911712646484375,1.0300750732421875,-0.91046142578125,-0.6467683911323547,0.1334158480167389,0.336785227060318
874,1.0871,1.1045,0,0,-0.0029144287109375,0.870941162109375,-0.927947998046875,0.3632764816284179,-1.1370654106140137,0.5163605809211731
875,1.1709,1.09,0,0,-0.2984619140625,1.0206146240234375,-0.2796630859375,-0.6822696328163147,-1.4620472192764282,0.0919797271490097
876,1.2414,1.0955,0,0,-0.420166015625,1.0766448974609375,0.3922576904296875,-2.509096384048462,-0.6243110299110413,-0.4519283175468445
877,1.2943,1.1238,0,0,-0.5953216552734375,1.3194427490234375,0.6921539306640625,-3.455012321472168,-0.029150428250432,-0.7634233236312866
878,1.3292,1.1857,0,0,-0.9726409912109376,1.513519287109375,0.1713409423828125,-2.014112710952759,0.3556166887283325,-0.9046409130096436
879,1.3505,1.2917,0,0,-0.822967529296875,1.2953643798828125,-0.4637451171875,1.4014781713485718,-0.7298464775085449,-0.5194154977798462
880,1.3653,1.4415,0,0,-0.3455657958984375,0.7845611572265625,-0.2830352783203125,3.040268898010254,-0.9771817326545716,-0.2976649701595306
881,1.3776,1.6235,0,0,-0.1209869384765625,0.623748779296875,0.2089080810546875,1.50307297706604,0.4202380180358886,-0.74224454164505
882,1.3845,1.8206,0,0,-0.0324554443359375,0.782135009765625,0.4335174560546875,-0.6316924691200256,2.458170890808105,-0.7340034246444702
883,1.3793,2.0154,0,0,0.01507568359375,0.8341217041015625,0.2184906005859375,-1.5622742176055908,3.14477801322937,-0.0581703633069992
884,1.3559,2.1961,0,0,-0.008331298828125,1.0101776123046875,0.210205078125,-1.8393052816390991,2.4722204208374023,0.6550992727279663
885,1.3131,2.3594,0,0,0.041656494140625,1.1195220947265625,0.2490386962890625,-1.778591871261597,1.270262360572815,1.198802471160889
886,1.2549,2.5044,0,0,0.0658721923828125,1.0330810546875,0.35870361328125,-1.884396314620972,0.2337501794099807,1.481335163116455
887,1.189,2.627,0,0,-0.0877532958984375,0.8692169189453125,0.2236328125,-1.850821614265442,-0.509418785572052,1.0122829675674438
888,1.1232,2.7191,0,0,-0.0241546630859375,0.8040924072265625,0.1259002685546875,-1.5528013706207275,-0.7686351537704468,0.4615271389484405
889,1.0631,2.771,0,0,0.0166473388671875,0.798492431640625,0.0944061279296875,-1.2540106773376465,-0.3694092035293579,0.1098553910851478
890,1.0109,2.7727,0,0,-0.009185791015625,0.8727874755859375,0.0678863525390625,-1.177685022354126,0.0371670760214328,0.0593208484351635
