id,ASVM,GSVM,walking_nonwalking,normal_abnormal,ax,ay,az,gx,gy,gz
1,0.7427,1.0425,0,0,0.185150146484375,0.7474822998046875,0.076507568359375,-1.1513808965682983,-0.08958234637975693,-0.1274586170911789
2,0.7589,0.9378,0,0,0.1892547607421875,0.74371337890625,0.119598388671875,-0.8791656494140625,-0.1090971902012825,-0.1316022276878357
3,0.7789,0.8508,0,0,0.177581787109375,0.7808837890625,0.1391448974609375,-0.6864950060844421,-0.21002140641212463,-0.190976083278656
4,0.803,0.7831,0,0,0.222930908203125,0.7812957763671875,0.1961822509765625,-0.3807920813560486,-0.24265551567077637,-0.2039768397808075
5,0.8316,0.7344,0,0,0.2478790283203125,0.7848358154296875,0.234710693359375,-0.07553710043430328,-0.1393621563911438,-0.13471919298171997
6,0.8649,0.7025,0,0,0.2864532470703125,0.7603912353515625,0.2556304931640625,0.20636196434497833,-0.11766751110553741,-0.109172023832798
7,0.9027,0.6834,0,0,0.2952423095703125,0.74542236328125,0.30743408203125,0.47820067405700684,-0.0005153216770850122,-0.03440777584910393
8,0.9442,0.672,0,0,0.2436370849609375,0.7698822021484375,0.3596343994140625,0.7638816833496094,0.2489112913608551,0.04711398109793663
9,0.9882,0.6631,0,0,0.1885223388671875,0.7952880859375,0.3988037109375,0.9974119067192078,0.38679832220077515,0.07494401931762695
10,1.0329,0.6527,0,0,0.1334228515625,0.8267364501953125,0.4714813232421875,0.9974119067192078,0.38679832220077515,0.07494401931762695
11,1.0762,0.6388,0,0,0.0585784912109375,0.8606109619140625,0.5811614990234375,1.1161094903945923,0.34998568892478943,0.020171314477920532
12,1.1158,0.622,0,0,-0.00360107421875,0.942779541015625,0.6896820068359375,0.8263181447982788,0.20289185643196106,-0.13639965653419495
13,1.1494,0.6055,0,0,-0.0029449462890625,1.0092926025390625,0.7064361572265625,0.44207167625427246,0.12581013143062592,-0.3013308048248291
14,1.1751,0.5946,0,0,0.0565643310546875,1.047821044921875,0.6405029296875,0.08878979086875916,0.04523352533578873,-0.3577200472354889
15,1.1918,0.5952,0,0,0.043304443359375,1.1121673583984375,0.5063323974609375,-0.005204349290579557,0.024080835282802582,-0.3737584054470062
16,1.199,0.6129,0,0,0.04876708984375,1.1279144287109375,0.6067962646484375,0.1672941893339157,0.002784601179882884,-0.48984694480895996
17,1.1972,0.6518,0,0,0.113677978515625,1.0272064208984375,0.7623748779296875,0.14488954842090607,-0.11570795625448227,-0.5241537690162659
18,1.1875,0.7132,0,0,0.2087249755859375,0.9642333984375,0.567352294921875,0.14488954842090607,-0.11570795625448227,-0.5241537690162659
19,1.1716,0.7956,0,0,0.366546630859375,0.9441680908203125,0.1351776123046875,0.07423374801874161,0.17047587037086487,-0.026613768190145493
20,1.1514,0.8945,0,0,0.374725341796875,0.9929962158203125,-0.19378662109375,0.53086256980896,0.34052616357803345,0.29932519793510437
21,1.1289,1.0028,0,0,0.364410400390625,1.1494293212890625,-0.3509368896484375,1.2180713415145874,-0.0334991030395031,0.5412334203720093
22,1.1059,1.112,0,0,0.3424530029296875,1.1305999755859375,0.0547027587890625,0.9515421390533447,-1.3108177185058594,0.4782342314720154
23,1.0836,1.2134,0,0,0.1857757568359375,0.9249267578125,0.3902435302734375,0.20331424474716187,-1.627028465270996,0.13905829191207886
24,1.0628,1.2988,0,0,0.0576324462890625,0.83551025390625,0.2761383056640625,0.24392318725585938,-0.229196697473526,0.1987421214580536
25,1.0438,1.3622,0,0,0.0115203857421875,0.90826416015625,-0.06182861328125,0.6491942405700684,1.0241929292678833,0.23728418350219727
26,1.0262,1.3999,0,0,0.062835693359375,1.0214996337890625,-0.2302093505859375,1.288861870765686,1.452821969985962,0.2215781956911087
27,1.0095,1.4115,0,0,0.0139617919921875,1.1053619384765625,-0.200592041015625,1.6886228322982788,0.87449049949646,-0.016527844592928886
28,0.993,1.3994,0,0,-0.0439910888671875,1.1275482177734375,-0.03338623046875,1.5154635906219482,0.19336946308612823,-0.4088681936264038
29,0.9763,1.3689,0,0,-0.0289764404296875,1.077789306640625,0.068206787109375,1.1177151203155518,0.013799169100821018,-0.7763484716415405
30,0.9593,1.3273,0,0,0.0622406005859375,0.9284210205078125,0.086395263671875,0.860519528388977,-0.15904957056045532,-0.8222081065177917
31,0.9424,1.2827,0,0,0.1671295166015625,0.8444061279296875,0.13555908203125,0.7799506783485413,-0.3930191993713379,-0.5156828165054321
32,0.9264,1.243,0,0,0.1620941162109375,0.8552398681640625,0.1814422607421875,0.6564396619796753,-0.3142543435096741,-0.23420770466327667
33,0.9125,1.2151,0,0,0.1365509033203125,0.8991546630859375,0.168212890625,0.5603418946266174,0.27090713381767273,-0.13311544060707092
34,0.9022,1.2038,0,0,0.076507568359375,0.901611328125,0.130889892578125,0.47991812229156494,1.0811296701431274,-0.09250330179929733
35,0.8967,1.2122,0,0,0.024322509765625,0.9102020263671875,0.0799560546875,0.3708854019641876,1.7133079767227173,-0.01679176278412342
36,0.8976,1.241,0,0,0.0134124755859375,0.929901123046875,0.0290985107421875,0.25870850682258606,2.0561201572418213,0.07476558536291122
37,0.9057,1.2892,0,0,-0.006927490234375,0.9071502685546875,-0.0444488525390625,0.20616808533668518,1.8661006689071655,0.18777921795845032
38,0.9217,1.354,0,0,-0.0319366455078125,0.900177001953125,-0.1140899658203125,0.3732670545578003,1.0403801202774048,0.19046369194984436
39,0.9454,1.4304,0,0,-0.0098114013671875,0.8795928955078125,-0.1057586669921875,0.5556363463401794,0.43775203824043274,0.16779698431491852
40,0.9762,1.5119,0,0,0.01397705078125,0.8942718505859375,-0.0871734619140625,0.6161428093910217,0.26100894808769226,0.24157561361789703
41,1.0127,1.5904,0,0,0.054962158203125,0.9486236572265625,-0.112945556640625,0.6694158911705017,0.0023395870812237263,0.3240278661251068
42,1.0527,1.6569,0,0,0.083221435546875,1.065399169921875,-0.153839111328125,0.8807364106178284,-0.749498724937439,0.35849982500076294
43,1.0939,1.7035,0,0,0.0708160400390625,1.115234375,-0.1090240478515625,1.1501630544662476,-1.741066575050354,0.35061126947402954
44,1.1338,1.7247,0,0,0.0236053466796875,1.0782012939453125,0.0670166015625,1.2152200937271118,-2.833865165710449,0.27698978781700134
45,1.1699,1.719,0,0,-0.083251953125,1.0640869140625,0.47674560546875,0.7458885908126831,-3.1371347904205322,0.20032377541065216
46,1.2003,1.6901,0,0,-0.1558074951171875,1.1236572265625,0.6982574462890625,-0.08470983058214188,-1.262180209159851,0.23793719708919525
47,1.2235,1.6465,0,0,-0.12066650390625,1.22259521484375,0.341644287109375,-0.5037957429885864,1.2708373069763184,0.295841783285141
48,1.239,1.6003,0,0,-0.038909912109375,1.31915283203125,0.0321502685546875,-0.39793193340301514,2.29929780960083,0.19843266904354095
49,1.2467,1.5655,0,0,0.0349273681640625,1.3488311767578125,-0.0267333984375,-0.11094409227371216,1.7427246570587158,0.041496045887470245
50,1.2473,1.5549,0,0,0.1017303466796875,1.2560577392578125,0.0096588134765625,-0.07784020155668259,0.38360944390296936,-0.1433696746826172
51,1.2416,1.5779,0,0,0.1079254150390625,1.1709136962890625,0.01348876953125,-0.4915867745876312,-0.3322003185749054,-0.08384589850902557
52,1.2306,1.6383,0,0,0.046539306640625,1.1278533935546875,0.0052947998046875,-0.8745573163032532,-0.711896538734436,0.08051908016204834
53,1.2148,1.7337,0,0,-0.0172271728515625,0.95648193359375,-0.072723388671875,-1.0776777267456055,-0.8420867323875427,0.18939362466335297
54,1.1944,1.8553,0,0,-0.090423583984375,1.0493621826171875,0.0895233154296875,-1.5484074354171753,-1.1267480850219727,0.07719305157661438
55,1.1689,1.9893,0,0,0.0345916748046875,1.1973419189453125,0.1680450439453125,-2.3703439235687256,-0.7779205441474915,-0.05630694702267647
56,1.1377,2.1192,0,0,0.1129913330078125,1.1302642822265625,0.083343505859375,-2.3584115505218506,-0.030714236199855804,-0.1953689604997635
57,1.1004,2.228,0,0,0.2879791259765625,1.2060699462890625,0.0298309326171875,-1.7198212146759033,1.2842284440994263,0.05606113746762276
58,1.0567,2.3013,0,0,0.4429473876953125,1.2274169921875,0.0911407470703125,-1.5691395998001099,1.9085650444030762,0.866425096988678
59,1.0073,2.3287,0,0,0.31622314453125,1.07147216796875,0.0241241455078125,-1.7850327491760254,1.708425760269165,1.3841925859451294
60,0.9537,2.3057,0,0,0.250396728515625,0.8626861572265625,-0.0546722412109375,-1.8215556144714355,1.3217899799346924,1.394163966178894
61,0.8982,2.2343,0,0,0.173004150390625,0.7387237548828125,-0.1666717529296875,-1.7457462549209595,0.37889033555984497,1.1287823915481567
62,0.8439,2.1227,0,0,0.206268310546875,0.71539306640625,-0.16925048828125,-1.6531766653060913,-0.8616609573364258,0.7398085594177246
63,0.7945,1.984,0,0,0.189605712890625,0.7324676513671875,-0.0279541015625,-1.58847177028656,-1.4663383960723877,0.4652334749698639
64,0.7539,1.8348,0,0,0.1765594482421875,0.7391357421875,0.118408203125,-1.7117995023727417,-1.2317585945129395,0.33745527267456055
65,0.7258,1.6929,0,0,0.192169189453125,0.7325592041015625,0.1403656005859375,-1.7001137733459473,-0.41561105847358704,0.3537474274635315
66,0.7135,1.5747,0,0,0.209991455078125,0.7458648681640625,0.0390472412109375,-1.4370003938674927,0.4109707474708557,0.41933149099349976
67,0.7198,1.493,0,0,0.27496337890625,0.820220947265625,-0.0072784423828125,-0.9740822911262512,0.35093966126441956,0.29064273834228516
68,0.746,1.4555,0,0,0.423797607421875,0.763031005859375,0.0762786865234375,-0.4386388659477234,0.06421946734189987,-0.16595062613487244
69,0.7925,1.463,0,0,0.449310302734375,0.6140899658203125,0.079925537109375,-0.03983769565820694,-0.46076256036758423,-0.3176061809062958
70,0.8577,1.5098,0,0,0.4136199951171875,0.5067596435546875,0.1571502685546875,0.4123785197734833,-0.7054628729820251,-0.37016287446022034
71,0.9382,1.5849,0,0,0.272216796875,0.4991302490234375,0.18994140625,1.0716885328292847,-1.0928534269332886,-0.4354601204395294
72,1.0289,1.674,0,0,0.2505035400390625,0.588165283203125,0.2985382080078125,1.8503270149230957,-1.4615994691848755,-0.42540934681892395
73,1.1232,1.762,0,0,0.20013427734375,0.77880859375,0.4619903564453125,2.4293885231018066,-1.8016138076782227,-0.5365662574768066
74,1.2138,1.8357,0,0,0.2029876708984375,1.114013671875,0.7497100830078125,2.3134918212890625,-2.1388707160949707,-0.6812379360198975
75,1.2935,1.8856,0,0,0.1414642333984375,1.3451690673828125,0.9432373046875,1.2286070585250854,-1.8203421831130981,-0.9344478249549866
76,1.3564,1.9064,0,0,0.213470458984375,1.4931488037109375,0.983306884765625,-0.09802616387605667,-0.8448446989059448,-0.9613692164421082
77,1.3982,1.8969,0,0,0.2191162109375,1.470062255859375,0.916748046875,-0.8417440056800842,-0.2274368852376938,-0.4889254868030548
78,1.4171,1.8588,0,0,0.34716796875,1.1634979248046875,0.9406585693359375,-0.7321226596832275,0.9218961000442505,-0.6593478322029114
79,1.4136,1.7961,0,0,0.49847412109375,0.6863555908203125,0.7485504150390625,-0.7028276324272156,0.3021734356880188,-0.4322313070297241
80,1.3901,1.7139,0,0,0.48602294921875,0.62164306640625,0.43695068359375,-0.45311421155929565,-0.43700554966926575,0.22802197933197021
81,1.3501,1.6184,0,0,0.6265716552734375,0.8907318115234375,-0.0431365966796875,0.6526134610176086,1.0031325817108154,1.0818191766738892
82,1.2984,1.517,0,0,0.6660919189453125,1.2628936767578125,-0.1532135009765625,1.626763939857483,2.5558648109436035,1.7192264795303345
83,1.2395,1.4189,0,0,0.6237335205078125,1.4615020751953125,-0.4351043701171875,1.9528189897537231,2.2894551753997803,0.994347095489502
84,1.1781,1.3351,0,0,0.4956512451171875,1.1518402099609375,-0.2971343994140625,1.4316996335983276,0.9116657972335815,0.24904391169548035
85,1.1181,1.2773,0,0,0.24761962890625,0.9005889892578125,-0.208404541015625,0.49473756551742554,0.3289874792098999,0.4140602946281433
86,1.0629,1.2564,0,0,-0.003936767578125,0.8134918212890625,-0.16143798828125,-0.29580795764923096,0.19884252548217773,0.21737146377563477
87,1.0146,1.2804,0,0,-0.044708251953125,0.8109588623046875,-0.2277069091796875,-0.578544557094574,0.037090376019477844,-0.289981484413147
88,0.9745,1.3527,0,0,-0.032806396484375,0.9269561767578125,-0.3074798583984375,-0.33407944440841675,-0.3565163016319275,-0.686201274394989
89,0.9429,1.4703,0,0,0.07373046875,1.0087127685546875,-0.1865997314453125,0.40160202980041504,-0.09245643019676208,-0.8173816800117493
90,0.9194,1.6239,0,0,0.112457275390625,1.0438995361328125,-0.114044189453125,1.2562998533248901,0.674616277217865,-0.706978976726532
91,0.903,1.7986,0,0,0.0933990478515625,0.99908447265625,-0.061370849609375,1.7706705331802368,1.1079047918319702,-0.620832085609436
92,0.8928,1.9755,0,0,0.086456298828125,0.915618896484375,0.007110595703125,1.749370813369751,1.2897992134094238,-0.653184711933136
93,0.8877,2.1338,0,0,0.0977935791015625,0.81927490234375,0.0095062255859375,1.5280954837799072,1.2198364734649658,-0.6681320071220398
94,0.8872,2.2538,0,0,0.066986083984375,0.8503265380859375,-0.0015106201171875,1.3566334247589111,0.9330943822860718,-0.6961162090301514
95,0.8909,2.319,0,0,0.1552276611328125,0.8646697998046875,-0.0876617431640625,1.2925548553466797,-0.6954379081726074,-0.505082905292511
96,0.8987,2.3188,0,0,0.170166015625,0.9187469482421875,0.1188201904296875,0.9519956707954407,-3.8435800075531006,-0.028112594038248062
97,0.9106,2.2496,0,0,0.126068115234375,0.928466796875,0.202484130859375,0.46675145626068115,-3.8602750301361084,0.17741632461547852
98,0.9271,2.116,0,0,0.0786285400390625,0.9423675537109375,0.2227325439453125,0.4477916359901428,-2.3872978687286377,0.17057307064533234
99,0.9482,1.93,0,0,0.033538818359375,0.8721160888671875,0.28863525390625,0.6862547993659973,-0.6855799555778503,0.12168435752391815
100,0.9741,1.7093,0,0,0.0465850830078125,0.8448944091796875,0.2806243896484375,0.8512325882911682,0.5634023547172546,0.19602090120315552
101,1.0044,1.4755,0,0,0.1126251220703125,0.8985137939453125,0.21820068359375,0.7551334500312805,1.0678362846374512,0.2851180136203766
102,1.0385,1.251,0,0,0.185028076171875,1.021453857421875,0.1469573974609375,0.586899995803833,0.9591265320777893,0.3191516101360321
103,1.0752,1.057,0,0,0.193023681640625,0.99652099609375,0.1120147705078125,0.6238028407096863,0.33118191361427307,0.3810370862483978
104,1.113,0.9109,0,0,0.1041412353515625,1.044647216796875,0.1787567138671875,0.4791466295719147,0.17703762650489807,0.4238801598548889
105,1.1503,0.8257,0,0,-0.065460205078125,1.1118927001953125,0.144012451171875,0.103279247879982,0.7965831756591797,0.43159934878349304
106,1.1853,0.8084,0,0,-0.146148681640625,1.241241455078125,0.0233001708984375,-0.2594219744205475,1.1942218542099,0.3594713509082794
107,1.2164,0.8599,0,0,-0.1034088134765625,1.3912506103515625,-0.16497802734375,-0.3800831437110901,0.9490456581115723,0.22703394293785095
108,1.2423,0.9757,0,0,-0.0025482177734375,1.476287841796875,-0.0980377197265625,-0.34016501903533936,-0.10124379396438599,0.08147275447845459
109,1.2619,1.1454,0,0,0.1205291748046875,1.33148193359375,0.0736236572265625,-0.30996131896972656,-0.9840025901794434,-0.4953058958053589
110,1.2743,1.3546,0,0,0.2241973876953125,1.1555938720703125,0.144378662109375,-0.5985052585601807,-0.891010046005249,-0.6455638408660889
111,1.2787,1.5857,0,0,0.2242279052734375,0.96014404296875,0.02178955078125,-0.9437984228134155,-0.6631148457527161,-0.5648236870765686
112,1.2741,1.8195,0,0,0.2722930908203125,0.8673858642578125,0.0092010498046875,-1.470291256904602,-0.8555223941802979,-0.4181663691997528
113,1.2594,2.0372,0,0,0.2346954345703125,1.158935546875,0.1381683349609375,-2.4456522464752197,-0.6223418712615967,-0.4420921802520752
114,1.2332,2.222,0,0,0.2138519287109375,1.2449493408203125,0.0525970458984375,-2.531791925430298,0.11844462156295776,-0.6661069393157959
115,1.1949,2.3609,0,0,0.3389739990234375,1.287017822265625,-0.0166473388671875,-1.712876796722412,1.2914400100708008,-0.572697103023529
116,1.1441,2.4455,0,0,0.610382080078125,1.3924407958984375,0.001983642578125,-1.1096241474151611,2.2354555130004883,0.3618636727333069
117,1.082,2.4729,0,0,0.418914794921875,1.2017974853515625,0.0610809326171875,-1.6588801145553589,1.5874059200286865,1.4192099571228027
118,1.0108,2.4456,0,0,0.253997802734375,0.915618896484375,-0.11083984375,-1.8410587310791016,0.7445505857467651,1.6347543001174927
119,0.9343,2.3711,0,0,0.2408905029296875,0.70599365234375,-0.1827239990234375,-1.71642005443573,-0.0950934886932373,1.4565842151641846
120,0.8571,2.2608,0,0,0.1896820068359375,0.75079345703125,-0.1536712646484375,-1.6367220878601074,-0.8010705709457397,0.9759425520896912
121,0.7847,2.1288,0,0,0.1765899658203125,0.74951171875,0.02362060546875,-1.730208396911621,-1.0340274572372437,0.570392370223999
122,0.723,1.9905,0,0,0.1681365966796875,0.743865966796875,0.220306396484375,-1.9589864015579224,-0.1890285164117813,0.20425966382026672
123,0.6774,1.8607,0,0,0.2498016357421875,0.6187591552734375,0.0994415283203125,-1.8667103052139282,1.096867322921753,0.11975622922182083
124,0.6526,1.7525,0,0,0.30865478515625,0.5838470458984375,0.01312255859375,-1.6516560316085815,1.491820216178894,0.22983959317207336
125,0.6522,1.6758,0,0,0.326995849609375,0.637847900390625,-0.0631866455078125,-1.3058141469955444,0.9006698727607727,0.2302214801311493
126,0.6779,1.636,0,0,0.3475494384765625,0.6295013427734375,-0.0829315185546875,-0.6939870119094849,-0.1203828677535057,0.03178775683045387
127,0.7296,1.6333,0,0,0.33502197265625,0.60516357421875,0.0173797607421875,0.15732118487358093,-0.7697513103485107,-0.15671637654304504
128,0.8049,1.6631,0,0,0.307586669921875,0.5482635498046875,0.206298828125,0.8743399977684021,-0.6757592558860779,-0.2614412009716034
129,0.8993,1.7166,0,0,0.281097412109375,0.568603515625,0.266632080078125,1.5099114179611206,-0.5422496795654297,-0.24547500908374786
130,1.0062,1.7823,0,0,0.24713134765625,0.626495361328125,0.334716796875,2.168015718460083,-0.6461462378501892,-0.3163861930370331
131,1.1177,1.8482,0,0,0.2373046875,0.772064208984375,0.4795684814453125,2.6211202144622803,-0.9535523056983948,-0.38491493463516235
132,1.2254,1.9035,0,0,0.2086334228515625,1.05108642578125,0.6986846923828125,2.421942710876465,-1.5941234827041626,-0.5029715299606323
133,1.3209,1.9406,0,0,0.0513916015625,1.3884124755859375,0.9356689453125,1.357311487197876,-1.7455004453659058,-0.8315818905830383
134,1.3975,1.9551,0,0,-0.0198211669921875,1.610748291015625,0.954315185546875,-0.05415937677025795,-1.391526699066162,-1.2811951637268066
135,1.4504,1.9462,0,0,0.030487060546875,1.5157928466796875,0.7509765625,-0.6738277077674866,-0.5132761001586914,-1.1339406967163086
136,1.4774,1.9155,0,0,0.1125030517578125,1.238372802734375,0.7746734619140625,-0.2963610887527466,0.9037612676620483,-0.688371479511261
137,1.4789,1.8662,0,0,0.4134063720703125,0.8858642578125,0.9524993896484375,-0.8203744888305664,0.30814769864082336,-0.6280242204666138
138,1.4573,1.8022,0,0,0.52520751953125,0.674468994140625,0.69183349609375,-0.8049244284629822,-0.7302352786064148,-0.08541928976774216
139,1.4168,1.7281,0,0,0.808135986328125,0.8739166259765625,-0.0152587890625,0.3018757104873657,0.49025973677635193,1.1460719108581543
140,1.3625,1.6487,0,0,0.7795257568359375,1.2564849853515625,-0.268829345703125,1.5955206155776978,2.084014654159546,2.568350076675415
141,1.2999,1.5697,0,0,0.5706329345703125,1.515594482421875,-0.361053466796875,1.9877437353134155,1.853359580039978,1.0802196264266968
142,1.2342,1.4977,0,0,0.6022796630859375,1.0617828369140625,-0.2442626953125,1.3066120147705078,0.9848780035972595,0.047928910702466965
143,1.1699,1.4398,0,0,0.324920654296875,0.8800506591796875,-0.2141876220703125,0.41186264157295227,0.5576997399330139,0.5250635147094727
144,1.1104,1.4023,0,0,-0.0433349609375,0.775482177734375,-0.3013153076171875,-0.15131628513336182,0.384044349193573,0.4339621067047119
145,1.0581,1.3899,0,0,-0.092529296875,0.751983642578125,-0.3910369873046875,-0.34470412135124207,-0.3231807351112366,-0.08966756612062454
146,1.0137,1.4043,0,0,-0.0900726318359375,0.8682098388671875,-0.517669677734375,-0.1572069376707077,-1.3164559602737427,-0.5418621897697449
147,0.9774,1.4435,0,0,-0.0029754638671875,1.104949951171875,-0.254302978515625,0.2885364592075348,-1.7187293767929077,-0.7801392078399658
148,0.9481,1.5024,0,0,0.0783843994140625,1.20538330078125,-0.02508544921875,0.5092781782150269,-0.9445151090621948,-0.8226850628852844
149,0.9251,1.5729,0,0,0.115509033203125,1.08807373046875,0.0143585205078125,0.9413030743598938,-0.22117260098457336,-0.8041281700134277
150,0.9074,1.6453,0,0,0.07745361328125,0.9180450439453125,0.0227813720703125,1.4890098571777344,0.29083317518234253,-0.8429538607597351
151,0.8944,1.7091,0,0,0.06561279296875,0.798858642578125,0.0605926513671875,1.7565959692001343,0.6746769547462463,-0.8821960687637329
152,0.8861,1.7549,0,0,0.0533447265625,0.7548675537109375,0.077911376953125,1.6774343252182007,1.0350854396820068,-0.8941645622253418
153,0.8827,1.7752,0,0,0.1021575927734375,0.7830963134765625,0.070404052734375,1.396036982536316,1.0274467468261719,-0.7920262217521667
154,0.8847,1.7653,0,0,0.36187744140625,0.8438720703125,0.383544921875,0.14817827939987183,-1.2864444255828857,-0.09654411673545837
155,0.8927,1.7235,0,0,0.165008544921875,0.9761962890625,0.17120361328125,-0.1223011463880539,-2.3132011890411377,0.19825422763824463
156,0.9072,1.6518,0,0,0.0873870849609375,0.938690185546875,0.1290435791015625,0.5740851163864136,-1.2009724378585815,0.0755099356174469
157,0.9285,1.5549,0,0,-0.00677490234375,0.8818359375,0.1294097900390625,1.042074203491211,0.27185627818107605,0.019424565136432648
158,0.9563,1.4404,0,0,-0.0135955810546875,0.81158447265625,0.1113739013671875,1.0263103246688843,1.3760415315628052,-0.0349595807492733
159,0.99,1.3177,0,0,0.067718505859375,0.8362579345703125,0.064910888671875,0.8108595609664917,1.6939709186553955,0.12242285162210464
160,1.0282,1.1972,0,0,0.22357177734375,1.030487060546875,-0.006195068359375,0.6424343585968018,0.359769344329834,0.5199174880981445
161,1.0691,1.0899,0,0,0.2074432373046875,1.0945587158203125,0.07720947265625,0.5127823352813721,-0.8184703588485718,0.4262123107910156
162,1.1104,1.0061,0,0,0.199615478515625,1.0398406982421875,0.2034454345703125,0.3911730945110321,-0.673052191734314,0.27428561449050903
163,1.1498,0.9547,0,0,0.0113372802734375,1.03387451171875,0.332855224609375,0.24365739524364471,-0.03560273349285126,0.2969485819339752
164,1.185,0.9422,0,0,-0.1180419921875,1.1651153564453125,0.2198486328125,-0.04014874994754791,1.1944879293441772,0.3747866451740265
165,1.2141,0.9725,0,0,-0.1488037109375,1.3828887939453125,-0.00457763671875,-0.26160845160484314,1.8515664339065552,0.4083036184310913
166,1.236,1.0466,0,0,-0.1085662841796875,1.4355926513671875,-0.1433868408203125,-0.2283886969089508,1.0367063283920288,0.381768137216568
167,1.25,1.1617,0,0,-0.0369873046875,1.4296722412109375,-0.0597381591796875,-0.07587851583957672,-0.25480911135673523,-0.23652465641498566
168,1.2561,1.3118,0,0,0.1612548828125,1.2104949951171875,0.0762786865234375,-0.39168041944503784,-0.6973902583122253,-0.5518381595611572
169,1.2544,1.4873,0,0,0.2509307861328125,1.0772552490234375,0.055084228515625,-0.8880065679550171,-0.7339352369308472,-0.5141109824180603
170,1.2453,1.676,0,0,0.2525482177734375,0.8523101806640625,-0.0977783203125,-1.2222775220870972,-0.8948138356208801,-0.41452208161354065
171,1.2287,1.8639,0,0,0.2468414306640625,0.9892120361328125,0.046661376953125,-1.7624086141586304,-1.1006826162338257,-0.2911394238471985
172,1.2043,2.0365,0,0,0.191741943359375,1.16925048828125,0.1230926513671875,-2.3734519481658936,-0.8314852118492126,-0.41009485721588135
173,1.1716,2.1801,0,0,0.2190093994140625,1.1494903564453125,0.04638671875,-2.196776866912842,-0.26277756690979004,-0.6100963950157166
174,1.1302,2.2835,0,0,0.41876220703125,1.2129974365234375,0.0026092529296875,-1.5921673774719238,0.6875821352005005,-0.37083372473716736
175,1.0802,2.3389,0,0,0.6197357177734375,1.269012451171875,0.0724945068359375,-1.3578294515609741,1.5417430400848389,0.7218751311302185
176,1.0225,2.3428,0,0,0.4163818359375,1.0826568603515625,0.042633056640625,-1.7047661542892456,1.4649993181228638,1.621608853340149
177,0.9592,2.2965,0,0,0.2286224365234375,0.84246826171875,-0.0758056640625,-1.779166579246521,0.6976320743560791,1.7167420387268066
178,0.8932,2.2065,0,0,0.167724609375,0.715057373046875,-0.1053924560546875,-1.7495766878128052,-0.1872476488351822,1.4955800771713257
179,0.8286,2.0834,0,0,0.1053924560546875,0.791778564453125,-0.1147003173828125,-1.8109228610992432,-1.2775356769561768,0.6846404075622559
180,0.77,1.9415,0,0,0.1917877197265625,0.7367706298828125,0.0507049560546875,-1.7869155406951904,-1.2092628479003906,0.127843976020813
181,0.7221,1.7968,0,0,0.173736572265625,0.6907196044921875,0.096954345703125,-1.666872501373291,-0.23411396145820618,0.1513514369726181
182,0.6897,1.6656,0,0,0.1694183349609375,0.6722869873046875,0.043914794921875,-1.5618268251419067,0.646902322769165,0.08075982332229614
183,0.6769,1.5623,0,0,0.27484130859375,0.704986572265625,-0.0069427490234375,-1.3055087327957153,0.9531506896018982,0.06385540962219238
184,0.6867,1.4973,0,0,0.3567657470703125,0.7173919677734375,-0.0193328857421875,-0.993212878704071,0.4256881773471832,0.047933705151081085
185,0.7209,1.4761,0,0,0.3989410400390625,0.720245361328125,0.0463409423828125,-0.5505744814872742,-0.2575282156467438,-0.16957011818885803
186,0.7793,1.4985,0,0,0.4157257080078125,0.6327972412109375,0.1476287841796875,0.09025559574365616,-0.6450463533401489,-0.46523773670196533
187,0.8598,1.5585,0,0,0.37493896484375,0.5160980224609375,0.24090576171875,0.8404451608657837,-0.6696939468383789,-0.5490500926971436
188,0.958,1.6457,0,0,0.27703857421875,0.47216796875,0.3252410888671875,1.5852268934249878,-0.6953558921813965,-0.5258949398994446
189,1.0673,1.747,0,0,0.2358245849609375,0.542816162109375,0.4153900146484375,2.2613420486450195,-0.8577959537506104,-0.4558016061782837
190,1.1798,1.8489,0,0,0.194427490234375,0.733642578125,0.5594024658203125,2.6918694972991943,-1.0888309478759766,-0.4590781033039093
191,1.2866,1.9392,0,0,0.171051025390625,1.124053955078125,0.74468994140625,2.505157947540283,-1.520270824432373,-0.5565301179885864
192,1.3792,2.0085,0,0,0.0321197509765625,1.5237884521484375,0.924774169921875,1.3313770294189453,-1.2619937658309937,-0.989267110824585
193,1.4502,2.0507,0,0,0.035369873046875,1.7423858642578125,0.930908203125,-0.3073575496673584,-0.6638951897621155,-1.2575854063034058
194,1.4948,2.0626,0,0,0.210693359375,1.6367034912109375,0.6487884521484375,-0.6757802963256836,0.5363348126411438,-0.6937143206596375
195,1.5111,2.0436,0,0,0.43878173828125,1.2166595458984375,1.0794525146484375,-0.9989738464355469,1.008239507675171,-0.6948962211608887
196,1.4997,1.9951,0,0,0.6633758544921875,0.5643310546875,1.039215087890625,-1.2334102392196655,-0.008971390314400196,-0.29547610878944397
197,1.464,1.9206,0,0,0.60003662109375,0.5573272705078125,0.1967620849609375,-0.5548408627510071,-0.06586769968271255,0.6779390573501587
198,1.4093,1.8256,0,0,0.7490692138671875,0.95135498046875,-0.2612457275390625,1.0464882850646973,1.8009527921676636,2.2059831619262695
199,1.3418,1.7184,0,0,0.6506805419921875,1.5001983642578125,-0.2832794189453125,1.8320777416229248,2.8475935459136963,1.9829061031341553
200,1.2679,1.6101,0,0,0.607086181640625,1.3775787353515625,-0.4889068603515625,1.70691978931427,1.8271559476852417,0.3837239742279053
201,1.1936,1.5137,0,0,0.4159393310546875,0.999053955078125,-0.3036041259765625,0.9458381533622742,0.8940958976745605,0.36667653918266296
202,1.1242,1.4433,0,0,0.0808563232421875,0.8114471435546875,-0.2458953857421875,-0.00899722333997488,0.5450747609138489,0.5369742512702942
203,1.0632,1.4111,0,0,-0.101531982421875,0.730987548828125,-0.2467041015625,-0.5802756547927856,0.28684693574905396,0.12419199198484421
204,1.0127,1.4255,0,0,-0.069580078125,0.70001220703125,-0.2535552978515625,-0.584667444229126,0.22483843564987183,-0.35502466559410095
205,0.9733,1.4893,0,0,0.0438232421875,0.8907470703125,-0.4528045654296875,0.3165228068828583,0.3672323226928711,-0.5150657296180725
206,0.9442,1.5983,0,0,0.115325927734375,1.2150726318359375,-0.2066802978515625,1.2073733806610107,0.9999884963035583,-0.3895981013774872
207,0.924,1.7416,0,0,0.1327362060546875,1.2125091552734375,-0.1150360107421875,1.4886609315872192,1.171863317489624,-0.6100351214408875
208,0.9108,1.9029,0,0,0.1427764892578125,1.0380859375,-0.084991455078125,1.7111339569091797,0.8991071581840515,-0.6971404552459717
209,0.9034,2.0627,0,0,0.099945068359375,0.8841552734375,-0.0260162353515625,1.8430315256118774,0.6077272295951843,-0.7768339514732361
210,0.9006,2.2004,0,0,0.0882568359375,0.77783203125,0.0188751220703125,1.7835503816604614,0.46445369720458984,-0.81711745262146
211,0.9018,2.2975,0,0,0.0862579345703125,0.7539825439453125,0.041473388671875,1.6186360120773315,0.3021095097064972,-0.7520913481712341
212,0.9072,2.3398,0,0,0.1481170654296875,0.8564300537109375,0.0265350341796875,1.2240114212036133,-2.2040059566497803,-0.3911043703556061
213,0.9168,2.3195,0,0,0.1288909912109375,0.9658660888671875,0.2677764892578125,0.5855172872543335,-4.377833843231201,0.10902981460094452
214,0.931,2.2365,0,0,0.0306396484375,0.979583740234375,0.3031158447265625,0.32189229130744934,-3.3047192096710205,0.34320610761642456
215,0.9503,2.0983,0,0,-0.0663604736328125,0.9441680908203125,0.3048095703125,0.49406325817108154,-1.2474523782730103,0.16772454977035522
216,0.9748,1.9191,0,0,-0.039306640625,0.8560028076171875,0.28009033203125,0.791865885257721,0.4764392375946045,0.10248136520385742
217,1.0041,1.7175,0,0,0.0548095703125,0.822967529296875,0.189483642578125,0.906396746635437,1.3392235040664673,0.24895070493221283
218,1.0376,1.5139,0,0,0.1802215576171875,0.9461212158203125,0.131256103515625,0.7212473750114441,1.3547399044036865,0.3759733736515045
219,1.0739,1.3284,0,0,0.2822723388671875,1.1019744873046875,0.0896453857421875,0.5699646472930908,0.6362853646278381,0.4706074595451355
220,1.1112,1.1779,0,0,0.2548065185546875,1.095703125,0.1806488037109375,0.4384172856807709,0.0638279840350151,0.4340449273586273
221,1.1476,1.0755,0,0,0.0855560302734375,1.014617919921875,0.2249603271484375,0.24199558794498444,0.38604703545570374,0.3616096079349518
222,1.1808,1.0287,0,0,-0.0738067626953125,1.103240966796875,0.22821044921875,-0.057306963950395584,1.177267074584961,0.42371317744255066
223,1.2088,1.0399,0,0,-0.1194305419921875,1.203765869140625,0.0175933837890625,-0.2829941511154175,1.9356582164764404,0.4661719501018524
224,1.23,1.1064,0,0,-0.1184234619140625,1.3928985595703125,-0.2009124755859375,-0.3109104633331299,1.6765192747116089,0.4771638810634613
225,1.2436,1.2211,0,0,-0.135589599609375,1.5027923583984375,-0.208709716796875,-0.19314202666282654,0.16085439920425415,0.2382431924343109
226,1.249,1.3735,0,0,0.017059326171875,1.4030609130859375,-0.0939483642578125,-0.14582563936710358,-0.9405558109283447,-0.47954556345939636
227,1.2465,1.5502,0,0,0.1376800537109375,1.2151031494140625,0.013824462890625,-0.43672406673431396,-0.8687761425971985,-0.827932596206665
228,1.2366,1.7362,0,0,0.219635009765625,0.9438323974609375,0.00189208984375,-0.8985215425491333,-1.0130633115768433,-0.7981616258621216
229,1.2198,1.9163,0,0,0.27520751953125,0.802276611328125,-0.057037353515625,-1.399675965309143,-1.4970645904541016,-0.5540053844451904
230,1.1963,2.0763,0,0,0.2881317138671875,1.0475616455078125,0.1069488525390625,-2.1140291690826416,-1.775373101234436,-0.35873764753341675
231,1.1662,2.2041,0,0,0.2386322021484375,1.14398193359375,0.106201171875,-2.4190855026245117,-1.246897578239441,-0.4952227771282196
232,1.1292,2.2912,0,0,0.3628997802734375,1.1087188720703125,0.03814697265625,-1.9833836555480957,-0.4401502311229706,-0.46982502937316895
233,1.0853,2.3326,0,0,0.5174713134765625,1.2186431884765625,0.0035858154296875,-1.3651829957962036,0.7023214101791382,0.1837967336177826
234,1.0349,2.3277,0,0,0.5915679931640625,1.15582275390625,0.0460968017578125,-1.3203736543655396,1.1842269897460938,1.191805362701416
235,0.9792,2.2795,0,0,0.3432464599609375,0.874267578125,0.0137481689453125,-1.7878743410110474,0.3684629797935486,1.8408362865447998
236,0.9204,2.1947,0,0,0.203399658203125,0.75238037109375,-0.0950927734375,-1.7341433763504028,-0.19509093463420868,1.8713111877441406
237,0.8614,2.0833,0,0,0.17230224609375,0.769195556640625,-0.0534210205078125,-1.5566307306289673,-0.5311283469200134,1.4676464796066284
238,0.8061,1.9575,0,0,0.130706787109375,0.8491668701171875,0.0725250244140625,-1.720204472541809,-0.30109113454818726,0.34828153252601624
239,0.7589,1.8309,0,0,0.2372589111328125,0.7612457275390625,0.0810699462890625,-1.7756261825561523,0.3528382182121277,0.14118988811969757
240,0.7242,1.7173,0,0,0.229034423828125,0.720428466796875,0.079925537109375,-1.6767659187316895,1.0818465948104858,0.23095278441905975
241,0.7062,1.6293,0,0,0.2545318603515625,0.6915130615234375,-0.0096588134765625,-1.4775047302246094,1.4881941080093384,0.1279294639825821
242,0.7085,1.5767,0,0,0.297607421875,0.712615966796875,-0.086090087890625,-1.141309380531311,1.1794253587722778,0.0008671252289786935
243,0.7334,1.5654,0,0,0.3499298095703125,0.7406158447265625,-0.098114013671875,-0.7625908255577087,0.2363709956407547,-0.11361844092607498
244,0.7815,1.5964,0,0,0.363372802734375,0.68310546875,-0.0357513427734375,-0.17282184958457947,-0.5719303488731384,-0.40168723464012146
245,0.8516,1.6655,0,0,0.37225341796875,0.5709991455078125,0.15631103515625,0.4569225311279297,-0.739323079586029,-0.5541260838508606
246,0.9401,1.7637,0,0,0.307220458984375,0.5412139892578125,0.256378173828125,1.0814037322998047,-0.7093009948730469,-0.5415021181106567
247,1.0411,1.8785,0,0,0.21380615234375,0.5517425537109375,0.36822509765625,1.8004361391067505,-0.9641114473342896,-0.563374400138855
248,1.1472,1.9959,0,0,0.18084716796875,0.6894989013671875,0.501220703125,2.418330192565918,-1.635324478149414,-0.5771621465682983
249,1.2499,2.1022,0,0,0.1790313720703125,0.9950408935546875,0.7639007568359375,2.5636298656463623,-2.2837305068969727,-0.5706595182418823
250,1.3406,2.1863,0,0,0.01708984375,1.383331298828125,0.975799560546875,1.8055957555770874,-2.180939197540283,-0.9801537990570068
251,1.412,2.2401,0,0,0.0858612060546875,1.613555908203125,1.074920654296875,0.25517451763153076,-1.1313427686691284,-1.1024634838104248
252,1.4588,2.2592,0,0,0.1611480712890625,1.573577880859375,0.8705596923828125,-0.7882447838783264,0.4865504801273346,-0.6366755366325378
253,1.4786,2.2426,0,0,0.35107421875,1.3354949951171875,0.9400787353515625,-0.7895628213882446,2.1688528060913086,-0.6696454882621765
254,1.4716,2.1916,0,0,0.6336669921875,0.8202362060546875,0.7670440673828125,-1.1874781847000122,0.660793125629425,-0.3822304606437683
255,1.4407,2.1099,0,0,0.5726165771484375,0.6349029541015625,0.332122802734375,-0.8619112968444824,-0.9450905919075012,0.3139350116252899
256,1.3906,2.0033,0,0,0.864654541015625,0.9195556640625,-0.2415313720703125,0.6933193802833557,0.4837871789932251,1.8575798273086548
257,1.3272,1.8796,0,0,0.6771392822265625,1.4290924072265625,-0.2098388671875,1.887066125869751,2.0517168045043945,1.9774013757705688
258,1.2568,1.7489,0,0,0.5645904541015625,1.2718505859375,-0.2805938720703125,1.8323434591293335,2.0549418926239014,0.5648993253707886
259,1.1852,1.6229,0,0,0.4315643310546875,0.9440155029296875,-0.221832275390625,0.9380742311477661,1.4262710809707642,0.4694945216178894
260,1.1174,1.5145,0,0,0.1518402099609375,0.8280029296875,-0.14410400390625,-0.09711802750825882,0.9719778895378113,0.6830699443817139
261,1.0568,1.4359,0,0,-0.1298980712890625,0.7927703857421875,-0.2125701904296875,-0.770336925983429,0.8654530644416809,0.20254617929458618
262,1.0058,1.3968,0,0,-0.0954437255859375,0.8243255615234375,-0.3369140625,-0.6643388271331787,0.7258951663970947,-0.41692453622817993
263,0.965,1.4028,0,0,-0.0318603515625,0.9444580078125,-0.427734375,-0.06520190834999084,0.36542752385139465,-0.681115984916687
264,0.9341,1.4537,0,0,0.022186279296875,1.11859130859375,-0.2360687255859375,0.75023353099823,-0.020250143483281136,-0.7247079014778137
265,0.9121,1.5436,0,0,0.046478271484375,1.1416778564453125,-0.09002685546875,1.218709111213684,0.13604359328746796,-0.5728669762611389
266,0.8978,1.6608,0,0,0.0112457275390625,1.025726318359375,-0.0188140869140625,1.4232630729675293,0.4648515582084656,-0.590255856513977
267,0.8903,1.7894,0,0,0.012786865234375,0.87158203125,-0.0090179443359375,1.5465810298919678,0.7360916137695312,-0.6594359874725342
268,0.8888,1.9112,0,0,0.02655029296875,0.7978668212890625,-0.006134033203125,1.6348397731781006,0.7480254769325256,-0.6996883153915405
269,0.8929,2.0083,0,0,0.04730224609375,0.8129730224609375,0.014739990234375,1.646689534187317,0.6423155665397644,-0.6252524256706238
270,0.9023,2.0659,0,0,0.096527099609375,0.8740386962890625,0.01953125,1.586111307144165,0.41443419456481934,-0.4209754467010498
271,0.917,2.0738,0,0,0.2689361572265625,0.880584716796875,0.0074920654296875,1.3069734573364258,-2.9330620765686035,-0.042028676718473434
272,0.9366,2.029,0,0,0.2097625732421875,0.9290771484375,0.2000885009765625,0.9309228658676147,-3.589876413345337,0.02237641252577305
273,0.9607,1.9356,0,0,0.1097564697265625,0.879425048828125,0.217315673828125,0.7845917344093323,-2.2796504497528076,0.10278869420289993
274,0.9888,1.8047,0,0,0.034423828125,0.8348846435546875,0.2939910888671875,0.786627471446991,-1.0265684127807617,0.21834245324134827
275,1.0198,1.6523,0,0,0.0709228515625,0.8931884765625,0.3158721923828125,0.7566314935684204,-0.4355549216270447,0.3394449055194855
276,1.0527,1.4971,0,0,0.2091827392578125,1.093414306640625,0.3142852783203125,0.6577478051185608,0.11628666520118713,0.42863523960113525
277,1.0862,1.3579,0,0,0.275054931640625,1.1741790771484375,0.2757110595703125,0.41554340720176697,0.336791068315506,0.4334672689437866
278,1.1191,1.2509,0,0,0.2286376953125,1.054779052734375,0.263092041015625,0.2346726953983307,0.6406143307685852,0.46284353733062744
279,1.1503,1.1885,0,0,0.065338134765625,1.0088958740234375,0.2401275634765625,0.035351332277059555,1.1927677392959595,0.4481959044933319
280,1.1789,1.1784,0,0,-0.06805419921875,1.087249755859375,0.0810089111328125,-0.16973178088665009,1.8708906173706055,0.47394973039627075
281,1.2041,1.2231,0,0,-0.117950439453125,1.2355804443359375,-0.074493408203125,-0.3390968441963196,2.0811595916748047,0.4629431366920471
282,1.2254,1.3202,0,0,-0.1259918212890625,1.387969970703125,-0.1772918701171875,-0.442963570356369,1.4051424264907837,0.4282703995704651
283,1.2423,1.4628,0,0,-0.1328125,1.4260406494140625,-0.195953369140625,-0.2644476294517517,-0.0610782690346241,0.3094926178455353
284,1.2544,1.6399,0,0,-0.018798828125,1.2958221435546875,-0.0682373046875,-0.2615088224411011,-0.9451974034309387,-0.3998808264732361
285,1.2612,1.837,0,0,0.13934326171875,1.123504638671875,0.0084075927734375,-0.5657073259353638,-1.2482826709747314,-0.6905454397201538
286,1.2618,2.0376,0,0,0.214111328125,0.9030609130859375,0.0196075439453125,-1.0837286710739136,-1.4500017166137695,-0.6960213780403137
287,1.255,2.2243,0,0,0.3127899169921875,0.924560546875,0.0956878662109375,-1.7741150856018066,-2.0899415016174316,-0.4454147517681122
288,1.2391,2.3807,0,0,0.2497100830078125,1.1953277587890625,0.1577301025390625,-2.5359840393066406,-2.0658063888549805,-0.33139950037002563
289,1.2127,2.4932,0,0,0.1765289306640625,1.204254150390625,0.1016845703125,-2.350738286972046,-1.2608829736709595,-0.6820350289344788
290,1.1744,2.5524,0,0,0.4227752685546875,1.2628326416015625,0.039764404296875,-1.6390975713729858,-0.23422980308532715,-0.6319729089736938
291,1.124,2.5534,0,0,0.637481689453125,1.3525238037109375,0.111328125,-1.2203046083450317,1.2926517724990845,0.4505178928375244
292,1.0623,2.4972,0,0,0.49102783203125,1.1493377685546875,0.1432342529296875,-1.612992763519287,2.1448395252227783,1.5745409727096558
293,0.9919,2.3897,0,0,0.25286865234375,0.861328125,-0.0069427490234375,-1.989577293395996,1.678750991821289,1.7726167440414429
294,0.9168,2.2422,0,0,0.1714935302734375,0.7178802490234375,-0.2983856201171875,-1.7776615619659424,0.4216769337654114,1.5395050048828125
295,0.8421,2.0696,0,0,0.156280517578125,0.768829345703125,-0.1960601806640625,-1.5297248363494873,-0.8207465410232544,0.4954310357570648
296,0.7738,1.8894,0,0,0.2807464599609375,0.6389312744140625,-0.02972412109375,-1.5110163688659668,-1.1049468517303467,0.05055052414536476
297,0.7179,1.7202,0,0,0.208038330078125,0.67645263671875,0.135498046875,-1.659109354019165,-0.5407846570014954,0.1666499674320221
298,0.6801,1.5791,0,0,0.19451904296875,0.6880035400390625,0.1032562255859375,-1.6383020877838135,0.4922674894332886,0.04640824347734451
299,0.6653,1.4798,0,0,0.2139129638671875,0.6793670654296875,-0.0306854248046875,-1.3869622945785522,0.9231730699539185,-0.00845580268651247
300,0.6766,1.4316,0,0,0.2888641357421875,0.71173095703125,-0.0974273681640625,-0.9511229395866394,0.5316412448883057,-0.023554328829050064
301,0.7155,1.4373,0,0,0.363677978515625,0.6816864013671875,-0.04486083984375,-0.5241338014602661,-0.1247459277510643,-0.15443538129329681
302,0.7809,1.4934,0,0,0.412994384765625,0.61566162109375,0.019744873046875,0.05098328739404678,-0.5594249367713928,-0.3498876988887787
303,0.8696,1.5902,0,0,0.3931121826171875,0.5446319580078125,0.1319580078125,0.699278712272644,-0.711900532245636,-0.4703342318534851
304,0.9755,1.7133,0,0,0.3284912109375,0.5450439453125,0.2081451416015625,1.4459947347640991,-0.9274306893348694,-0.509575605392456
305,1.0909,1.8459,0,0,0.2593841552734375,0.5942535400390625,0.33966064453125,2.1700026988983154,-1.3422549962997437,-0.597064733505249
306,1.2062,1.9711,0,0,0.26507568359375,0.7754364013671875,0.5630035400390625,2.567882537841797,-1.8569010496139526,-0.5674580931663513
307,1.3118,2.0744,0,0,0.196258544921875,1.0949554443359375,0.8403167724609375,2.393826961517334,-2.281498432159424,-0.6232830286026001
308,1.3988,2.145,0,0,0.03094482421875,1.5230865478515625,1.1204681396484375,1.2751423120498657,-1.6346240043640137,-0.9176566004753113
309,1.4601,2.1766,0,0,0.048004150390625,1.75177001953125,1.1451568603515625,-0.3520776033401489,-0.5104113221168518,-0.9884804487228394
310,1.4919,2.1669,0,0,0.0472869873046875,1.609954833984375,0.7965240478515625,-0.8539196848869324,0.8436947464942932,-0.6455038785934448
311,1.4935,2.1171,0,0,0.3172454833984375,1.25958251953125,0.9014129638671875,-0.7788377404212952,1.9290106296539307,-0.7268325686454773
312,1.4674,2.0311,0,0,0.542388916015625,0.7716827392578125,0.6684112548828125,-1.0899114608764648,0.2365262508392334,-0.451368510723114
313,1.4187,1.9146,0,0,0.6728668212890625,0.6254730224609375,0.2014007568359375,-0.4225291311740875,-0.22545576095581055,0.37433791160583496
314,1.3542,1.7757,0,0,0.820556640625,0.9794921875,-0.2266998291015625,1.0944771766662598,1.1702473163604736,1.952446699142456
315,1.2812,1.6245,0,0,0.6480560302734375,1.4722137451171875,-0.173065185546875,1.9322335720062256,2.273040294647217,1.6381423473358154
316,1.2066,1.4732,0,0,0.519744873046875,1.09014892578125,-0.2273406982421875,1.5439071655273438,1.8916603326797485,0.21813152730464935
317,1.1362,1.3364,0,0,0.3635711669921875,0.8089141845703125,-0.105072021484375,0.6209695339202881,1.29314124584198,0.42891648411750793
318,1.0744,1.2289,0,0,0.1119232177734375,0.695281982421875,-0.171844482421875,-0.059358131140470505,1.081607699394226,0.6121640801429749
319,1.0234,1.1645,0,0,-0.0052032470703125,0.71331787109375,-0.3781585693359375,-0.3918735086917877,0.39514943957328796,0.350761741399765
320,0.9838,1.1535,0,0,0.0072021484375,0.886444091796875,-0.5784912109375,0.05548962578177452,-0.3705407679080963,0.09043242782354355
321,0.9546,1.2005,0,0,-0.0170135498046875,1.1111602783203125,-0.2825927734375,0.32665348052978516,-0.18373015522956848,-0.18438050150871277
322,0.9341,1.3031,0,0,0.09649658203125,1.1880340576171875,-0.15997314453125,0.543274998664856,0.25501179695129395,-0.3755512535572052
323,0.9202,1.4513,0,0,0.12066650390625,1.0836944580078125,-0.0760345458984375,0.979171097278595,0.6479499936103821,-0.6742066740989685
324,0.9112,1.6286,0,0,0.0931549072265625,0.9638824462890625,-0.0334014892578125,1.464699149131775,0.6902990937232971,-0.8534267544746399
325,0.9059,1.8141,0,0,0.0563812255859375,0.8579254150390625,0.0172271728515625,1.7095746994018555,0.6065919399261475,-0.9788139462471008
326,0.9038,1.9845,0,0,0.0243988037109375,0.834259033203125,0.0574798583984375,1.6389985084533691,0.5437591671943665,-1.0831891298294067
327,0.9052,2.118,0,0,0.0118408203125,0.8433990478515625,0.052886962890625,1.3949097394943237,0.41660067439079285,-1.037296175956726
328,0.9106,2.1964,0,0,0.0918426513671875,0.8850860595703125,-0.018646240234375,1.1950969696044922,-0.9117534160614014,-0.6732894778251648
329,0.9206,2.2085,0,0,0.107940673828125,0.89910888671875,0.1605682373046875,0.8542779088020325,-4.047018527984619,0.10113301128149033
330,0.936,2.1508,0,0,0.056365966796875,0.9286346435546875,0.2311859130859375,0.5491297245025635,-3.7854669094085693,0.08024636656045914
331,0.957,2.029,0,0,0.044342041015625,0.906707763671875,0.228118896484375,0.6271283626556396,-1.970975637435913,0.06265699118375778
332,0.9834,1.8563,0,0,0.0196990966796875,0.8601837158203125,0.2584381103515625,0.8351010084152222,-0.29561755061149597,0.1048707589507103
333,1.0144,1.6518,0,0,0.1021881103515625,0.8464202880859375,0.265594482421875,0.9009271264076233,0.4720820486545563,0.2347608506679535
334,1.0489,1.4377,0,0,0.190399169921875,1.0184326171875,0.2407379150390625,0.7135239839553833,0.600875198841095,0.3615800440311432
335,1.0851,1.2365,0,0,0.19049072265625,1.1518402099609375,0.2132110595703125,0.4276759624481201,0.5893780589103699,0.4120277762413025
336,1.1211,1.0682,0,0,0.1550140380859375,1.134613037109375,0.1998748779296875,0.16842415928840637,0.6005516052246094,0.3639308214187622
337,1.1552,0.9489,0,0,0.0396881103515625,1.130340576171875,0.166168212890625,0.11878470331430435,0.7320451736450195,0.22406399250030518
338,1.1855,0.8894,0,0,-0.0641326904296875,1.12384033203125,0.1258697509765625,-0.036261867731809616,1.2183778285980225,0.3637252151966095
339,1.2108,0.8949,0,0,-0.11212158203125,1.210418701171875,-0.0380859375,-0.23627911508083344,1.5520108938217163,0.5768039226531982
340,1.2302,0.9652,0,0,-0.1628570556640625,1.3285369873046875,-0.105560302734375,-0.3798099160194397,1.3023930788040161,0.7342880964279175
341,1.2435,1.0945,0,0,-0.2172393798828125,1.4237518310546875,-0.1195220947265625,-0.23488254845142365,0.24275538325309753,0.47695642709732056
342,1.2506,1.2725,0,0,-0.0605621337890625,1.3642120361328125,-0.0725860595703125,-0.2017379105091095,-0.5574174523353577,-0.1547544300556183
343,1.2516,1.4846,0,0,0.0888214111328125,1.21435546875,-0.033538818359375,-0.4851411283016205,-0.7005823254585266,-0.6307840943336487
344,1.2467,1.7133,0,0,0.1826019287109375,1.0098876953125,-0.0421142578125,-0.8606252670288086,-0.8422329425811768,-0.7452571392059326
345,1.2355,1.9393,0,0,0.28350830078125,0.7746734619140625,-0.1218109130859375,-1.2529975175857544,-1.3613951206207275,-0.620979905128479
346,1.2174,2.1434,0,0,0.3308868408203125,1.0368804931640625,0.0888671875,-2.019404172897339,-1.9536265134811401,-0.32221826910972595
347,1.1913,2.3087,0,0,0.2383880615234375,1.1538848876953125,0.117462158203125,-2.5298683643341064,-1.675541877746582,-0.38157665729522705
348,1.1562,2.4217,0,0,0.3384246826171875,1.1954345703125,0.069671630859375,-2.2560036182403564,-0.8379114270210266,-0.5843108296394348
349,1.1114,2.4744,0,0,0.5403289794921875,1.2625732421875,0.05987548828125,-1.6228829622268677,0.38551920652389526,-0.061399977654218674
350,1.0572,2.4641,0,0,0.684814453125,1.22918701171875,0.077789306640625,-1.4301406145095825,1.5656033754348755,1.1049926280975342
351,0.995,2.3944,0,0,0.3749847412109375,0.9334564208984375,0.0254669189453125,-1.7799830436706543,1.2959034442901611,2.0032176971435547
352,0.9278,2.2744,0,0,0.2147979736328125,0.737213134765625,-0.08984375,-1.8936446905136108,0.7146819233894348,1.8751684427261353
353,0.8597,2.118,0,0,0.1809844970703125,0.8038787841796875,-0.1496734619140625,-1.8211164474487305,0.15926209092140198,0.70450758934021
354,0.7956,1.9424,0,0,0.26806640625,0.651336669921875,-0.17919921875,-1.6291086673736572,-0.6199439764022827,0.017070064321160316
355,0.741,1.7665,0,0,0.16888427734375,0.68768310546875,0.0357818603515625,-1.6008498668670654,-0.7726149559020996,0.16583050787448883
356,0.7013,1.6092,0,0,0.140472412109375,0.6936492919921875,0.139556884765625,-1.6210945844650269,-0.05747314542531967,0.0661768913269043
357,0.6812,1.4867,0,0,0.18096923828125,0.7635498046875,0.0876007080078125,-1.4516632556915283,0.8970962166786194,-0.14281654357910156
358,0.6842,1.4116,0,0,0.2562103271484375,0.729034423828125,-0.0056304931640625,-1.1879618167877197,0.9012126326560974,-0.20494462549686432
359,0.7123,1.3907,0,0,0.322509765625,0.67962646484375,-0.075408935546875,-0.8368048667907715,0.014105432666838169,-0.1851852983236313
360,0.7654,1.4245,0,0,0.364837646484375,0.595001220703125,0.0162200927734375,-0.24650165438652039,-0.5798854827880859,-0.32283928990364075
361,0.8409,1.5071,0,0,0.40130615234375,0.5061187744140625,0.130645751953125,0.38448429107666016,-0.5249468684196472,-0.3734758496284485
362,0.9342,1.6267,0,0,0.3640899658203125,0.48638916015625,0.21826171875,1.1000982522964478,-0.4151042401790619,-0.3824025094509125
363,1.0382,1.7676,0,0,0.370452880859375,0.5656585693359375,0.3447113037109375,1.8702343702316284,-0.39148253202438354,-0.30998849868774414
364,1.1446,1.9123,0,0,0.320068359375,0.7628631591796875,0.4521331787109375,2.5538992881774902,-0.7871329188346863,-0.32814139127731323
365,1.2445,2.0442,0,0,0.2500762939453125,1.0650634765625,0.6344146728515625,2.8047940731048584,-1.7795807123184204,-0.39914900064468384
366,1.3295,2.1495,0,0,-0.0014801025390625,1.423065185546875,0.9290008544921875,2.0595016479492188,-2.311500310897827,-0.8551610112190247
367,1.3928,2.2192,0,0,0.0025482177734375,1.6416015625,1.1067657470703125,0.4037799537181854,-1.3652684688568115,-1.2433340549468994
368,1.4305,2.2486,0,0,-0.0212554931640625,1.515045166015625,0.9441375732421875,-0.897956371307373,-0.11434681713581085,-0.8406206369400024
369,1.4415,2.2377,0,0,0.11627197265625,1.347259521484375,1.04827880859375,-0.7124651074409485,2.368525266647339,-0.696062445640564
370,1.4276,2.1898,0,0,0.43682861328125,0.8975677490234375,0.830078125,-0.8740665316581726,2.0074307918548584,-0.6806331276893616
371,1.393,2.1104,0,0,0.57470703125,0.5883026123046875,0.281524658203125,-0.35585662722587585,-0.38449788093566895,-0.13684865832328796
372,1.3434,2.0067,0,0,0.6399688720703125,0.6216583251953125,-0.092926025390625,0.5651217103004456,-0.5372567772865295,1.020062804222107
373,1.2847,1.8865,0,0,0.56463623046875,0.945404052734375,-0.1010589599609375,1.4538865089416504,0.5486735105514526,1.6518219709396362
374,1.2228,1.7587,0,0,0.6349029541015625,1.45135498046875,-0.074737548828125,1.8365927934646606,1.7581225633621216,1.0295854806900024
375,1.1625,1.633,0,0,0.6394500732421875,1.22100830078125,-0.134490966796875,1.4766615629196167,2.162611246109009,0.48023903369903564
376,1.1074,1.5198,0,0,0.408111572265625,0.9426727294921875,-0.1117401123046875,0.5872312784194946,1.651633858680725,0.695168673992157
377,1.0599,1.4298,0,0,0.1926422119140625,0.8493194580078125,-0.1169586181640625,-0.16660469770431519,1.3515018224716187,0.8116617202758789
378,1.0207,1.3729,0,0,0.0047607421875,0.8324737548828125,-0.2813568115234375,-0.2953554689884186,0.9201788902282715,0.442255437374115
379,0.9899,1.3564,0,0,0.010833740234375,0.880828857421875,-0.344635009765625,-0.017710819840431213,0.5179808139801025,-0.02887825295329094
380,0.9662,1.3837,0,0,0.0738372802734375,0.9369964599609375,-0.3083953857421875,0.5165802836418152,0.38899436593055725,-0.1409749686717987
381,0.9484,1.4536,0,0,0.046905517578125,1.08935546875,-0.2014007568359375,0.7342582941055298,0.7653104662895203,-0.10773365199565887
382,0.9348,1.5594,0,0,0.0919647216796875,1.133209228515625,-0.05322265625,0.8525564074516296,1.366747260093689,-0.4937514066696167
383,0.9243,1.6897,0,0,0.0915069580078125,1.0023956298828125,-0.04620361328125,1.1214754581451416,1.6361085176467896,-0.6109256744384766
384,0.9164,1.8299,0,0,0.070831298828125,0.9133758544921875,-0.027435302734375,1.342246174812317,1.4398068189620972,-0.7520756125450134
385,0.911,1.9633,0,0,0.0470428466796875,0.8515777587890625,-0.0126190185546875,1.4318808317184448,1.138696312904358,-0.8274662494659424
386,0.9087,2.0738,0,0,0.0260009765625,0.834320068359375,0.0141143798828125,1.3299565315246582,0.7895188927650452,-0.7846586108207703
387,0.9104,2.1472,0,0,0.000244140625,0.871795654296875,0.0245513916015625,1.1752409934997559,0.44592103362083435,-0.6435792446136475
388,0.9169,2.1732,0,0,0.0029296875,0.898529052734375,-0.12078857421875,1.3118460178375244,-1.5694175958633423,-0.25436675548553467
389,0.929,2.1468,0,0,-0.0331878662109375,0.9244842529296875,0.154022216796875,1.2149173021316528,-3.653472900390625,0.1514049619436264
390,0.947,2.0696,0,0,-0.0444793701171875,0.9271392822265625,0.227447509765625,0.7160760760307312,-3.2084412574768066,0.1423153281211853
391,0.9708,1.9491,0,0,-0.022308349609375,0.890716552734375,0.234405517578125,0.59220951795578,-1.9193228483200073,0.049735598266124725
392,0.9998,1.7985,0,0,0.0294036865234375,0.872100830078125,0.260040283203125,0.8256281614303589,-0.8758894205093384,0.06696092337369919
393,1.0328,1.6343,0,0,0.1639251708984375,0.939544677734375,0.2831573486328125,0.9648445844650269,-0.19175158441066742,0.18496106564998627
394,1.0681,1.4743,0,0,0.2679290771484375,1.07733154296875,0.314422607421875,0.7611979842185974,0.2819667160511017,0.35703030228614807
395,1.104,1.3355,0,0,0.2590484619140625,1.1295928955078125,0.3263702392578125,0.4068117141723633,0.37909698486328125,0.42440587282180786
396,1.1387,1.232,0,0,0.155670166015625,1.0335540771484375,0.306488037109375,0.042153846472501755,0.7755066156387329,0.3720710277557373
397,1.1705,1.1741,0,0,0.010284423828125,1.053009033203125,0.1450347900390625,-0.10222224146127701,1.588427186012268,0.4185096323490143
398,1.1981,1.1678,0,0,-0.1109619140625,1.209503173828125,-0.0084991455078125,-0.1935095489025116,1.9790964126586914,0.48142680525779724
399,1.2205,1.2146,0,0,-0.11566162109375,1.31024169921875,-0.1190948486328125,-0.39119598269462585,1.808825135231018,0.6336429715156555
400,1.2373,1.312,0,0,-0.1577301025390625,1.439666748046875,-0.234344482421875,-0.35529711842536926,0.6401195526123047,0.40556320548057556
401,1.2485,1.4536,0,0,-0.0845489501953125,1.3806304931640625,-0.12908935546875,-0.048767805099487305,-0.8050776124000549,-0.22655697166919708
402,1.254,1.6293,0,0,0.1036224365234375,1.21771240234375,0.027587890625,-0.2174612134695053,-1.1386853456497192,-0.6091898679733276
403,1.254,1.8261,0,0,0.2260589599609375,1.0156707763671875,0.014739990234375,-0.6832289099693298,-1.2418460845947266,-0.6682712435722351
404,1.2483,2.029,0,0,0.2669525146484375,0.8882293701171875,0.0196075439453125,-1.3735191822052002,-1.3713843822479248,-0.5346455574035645
405,1.2363,2.2219,0,0,0.2848663330078125,1.0152435302734375,0.095428466796875,-2.156224250793457,-1.649983525276184,-0.24217161536216736
406,1.2167,2.3896,0,0,0.2052764892578125,1.25335693359375,0.1696319580078125,-2.696237802505493,-1.2259140014648438,-0.2361994832754135
407,1.1885,2.5186,0,0,0.2321624755859375,1.1638946533203125,0.0725860595703125,-2.187499523162842,-0.13740020990371704,-0.4065890610218048
408,1.1504,2.5989,0,0,0.456695556640625,1.217742919921875,0.08233642578125,-1.433154582977295,1.2166177034378052,-0.05817275866866112
409,1.1021,2.6245,0,0,0.5997467041015625,1.2744598388671875,0.15814208984375,-1.5140576362609863,1.891707181930542,1.1361631155014038
410,1.0443,2.5946,0,0,0.3656463623046875,1.0185394287109375,0.0385284423828125,-1.94265615940094,1.7710574865341187,1.9025862216949463
411,0.9789,2.5136,0,0,0.263763427734375,0.7888641357421875,-0.114776611328125,-1.9120111465454102,1.2420727014541626,1.94833242893219
412,0.9093,2.3908,0,0,0.241668701171875,0.794708251953125,-0.218475341796875,-1.7718929052352905,0.20585782825946808,1.5188089609146118
413,0.8397,2.2399,0,0,0.197113037109375,0.8600616455078125,-0.2154388427734375,-1.6923882961273193,-0.9670555591583252,0.28933992981910706
414,0.7757,2.0777,0,0,0.2133026123046875,0.7582244873046875,0.0067901611328125,-1.7811740636825562,-1.579280138015747,0.10009490698575974
415,0.7229,1.9219,0,0,0.0908050537109375,0.7686004638671875,0.2358551025390625,-1.8967381715774536,-0.6614631414413452,0.07205874472856522
416,0.6868,1.7899,0,0,0.1457672119140625,0.676727294921875,0.112091064453125,-1.8005834817886353,0.8124572038650513,0.022550050169229507
417,0.6724,1.696,0,0,0.2390594482421875,0.6219940185546875,-0.0037384033203125,-1.4813604354858398,1.1522208452224731,0.08428744971752167
418,0.6831,1.6498,0,0,0.2955169677734375,0.6457061767578125,-0.0798492431640625,-1.0104243755340576,0.6647921204566956,0.05041390657424927
419,0.7206,1.6548,0,0,0.3712005615234375,0.6037445068359375,-0.007080078125,-0.4225326180458069,-0.16232366859912872,-0.1620331108570099
420,0.7841,1.7077,0,0,0.435302734375,0.535400390625,0.10125732421875,0.35741618275642395,-0.5895493030548096,-0.4188092350959778
421,0.8703,1.7989,0,0,0.4073486328125,0.46319580078125,0.255950927734375,1.198326826095581,-0.5413564443588257,-0.45452091097831726
422,0.9736,1.9135,0,0,0.321136474609375,0.4945526123046875,0.3449859619140625,2.0270588397979736,-0.5327379703521729,-0.4449199438095093
423,1.0861,2.0344,0,0,0.2600555419921875,0.6014251708984375,0.4279632568359375,2.785895347595215,-0.6908798813819885,-0.45883655548095703
424,1.1987,2.1442,0,0,0.218536376953125,0.8378448486328125,0.57220458984375,3.058210611343384,-1.4688129425048828,-0.5042764544487
425,1.3023,2.2281,0,0,0.02777099609375,1.27154541015625,0.873779296875,2.466871738433838,-2.0643577575683594,-0.8086310625076294
426,1.3884,2.2752,0,0,-0.064727783203125,1.658416748046875,1.0706024169921875,0.8736593127250671,-1.255345106124878,-1.4465817213058472
427,1.4508,2.2797,0,0,0.0416717529296875,1.8156890869140625,0.985443115234375,-0.8536661863327026,0.07727374881505966,-1.2795836925506592
428,1.4862,2.2405,0,0,0.09197998046875,1.4453125,0.73193359375,-0.8547966480255127,1.6336174011230469,-0.6726979613304138
429,1.494,2.1601,0,0,0.530853271484375,0.88824462890625,1.0953521728515625,-1.1114028692245483,1.2482326030731201,-0.6756695508956909
430,1.4764,2.0446,0,0,0.6590576171875,0.4219512939453125,0.7294769287109375,-0.6552055478096008,-0.6351149082183838,0.04156715050339699
431,1.4375,1.9021,0,0,0.571746826171875,0.6149444580078125,0.0926361083984375,0.01684609241783619,-0.5300332307815552,1.0652058124542236
432,1.3829,1.743,0,0,0.5573883056640625,1.0489501953125,-0.159423828125,1.2520822286605835,1.129287838935852,2.118217706680298
433,1.3182,1.5795,0,0,0.534942626953125,1.55615234375,-0.216278076171875,1.725896954536438,2.026639938354492,1.9109715223312378
434,1.2489,1.4253,0,0,0.5605316162109375,1.43414306640625,-0.3139801025390625,1.391603708267212,1.6263352632522583,0.3010064363479614
435,1.18,1.2951,0,0,0.417449951171875,1.0357666015625,-0.2524566650390625,0.5938510894775391,1.0591052770614624,0.3409123122692108
436,1.1154,1.2026,0,0,0.120361328125,0.888427734375,-0.289703369140625,-0.11860360950231552,0.6126769781112671,0.5748428106307983
437,1.0581,1.1593,0,0,-0.0849609375,0.818572998046875,-0.3548126220703125,-0.35125282406806946,0.023434752598404884,0.13542599976062775
438,1.0097,1.1721,0,0,-0.1293182373046875,0.7918548583984375,-0.4083709716796875,0.03562324121594429,-0.1292293518781662,-0.43288618326187134
439,0.9708,1.2416,0,0,-0.0448150634765625,0.9105072021484375,-0.31488037109375,0.47907230257987976,-0.10361400991678238,-0.6494233012199402
440,0.9411,1.3621,0,0,0.0115814208984375,1.011932373046875,-0.0925445556640625,0.7837080955505371,0.5173909664154053,-0.6532902121543884
441,0.9197,1.5212,0,0,0.086669921875,1.0870819091796875,-0.0729827880859375,1.084524154663086,1.1692984104156494,-0.6044661998748779
442,0.9055,1.7015,0,0,0.130157470703125,1.02691650390625,-0.051605224609375,1.4536188840866089,1.105963110923767,-0.7626081705093384
443,0.8975,1.8825,0,0,0.1038665771484375,0.9196624755859375,-0.01300048828125,1.6607842445373535,0.831149160861969,-0.738208532333374
444,0.8947,2.0428,0,0,0.0853729248046875,0.8344879150390625,0.017059326171875,1.6543617248535156,0.6089075207710266,-0.6916708946228027
445,0.8968,2.1633,0,0,0.0864105224609375,0.8317413330078125,0.0320892333984375,1.5018023252487183,0.37423405051231384,-0.5786950588226318
446,0.9034,2.2288,0,0,0.1518402099609375,0.8573150634765625,-0.0382843017578125,1.2836835384368896,-1.334970235824585,-0.26946794986724854
447,0.9145,2.2305,0,0,0.1541595458984375,0.892333984375,0.1705322265625,0.808438241481781,-4.135604381561279,0.1371258944272995
448,0.9301,2.1668,0,0,0.1238250732421875,0.956634521484375,0.2280731201171875,0.4427209794521332,-3.6127078533172607,0.08235133439302444
449,0.9502,2.0441,0,0,0.069671630859375,0.921051025390625,0.262603759765625,0.5453136563301086,-1.829763650894165,0.0782197043299675
450,0.9744,1.8751,0,0,0.0497589111328125,0.8516082763671875,0.311920166015625,0.8194890022277832,-0.18253439664840698,0.11098617315292358
451,1.0022,1.6773,0,0,0.120361328125,0.8474578857421875,0.2717437744140625,0.8328359723091125,0.5342575311660767,0.21158522367477417
452,1.0327,1.4704,0,0,0.213653564453125,0.9612884521484375,0.2123260498046875,0.6165910363197327,0.8498706221580505,0.37409716844558716
453,1.0648,1.274,0,0,0.2583160400390625,1.1117401123046875,0.153472900390625,0.47749173641204834,0.7806825041770935,0.480957567691803
454,1.0972,1.1054,0,0,0.2173614501953125,1.0854339599609375,0.1709747314453125,0.43364250659942627,0.5028066635131836,0.47746989130973816
455,1.1285,0.9786,0,0,0.06512451171875,1.036163330078125,0.1910400390625,0.30399665236473083,0.671262264251709,0.43826550245285034
456,1.1574,0.9033,0,0,-0.0855865478515625,1.0968170166015625,0.167266845703125,0.0010495517635717988,1.1204285621643066,0.41680067777633667
457,1.1827,0.8847,0,0,-0.14886474609375,1.1846771240234375,-0.02752685546875,-0.1751188188791275,1.655450463294983,0.4821386933326721
458,1.2038,0.924,0,0,-0.1417388916015625,1.2967529296875,-0.1770477294921875,-0.17847120761871338,1.4160863161087036,0.5721220970153809
459,1.2202,1.018,0,0,-0.228515625,1.416412353515625,-0.1615142822265625,-0.09197919070720673,0.06947921216487885,0.45963922142982483
460,1.2317,1.1599,0,0,-0.0641937255859375,1.363250732421875,-0.022369384765625,-0.07683432847261429,-0.7877273559570312,-0.22779640555381775
461,1.2386,1.339,0,0,0.136993408203125,1.19439697265625,0.058441162109375,-0.3426055610179901,-0.6246769428253174,-0.6043024063110352
462,1.2407,1.5417,0,0,0.2339630126953125,1.034759521484375,0.029632568359375,-0.7596278190612793,-0.5040093660354614,-0.642498254776001
463,1.2376,1.7518,0,0,0.2430572509765625,0.9575958251953125,0.0097808837890625,-1.2950166463851929,-0.766379177570343,-0.5367001891136169
464,1.2284,1.9526,0,0,0.3230133056640625,0.894989013671875,-0.0757293701171875,-1.7600456476211548,-1.3860267400741577,-0.2927117645740509
465,1.2119,2.1275,0,0,0.212799072265625,1.19805908203125,0.1046905517578125,-2.4100446701049805,-1.323160171508789,-0.40481725335121155
466,1.1865,2.2626,0,0,0.2716522216796875,1.1157379150390625,0.0472564697265625,-2.3596673011779785,-0.653484046459198,-0.6848902106285095
467,1.1509,2.3472,0,0,0.477569580078125,1.2057342529296875,0.042388916015625,-1.7821391820907593,0.2626555860042572,-0.37443432211875916
468,1.1044,2.3755,0,0,0.6417236328125,1.3219757080078125,0.0522003173828125,-1.4623268842697144,1.3049614429473877,0.681418776512146
469,1.0476,2.3471,0,0,0.4887847900390625,1.147552490234375,0.03240966796875,-1.746748924255371,1.245996356010437,1.801051378250122
470,0.9826,2.2671,0,0,0.2446136474609375,0.8371429443359375,-0.08514404296875,-1.9905874729156494,0.48242416977882385,1.9061223268508911
471,0.9127,2.1455,0,0,0.194854736328125,0.8560333251953125,-0.1618804931640625,-1.8865854740142822,-0.2616419792175293,0.8387072086334229
472,0.8428,1.9967,0,0,0.232818603515625,0.697998046875,-0.1061859130859375,-1.732554316520691,-0.6513943076133728,0.12610574066638947
473,0.7782,1.838,0,0,0.1489410400390625,0.7287750244140625,0.098297119140625,-1.8144246339797974,-0.8814016580581665,0.20136427879333496
474,0.7248,1.6875,0,0,0.1244354248046875,0.6797332763671875,0.1207122802734375,-1.827368974685669,-0.18964290618896484,0.1451694369316101
475,0.688,1.5625,0,0,0.1620025634765625,0.6774749755859375,0.030242919921875,-1.5915833711624146,0.5857310891151428,0.12473367899656296
476,0.6724,1.4773,0,0,0.2322540283203125,0.6887054443359375,-0.0351409912109375,-1.3069654703140259,0.5740978717803955,0.1652986854314804
477,0.6815,1.4414,0,0,0.2738037109375,0.706878662109375,-0.07708740234375,-0.9446000456809998,-0.011464642360806465,0.06285912543535233
478,0.7166,1.458,0,0,0.32989501953125,0.7001800537109375,-0.02239990234375,-0.38660070300102234,-0.5832908749580383,-0.2546898126602173
479,0.7771,1.5237,0,0,0.3919525146484375,0.6219329833984375,0.140289306640625,0.1904706060886383,-0.6333111524581909,-0.5539404153823853
480,0.86,1.6289,0,0,0.4051055908203125,0.53497314453125,0.26727294921875,0.79274582862854,-0.32958510518074036,-0.6352448463439941
481,0.9601,1.759,0,0,0.310333251953125,0.475799560546875,0.3095703125,1.5137269496917725,-0.33920523524284363,-0.6277219653129578
482,1.07,1.8967,0,0,0.27044677734375,0.55267333984375,0.3772735595703125,2.376915454864502,-0.6888172626495361,-0.6115286350250244
483,1.181,2.0245,0,0,0.274139404296875,0.7817230224609375,0.5199127197265625,2.9125289916992188,-1.58700692653656,-0.5315304398536682
484,1.284,2.1274,0,0,0.1816253662109375,1.117645263671875,0.7919158935546875,2.62900710105896,-2.2228169441223145,-0.5889700651168823
485,1.3707,2.1944,0,0,0.0296630859375,1.51593017578125,1.0359954833984375,1.3060975074768066,-1.5864360332489014,-0.9429036378860474
486,1.4343,2.219,0,0,0.0518798828125,1.779296875,1.0028076171875,-0.4007870852947235,-0.45150354504585266,-0.9743371605873108
487,1.471,2.1997,0,0,0.090301513671875,1.5745086669921875,0.7975311279296875,-0.8777531385421753,1.2546546459197998,-0.6685921549797058
488,1.4798,2.1386,0,0,0.4087982177734375,1.111083984375,0.9569244384765625,-0.9876329898834229,2.0026681423187256,-0.8027968406677246
489,1.4626,2.041,0,0,0.5897216796875,0.6482391357421875,0.697784423828125,-0.9660720825195312,-0.09676622599363327,-0.26995664834976196
490,1.4237,1.9145,0,0,0.631011962890625,0.7153472900390625,0.1628570556640625,-0.3150264024734497,-0.5952649712562561,0.6468565464019775
491,1.369,1.7687,0,0,0.76348876953125,1.038330078125,-0.2249603271484375,1.1477055549621582,0.7763098478317261,1.9562870264053345
492,1.3048,1.6147,0,0,0.5843963623046875,1.45904541015625,-0.1368408203125,1.8298572301864624,1.9800575971603394,1.380863904953003
493,1.2374,1.4654,0,0,0.5947723388671875,1.1434478759765625,-0.2994384765625,1.445946216583252,1.8614143133163452,0.3214920163154602
494,1.1723,1.3344,0,0,0.4488677978515625,0.9560089111328125,-0.3153533935546875,0.7202303409576416,1.2788217067718506,0.6382023096084595
495,1.1134,1.2352,0,0,0.19915771484375,0.827362060546875,-0.3089447021484375,-0.04519783705472946,0.6909826993942261,0.8600215315818787
496,1.0634,1.1794,0,0,-0.146270751953125,0.7203369140625,-0.3537139892578125,-0.32312560081481934,0.3341050148010254,0.47924596071243286
497,1.0231,1.1748,0,0,-0.116455078125,0.79864501953125,-0.3822784423828125,-0.15994146466255188,0.0016429040115326643,-0.10789503902196884
498,0.9922,1.2237,0,0,-0.0518646240234375,0.967620849609375,-0.3094940185546875,0.10054684430360794,0.10952010005712509,-0.46917200088500977
499,0.9691,1.3219,0,0,0.0439910888671875,1.1834869384765625,-0.2974853515625,0.7663933038711548,0.45293793082237244,-0.5311147570610046
500,0.9521,1.4594,0,0,0.1193695068359375,1.232330322265625,-0.150360107421875,1.321285605430603,0.811051607131958,-0.4973312020301819
501,0.9393,1.6207,0,0,0.1183319091796875,1.0529937744140625,-0.089263916015625,1.6407532691955566,0.8653630018234253,-0.6798445582389832
502,0.9295,1.7871,0,0,0.1051025390625,0.90887451171875,-0.0085906982421875,1.772746205329895,0.7402610182762146,-0.7560147047042847
503,0.9221,1.9389,0,0,0.09185791015625,0.7897796630859375,0.0191497802734375,1.7626980543136597,0.5883870720863342,-0.8092734217643738
504,0.9172,2.0578,0,0,0.0692291259765625,0.783203125,0.049530029296875,1.6738688945770264,0.37289926409721375,-0.7859582304954529
505,0.9153,2.1291,0,0,0.1086273193359375,0.8763885498046875,0.13861083984375,1.444523811340332,-0.32212957739830017,-0.6550880670547485
506,0.9173,2.1433,0,0,0.1502227783203125,0.918792724609375,0.33526611328125,0.41982150077819824,-3.2196578979492188,-0.13360679149627686
507,0.9242,2.0972,0,0,0.07708740234375,0.926544189453125,0.292755126953125,0.05765051394701004,-3.3395493030548096,0.26444923877716064
508,0.9368,1.9942,0,0,-0.0063018798828125,0.9443359375,0.244720458984375,0.4559379816055298,-1.5212786197662354,0.25174593925476074
509,0.9556,1.8439,0,0,-0.015228271484375,0.9003143310546875,0.2105560302734375,0.9004296660423279,0.4729803502559662,0.15506228804588318
510,0.9805,1.6606,0,0,0.0020599365234375,0.86761474609375,0.1474761962890625,0.872475802898407,1.5820436477661133,0.11241469532251358
511,1.0108,1.4616,0,0,0.1190185546875,0.882171630859375,0.087127685546875,0.6781867742538452,1.7467790842056274,0.14096617698669434
512,1.0453,1.2651,0,0,0.289337158203125,1.0194244384765625,0.0211029052734375,0.5237132906913757,0.007334079127758741,0.28168201446533203
513,1.082,1.0883,0,0,0.27020263671875,1.04217529296875,0.1981353759765625,0.37277862429618835,-0.5346388816833496,0.26381272077560425
514,1.1187,0.9461,0,0,0.1910247802734375,1.0274505615234375,0.3083343505859375,0.12833400070667267,0.14059892296791077,0.3337657153606415
515,1.1529,0.8495,0,0,0.010833740234375,1.0840301513671875,0.2420806884765625,-0.1479276716709137,0.8809851408004761,0.43101397156715393
516,1.1826,0.8056,0,0,-0.0751495361328125,1.2084197998046875,0.01690673828125,-0.2354615181684494,1.4732122421264648,0.4306837320327759
517,1.2059,0.8169,0,0,-0.0699920654296875,1.3028106689453125,-0.1465301513671875,-0.10078493505716324,1.4292492866516113,0.4506249725818634
518,1.2219,0.8816,0,0,-0.092864990234375,1.4335479736328125,-0.136444091796875,0.10251066088676453,0.3572460114955902,0.3188416361808777
519,1.2301,0.9942,0,0,0.02783203125,1.3719940185546875,0.0327301025390625,0.14213024079799652,-0.5425106883049011,-0.3773784339427948
520,1.2308,1.1451,0,0,0.183135986328125,1.23760986328125,0.1275634765625,-0.23589321970939636,-0.5380530953407288,-0.5781049132347107
521,1.2249,1.3219,0,0,0.24688720703125,1.112579345703125,0.1207427978515625,-0.8028844594955444,-0.24330666661262512,-0.5619360208511353
522,1.2131,1.5101,0,0,0.2462921142578125,0.9386444091796875,0.009735107421875,-1.2727144956588745,-0.23503194749355316,-0.3858579397201538
523,1.1959,1.6941,0,0,0.21600341796875,0.798797607421875,-0.074615478515625,-1.6801753044128418,-0.6160626411437988,-0.26417893171310425
524,1.1736,1.8589,0,0,0.1693115234375,1.1775054931640625,0.11865234375,-2.2966978549957275,-0.6772565245628357,-0.3572348356246948
525,1.1458,1.9917,0,0,0.1823577880859375,1.1297760009765625,0.0653839111328125,-2.3915324211120605,-0.3336426913738251,-0.5895019173622131
526,1.1123,2.0826,0,0,0.3302154541015625,1.104217529296875,0.02325439453125,-1.8861335515975952,-0.07903942465782166,-0.5284616947174072
527,1.0727,2.1261,0,0,0.5311737060546875,1.2516937255859375,0.05694580078125,-1.4059455394744873,0.5339882969856262,0.22608773410320282
528,1.0272,2.1213,0,0,0.469329833984375,1.1618804931640625,0.0992889404296875,-1.5201536417007446,0.7982492446899414,1.3903820514678955
529,0.977,2.0719,0,0,0.19427490234375,0.8766937255859375,0.0404052734375,-1.8186793327331543,0.6202768683433533,1.57648503780365
530,0.9239,1.986,0,0,0.1385040283203125,0.7681884765625,-0.1387176513671875,-1.7048004865646362,0.20722748339176178,1.365218162536621
531,0.8707,1.8754,0,0,0.127471923828125,0.7190399169921875,-0.249237060546875,-1.357404351234436,-0.7047459483146667,0.9259499311447144
532,0.8211,1.7543,0,0,0.11187744140625,0.8252716064453125,-0.006500244140625,-1.3748915195465088,-1.1584774255752563,0.4239360988140106
533,0.7791,1.6382,0,0,0.1671295166015625,0.7949676513671875,0.053680419921875,-1.5611679553985596,-0.5597967505455017,0.17373104393482208
534,0.7488,1.5417,0,0,0.2390289306640625,0.7517547607421875,0.009124755859375,-1.5277074575424194,0.2828679084777832,0.1900157481431961
535,0.7342,1.4775,0,0,0.31744384765625,0.802154541015625,0.035797119140625,-1.3370951414108276,0.9877512454986572,-0.024089090526103973
536,0.7388,1.4545,0,0,0.447540283203125,0.771575927734375,-0.054443359375,-1.102070689201355,0.9783047437667847,-0.072578065097332
537,0.7647,1.4765,0,0,0.42852783203125,0.7245330810546875,-0.0977325439453125,-0.7835451364517212,0.17271824181079865,-0.27366989850997925
538,0.8128,1.5416,0,0,0.439788818359375,0.5819244384765625,0.05096435546875,-0.2807866632938385,-0.44375932216644287,-0.6679940223693848
539,0.8817,1.6424,0,0,0.4171142578125,0.460357666015625,0.271575927734375,0.12685275077819824,-0.3271368443965912,-0.7195669412612915
540,0.968,1.7667,0,0,0.3224029541015625,0.43756103515625,0.3310394287109375,0.9235331416130066,-0.4833144545555115,-0.5877516865730286
541,1.0659,1.8995,0,0,0.1728363037109375,0.4601287841796875,0.508087158203125,2.2178103923797607,-1.072048544883728,-0.41003891825675964
542,1.1679,2.0252,0,0,0.14947509765625,0.6409759521484375,0.6990966796875,3.0502564907073975,-1.4881994724273682,-0.39729809761047363
543,1.2655,2.1297,0,0,0.092803955078125,1.068603515625,0.8152008056640625,2.8850297927856445,-2.107245922088623,-0.5491254329681396
544,1.3502,2.2027,0,0,0.035491943359375,1.50347900390625,0.8934173583984375,1.8971885442733765,-1.7998164892196655,-0.9917507767677307
545,1.4147,2.2379,0,0,0.075103759765625,1.68585205078125,0.863067626953125,0.32245582342147827,-0.6431493759155273,-1.0908342599868774
546,1.4541,2.2335,0,0,0.2387847900390625,1.542144775390625,0.553680419921875,-0.42808130383491516,0.9371882081031799,-0.5118025541305542
547,1.4661,2.1908,0,0,0.3390655517578125,1.365753173828125,0.9017486572265625,-0.6771484017372131,1.8910739421844482,-0.5324857234954834
548,1.4516,2.1141,0,0,0.6559295654296875,0.84490966796875,0.9310150146484375,-1.5961735248565674,0.6582441926002502,-0.215297132730484
549,1.4139,2.0093,0,0,0.6316375732421875,0.6249237060546875,0.2191162109375,-0.817558228969574,-0.05441264063119888,0.403584748506546
550,1.3585,1.8838,0,0,0.729248046875,1.0096588134765625,-0.3106842041015625,1.0073387622833252,0.9749031066894531,1.8024897575378418
551,1.2919,1.7468,0,0,0.5245513916015625,1.384307861328125,-0.1960296630859375,1.938172698020935,1.6046812534332275,2.0703046321868896
552,1.2207,1.6089,0,0,0.391693115234375,1.3141021728515625,-0.269561767578125,1.6301568746566772,1.5764507055282593,0.5627043843269348
553,1.1512,1.4818,0,0,0.2996826171875,0.88824462890625,-0.2181243896484375,0.6465707421302795,1.190024495124817,0.29981309175491333
554,1.0882,1.3778,0,0,0.0377655029296875,0.741668701171875,-0.212615966796875,-0.1625622808933258,1.2973240613937378,0.45350515842437744
555,1.0351,1.3081,0,0,-0.1094970703125,0.731475830078125,-0.3935546875,-0.2348037213087082,1.282086730003357,0.03464586287736893
556,0.9934,1.2812,0,0,-0.0752105712890625,0.7917938232421875,-0.373138427734375,-0.10131356865167618,0.681433379650116,-0.29233813285827637
557,0.9627,1.3013,0,0,0.017578125,0.9964599609375,-0.33160400390625,0.3188493549823761,0.2888011634349823,-0.4370923638343811
558,0.9418,1.3672,0,0,0.06591796875,1.131683349609375,-0.2478790283203125,0.9474392533302307,0.18444281816482544,-0.3990999758243561
559,0.9284,1.4719,0,0,0.093505859375,1.1422271728515625,-0.1175689697265625,1.3613075017929077,0.2651991844177246,-0.4118916690349579
560,0.9203,1.6028,0,0,0.10858154296875,1.019195556640625,-0.023101806640625,1.448085069656372,0.5858938097953796,-0.47539129853248596
561,0.9158,1.743,0,0,0.0672607421875,0.9131011962890625,0.0039825439453125,1.444869041442871,0.7237890958786011,-0.5206536054611206
562,0.9134,1.8733,0,0,0.037933349609375,0.825653076171875,0.005706787109375,1.4592349529266357,0.6414241790771484,-0.5742776393890381
563,0.9128,1.9749,0,0,0.0532684326171875,0.8724365234375,0.02166748046875,1.5021415948867798,0.4414921700954437,-0.5241979956626892
564,0.9142,2.0313,0,0,0.0701904296875,0.9084320068359375,0.0507965087890625,1.4449230432510376,-0.26926448941230774,-0.3814552128314972
565,0.9181,2.0312,0,0,0.1263885498046875,0.920196533203125,0.2391357421875,0.688899040222168,-3.747694730758667,0.0268931332975626
566,0.9255,1.97,0,0,0.0878448486328125,0.912933349609375,0.2628173828125,0.23089925944805145,-3.599090337753296,0.14343412220478058
567,0.9374,1.8507,0,0,0.029296875,0.8949737548828125,0.2248077392578125,0.35692083835601807,-1.7523748874664307,0.07318046689033508
568,0.9547,1.684,0,0,0.0201263427734375,0.84881591796875,0.1875152587890625,0.7447559237480164,-0.012910472229123116,0.10713550448417664
569,0.9775,1.486,0,0,0.0582427978515625,0.867095947265625,0.1669921875,0.8740465044975281,0.8897597193717957,0.17265087366104126
570,1.0058,1.2766,0,0,0.1691131591796875,0.9451751708984375,0.1502227783203125,0.6927241683006287,0.9925803542137146,0.25033366680145264
571,1.0386,1.0769,0,0,0.319061279296875,1.0600128173828125,0.115325927734375,0.49249064922332764,-0.0011118697002530098,0.3664248585700989
572,1.0746,0.9066,0,0,0.255706787109375,1.0201568603515625,0.224029541015625,0.3808242976665497,-0.2616680860519409,0.30395641922950745
573,1.1122,0.782,0,0,0.133392333984375,0.994110107421875,0.2359619140625,0.2150140404701233,0.3124188780784607,0.32720157504081726
574,1.1492,0.7146,0,0,-0.037109375,1.0653533935546875,0.139373779296875,-0.04832279309630394,0.8445165753364563,0.39900436997413635
575,1.1837,0.7106,0,0,-0.0936126708984375,1.2194976806640625,-0.048095703125,-0.21641778945922852,1.1227293014526367,0.4329991042613983
576,1.214,0.7703,0,0,-0.10125732421875,1.42999267578125,-0.1309967041015625,-0.222524955868721,0.9274056553840637,0.4024185538291931
577,1.2388,0.8886,0,0,-0.111480712890625,1.4586181640625,-0.05548095703125,-0.09943604469299316,-0.011921640485525131,0.29429155588150024
578,1.2569,1.0554,0,0,-0.00146484375,1.346405029296875,0.1021728515625,-0.12856809794902802,-0.7329146862030029,-0.40637415647506714
579,1.2676,1.2566,0,0,0.187530517578125,1.160064697265625,0.1348724365234375,-0.7146480679512024,-0.6301763653755188,-0.593172550201416
580,1.2704,1.4753,0,0,0.2396087646484375,1.007476806640625,0.0062713623046875,-1.2520118951797485,-0.5381010174751282,-0.5081817507743835
581,1.2645,1.6933,0,0,0.22576904296875,0.853271484375,-0.1239471435546875,-1.5852487087249756,-0.47681209444999695,-0.35968974232673645
582,1.2489,1.8931,0,0,0.2269744873046875,1.2154541015625,0.1168670654296875,-2.1454336643218994,-0.46888652443885803,-0.3571450710296631
583,1.2227,2.0589,0,0,0.2626953125,1.14483642578125,0.0687713623046875,-2.454141616821289,-0.15242069959640503,-0.4919564127922058
584,1.1849,2.1787,0,0,0.3546600341796875,1.1483001708984375,0.041748046875,-2.016834020614624,0.2613365352153778,-0.44417211413383484
585,1.1354,2.245,0,0,0.57025146484375,1.2535552978515625,0.071990966796875,-1.6044073104858398,0.7588240504264832,0.19536736607551575
586,1.0748,2.2557,0,0,0.53619384765625,1.236663818359375,0.096923828125,-1.5992988348007202,1.1776015758514404,1.3340638875961304
587,1.0052,2.2141,0,0,0.25689697265625,0.980865478515625,0.008026123046875,-1.8032796382904053,1.09559965133667,1.732774257659912
588,0.9301,2.1284,0,0,0.1500244140625,0.83831787109375,-0.21295166015625,-1.7348475456237793,0.43094873428344727,1.4242737293243408
589,0.8541,2.0114,0,0,0.1795654296875,0.856475830078125,-0.149932861328125,-1.639223575592041,-0.4017317295074463,0.5939635038375854
590,0.7831,1.8788,0,0,0.146087646484375,0.7141876220703125,-0.0613555908203125,-1.701844334602356,-0.8256345391273499,0.06983580440282822
591,0.7233,1.7479,0,0,0.1234588623046875,0.6888275146484375,0.071929931640625,-1.8478902578353882,-0.7994604706764221,0.058272361755371094
592,0.6806,1.6355,0,0,0.1315155029296875,0.644317626953125,0.07696533203125,-1.7745369672775269,-0.03593616187572479,0.07355144619941711
593,0.6603,1.5562,0,0,0.219757080078125,0.6544647216796875,-0.00482177734375,-1.5225193500518799,0.6843152046203613,0.06996496766805649
594,0.6663,1.5204,0,0,0.3036956787109375,0.649444580078125,-0.0687255859375,-1.185252070426941,0.5072357654571533,0.09024707227945328
595,0.7005,1.5331,0,0,0.3458251953125,0.661773681640625,-0.079498291015625,-0.7003711462020874,-0.03160879388451576,-0.20343302190303802
596,0.7624,1.5929,0,0,0.4403839111328125,0.593902587890625,-0.0237579345703125,0.08092600852251053,-0.45896145701408386,-0.5295349359512329
597,0.849,1.6924,0,0,0.428863525390625,0.5037841796875,0.1320648193359375,0.8053154349327087,-0.7044612169265747,-0.5838362574577332
598,0.9546,1.8187,0,0,0.3635406494140625,0.5176544189453125,0.2696533203125,1.5086418390274048,-0.7085936665534973,-0.5564746856689453
599,1.0715,1.9559,0,0,0.2423553466796875,0.5676422119140625,0.3821258544921875,2.246924877166748,-0.9313545823097229,-0.6560707688331604
600,1.1902,2.0872,0,0,0.27178955078125,0.7888336181640625,0.5023345947265625,2.812389850616455,-1.4919153451919556,-0.5380890369415283
601,1.301,2.1971,0,0,0.1684112548828125,1.1491241455078125,0.7915802001953125,2.742882013320923,-1.9595155715942383,-0.5651403665542603
602,1.3946,2.2734,0,0,-0.0098419189453125,1.540863037109375,0.965606689453125,1.7072702646255493,-1.4773907661437988,-1.007648229598999
603,1.4636,2.3081,0,0,0.055938720703125,1.7714080810546875,0.959625244140625,0.013848437927663326,-0.8048922419548035,-1.2189018726348877
604,1.5036,2.2976,0,0,0.1435699462890625,1.6287841796875,0.830963134765625,-1.000386118888855,0.517717719078064,-0.6098862290382385
605,1.5133,2.2424,0,0,0.46173095703125,1.268218994140625,1.0828704833984375,-1.0562344789505005,2.5047929286956787,-0.7134262323379517
606,1.4945,2.1464,0,0,0.7392425537109375,0.574676513671875,0.8209381103515625,-1.198701024055481,0.8665239214897156,-0.3270617425441742
607,1.4519,2.0164,0,0,0.509521484375,0.5129852294921875,0.2845306396484375,-0.6666531562805176,-0.8026120066642761,0.5340703129768372
608,1.3917,1.862,0,0,0.711578369140625,0.9447021484375,-0.394989013671875,0.8652788996696472,0.2078104466199875,1.8205965757369995
609,1.3208,1.6948,0,0,0.610748291015625,1.535919189453125,-0.3026580810546875,2.259334087371826,0.986867368221283,2.326615810394287
610,1.2463,1.5283,0,0,0.4038848876953125,1.4586334228515625,-0.2142181396484375,2.0103704929351807,1.2647429704666138,0.7430704236030579
611,1.1741,1.3767,0,0,0.29498291015625,0.887420654296875,-0.1966552734375,0.8182538151741028,0.8932545781135559,0.37507906556129456
612,1.1089,1.2538,0,0,0.0740203857421875,0.7162322998046875,-0.246368408203125,-0.14395850896835327,0.6601912379264832,0.6113049387931824
613,1.0537,1.1713,0,0,-0.1502685546875,0.71435546875,-0.373748779296875,-0.47820040583610535,0.23898941278457642,0.28289029002189636
614,1.0096,1.1362,0,0,-0.1361541748046875,0.830535888671875,-0.39056396484375,-0.2887558937072754,-0.012250274419784546,-0.2751796543598175
615,0.9762,1.1505,0,0,-0.0569610595703125,1.0633392333984375,-0.32330322265625,0.14441309869289398,-0.11455453932285309,-0.48181644082069397
616,0.952,1.2096,0,0,0.0117950439453125,1.205230712890625,-0.1359100341796875,0.6337982416152954,0.060623932629823685,-0.5300170183181763
617,0.935,1.3036,0,0,0.034332275390625,1.1675567626953125,-0.0464935302734375,1.0816329717636108,0.3817231357097626,-0.6919893622398376
618,0.9233,1.4179,0,0,0.0738067626953125,1.0242767333984375,-0.004913330078125,1.4606947898864746,0.5754480957984924,-0.8281890153884888
619,0.9152,1.536,0,0,0.079986572265625,0.8685302734375,0.02117919921875,1.6870601177215576,0.7823728322982788,-0.8105245232582092
620,0.9097,1.6413,0,0,0.0905609130859375,0.7568359375,0.054473876953125,1.6703828573226929,0.964227020740509,-0.6726180911064148
621,0.9065,1.7195,0,0,0.0685577392578125,0.78875732421875,0.061553955078125,1.452586054801941,1.0459405183792114,-0.5301703810691833
622,0.9058,1.7601,0,0,0.163787841796875,0.8791961669921875,0.08154296875,1.1346248388290405,0.5956602096557617,-0.3432862460613251
623,0.9082,1.7579,0,0,0.2722320556640625,0.9502410888671875,0.1552734375,0.33785074949264526,-2.083078145980835,0.037037912756204605
624,0.9147,1.7131,0,0,0.1913604736328125,0.99407958984375,0.114227294921875,0.3067561984062195,-2.6684911251068115,0.07458288967609406
625,0.926,1.6308,0,0,0.0668487548828125,0.9630889892578125,0.13116455078125,0.6469342708587646,-1.5982025861740112,0.12886637449264526
626,0.9429,1.5204,0,0,0.0012359619140625,0.8796234130859375,0.1396331787109375,0.8323089480400085,-0.23661945760250092,0.08251378685235977
627,0.9657,1.3936,0,0,0.0030670166015625,0.82366943359375,0.113372802734375,0.7865001559257507,0.6209676861763,0.11076299846172333
628,0.9941,1.2633,0,0,0.05523681640625,0.838836669921875,0.072662353515625,0.6915731430053711,0.8897266983985901,0.2254331260919571
629,1.0272,1.1416,0,0,0.198883056640625,0.9921112060546875,0.023773193359375,0.5814261436462402,0.1493910849094391,0.2587346136569977
630,1.0635,1.0389,0,0,0.267120361328125,1.0989837646484375,0.051971435546875,0.4993954300880432,-0.760931134223938,0.2171432375907898
631,1.1012,0.9631,0,0,0.300048828125,1.06866455078125,0.1825408935546875,0.4096474349498749,-0.9504643678665161,0.23449239134788513
632,1.1379,0.9198,0,0,0.1760101318359375,1.0519561767578125,0.3912200927734375,0.21213595569133759,-0.4037999212741852,0.30282965302467346
633,1.1716,0.912,0,0,-0.016632080078125,1.0778350830078125,0.3527069091796875,-0.17114964127540588,0.9384233951568604,0.4250524938106537
634,1.2006,0.9407,0,0,-0.084747314453125,1.218780517578125,0.0828094482421875,-0.2972138226032257,2.0134379863739014,0.501812756061554
635,1.2235,1.0056,0,0,-0.0848236083984375,1.4037017822265625,-0.07177734375,-0.18248911201953888,1.9636602401733398,0.4514087438583374
636,1.2395,1.1046,0,0,-0.0694427490234375,1.4256134033203125,-0.151275634765625,0.09251422435045242,0.8290505409240723,0.2979715168476105
637,1.2486,1.2338,0,0,0.041534423828125,1.2989959716796875,-0.0801849365234375,0.061696119606494904,-0.12532037496566772,-0.21322092413902283
638,1.251,1.3872,0,0,0.1324615478515625,1.16741943359375,0.0045013427734375,-0.3136149048805237,-0.49559909105300903,-0.37533819675445557
639,1.2468,1.5562,0,0,0.14862060546875,1.0390167236328125,-0.00579833984375,-0.7149397134780884,-0.6464061737060547,-0.24167974293231964
640,1.2362,1.7302,0,0,0.122711181640625,0.9657440185546875,-0.029571533203125,-1.0850011110305786,-1.0257058143615723,-0.10552535951137543
641,1.219,1.8966,0,0,0.1625518798828125,1.106475830078125,0.071868896484375,-1.814954400062561,-1.4452908039093018,-0.2104025036096573
642,1.1947,2.043,0,0,0.248809814453125,1.2068023681640625,0.134796142578125,-2.5739874839782715,-1.1836917400360107,-0.3236406445503235
643,1.1625,2.158,0,0,0.2451171875,1.093658447265625,0.0663909912109375,-2.4698119163513184,-0.6441584825515747,-0.5601788759231567
644,1.1219,2.2328,0,0,0.391082763671875,1.133056640625,0.02728271484375,-1.9546334743499756,-0.17816387116909027,-0.6256287097930908
645,1.073,2.2621,0,0,0.5853118896484375,1.2101898193359375,0.011566162109375,-1.4063522815704346,1.0047494173049927,0.05037715286016464
646,1.0168,2.2448,0,0,0.535064697265625,1.0916290283203125,-0.0061492919921875,-1.4426289796829224,1.219907283782959,1.1752463579177856
647,0.9552,2.1841,0,0,0.2849273681640625,0.8090667724609375,-0.05133056640625,-1.7446820735931396,0.7050263285636902,1.6259541511535645
648,0.8915,2.0875,0,0,0.21038818359375,0.7997589111328125,-0.2456512451171875,-1.8926483392715454,-0.0696302130818367,1.1057170629501343
649,0.8296,1.9657,0,0,0.1977996826171875,0.7476348876953125,-0.146148681640625,-1.775061011314392,-0.6302847266197205,0.23271873593330383
650,0.7742,1.8326,0,0,0.1410369873046875,0.666748046875,0.0404510498046875,-1.8044545650482178,-0.7721624970436096,0.22730718553066254
651,0.7299,1.7033,0,0,0.128021240234375,0.6714019775390625,0.1520233154296875,-1.9390957355499268,-0.3302639424800873,0.19768059253692627
652,0.7014,1.5932,0,0,0.1785125732421875,0.7000274658203125,0.0931549072265625,-1.8160955905914307,0.42100128531455994,0.0461089052259922
653,0.6923,1.5159,0,0,0.2340240478515625,0.72406005859375,0.008270263671875,-1.5513259172439575,0.8247695565223694,-0.0016024239594116807
654,0.7053,1.4818,0,0,0.3064422607421875,0.7603302001953125,-0.090728759765625,-1.0754286050796509,0.32441243529319763,-0.061464693397283554
655,0.7416,1.4961,0,0,0.313934326171875,0.7525177001953125,-0.1186370849609375,-0.48517706990242004,-0.5187994837760925,-0.17447832226753235
656,0.8006,1.5586,0,0,0.374114990234375,0.67205810546875,0.0860748291015625,0.08218754827976227,-0.8274065852165222,-0.44032812118530273
657,0.8798,1.6625,0,0,0.409088134765625,0.5873565673828125,0.2169952392578125,0.545803427696228,-0.5046399831771851,-0.5570496916770935
658,0.9745,1.7959,0,0,0.36248779296875,0.5709075927734375,0.242218017578125,1.2375013828277588,-0.5071947574615479,-0.5738725662231445
659,1.0782,1.943,0,0,0.278900146484375,0.5776214599609375,0.3560791015625,2.072594165802002,-0.9098436832427979,-0.6612833738327026
660,1.1831,2.0866,0,0,0.24810791015625,0.7245635986328125,0.5138397216796875,2.6555545330047607,-1.6165355443954468,-0.6795321702957153
661,1.2807,2.2103,0,0,0.155029296875,1.008453369140625,0.7884368896484375,2.6951611042022705,-2.1546928882598877,-0.7739025950431824
662,1.3631,2.3007,0,0,0.0761871337890625,1.4140472412109375,0.9923553466796875,1.8776414394378662,-1.872322916984558,-1.0236823558807373
663,1.4238,2.3485,0,0,0.1174163818359375,1.6284942626953125,1.1416015625,0.1439443826675415,-0.8234453797340393,-0.9007846713066101
664,1.4589,2.3491,0,0,0.1696319580078125,1.6131439208984375,1.0076904296875,-0.7784446477890015,1.4184496402740479,-0.4292064905166626
665,1.467,2.3024,0,0,0.460906982421875,1.271484375,1.0097198486328125,-0.9938565492630005,2.9348502159118652,-0.5786758661270142
666,1.4498,2.2122,0,0,0.4862823486328125,0.709075927734375,0.5842132568359375,-1.1770671606063843,0.3140351474285126,-0.2894397974014282
667,1.4113,2.0854,0,0,0.581634521484375,0.5792083740234375,0.1340484619140625,-0.44288715720176697,-0.7458584904670715,0.624561607837677
668,1.3569,1.932,0,0,0.68170166015625,0.93426513671875,-0.2981719970703125,1.0591518878936768,0.3737051486968994,1.6625171899795532
669,1.2928,1.7644,0,0,0.6395263671875,1.514801025390625,-0.3111572265625,2.1958014965057373,1.4127326011657715,1.6618132591247559
670,1.225,1.5969,0,0,0.5131988525390625,1.3741302490234375,-0.2058868408203125,1.9812495708465576,1.725610613822937,0.4872274398803711
671,1.1591,1.4449,0,0,0.34820556640625,0.9527130126953125,-0.1735076904296875,0.9044340252876282,1.3208988904953003,0.438740074634552
672,1.0991,1.3239,0,0,0.111236572265625,0.7797088623046875,-0.181060791015625,-0.07244890183210373,1.025773525238037,0.6860931515693665
673,1.0477,1.2472,0,0,-0.074310302734375,0.7204437255859375,-0.28729248046875,-0.4728306531906128,0.7404293417930603,0.3872806131839752
674,1.0061,1.2244,0,0,-0.1115570068359375,0.7876434326171875,-0.38287353515625,-0.3488464057445526,0.24904976785182953,-0.15278874337673187
675,0.974,1.2591,0,0,-0.029388427734375,0.9939727783203125,-0.385406494140625,0.08082001656293869,-0.2779772877693176,-0.38983750343322754
676,0.9499,1.3483,0,0,0.0434722900390625,1.1159515380859375,-0.2569122314453125,0.7463016510009766,-0.47322800755500793,-0.3394462466239929
677,0.9323,1.4818,0,0,0.0782928466796875,1.2037200927734375,-0.026031494140625,1.0535081624984741,0.2273615151643753,-0.5934465527534485
678,0.9193,1.6436,0,0,0.121002197265625,1.023193359375,0.0131072998046875,1.2509738206863403,0.9792091846466064,-0.6780163049697876
679,0.9096,1.8136,0,0,0.0885009765625,0.8812713623046875,0.0075836181640625,1.4931869506835938,1.4264676570892334,-0.622917115688324
680,0.9028,1.9702,0,0,0.048370361328125,0.82476806640625,0.0129547119140625,1.6319137811660767,1.4566301107406616,-0.6297158598899841
681,0.8988,2.0935,0,0,0.033203125,0.8197479248046875,0.023895263671875,1.647086262702942,1.235521674156189,-0.6440919041633606
682,0.8982,2.1671,0,0,0.0808563232421875,0.8974609375,0.0562744140625,1.5012789964675903,0.5785030126571655,-0.5682655572891235
683,0.9021,2.181,0,0,0.1762847900390625,0.8880462646484375,0.198211669921875,0.6189431548118591,-2.9860448837280273,-0.044449757784605026
684,0.9114,2.1325,0,0,0.1100921630859375,0.923919677734375,0.200958251953125,0.21579061448574066,-3.684561014175415,0.1929129958152771
685,0.9269,2.0263,0,0,0.0477447509765625,0.933258056640625,0.194915771484375,0.41657698154449463,-2.3140528202056885,0.09611747413873672
686,0.949,1.8739,0,0,0.0109100341796875,0.865692138671875,0.208831787109375,0.784241795539856,-0.40936195850372314,0.09114642441272736
687,0.9775,1.6915,0,0,0.00836181640625,0.82342529296875,0.181640625,0.8949339985847473,0.8026791214942932,0.13522812724113464
688,1.0115,1.498,0,0,0.0908050537109375,0.87548828125,0.1397705078125,0.7747260928153992,1.0803626775741577,0.21094179153442383
689,1.0492,1.312,0,0,0.227294921875,1.0456085205078125,0.1051788330078125,0.6183532476425171,0.4542948007583618,0.34958329796791077
690,1.0886,1.1504,0,0,0.2716064453125,1.1397705078125,0.1579742431640625,0.511288583278656,-0.4399712383747101,0.35485875606536865
691,1.1271,1.0263,0,0,0.2099151611328125,1.040985107421875,0.2968902587890625,0.34911563992500305,-0.30016008019447327,0.3801867365837097
692,1.1622,0.9488,0,0,0.0441741943359375,1.0192413330078125,0.304046630859375,0.06219972297549248,0.7849177122116089,0.40107178688049316
693,1.192,0.9223,0,0,-0.0755462646484375,1.17877197265625,0.14569091796875,-0.1903853863477707,1.6766300201416016,0.47934690117836
694,1.2148,0.9476,0,0,-0.0929718017578125,1.341949462890625,-0.0799407958984375,-0.31174272298812866,2.026088237762451,0.5287916660308838
695,1.2301,1.0219,0,0,-0.0930938720703125,1.4961700439453125,-0.1843719482421875,-0.27966147661209106,1.0570405721664429,0.5261173248291016
696,1.2381,1.1392,0,0,-0.062957763671875,1.445831298828125,-0.1383819580078125,-0.010428139939904213,-0.33748936653137207,-0.11779826879501343
697,1.2397,1.2907,0,0,0.1156768798828125,1.222869873046875,0.0053253173828125,-0.02653973177075386,-0.6317065954208374,-0.4256519675254822
698,1.236,1.4653,0,0,0.1698150634765625,1.0988616943359375,0.04705810546875,-0.49741724133491516,-0.5612636208534241,-0.5500500798225403
699,1.2282,1.6499,0,0,0.182861328125,0.9423065185546875,-0.0035552978515625,-1.1073721647262573,-0.7456262707710266,-0.3264724016189575
700,1.2168,1.8307,0,0,0.15460205078125,0.887451171875,-0.1165771484375,-1.520953893661499,-1.2459065914154053,-0.30397239327430725
701,1.2017,1.9939,0,0,0.219482421875,1.12933349609375,0.105438232421875,-2.2572598457336426,-1.3299105167388916,-0.3913632333278656
702,1.1817,2.1278,0,0,0.259857177734375,1.1104278564453125,0.088165283203125,-2.569188117980957,-0.911245584487915,-0.4211623966693878
703,1.1555,2.2237,0,0,0.3656158447265625,1.120269775390625,0.067718505859375,-2.2426931858062744,-0.48215094208717346,-0.3755810856819153
704,1.1213,2.2765,0,0,0.55426025390625,1.1814422607421875,0.0535430908203125,-1.6711450815200806,0.4725020229816437,0.131914883852005
705,1.078,2.2855,0,0,0.6125030517578125,1.149017333984375,0.0509185791015625,-1.617048978805542,0.7209690809249878,1.3279426097869873
706,1.0256,2.2543,0,0,0.34027099609375,0.9053497314453125,-0.0306854248046875,-1.8105921745300293,0.4060787856578827,1.8428219556808472
707,0.9651,2.19,0,0,0.28289794921875,0.960052490234375,-0.2271881103515625,-1.8025275468826294,0.06006067246198654,0.8549913763999939
708,0.8993,2.1026,0,0,0.280426025390625,0.805084228515625,-0.2507476806640625,-1.6218960285186768,-0.740441083908081,0.3284625709056854
709,0.8323,2.0046,0,0,0.149017333984375,0.822906494140625,-0.001495361328125,-1.6359771490097046,-1.266455054283142,0.27554503083229065
710,0.7696,1.9094,0,0,0.0822296142578125,0.78936767578125,0.221343994140625,-2.062870979309082,-0.7525810599327087,0.09178850799798965
711,0.7171,1.83,0,0,0.1377105712890625,0.740570068359375,0.1542816162109375,-2.20387601852417,0.27441638708114624,-0.03560859337449074
712,0.6812,1.7784,0,0,0.24652099609375,0.6956939697265625,0.0472412109375,-2.0464608669281006,0.8861772418022156,-0.011212972924113274
713,0.6673,1.7635,0,0,0.3274078369140625,0.6749420166015625,-0.0152587890625,-1.6793696880340576,0.7780653834342957,-0.027712054550647736
714,0.6796,1.79,0,0,0.356842041015625,0.620697021484375,-0.063385009765625,-0.9987314939498901,0.29398688673973083,-0.3180733025074005
715,0.7203,1.8576,0,0,0.384185791015625,0.49517822265625,-0.0232696533203125,-0.008464325219392776,-0.5297056436538696,-0.5700597763061523
716,0.7887,1.9599,0,0,0.3683319091796875,0.3836517333984375,0.174652099609375,0.902961254119873,-0.8445776104927063,-0.48913586139678955
717,0.8813,2.0858,0,0,0.29534912109375,0.3928375244140625,0.3084259033203125,1.639007806777954,-0.3954506516456604,-0.3740138113498688
718,0.9915,2.2199,0,0,0.2754669189453125,0.4956817626953125,0.338287353515625,2.360111713409424,-0.18707002699375153,-0.4180891215801239
719,1.1105,2.3454,0,0,0.3013763427734375,0.743011474609375,0.3741912841796875,3.009139060974121,-0.5940279364585876,-0.4431777000427246
720,1.2281,2.446,0,0,0.252166748046875,1.048065185546875,0.515777587890625,3.2090139389038086,-1.6318093538284302,-0.5440515875816345
721,1.3339,2.5083,0,0,0.057281494140625,1.461822509765625,0.805450439453125,2.31268048286438,-2.218637704849243,-0.9474483132362366
722,1.4188,2.5237,0,0,-0.0244903564453125,1.7310943603515625,0.99420166015625,0.5867979526519775,-1.5404789447784424,-1.3752678632736206
723,1.4764,2.4884,0,0,0.0137786865234375,1.6821441650390625,0.93890380859375,-1.1501753330230713,-0.4228340685367584,-1.0507744550704956
724,1.5034,2.4042,0,0,0.1826324462890625,1.45159912109375,0.9951934814453125,-1.2558165788650513,1.9843766689300537,-0.7306305170059204
725,1.5,2.2771,0,0,0.64923095703125,0.9302215576171875,1.0175628662109375,-1.3407210111618042,2.057410717010498,-0.6766708493232727
726,1.4697,2.1173,0,0,0.643798828125,0.4969635009765625,0.5223846435546875,-0.761520266532898,-0.5582603216171265,-0.02913205325603485
727,1.4181,1.9376,0,0,0.6634674072265625,0.6983642578125,-0.0801849365234375,-0.07520686835050583,-0.8592848777770996,1.3113259077072144
728,1.3522,1.7527,0,0,0.6950225830078125,1.07720947265625,-0.3939361572265625,1.3675137758255005,-0.027047064155340195,2.5216524600982666
729,1.2791,1.5786,0,0,0.436126708984375,1.51324462890625,-0.249603271484375,2.1717867851257324,0.5977132320404053,1.3444515466690063
730,1.2055,1.4309,0,0,0.4213714599609375,1.1160430908203125,-0.2077484130859375,1.6614018678665161,0.7314422726631165,0.30163708329200745
731,1.1368,1.3239,0,0,0.2845306396484375,0.938262939453125,-0.208770751953125,0.7606717944145203,0.5620636343955994,0.6586260795593262
732,1.0767,1.2685,0,0,0.02740478515625,0.835052490234375,-0.22528076171875,-0.08348690718412399,0.37767085433006287,0.7866098880767822
733,1.0273,1.2706,0,0,-0.16766357421875,0.8154754638671875,-0.32000732421875,-0.36407676339149475,0.14404399693012238,0.24275138974189758
734,0.9887,1.3297,0,0,-0.1134033203125,0.887237548828125,-0.2527618408203125,-0.1021234393119812,0.11597240716218948,-0.3874180316925049
735,0.9601,1.4387,0,0,0.0666961669921875,1.018341064453125,-0.303314208984375,0.5406278371810913,0.28882408142089844,-0.47647252678871155
736,0.9395,1.5839,0,0,0.1177520751953125,1.1171875,-0.0225067138671875,0.9523668885231018,1.0240235328674316,-0.49398869276046753
737,0.9246,1.7474,0,0,0.1886749267578125,1.0558624267578125,-0.0162200927734375,1.2554771900177002,1.8345283269882202,-0.7426595091819763
738,0.9137,1.9087,0,0,0.149383544921875,0.9835968017578125,-0.0167388916015625,1.479480504989624,2.0708749294281006,-0.6582902669906616
739,0.9053,2.0481,0,0,0.083953857421875,0.920684814453125,-0.0029754638671875,1.4831445217132568,1.9938772916793823,-0.6501979827880859
740,0.8991,2.1488,0,0,0.0350799560546875,0.8812713623046875,0.0051116943359375,1.314263105392456,1.6656725406646729,-0.7183282971382141
741,0.8952,2.1994,0,0,0.0175018310546875,0.8821258544921875,-0.00775146484375,1.152058720588684,1.1194850206375122,-0.7234426736831665
742,0.8947,2.1945,0,0,0.03326416015625,0.84527587890625,-0.0167388916015625,0.9432876706123352,-1.7118746042251587,-0.45095759630203247
743,0.8987,2.1352,0,0,0.0671844482421875,0.8722686767578125,0.145782470703125,0.625302255153656,-3.366589307785034,-0.0391540601849556
744,0.9085,2.0288,0,0,0.081451416015625,0.9413604736328125,0.1299285888671875,0.5055875182151794,-2.717738389968872,0.02593359537422657
745,0.9251,1.8876,0,0,0.0529022216796875,0.885406494140625,0.1313629150390625,0.6513684391975403,-1.2609649896621704,-0.0793914943933487
746,0.9489,1.7267,0,0,0.0438079833984375,0.8629913330078125,0.115631103515625,0.850886344909668,0.008668056689202785,-0.0331084169447422
747,0.9795,1.5618,0,0,0.0823516845703125,0.8943634033203125,0.104217529296875,0.9335761666297913,0.6882598996162415,0.012466789223253727
748,1.0157,1.4076,0,0,0.2133026123046875,0.89788818359375,0.089935302734375,0.8590622544288635,0.40200814604759216,0.12668471038341522
749,1.0557,1.2758,0,0,0.345367431640625,0.9952392578125,0.105224609375,0.7109851837158203,-0.5684597492218018,0.38876959681510925
750,1.0967,1.1747,0,0,0.2843017578125,1.0641632080078125,0.2413177490234375,0.4734058976173401,-1.0271698236465454,0.41347813606262207
751,1.1362,1.1089,0,0,0.116363525390625,1.00421142578125,0.439453125,0.3044049143791199,-0.6254764199256897,0.5176918506622314
752,1.1715,1.0797,0,0,-0.0994110107421875,1.1049957275390625,0.3983917236328125,0.03231240063905716,0.9075109958648682,0.44386398792266846
753,1.2003,1.0865,0,0,-0.1187591552734375,1.1995849609375,0.1429443359375,-0.30148741602897644,2.1847691535949707,0.41731202602386475
754,1.2214,1.1272,0,0,-0.072418212890625,1.3529052734375,-0.097259521484375,-0.36747387051582336,2.464214563369751,0.5235183238983154
755,1.2343,1.1992,0,0,-0.0938262939453125,1.4736785888671875,-0.2462615966796875,-0.20419254899024963,1.0337917804718018,0.39713749289512634
756,1.2395,1.2988,0,0,0.0084381103515625,1.4121551513671875,-0.168792724609375,0.03491777181625366,-0.3653995394706726,-0.22078484296798706
757,1.2381,1.4215,0,0,0.106597900390625,1.21417236328125,-0.02008056640625,-0.04952361062169075,-0.6801708340644836,-0.6159287095069885
758,1.2317,1.5611,0,0,0.21014404296875,1.064117431640625,0.01678466796875,-0.3790426552295685,-0.5427333116531372,-0.7143841981887817
759,1.2215,1.7095,0,0,0.2586822509765625,0.9413909912109375,-0.0241241455078125,-0.8363689184188843,-0.6862409710884094,-0.4632584750652313
760,1.2082,1.857,0,0,0.259857177734375,0.89605712890625,-0.035003662109375,-1.4266990423202515,-1.1262073516845703,-0.27884602546691895
761,1.1916,1.9931,0,0,0.2975311279296875,1.0633697509765625,0.1455230712890625,-2.3079426288604736,-1.479271411895752,-0.15459810197353363
762,1.1706,2.1075,0,0,0.3092498779296875,1.050567626953125,0.0848388671875,-2.642885446548462,-1.156553030014038,-0.04686098173260689
763,1.1434,2.1914,0,0,0.3358612060546875,1.040130615234375,0.0463104248046875,-2.0608091354370117,-0.4232146441936493,0.0018229337874799967
764,1.1085,2.2386,0,0,0.558807373046875,1.230865478515625,0.002685546875,-1.4063397645950317,0.3068840503692627,0.5521230697631836
765,1.0644,2.2462,0,0,0.5485382080078125,1.18365478515625,0.126617431640625,-1.4682846069335938,0.46250852942466736,1.6584031581878662
766,1.011,2.2149,0,0,0.288909912109375,1.03875732421875,0.0995025634765625,-1.8541054725646973,0.6014541387557983,1.8815512657165527
767,0.9499,2.1493,0,0,0.2254486083984375,0.9710235595703125,-0.0622406005859375,-1.835657000541687,0.7437524199485779,0.5231090188026428
768,0.8838,2.0575,0,0,0.2791900634765625,0.77764892578125,-0.035308837890625,-1.786719560623169,0.5484188795089722,0.5140537619590759
769,0.8173,1.9506,0,0,0.1041412353515625,0.8290863037109375,-0.0546875,-2.03761887550354,-0.13405020534992218,0.3969670534133911
770,0.7561,1.8416,0,0,0.157257080078125,0.741180419921875,0.1334381103515625,-2.1460554599761963,-0.005721268709748983,0.21391868591308594
771,0.7064,1.7442,0,0,0.1773223876953125,0.7042694091796875,0.090118408203125,-2.0596063137054443,0.7765538096427917,0.09391211718320847
772,0.6742,1.6716,0,0,0.2308807373046875,0.688873291015625,-0.0205078125,-1.7525320053100586,1.046197533607483,-0.012409797869622707
773,0.6649,1.634,0,0,0.2845306396484375,0.68377685546875,-0.0713348388671875,-1.345594882965088,0.519963264465332,-0.0889490470290184
774,0.6819,1.6377,0,0,0.3181915283203125,0.6096038818359375,-0.0617218017578125,-0.7141444683074951,-0.19466109573841095,-0.29195916652679443
775,0.7268,1.6834,0,0,0.31524658203125,0.5170135498046875,0.0552978515625,0.022096779197454453,-0.6430617570877075,-0.4114304184913635
776,0.798,1.766,0,0,0.3290252685546875,0.4496917724609375,0.2090911865234375,0.7141607403755188,-0.47665417194366455,-0.4205714464187622
777,0.8911,1.8747,0,0,0.285858154296875,0.4698028564453125,0.2756195068359375,1.3756263256072998,-0.167644664645195,-0.41041842103004456
778,0.9992,1.9949,0,0,0.22119140625,0.5545806884765625,0.311920166015625,2.135715961456299,-0.20063136518001556,-0.47040027379989624
779,1.1131,2.1104,0,0,0.213470458984375,0.7520751953125,0.3604888916015625,2.8524441719055176,-0.9633471369743347,-0.532957911491394
780,1.2226,2.206,0,0,0.1863555908203125,0.99761962890625,0.5865478515625,3.0799214839935303,-2.087775707244873,-0.6955162286758423
781,1.3181,2.2696,0,0,0.1062469482421875,1.4290313720703125,0.9770050048828125,2.2089462280273438,-2.498476266860962,-0.8891703486442566
782,1.3914,2.2939,0,0,0.1185760498046875,1.7049713134765625,1.1878814697265625,0.4736655652523041,-1.1724225282669067,-0.8624921441078186
783,1.4373,2.2765,0,0,0.21148681640625,1.7308502197265625,1.0945281982421875,-1.067193627357483,0.4849698841571808,-0.49478310346603394
784,1.454,2.2194,0,0,0.4980316162109375,1.38714599609375,0.8425750732421875,-0.9249187707901001,2.4851975440979004,-0.5689433217048645
785,1.4432,2.128,0,0,0.5679473876953125,0.762969970703125,0.5728302001953125,-0.6660144925117493,1.1545472145080566,-0.4206486940383911
786,1.409,2.0099,0,0,0.4644927978515625,0.5183563232421875,0.3443145751953125,-0.44677403569221497,-1.0688821077346802,0.16940553486347198
787,1.3575,1.8742,0,0,0.66339111328125,0.7526092529296875,-0.1132965087890625,0.5044418573379517,-0.742618978023529,1.0575032234191895
788,1.2954,1.7307,0,0,0.6464385986328125,1.17236328125,-0.2430877685546875,1.8066498041152954,0.6312767863273621,1.4625095129013062
789,1.2291,1.5896,0,0,0.5419921875,1.3506317138671875,-0.2159271240234375,2.2882537841796875,1.2066444158554077,0.9374353885650635
790,1.164,1.4614,0,0,0.388671875,1.113555908203125,-0.1468353271484375,1.6855170726776123,1.151629090309143,0.6165220737457275
791,1.1041,1.3561,0,0,0.209716796875,0.923492431640625,-0.1642608642578125,0.6529335975646973,0.8437932729721069,0.7614014744758606
792,1.0521,1.2827,0,0,0.0585174560546875,0.83062744140625,-0.14093017578125,-0.22561421990394592,0.528256893157959,0.7865960597991943
793,1.0088,1.2477,0,0,-0.159210205078125,0.8650665283203125,-0.19573974609375,-0.7541062831878662,0.30174919962882996,0.28203487396240234
794,0.9741,1.254,0,0,-0.1263275146484375,1.001678466796875,-0.4499359130859375,-0.2220730185508728,-0.2916526198387146,-0.32007867097854614
795,0.9471,1.3002,0,0,-0.0565948486328125,1.093658447265625,-0.2579498291015625,0.5618367195129395,-0.49332955479621887,-0.68515944480896
796,0.9263,1.3799,0,0,0.0462493896484375,1.067901611328125,-0.0418701171875,0.9732822775840759,-0.052264802157878876,-0.716464102268219
797,0.9104,1.483,0,0,0.0945587158203125,1.002105712890625,0.02752685546875,1.1303374767303467,0.6715160608291626,-0.7897130250930786
798,0.8987,1.596,0,0,0.1070556640625,0.8980712890625,0.014678955078125,1.25510835647583,1.1997690200805664,-0.6929683685302734
799,0.8907,1.7043,0,0,0.086456298828125,0.8172454833984375,0.0120086669921875,1.3423783779144287,1.4328349828720093,-0.569348931312561
800,0.8866,1.7936,0,0,0.060028076171875,0.8207855224609375,0.0099639892578125,1.331626057624817,1.3247151374816895,-0.5238943696022034
801,0.8868,1.8518,0,0,0.059967041015625,0.86663818359375,0.012298583984375,1.251155972480774,1.081365942955017,-0.5084065198898315
802,0.8921,1.8705,0,0,0.1255645751953125,0.8883209228515625,0.0305328369140625,1.1295044422149658,0.34975215792655945,-0.3858627378940582
803,0.903,1.8459,0,0,0.2114715576171875,0.8982391357421875,0.0977935791015625,0.6855927109718323,-2.423430919647217,0.04309740290045738
804,0.92,1.7792,0,0,0.1365966796875,0.92694091796875,0.15447998046875,0.3849719166755676,-2.901901960372925,0.03508980944752693
805,0.9431,1.6767,0,0,0.066192626953125,0.89276123046875,0.1456756591796875,0.4077126383781433,-1.890418529510498,0.04875049367547035
806,0.9718,1.5488,0,0,0.0275726318359375,0.8441619873046875,0.12957763671875,0.7125159502029419,-0.5055590271949768,0.08091855049133301
807,1.005,1.4085,0,0,0.0569915771484375,0.9083709716796875,0.138519287109375,0.9335793852806091,0.4878719449043274,0.16332927346229553
808,1.0413,1.2702,0,0,0.2255859375,1.0310211181640625,0.1376190185546875,0.8268585205078125,0.270889014005661,0.2039235681295395
809,1.0786,1.1475,0,0,0.3167266845703125,1.0650482177734375,0.2285919189453125,0.6212441325187683,-0.8788604736328125,0.2893178164958954
810,1.1152,1.0521,0,0,0.232666015625,1.0595245361328125,0.3417205810546875,0.31664344668388367,-0.20844455063343048,0.33073610067367554
811,1.149,0.9927,0,0,0.07513427734375,1.0919036865234375,0.325836181640625,-0.11420620232820511,0.6837101578712463,0.38198038935661316
812,1.1786,0.9747,0,0,-0.0579071044921875,1.1510467529296875,0.1309814453125,-0.32062673568725586,1.5012457370758057,0.4043735861778259
813,1.2027,1.0002,0,0,-0.0452117919921875,1.2294769287109375,-0.13812255859375,-0.250715047121048,1.809710144996643,0.4282757043838501
814,1.221,1.0681,0,0,-0.0355072021484375,1.413177490234375,-0.22027587890625,-0.14506584405899048,1.0049617290496826,0.4629199802875519
815,1.2334,1.1742,0,0,0.0023651123046875,1.447235107421875,-0.1050262451171875,-0.054074421525001526,-0.5112342238426208,0.062184546142816544
816,1.24,1.3117,0,0,0.12579345703125,1.270782470703125,0.0633392333984375,-0.23018473386764526,-1.0590991973876953,-0.43143555521965027
817,1.2414,1.4714,0,0,0.203521728515625,1.043701171875,0.094635009765625,-0.6570619940757751,-0.7097856998443604,-0.4951854944229126
818,1.2374,1.6425,0,0,0.211334228515625,0.846923828125,-0.0114288330078125,-1.1493545770645142,-0.6381950974464417,-0.4197043180465698
819,1.2276,1.8129,0,0,0.23358154296875,0.96417236328125,0.1552886962890625,-1.9525127410888672,-0.7677112817764282,-0.31101539731025696
820,1.211,1.9708,0,0,0.2350616455078125,1.138153076171875,0.087005615234375,-2.585679769515991,-0.5433197617530823,-0.31521013379096985
821,1.1859,2.1053,0,0,0.217193603515625,1.1371002197265625,0.0095977783203125,-2.3415560722351074,-0.15022358298301697,-0.5905831456184387
822,1.1509,2.2076,0,0,0.33599853515625,1.1847991943359375,-0.0305023193359375,-1.7339106798171997,0.15772518515586853,-0.7246946096420288
823,1.1052,2.2719,0,0,0.6043701171875,1.29931640625,-0.0477752685546875,-1.2097421884536743,0.9774535894393921,-0.05216333642601967
824,1.0489,2.2953,0,0,0.591461181640625,1.1107177734375,0.0107879638671875,-1.266983985900879,1.3252432346343994,1.3195621967315674
825,0.9836,2.2789,0,0,0.299163818359375,0.9137420654296875,-0.131072998046875,-1.7787904739379883,0.2202197164297104,1.7379834651947021
826,0.9127,2.2271,0,0,0.198150634765625,0.8858795166015625,-0.157257080078125,-2.0473625659942627,-0.7600541710853577,1.0068613290786743
827,0.8408,2.1483,0,0,0.17401123046875,0.7618560791015625,-0.0299072265625,-2.0810532569885254,-0.9573816657066345,0.2096882462501526
828,0.7738,2.0543,0,0,0.1342315673828125,0.7070159912109375,0.165802001953125,-2.293374538421631,-0.557686448097229,0.32360416650772095
829,0.7178,1.9591,0,0,0.1051483154296875,0.6872406005859375,0.148956298828125,-2.4000768661499023,0.411880224943161,0.17411240935325623
830,0.6793,1.8775,0,0,0.20172119140625,0.633056640625,0.0474700927734375,-2.2088468074798584,1.0689747333526611,0.106574647128582
831,0.6635,1.8238,0,0,0.2775726318359375,0.6544952392578125,-0.0861053466796875,-1.6998176574707031,0.8385287523269653,0.13323502242565155
832,0.6744,1.8091,0,0,0.324188232421875,0.6913604736328125,-0.0921173095703125,-1.0554051399230957,0.18591926991939545,-0.0046935551799833775
833,0.714,1.8396,0,0,0.374237060546875,0.6407012939453125,-0.014739990234375,-0.1669759452342987,-0.6071333289146423,-0.335030734539032
834,0.7816,1.9151,0,0,0.434844970703125,0.53466796875,0.18450927734375,0.6602170467376709,-0.7382495403289795,-0.4640622138977051
835,0.8739,2.029,0,0,0.375518798828125,0.466400146484375,0.2933807373046875,1.3960332870483398,-0.3535572588443756,-0.4136994481086731
836,0.9849,2.1683,0,0,0.2858123779296875,0.48114013671875,0.3107757568359375,2.128575325012207,-0.1478552371263504,-0.42444634437561035
837,1.1063,2.3161,0,0,0.2293243408203125,0.6220703125,0.3549346923828125,2.785338878631592,-0.5197520852088928,-0.5068435072898865
838,1.2282,2.4541,0,0,0.210174560546875,0.8924102783203125,0.4916229248046875,3.0797464847564697,-1.574683427810669,-0.48423779010772705
839,1.3402,2.5647,0,0,0.0254058837890625,1.2722015380859375,0.81036376953125,2.5748796463012695,-2.457540273666382,-0.7566200494766235
840,1.433,2.6341,0,0,-0.051361083984375,1.664398193359375,1.070465087890625,1.0103428363800049,-2.219299793243408,-1.2853357791900635
841,1.4993,2.653,0,0,0.0705413818359375,1.793792724609375,1.141632080078125,-0.974768340587616,-1.1383048295974731,-0.9465047717094421
842,1.5349,2.6178,0,0,0.24041748046875,1.6241607666015625,1.0423431396484375,-0.9555584192276001,2.355382204055786,-0.6098101139068604
843,1.5392,2.5299,0,0,0.6646270751953125,0.9792022705078125,0.97247314453125,-1.1368736028671265,2.9027864933013916,-0.6092236638069153
844,1.5144,2.3958,0,0,0.6678924560546875,0.4835205078125,0.3741455078125,-1.0435556173324585,-0.3378544747829437,0.03219655156135559
845,1.4658,2.2259,0,0,0.7940521240234375,0.634521484375,-0.168243408203125,-0.0674019455909729,-0.604542076587677,1.2798166275024414
846,1.3999,2.0333,0,0,0.7787017822265625,1.166839599609375,-0.424163818359375,1.5724676847457886,0.690834105014801,2.422424554824829
847,1.324,1.8336,0,0,0.5785980224609375,1.5915985107421875,-0.3523406982421875,2.4255666732788086,1.186348557472229,1.326003909111023
848,1.2451,1.6431,0,0,0.42132568359375,1.181732177734375,-0.2713165283203125,1.7757617235183716,0.9622171521186829,0.45630761981010437
849,1.1694,1.4776,0,0,0.20281982421875,0.8966827392578125,-0.1978607177734375,0.6512965559959412,0.6427310109138489,0.7369896173477173
850,1.1014,1.351,0,0,-0.1259002685546875,0.7383270263671875,-0.1985931396484375,-0.2654969096183777,0.8282753229141235,0.7034452557563782
851,1.0442,1.2733,0,0,-0.1977081298828125,0.769927978515625,-0.3171844482421875,-0.6101775765419006,0.4158185124397278,0.18818135559558868
852,0.9986,1.2493,0,0,-0.1764373779296875,0.87139892578125,-0.41510009765625,-0.33033663034439087,-0.148090660572052,-0.2556421458721161
853,0.9644,1.2777,0,0,-0.093048095703125,1.0701141357421875,-0.3438873291015625,0.34913215041160583,-0.7648188471794128,-0.5156497955322266
854,0.9401,1.351,0,0,-0.0095672607421875,1.1955413818359375,-0.096893310546875,0.905428409576416,-0.7174531817436218,-0.5471091866493225
855,0.9238,1.4564,0,0,0.0388336181640625,1.135498046875,0.0260772705078125,1.1966285705566406,-0.022771891206502914,-0.7877979278564453
856,0.9135,1.5778,0,0,0.0907745361328125,0.9158782958984375,0.0508270263671875,1.4290051460266113,0.8488048315048218,-0.8175414204597473
857,0.9079,1.6972,0,0,0.0798187255859375,0.83428955078125,0.039703369140625,1.5468369722366333,1.3619709014892578,-0.6519295573234558
858,0.9059,1.798,0,0,0.0595550537109375,0.8054656982421875,0.0389862060546875,1.5135843753814697,1.3899564743041992,-0.5486060976982117
859,0.9071,1.8658,0,0,0.0741119384765625,0.872528076171875,0.042083740234375,1.4035292863845825,1.2280125617980957,-0.47857722640037537
860,0.9117,1.8913,0,0,0.2747344970703125,0.88525390625,0.217437744140625,0.8759509325027466,-0.6616829037666321,-0.2588885426521301
861,0.9199,1.87,0,0,0.285064697265625,0.9272918701171875,0.1800689697265625,0.3089309334754944,-2.9720940589904785,-0.04886820539832115
862,0.9322,1.8033,0,0,0.20086669921875,0.9154052734375,0.170440673828125,0.39649462699890137,-2.5617940425872803,0.10224860906600952
863,0.949,1.6977,0,0,0.06317138671875,0.9011688232421875,0.1879730224609375,0.6910372972488403,-0.8720076084136963,0.14447249472141266
864,0.9705,1.5641,0,0,0.02447509765625,0.8518524169921875,0.150054931640625,0.8184357285499573,0.5195542573928833,0.16915440559387207
865,0.9963,1.4158,0,0,0.028167724609375,0.8596954345703125,0.1016998291015625,0.8226845264434814,1.2060720920562744,0.22464828193187714
866,1.0257,1.2674,0,0,0.1348419189453125,0.9850311279296875,0.068328857421875,0.746504545211792,0.9003316760063171,0.20406551659107208
867,1.0573,1.1328,0,0,0.2755584716796875,1.0992889404296875,0.075836181640625,0.6933302879333496,-0.4804747402667999,0.23571531474590302
868,1.0898,1.0242,0,0,0.2586212158203125,1.0463714599609375,0.2531585693359375,0.5658250451087952,-0.613125741481781,0.2835611402988434
869,1.1215,0.9513,0,0,0.129425048828125,1.0406494140625,0.3603057861328125,0.17244687676429749,0.08252177387475967,0.334552139043808
870,1.151,0.9205,0,0,-0.0106201171875,1.1077117919921875,0.251312255859375,-0.24011459946632385,1.0787997245788574,0.46606382727622986
871,1.1771,0.9352,0,0,-0.0486602783203125,1.2126007080078125,-0.001129150390625,-0.3305816352367401,1.7951748371124268,0.541559100151062
872,1.1991,0.9952,0,0,-0.071014404296875,1.333831787109375,-0.199676513671875,-0.2259785383939743,1.514917016029358,0.577046275138855
873,1.2167,1.0976,0,0,-0.0467376708984375,1.466766357421875,-0.124725341796875,-0.07225155830383301,0.005380384158343077,0.39738917350769043
874,1.2298,1.2364,0,0,0.0593109130859375,1.3049163818359375,-0.0077972412109375,-0.12992337346076965,-0.7232101559638977,-0.3385477066040039
875,1.2387,1.4028,0,0,0.1662139892578125,1.1170196533203125,0.0540618896484375,-0.4518369734287262,-0.722288191318512,-0.6118740439414978
876,1.2429,1.5857,0,0,0.2437286376953125,0.9482269287109375,0.0160980224609375,-0.961319625377655,-0.5126758217811584,-0.6265014410018921
877,1.242,1.7723,0,0,0.2845306396484375,0.838836669921875,-0.0543365478515625,-1.408051609992981,-0.7244415879249573,-0.4772794842720032
878,1.2345,1.9493,0,0,0.2634124755859375,1.10015869140625,0.1134185791015625,-2.3652985095977783,-0.7491637468338013,-0.38147786259651184
879,1.2186,2.1041,0,0,0.1650543212890625,1.1779022216796875,0.054107666015625,-2.634852647781372,-0.5569556355476379,-0.6096367239952087
880,1.1924,2.2259,0,0,0.236968994140625,1.1873321533203125,-0.009063720703125,-2.1939425468444824,-0.26677122712135315,-1.0210490226745605
881,1.1543,2.3072,0,0,0.4862823486328125,1.272247314453125,-0.008331298828125,-1.5885963439941406,0.09719020128250122,-0.732911229133606
882,1.104,2.3437,0,0,0.75982666015625,1.34527587890625,0.018218994140625,-1.272951602935791,1.016525149345398,0.7540847063064575
883,1.0424,2.3355,0,0,0.4361114501953125,1.0051422119140625,0.0436859130859375,-1.5886058807373047,0.9738431572914124,1.817808747291565
884,0.9722,2.2867,0,0,0.205718994140625,0.8729248046875,-0.096466064453125,-2.1097970008850098,0.1077381819486618,1.6079425811767578
885,0.8977,2.205,0,0,0.1996002197265625,0.79132080078125,-0.24774169921875,-2.0830771923065186,-0.5458241701126099,0.4297462999820709
886,0.8245,2.1017,0,0,0.1441497802734375,0.6849212646484375,-0.217132568359375,-1.694895625114441,-1.5122020244598389,0.22863024473190308
887,0.759,1.9906,0,0,0.0562591552734375,0.724700927734375,0.1492919921875,-1.7303558588027954,-1.588570475578308,0.17347805202007294
