id,ASVM,GSVM,walking_nonwalking,normal_abnormal,ax,ay,az,gx,gy,gz
1,1.1769,1.5865,0,0,-0.7874298095703125,1.011260986328125,-0.1491851806640625,-0.24529871344566345,1.7895587682724,0.051001399755477905
2,1.1141,1.7168,0,0,-0.7204437255859375,0.82830810546875,-0.14312744140625,0.6543645262718201,2.009688138961792,-0.3487159013748169
3,1.0639,1.854,0,0,-0.613555908203125,0.7171173095703125,-0.084716796875,1.093578577041626,1.39535653591156,-0.36701342463493347
4,1.0258,1.9822,0,0,-0.5388641357421875,0.6882781982421875,-0.0674285888671875,1.2468019723892212,0.5414329171180725,-0.24965722858905792
5,0.9989,2.0872,0,0,-0.4841156005859375,0.736572265625,-0.1012420654296875,1.6833542585372925,0.1941998302936554,-0.052025649696588516
6,0.982,2.1576,0,0,-0.4906463623046875,0.77618408203125,-0.080230712890625,2.0667331218719482,0.4254479706287384,0.03346288576722145
7,0.9735,2.1855,0,0,-0.5340728759765625,0.74346923828125,-0.04376220703125,2.342437982559204,0.4694407284259796,0.13027891516685486
8,0.9716,2.1665,0,0,-0.6185150146484375,0.7161102294921875,0.1514739990234375,2.580487012863159,-0.9288538694381714,0.3219364881515503
9,0.9744,2.1004,0,0,-0.7042999267578125,0.6906280517578125,0.3702239990234375,1.9304916858673096,-2.315167188644409,0.39803260564804077
10,0.9806,1.9908,0,0,-0.770904541015625,0.6605072021484375,0.382965087890625,1.420908808708191,-0.9241693615913391,0.29653793573379517
11,0.989,1.8443,0,0,-0.776519775390625,0.6812896728515625,0.56378173828125,0.40900853276252747,0.6515599489212036,0.015388543717563152
12,0.9991,1.6702,0,0,-0.6338958740234375,0.719818115234375,0.382537841796875,-0.4294041097164154,1.1409072875976562,-0.0981699749827385
13,1.0109,1.479,0,0,-0.556427001953125,0.7804107666015625,0.1570892333984375,-0.6499905586242676,1.6535217761993408,-0.06364022940397263
14,1.0247,1.2818,0,0,-0.555023193359375,0.805267333984375,0.0467376708984375,-0.5824034810066223,1.486599087715149,0.023148994892835617
15,1.0411,1.09,0,0,-0.582489013671875,0.790771484375,-0.0261688232421875,-0.40553125739097595,1.0077489614486694,0.1584828495979309
16,1.0605,0.9145,0,0,-0.6457061767578125,0.759490966796875,-0.0700836181640625,-0.2105702906847,0.6784701347351074,0.2772848606109619
17,1.0827,0.7654,0,0,-0.718505859375,0.739898681640625,-0.1082000732421875,0.09040233492851257,0.6239150166511536,0.36759504675865173
18,1.1073,0.6518,0,0,-0.835723876953125,0.6999969482421875,-0.068939208984375,0.36720916628837585,0.3635132312774658,0.4565776586532593
19,1.1331,0.5814,0,0,-0.9342193603515625,0.642852783203125,-0.0260467529296875,0.6588468551635742,-0.025005750358104706,0.4616248905658722
20,1.1584,0.56,0,0,-0.9761810302734375,0.60491943359375,0.0230560302734375,0.8789225220680237,-0.039563123136758804,0.3673556447029114
21,1.1813,0.5908,0,0,-0.9757080078125,0.580841064453125,0.0816802978515625,0.865527331829071,0.030467627570033073,0.21232052147388458
22,1.1997,0.674,0,0,-0.937713623046875,0.575347900390625,0.061614990234375,0.5719934701919556,0.07667320966720581,0.02605423703789711
23,1.2116,0.8061,0,0,-0.98114013671875,0.6481781005859375,-0.075775146484375,0.33642008900642395,0.06202182546257973,-0.12338398396968842
24,1.2157,0.9795,0,0,-1.09942626953125,0.847320556640625,-0.1831207275390625,0.3054906725883484,-0.12340209633111954,-0.2654889225959778
25,1.2114,1.1825,0,0,-1.0178070068359375,0.989288330078125,-0.246978759765625,0.1834622323513031,-0.22800227999687195,-0.5689593553543091
26,1.199,1.3998,0,0,-0.8179779052734375,1.0358734130859375,-0.1602020263671875,0.00624111806973815,-0.6315897107124329,-0.7904901504516602
27,1.1796,1.6139,0,0,-0.56646728515625,1.0000152587890625,-0.0070037841796875,-0.33165809512138367,-1.70205557346344,-0.7007924318313599
28,1.1549,1.8067,0,0,-0.4949951171875,0.9330291748046875,0.038665771484375,-0.9673091173171997,-1.7906370162963867,-0.6646807789802551
29,1.1272,1.9618,0,0,-0.3971099853515625,0.95208740234375,0.1508636474609375,-1.729996919631958,-1.6601903438568115,-0.6101245880126953
30,1.0984,2.0661,0,0,-0.3123016357421875,0.9918060302734375,0.1708221435546875,-2.156198740005493,-1.6884206533432007,-0.5311107635498047
31,1.0701,2.1117,0,0,-0.183349609375,0.9926300048828125,0.119354248046875,-1.679741382598877,-0.7296717762947083,-0.42067238688468933
32,1.0433,2.0962,0,0,-0.139190673828125,0.8915557861328125,0.2346343994140625,-1.8533971309661865,-0.439261794090271,0.020834175869822502
33,1.0179,2.0233,0,0,-0.347015380859375,0.762603759765625,0.2283935546875,-2.1342828273773193,-0.8182492852210999,0.21860557794570923
34,0.9937,1.9016,0,0,-0.5496978759765625,0.7610931396484375,0.158294677734375,-1.9383317232131958,-0.7878035306930542,0.18570834398269653
35,0.9696,1.7436,0,0,-0.6666259765625,0.8277130126953125,0.1504058837890625,-1.6105307340621948,-0.4231525957584381,0.22309619188308716
36,0.9449,1.5646,0,0,-0.70965576171875,0.845062255859375,0.1597442626953125,-1.3858709335327148,-0.19605126976966858,0.23877981305122375
37,0.9191,1.3803,0,0,-0.7005157470703125,0.7745208740234375,0.1460113525390625,-1.1139057874679565,-0.21872302889823914,0.09689512103796005
38,0.8923,1.2056,0,0,-0.6281890869140625,0.682037353515625,0.153594970703125,-0.8472018837928772,-0.40145474672317505,-0.043963462114334106
39,0.8654,1.0527,0,0,-0.57025146484375,0.6091461181640625,0.166778564453125,-0.5885815024375916,-0.6455723643302917,-0.0276795644313097
40,0.8403,0.9306,0,0,-0.57049560546875,0.5721588134765625,0.1887359619140625,-0.2445461004972458,-0.8376946449279785,0.0007251787465065718
41,0.8194,0.8444,0,0,-0.5716400146484375,0.557647705078125,0.2189483642578125,0.07541672885417938,-0.8787169456481934,-0.10913607478141785
42,0.8052,0.7951,0,0,-0.5209808349609375,0.5534515380859375,0.230743408203125,0.2785344123840332,-0.8232464790344238,-0.1979042887687683
43,0.8005,0.7804,0,0,-0.4586181640625,0.5593719482421875,0.2133636474609375,0.3195692002773285,-0.6073961853981018,-0.20579443871974945
44,0.8074,0.7949,0,0,-0.4347381591796875,0.586883544921875,0.17742919921875,0.4558519423007965,-0.3311299979686737,-0.1751539707183838
45,0.8274,0.8316,0,0,-0.3807220458984375,0.6451873779296875,0.1959991455078125,0.7274954319000244,-0.16004639863967896,-0.08704248815774918
46,0.8608,0.883,0,0,-0.394256591796875,0.66888427734375,0.300537109375,0.9338169097900391,-0.39939001202583313,0.023064838722348213
47,0.9069,0.9416,0,0,-0.450927734375,0.6527099609375,0.431854248046875,1.069813847541809,-0.8311829566955566,0.060271862894296646
48,0.9637,1.0015,0,0,-0.5045928955078125,0.6397247314453125,0.5908203125,1.195551872253418,-0.9585920572280884,0.1310216635465622
49,1.0283,1.0583,0,0,-0.5736236572265625,0.62481689453125,0.715728759765625,0.7750185132026672,-0.5112683176994324,0.13949663937091827
50,1.0965,1.1099,0,0,-0.6348114013671875,0.605712890625,0.6685943603515625,0.29705750942230225,0.6734703183174133,0.06351159512996674
51,1.1639,1.1557,0,0,-0.694183349609375,0.602874755859375,0.5932159423828125,0.3531162440776825,1.5872458219528198,0.07766922563314438
52,1.2252,1.1962,0,0,-0.7918548583984375,0.6706085205078125,0.5563507080078125,0.32107681035995483,1.1469131708145142,-0.018006164580583572
53,1.2755,1.2325,0,0,-0.868194580078125,0.70306396484375,0.4161834716796875,0.3695908188819885,0.6847189664840698,-0.11742063611745834
54,1.3102,1.2656,0,0,-0.858734130859375,0.637603759765625,0.3451690673828125,0.6824475526809692,0.4716889560222626,-0.21881063282489777
55,1.3257,1.2957,0,0,-0.841033935546875,0.57928466796875,0.5095977783203125,1.2082273960113525,-0.2557060718536377,-0.27527177333831787
56,1.32,1.3218,0,0,-0.9102935791015625,0.7784423828125,0.762939453125,1.105305552482605,-1.2580562829971313,-0.18730491399765015
57,1.2929,1.3427,0,0,-0.9556732177734375,1.1761322021484375,0.81982421875,0.511288583278656,-0.9133073687553406,-0.16615381836891174
58,1.2468,1.3564,0,0,-0.6918182373046875,1.44073486328125,0.55426025390625,-0.2643173933029175,0.1124274730682373,0.2860378921031952
59,1.186,1.3616,0,0,-0.5856170654296875,1.3014068603515625,0.044158935546875,-0.7055672407150269,1.6616019010543823,0.6056403517723083
60,1.1168,1.358,0,0,-0.6019134521484375,1.0774688720703125,-0.0671234130859375,-0.5486047863960266,2.256744384765625,-0.17302557826042175
61,1.0465,1.3472,0,0,-0.318115234375,0.784423828125,0.03509521484375,-0.23585247993469238,1.3007067441940308,-0.8576641082763672
62,0.9821,1.333,0,0,-0.1582183837890625,0.494720458984375,0.0316162109375,-0.6261634826660156,0.7233986854553223,-0.7206375598907471
63,0.9294,1.3212,0,0,-0.1561279296875,0.3327789306640625,-0.0045623779296875,-1.037365198135376,0.4294184744358063,-0.49206268787384033
64,0.8925,1.3193,0,0,-0.2426910400390625,0.4641571044921875,-0.0341796875,-1.265792965888977,-0.19218754768371582,-0.12284576147794724
65,0.8728,1.3349,0,0,-0.438385009765625,0.8077545166015625,-0.0669097900390625,-1.4216209650039673,-0.6033273935317993,0.44882866740226746
66,0.8697,1.3752,0,0,-0.6574859619140625,1.0619659423828125,-0.1193695068359375,-1.428746223449707,-0.2159338891506195,0.612612783908844
67,0.8808,1.4451,0,0,-0.7807159423828125,1.008392333984375,-0.2296295166015625,-0.4852926731109619,0.6426889300346375,0.14585120975971222
68,0.9025,1.5465,0,0,-0.6479339599609375,0.7836456298828125,-0.155975341796875,0.6323547959327698,1.3587621450424194,-0.25643762946128845
69,0.931,1.677,0,0,-0.5361785888671875,0.735260009765625,-0.0832366943359375,0.8250678181648254,1.4717072248458862,-0.21373838186264038
70,0.9627,1.8301,0,0,-0.537017822265625,0.7091064453125,-0.0885772705078125,0.9299039244651794,0.9645655155181885,0.059181563556194305
71,0.9941,1.9948,0,0,-0.60723876953125,0.7530670166015625,-0.1182403564453125,1.4713480472564697,0.34924453496932983,0.23930233716964722
72,1.0228,2.1572,0,0,-0.6082763671875,0.76483154296875,-0.0857391357421875,1.8499754667282104,0.30268290638923645,0.19891603291034698
73,1.0466,2.3015,0,0,-0.6002349853515625,0.7233123779296875,-0.087158203125,2.1747844219207764,0.6627257466316223,0.21026082336902618
74,1.0642,2.4122,0,0,-0.650848388671875,0.70404052734375,-0.0608978271484375,2.6905136108398438,0.5816239714622498,0.30597829818725586
75,1.0749,2.476,0,0,-0.758544921875,0.69415283203125,0.1824493408203125,2.9951531887054443,-1.3640588521957397,0.42926135659217834
76,1.0789,2.4839,0,0,-0.8453521728515625,0.64788818359375,0.4919281005859375,2.2491917610168457,-3.2038090229034424,0.4709579348564148
77,1.0768,2.4318,0,0,-0.887176513671875,0.578948974609375,0.579071044921875,1.3974636793136597,-1.2842601537704468,0.15401113033294678
78,1.07,2.3212,0,0,-0.7509002685546875,0.6041717529296875,0.7877197265625,-0.018195515498518944,1.2155224084854126,-0.23708711564540863
79,1.0605,2.159,0,0,-0.589508056640625,0.731414794921875,0.47479248046875,-1.122928500175476,1.6332088708877563,-0.287365198135376
80,1.0507,1.956,0,0,-0.5200653076171875,0.8208465576171875,0.1320953369140625,-1.2250300645828247,2.099560499191284,-0.20053869485855103
81,1.0427,1.7264,0,0,-0.5180206298828125,0.81964111328125,0.0230712890625,-1.034372329711914,1.6946042776107788,-0.07039453834295273
82,1.0385,1.4857,0,0,-0.5449676513671875,0.7650299072265625,-0.04315185546875,-0.9126892685890198,1.0150156021118164,0.12432807683944702
83,1.0398,1.2503,0,0,-0.6204071044921875,0.70941162109375,-0.119140625,-0.6771707534790039,0.6873738765716553,0.2650021016597748
84,1.047,1.0354,0,0,-0.7164459228515625,0.6908111572265625,-0.1655120849609375,-0.2242855727672577,0.5315781235694885,0.3949393332004547
85,1.0602,0.8543,0,0,-0.8304290771484375,0.694488525390625,-0.16619873046875,0.27966412901878357,0.27311596274375916,0.47986406087875366
86,1.0785,0.7177,0,0,-0.9051055908203125,0.686004638671875,-0.088134765625,0.6135856509208679,0.028682777658104897,0.42743441462516785
87,1.1006,0.633,0,0,-0.938385009765625,0.6490325927734375,-0.032379150390625,0.8305445909500122,-0.06404662877321243,0.31662216782569885
88,1.1246,0.6039,0,0,-0.957763671875,0.6152191162109375,0.0508270263671875,0.9794049263000488,-0.13029807806015015,0.21677757799625397
89,1.1486,0.6307,0,0,-0.97528076171875,0.6020355224609375,0.1636505126953125,0.9590570330619812,-0.28027427196502686,0.11355932056903839
90,1.1708,0.7099,0,0,-0.97052001953125,0.60601806640625,0.2654571533203125,0.569484531879425,-0.2544754147529602,-0.04204465448856354
91,1.1893,0.8345,0,0,-1.0108489990234375,0.6341400146484375,0.29486083984375,-0.08847393840551376,-0.19537588953971863,-0.1203269436955452
92,1.2028,0.9942,0,0,-1.046478271484375,0.721923828125,0.0862274169921875,-0.6905084252357483,0.028555478900671005,-0.29808440804481506
93,1.2098,1.1756,0,0,-0.8952178955078125,0.7796630859375,-0.0887298583984375,-0.9114122986793518,-0.06641923636198044,-0.530938982963562
94,1.2096,1.3631,0,0,-0.7282867431640625,0.8172454833984375,-0.1724090576171875,-0.7950438857078552,-0.4748610556125641,-0.6797492504119873
95,1.2014,1.5402,0,0,-0.6468505859375,0.81512451171875,-0.16082763671875,-0.7257792949676514,-0.6515876054763794,-0.8276255130767822
96,1.185,1.6911,0,0,-0.5582427978515625,0.88037109375,-0.04833984375,-1.0497653484344482,-0.7144025564193726,-0.7663072943687439
97,1.1605,1.8023,0,0,-0.5276031494140625,1.069488525390625,0.1173095703125,-1.7399972677230835,-1.2795807123184204,-0.4307604432106018
98,1.1285,1.8641,0,0,-0.574737548828125,1.2509918212890625,0.2368621826171875,-2.513676166534424,-2.3132998943328857,-0.19528719782829285
99,1.0903,1.8718,0,0,-0.5257110595703125,1.2849273681640625,0.0702972412109375,-1.8748856782913208,-1.8742011785507202,-0.31623944640159607
100,1.0478,1.8263,0,0,-0.360931396484375,1.0469970703125,0.157196044921875,-0.28911542892456055,-0.016454607248306274,-0.31962379813194275
101,1.0032,1.7334,0,0,-0.426513671875,0.644866943359375,0.364501953125,-1.049174189567566,-0.7523195743560791,0.010382600128650665
102,0.9591,1.6028,0,0,-0.4486541748046875,0.5104522705078125,0.181915283203125,-1.4878121614456177,-1.3617522716522217,0.17236937582492828
103,0.9177,1.4472,0,0,-0.4896240234375,0.58367919921875,0.0735931396484375,-1.2789438962936401,-1.0762842893600464,0.28511083126068115
104,0.8811,1.2802,0,0,-0.564422607421875,0.6256561279296875,0.0980987548828125,-0.8025252223014832,-0.6200627088546753,0.240011528134346
105,0.8507,1.1155,0,0,-0.5877532958984375,0.645263671875,0.178558349609375,-0.49386245012283325,-0.6834696531295776,0.11483550816774368
106,0.8274,0.9649,0,0,-0.5510711669921875,0.66168212890625,0.2041473388671875,-0.32204967737197876,-0.8778473734855652,0.12526658177375793
107,0.8118,0.8379,0,0,-0.5549163818359375,0.6397705078125,0.2036285400390625,-0.12770016491413116,-0.8225838541984558,0.06452839076519012
108,0.804,0.7406,0,0,-0.5642852783203125,0.618988037109375,0.20916748046875,0.1393624246120453,-0.5605480074882507,-0.16334125399589539
109,0.8042,0.6757,0,0,-0.5408172607421875,0.6224822998046875,0.2438507080078125,0.3016757071018219,-0.325582891702652,-0.3067849576473236
110,0.8124,0.6425,0,0,-0.501068115234375,0.6402435302734375,0.2399444580078125,0.38045546412467957,-0.2546085715293884,-0.27557218074798584
111,0.8288,0.6371,0,0,-0.3761138916015625,0.6882781982421875,0.2309112548828125,0.47720545530319214,-0.30976077914237976,-0.17198002338409424
112,0.8531,0.654,0,0,-0.3140716552734375,0.69732666015625,0.2694244384765625,0.5684117674827576,-0.47955888509750366,0.006188121158629656
113,0.8853,0.6861,0,0,-0.3437042236328125,0.6529541015625,0.3718109130859375,0.6508390307426453,-0.6830353140830994,0.19993628561496735
114,0.9245,0.7264,0,0,-0.4615325927734375,0.63348388671875,0.5042266845703125,0.6068601012229919,-0.7108054161071777,0.3299027979373932
115,0.9698,0.7686,0,0,-0.56158447265625,0.625732421875,0.570770263671875,0.4930112957954407,-0.21296021342277527,0.3264841139316559
116,1.0195,0.8077,0,0,-0.629119873046875,0.6182403564453125,0.56817626953125,0.3171880841255188,0.5154452323913574,0.24681776762008667
117,1.0715,0.8406,0,0,-0.662322998046875,0.5854949951171875,0.5084991455078125,0.3459464907646179,1.0596688985824585,0.2295362502336502
118,1.1229,0.8658,0,0,-0.707672119140625,0.58270263671875,0.4998779296875,0.4960680902004242,1.0442304611206055,0.20366418361663818
119,1.1707,0.8835,0,0,-0.775970458984375,0.6405487060546875,0.465240478515625,0.4833797216415405,0.6921331882476807,0.15361672639846802
120,1.2114,0.895,0,0,-0.8438720703125,0.6726226806640625,0.427978515625,0.47086817026138306,0.6076974272727966,0.11384667456150055
121,1.242,0.9021,0,0,-0.9149322509765625,0.6420135498046875,0.522003173828125,0.46182915568351746,0.2243388295173645,0.004730306565761566
122,1.2595,0.9068,0,0,-0.9446258544921875,0.620086669921875,0.6441650390625,0.5896534323692322,-0.3372528553009033,-0.17944619059562683
123,1.262,0.9106,0,0,-0.885955810546875,0.601043701171875,0.731048583984375,0.7499696016311646,-0.5234816074371338,-0.37242603302001953
124,1.2488,0.9144,0,0,-0.6894378662109375,0.6756591796875,0.6268463134765625,0.37603646516799927,-0.3382701873779297,-0.2764768600463867
125,1.2208,0.9188,0,0,-0.53826904296875,1.0377349853515625,0.2817840576171875,0.3472895324230194,0.6261062622070312,0.11246050149202347
126,1.1804,0.9244,0,0,-0.549896240234375,1.3628082275390625,0.17852783203125,0.3944053649902344,1.1910489797592163,0.6382465362548828
127,1.1315,0.9319,0,0,-0.5807342529296875,1.494415283203125,0.1488800048828125,0.07112424075603485,1.2116141319274902,0.7087334990501404
128,1.0791,0.9428,0,0,-0.455078125,1.30096435546875,0.1368408203125,0.058507516980171204,0.9627194404602051,0.03134008124470711
129,1.0287,0.9593,0,0,-0.215118408203125,0.810150146484375,0.1573333740234375,-0.3915270268917084,0.6411888003349304,-0.4200798273086548
130,0.9854,0.9844,0,0,-0.1575164794921875,0.4715118408203125,-0.011383056640625,-0.7775745987892151,0.965345561504364,-0.3049764037132263
131,0.9532,1.021,0,0,-0.1869049072265625,0.314483642578125,-0.0655670166015625,-0.8092007040977478,0.8337560892105103,-0.204016774892807
132,0.9338,1.0716,0,0,-0.2637176513671875,0.4195404052734375,-0.0624542236328125,-0.6924434304237366,0.23406283557415009,0.10126190632581711
133,0.9271,1.1375,0,0,-0.4959259033203125,0.740966796875,-0.0826263427734375,-0.528923511505127,-0.2869446873664856,0.7482369542121887
134,0.9313,1.218,0,0,-0.80279541015625,1.015350341796875,-0.1058502197265625,-0.2572179436683655,-0.22512899339199066,0.7836452722549438
135,0.9431,1.3104,0,0,-0.9259796142578125,1.11553955078125,-0.1231842041015625,0.14222797751426697,0.5751338601112366,0.273650199174881
136,0.959,1.4097,0,0,-0.82177734375,0.9117889404296875,-0.0986175537109375,0.5705153942108154,1.367639422416687,-0.23601731657981873
137,0.9757,1.5094,0,0,-0.7043609619140625,0.724212646484375,-0.0991973876953125,1.0726070404052734,1.691011905670166,-0.4499107003211975
138,0.9907,1.6023,0,0,-0.65557861328125,0.6678314208984375,-0.0744476318359375,1.5311120748519897,1.3120076656341553,-0.4603857100009918
139,1.0026,1.6811,0,0,-0.5871124267578125,0.6723175048828125,-0.026397705078125,1.6460950374603271,0.6652262210845947,-0.32285076379776
140,1.0104,1.7394,0,0,-0.4985504150390625,0.68145751953125,0.013336181640625,1.7491306066513062,0.08917328715324402,-0.1416601985692978
141,1.0142,1.7719,0,0,-0.4044647216796875,0.7715301513671875,0.156036376953125,1.8794814348220825,-0.5169789791107178,0.12138022482395172
142,1.0144,1.7749,0,0,-0.38861083984375,0.8106689453125,0.4295196533203125,1.2902312278747559,-0.8796924352645874,0.3881128430366516
143,1.0117,1.7461,0,0,-0.595855712890625,0.711395263671875,0.4933013916015625,0.215187668800354,0.2502990663051605,0.31657713651657104
144,1.0067,1.6849,0,0,-0.7548065185546875,0.654083251953125,0.362823486328125,-0.41311115026474,1.797105312347412,0.1027841717004776
145,1.0006,1.5926,0,0,-0.7638702392578125,0.688385009765625,0.202423095703125,-0.8539250493049622,2.098379373550415,-0.061165351420640945
146,0.9943,1.4723,0,0,-0.71185302734375,0.7129058837890625,0.070404052734375,-0.9103752374649048,1.6338738203048706,-0.08487414568662643
147,0.9892,1.3296,0,0,-0.639739990234375,0.709136962890625,-0.01531982421875,-0.6287888288497925,1.2108781337738037,0.08227968961000443
148,0.9863,1.172,0,0,-0.6393890380859375,0.704833984375,-0.0562896728515625,-0.20662668347358704,0.963846743106842,0.2723231315612793
149,0.9869,1.0091,0,0,-0.7138519287109375,0.6953277587890625,-0.054595947265625,0.25038373470306396,0.657581627368927,0.395892471075058
150,0.9923,0.8519,0,0,-0.7943572998046875,0.6613616943359375,-0.0349273681640625,0.5693420171737671,0.23940113186836243,0.38440439105033875
151,1.0034,0.712,0,0,-0.841339111328125,0.618499755859375,-0.0112762451171875,0.7409862279891968,0.055444881319999695,0.32519620656967163
152,1.0209,0.6011,0,0,-0.872894287109375,0.5886383056640625,0.0332794189453125,0.7987565994262695,0.019640812650322914,0.2778920829296112
153,1.0451,0.5296,0,0,-0.8777618408203125,0.633148193359375,0.115753173828125,0.8143965005874634,-0.04752251133322716,0.32479327917099
154,1.0755,0.5063,0,0,-0.8148193359375,0.7185516357421875,0.177398681640625,0.4486219882965088,0.09976600855588913,0.22971682250499725
155,1.1113,0.5367,0,0,-0.7177276611328125,0.766632080078125,0.1981201171875,0.033188313245773315,0.22047725319862366,0.09097304940223694
156,1.1503,0.6226,0,0,-0.6273345947265625,0.741180419921875,0.1766204833984375,-0.2798425555229187,0.22471380233764648,-0.052446164190769196
157,1.1899,0.7613,0,0,-0.6530914306640625,0.668426513671875,0.0689849853515625,-0.5085617899894714,0.4001394212245941,-0.15276478230953217
158,1.2268,0.9454,0,0,-0.909698486328125,0.684844970703125,-0.1038360595703125,-0.6682571768760681,0.40304332971572876,-0.2918930947780609
159,1.2573,1.1627,0,0,-1.107330322265625,0.8213043212890625,-0.2359619140625,-0.651386022567749,-0.24136574566364288,-0.6249227523803711
160,1.2778,1.3974,0,0,-1.0378875732421875,0.901031494140625,-0.29193115234375,-0.50851970911026,-0.9489471316337585,-0.8010404706001282
161,1.2855,1.6313,0,0,-0.9866943359375,0.939666748046875,-0.2611541748046875,-0.3925190567970276,-1.0057374238967896,-0.9059573411941528
162,1.2787,1.8455,0,0,-0.8004608154296875,0.98236083984375,-0.179534912109375,-0.6377719640731812,-0.5393465757369995,-0.9681296348571777
163,1.2571,2.0224,0,0,-0.680328369140625,1.138214111328125,0.1758575439453125,-1.5918160676956177,-0.9714236855506897,-0.8376293778419495
164,1.2219,2.1475,0,0,-0.5417327880859375,1.288818359375,0.4250030517578125,-3.098569869995117,-2.992264986038208,-0.5544089078903198
165,1.1755,2.2113,0,0,-0.3389892578125,1.2788238525390625,-0.01934814453125,-2.091212511062622,-1.0753620862960815,-0.5656777620315552
166,1.1215,2.2101,0,0,-0.0481719970703125,1.0188751220703125,0.355560302734375,-0.8994008898735046,0.8114316463470459,-0.2031126320362091
167,1.0638,2.1461,0,0,-0.3087615966796875,0.565521240234375,0.412200927734375,-2.023390054702759,-0.860374927520752,0.16509893536567688
168,1.0063,2.0269,0,0,-0.42584228515625,0.4566192626953125,0.0487823486328125,-2.3109073638916016,-1.4274431467056274,0.08507254719734192
169,0.9521,1.864,0,0,-0.527099609375,0.636260986328125,-0.0931854248046875,-1.5472619533538818,-0.8065532445907593,0.15938645601272583
170,0.9039,1.6716,0,0,-0.674591064453125,0.7378997802734375,-0.0011444091796875,-0.7989197969436646,-0.3795848786830902,0.20780566334724426
171,0.863,1.4649,0,0,-0.6977996826171875,0.7544708251953125,0.1246337890625,-0.5155371427536011,-0.8314191699028015,0.0030921963043510914
172,0.8304,1.2584,0,0,-0.591888427734375,0.7164459228515625,0.14007568359375,-0.4139609634876251,-1.2072111368179321,-0.07832862436771393
173,0.8064,1.065,0,0,-0.5277252197265625,0.663604736328125,0.155670166015625,-0.3688342273235321,-1.2515543699264526,-0.09777902066707611
174,0.7911,0.8951,0,0,-0.48699951171875,0.613616943359375,0.185943603515625,-0.39799556136131287,-1.0509190559387207,-0.12549613416194916
175,0.7846,0.7563,0,0,-0.469329833984375,0.5786590576171875,0.1819915771484375,-0.053699180483818054,-0.6608045697212219,-0.14426450431346893
176,0.7868,0.6534,0,0,-0.4452362060546875,0.600982666015625,0.2192230224609375,0.4310043752193451,-0.38312581181526184,-0.1688864827156067
177,0.798,0.5882,0,0,-0.3853759765625,0.6413116455078125,0.23968505859375,0.4969210922718048,-0.27847155928611755,-0.0733780786395073
178,0.8183,0.5601,0,0,-0.3985748291015625,0.63671875,0.278106689453125,0.49177587032318115,-0.19615432620048523,0.04163026809692383
179,0.8475,0.5661,0,0,-0.4766998291015625,0.567535400390625,0.3457489013671875,0.6349412798881531,-0.047683365643024445,0.1309817135334015
180,0.8855,0.6016,0,0,-0.5939483642578125,0.541656494140625,0.4914093017578125,0.578682005405426,-0.05993231013417244,0.20118770003318787
181,0.9318,0.6607,0,0,-0.67047119140625,0.5407562255859375,0.55279541015625,0.40763142704963684,0.006464024540036917,0.16473808884620667
182,0.9853,0.737,0,0,-0.685821533203125,0.5242919921875,0.52227783203125,0.47411057353019714,0.366228312253952,0.1254705786705017
183,1.0442,0.8241,0,0,-0.7014312744140625,0.5302276611328125,0.473297119140625,0.7226325273513794,0.7083446383476257,0.08483659476041794
184,1.1062,0.9161,0,0,-0.701263427734375,0.5921478271484375,0.455718994140625,1.0441192388534546,0.6451470255851746,0.04151628538966179
185,1.1682,1.0082,0,0,-0.7033843994140625,0.683807373046875,0.4619293212890625,1.1267216205596924,0.061227936297655106,0.10108906775712967
186,1.2264,1.0968,0,0,-0.74859619140625,0.6973114013671875,0.4321441650390625,1.1433179378509521,-0.22806699573993683,0.1148056760430336
187,1.2766,1.1796,0,0,-0.8463592529296875,0.64166259765625,0.525238037109375,1.0901650190353394,-0.39175286889076233,-0.13513092696666718
188,1.3146,1.2556,0,0,-0.925872802734375,0.51513671875,0.74127197265625,1.0499908924102783,-0.5847241878509521,-0.4352111220359802
189,1.3367,1.3244,0,0,-0.8934173583984375,0.4246826171875,0.917877197265625,0.7743273973464966,-0.41429996490478516,-0.506884753704071
190,1.3403,1.3864,0,0,-0.842498779296875,0.626861572265625,0.7738189697265625,0.02635064721107483,0.3288593888282776,-0.23878967761993408
191,1.3243,1.4423,0,0,-0.733978271484375,1.2057342529296875,0.228485107421875,-0.36341843008995056,1.222377061843872,0.23362287878990173
192,1.2897,1.4935,0,0,-0.70892333984375,1.5189971923828125,-0.1748809814453125,-0.621494710445404,2.2007203102111816,0.8320207595825195
193,1.2394,1.5418,0,0,-0.7975311279296875,1.7210235595703125,-0.2191619873046875,0.44156354665756226,2.2236201763153076,0.3769323527812958
194,1.1781,1.5898,0,0,-0.3533782958984375,1.14251708984375,0.363983154296875,0.6161036491394043,-1.4991610050201416,-0.5852629542350769
195,1.1116,1.6406,0,0,-0.1323699951171875,0.5692291259765625,0.040985107421875,-1.0367683172225952,-1.3897969722747803,-0.44368183612823486
196,1.0461,1.6967,0,0,-0.1943206787109375,0.3544769287109375,-0.098785400390625,-1.3632609844207764,-0.9624315500259399,-0.23450277745723724
197,0.9872,1.7598,0,0,-0.350738525390625,0.469818115234375,-0.20233154296875,-0.7184500098228455,-1.0833781957626343,-0.09286282956600189
198,0.9389,1.8295,0,0,-0.59136962890625,0.8212432861328125,-0.1612701416015625,-0.1675482541322708,-0.7907609939575195,0.09045692533254623
199,0.9041,1.9032,0,0,-0.7147979736328125,1.0247344970703125,-0.10870361328125,-0.2359030693769455,0.5768002271652222,-0.0729578286409378
200,0.8838,1.9756,0,0,-0.6548309326171875,0.9322662353515625,-0.1178741455078125,-0.2757956385612488,2.5800588130950928,-0.45788899064064026
201,0.8776,2.0403,0,0,-0.594635009765625,0.70257568359375,-0.125946044921875,0.5010932087898254,3.3068816661834717,-0.556949257850647
202,0.884,2.0901,0,0,-0.5480499267578125,0.6587677001953125,-0.081634521484375,1.255790114402771,2.4029645919799805,-0.3500397801399231
203,0.9006,2.1186,0,0,-0.508636474609375,0.643310546875,-0.0411834716796875,1.4870574474334717,0.6242942214012146,-0.039742354303598404
204,0.9244,2.121,0,0,-0.434417724609375,0.646392822265625,-0.0288238525390625,1.531471848487854,-0.7451255917549133,0.18824847042560577
205,0.9521,2.0944,0,0,-0.4105072021484375,0.7022552490234375,-0.0757598876953125,1.7475398778915405,-0.4407174587249756,0.33499184250831604
206,0.9801,2.0384,0,0,-0.494140625,0.758270263671875,-0.0314483642578125,2.191293716430664,0.47934049367904663,0.520480215549469
207,1.0054,1.9549,0,0,-0.7185821533203125,0.7563018798828125,0.274444580078125,2.2954041957855225,-0.79619300365448,0.6548188328742981
208,1.0256,1.8477,0,0,-0.8758697509765625,0.6974334716796875,0.4771728515625,1.4622101783752441,-1.9168038368225098,0.6202068328857422
209,1.0391,1.7222,0,0,-0.9918365478515625,0.575469970703125,0.4610748291015625,0.7544498443603516,-0.4318819046020508,0.31995511054992676
210,1.0458,1.5845,0,0,-0.9628448486328125,0.5669097900390625,0.4163360595703125,0.05155294016003609,1.145405650138855,-0.16818687319755554
211,1.0465,1.4409,0,0,-0.7440948486328125,0.6855316162109375,0.252288818359375,-0.5717122554779053,1.1120383739471436,-0.4021005630493164
212,1.0429,1.2971,0,0,-0.5501861572265625,0.7888031005859375,0.0736083984375,-0.673349916934967,1.0294984579086304,-0.336672842502594
213,1.0375,1.1576,0,0,-0.4535369873046875,0.8050079345703125,-0.0151824951171875,-0.5937435030937195,1.1403045654296875,-0.15593446791172028
214,1.0326,1.0264,0,0,-0.43218994140625,0.7860870361328125,-0.0639801025390625,-0.39198988676071167,0.991126298904419,0.10666732490062714
215,1.0303,0.9063,0,0,-0.5121002197265625,0.75067138671875,-0.07635498046875,-0.24838264286518097,0.7104322910308838,0.3305446207523346
216,1.0319,0.7996,0,0,-0.660797119140625,0.7084503173828125,-0.0870361328125,-0.062497999519109726,0.5770246982574463,0.42772603034973145
217,1.0379,0.7086,0,0,-0.81787109375,0.664520263671875,-0.0770111083984375,0.1599435955286026,0.45885705947875977,0.5318289995193481
218,1.0483,0.6359,0,0,-0.929534912109375,0.6438140869140625,-0.063079833984375,0.36396968364715576,0.22745633125305176,0.5427972078323364
219,1.0622,0.5844,0,0,-0.96661376953125,0.6341705322265625,-0.053009033203125,0.5738717913627625,0.1692630648612976,0.4426674246788025
220,1.0783,0.5577,0,0,-0.96051025390625,0.6143035888671875,-0.017822265625,0.7679840326309204,0.1294056624174118,0.30116304755210876
221,1.0952,0.5598,0,0,-0.90362548828125,0.6193084716796875,0.0225067138671875,0.8552507162094116,0.07351896166801453,0.09154083579778671
222,1.1113,0.5947,0,0,-0.7971343994140625,0.6653289794921875,0.0657958984375,0.8810988664627075,0.11606162786483765,0.009820672683417797
223,1.1255,0.6652,0,0,-0.73858642578125,0.6910400390625,0.092437744140625,0.6497141122817993,0.29492831230163574,-0.013178120367228985
224,1.1367,0.7722,0,0,-0.81512451171875,0.7613372802734375,0.0689849853515625,0.3448375463485718,0.18953397870063782,-0.026565564796328545
225,1.1442,0.9138,0,0,-0.938873291015625,0.85455322265625,-0.03375244140625,-0.0035268242936581373,0.18417756259441376,-0.22085247933864594
226,1.1477,1.0841,0,0,-0.9407806396484375,0.8858795166015625,-0.1453094482421875,-0.30469146370887756,0.12161698192358017,-0.5176532864570618
227,1.1473,1.2737,0,0,-0.8507232666015625,0.876220703125,-0.1457061767578125,-0.4795956313610077,-0.4129084646701813,-0.7158486247062683
228,1.1435,1.4699,0,0,-0.6635589599609375,0.8768463134765625,-0.13311767578125,-0.5740060210227966,-0.9236902594566345,-0.7201027870178223
229,1.1368,1.6582,0,0,-0.56878662109375,0.884857177734375,-0.0387725830078125,-0.8664895296096802,-1.216166615486145,-0.6691644787788391
230,1.1277,1.8236,0,0,-0.46929931640625,0.8844451904296875,0.1114959716796875,-1.4627326726913452,-1.7258244752883911,-0.5900846123695374
231,1.1164,1.9532,0,0,-0.3996429443359375,0.8862457275390625,0.1692047119140625,-2.1297922134399414,-1.8576104640960693,-0.48057007789611816
232,1.1028,2.0368,0,0,-0.3621368408203125,0.9407958984375,0.18133544921875,-2.3560585975646973,-1.4440807104110718,-0.33845287561416626
233,1.0866,2.0691,0,0,-0.3232269287109375,1.025390625,0.214111328125,-1.2355501651763916,0.11900655180215836,-0.05952298268675804
234,1.0673,2.0491,0,0,-0.53125,0.9340057373046875,0.4458465576171875,-1.839471459388733,-0.7304193377494812,0.43060463666915894
235,1.0446,1.9803,0,0,-0.725311279296875,0.840240478515625,0.1953582763671875,-2.2182040214538574,-1.206023931503296,0.37737739086151123
236,1.0184,1.8696,0,0,-0.72747802734375,0.85284423828125,0.03289794921875,-1.6954503059387207,-0.22998179495334625,0.26999473571777344
237,0.9892,1.7262,0,0,-0.7158203125,0.81610107421875,0.0957794189453125,-1.2742242813110352,0.24765746295452118,0.1787785291671753
238,0.9579,1.5605,0,0,-0.66229248046875,0.737091064453125,0.1245880126953125,-1.086681604385376,-0.06475023180246353,0.05132976546883583
239,0.926,1.3828,0,0,-0.58148193359375,0.6568756103515625,0.1080169677734375,-0.910579264163971,-0.5455245971679688,-0.07189522683620453
240,0.8952,1.2025,0,0,-0.505157470703125,0.6075897216796875,0.1063995361328125,-0.710188627243042,-0.8521662950515747,-0.09872764348983765
241,0.8673,1.028,0,0,-0.4713897705078125,0.5599822998046875,0.1380157470703125,-0.473788857460022,-0.9959855079650879,-0.08936209976673126
242,0.8439,0.8665,0,0,-0.490509033203125,0.530548095703125,0.1935882568359375,-0.028435103595256805,-1.06024169921875,-0.10038039833307266
243,0.8264,0.7243,0,0,-0.5145721435546875,0.567596435546875,0.297332763671875,0.19104185700416565,-1.2086961269378662,-0.08540038764476776
244,0.8157,0.6069,0,0,-0.5243682861328125,0.6027984619140625,0.3223114013671875,0.16711148619651794,-1.068904161453247,-0.03804165869951248
245,0.8127,0.5188,0,0,-0.5194854736328125,0.5994415283203125,0.324432373046875,0.11196061968803406,-0.5869471430778503,0.011122159659862518
246,0.8179,0.4637,0,0,-0.4857177734375,0.5991058349609375,0.341094970703125,0.07633844763040543,-0.09604104608297348,0.11040400713682175
247,0.8316,0.4437,0,0,-0.509613037109375,0.6042022705078125,0.4050140380859375,0.12837927043437958,0.10285980254411697,0.19009962677955627
248,0.8542,0.4587,0,0,-0.573394775390625,0.6067962646484375,0.48822021484375,0.1903105527162552,0.024226775392889977,0.20517738163471222
249,0.8857,0.5062,0,0,-0.600067138671875,0.590667724609375,0.5060577392578125,0.17989839613437653,0.027602599933743477,0.16781829297542572
250,0.926,0.5811,0,0,-0.585601806640625,0.563812255859375,0.4582366943359375,0.20797264575958252,0.24780739843845367,0.1468791961669922
251,0.9744,0.6758,0,0,-0.577606201171875,0.5546722412109375,0.41961669921875,0.32535839080810547,0.4469130337238312,0.1640392690896988
252,1.0293,0.7813,0,0,-0.5981292724609375,0.5752716064453125,0.401580810546875,0.4613729417324066,0.4622935950756073,0.17315714061260223
253,1.0884,0.8879,0,0,-0.624786376953125,0.5912628173828125,0.3807220458984375,0.8461682796478271,0.5384600162506104,0.23666606843471527
254,1.1482,0.9866,0,0,-0.6866302490234375,0.6083526611328125,0.4870147705078125,1.4100031852722168,0.34643223881721497,0.22439448535442352
255,1.2046,1.0701,0,0,-0.76611328125,0.6350250244140625,0.6017303466796875,1.5138866901397705,-0.2978346049785614,0.1035146713256836
256,1.253,1.1336,0,0,-0.870086669921875,0.6109161376953125,0.6239013671875,1.1816285848617554,-0.4365871846675873,-0.09324952214956284
257,1.2888,1.1754,0,0,-0.8906402587890625,0.52484130859375,0.67169189453125,0.8690972924232483,0.0020383833907544613,-0.3204837441444397
258,1.3082,1.1969,0,0,-0.8716888427734375,0.47674560546875,0.824798583984375,0.5538056492805481,0.16567152738571167,-0.45406684279441833
259,1.3088,1.2024,0,0,-0.857452392578125,0.83526611328125,0.6786651611328125,0.13832725584506989,0.6141273379325867,-0.34973615407943726
260,1.29,1.1985,0,0,-0.6083984375,1.34521484375,0.3610076904296875,-0.03514440357685089,1.294533610343933,0.4413915276527405
261,1.2536,1.1936,0,0,-0.6197052001953125,1.569671630859375,0.035064697265625,-0.2816393971443176,1.551270604133606,1.2693448066711426
262,1.2034,1.197,0,0,-0.733612060546875,1.562042236328125,-0.0169830322265625,0.1305614709854126,1.557403802871704,0.4697171747684479
263,1.1448,1.2182,0,0,-0.346710205078125,0.977203369140625,0.2904052734375,-0.20221328735351562,-0.9306957125663757,-0.5688487887382507
264,1.0843,1.2652,0,0,-0.1873016357421875,0.560943603515625,-0.054473876953125,-1.0143746137619019,-1.08689546585083,-0.3995532691478729
265,1.0282,1.3434,0,0,-0.230712890625,0.391143798828125,-0.1679534912109375,-0.9118399620056152,-0.6970435380935669,-0.08437933027744293
266,0.9816,1.4542,0,0,-0.358184814453125,0.460845947265625,-0.269012451171875,-0.3562614321708679,-0.8754132390022278,0.060741376131772995
267,0.948,1.5939,0,0,-0.537322998046875,0.694244384765625,-0.223724365234375,0.19777992367744446,-0.9343175888061523,0.27852538228034973
268,0.9288,1.7535,0,0,-0.74835205078125,0.8835906982421875,-0.155548095703125,0.34295815229415894,-0.2514173090457916,0.21107496321201324
269,0.9235,1.9195,0,0,-0.7526092529296875,0.954986572265625,-0.121002197265625,0.07505160570144653,1.3528168201446533,-0.24689286947250366
270,0.93,2.0756,0,0,-0.598541259765625,0.832061767578125,-0.1205291748046875,-0.008555138483643532,2.5732553005218506,-0.42953991889953613
271,0.9454,2.2049,0,0,-0.5559234619140625,0.74456787109375,-0.18768310546875,1.1885168552398682,3.241304874420166,-0.3525567054748535
272,0.9661,2.2927,0,0,-0.5583953857421875,0.79205322265625,-0.0518798828125,1.9821287393569946,2.404287338256836,-0.1717485934495926
273,0.9883,2.3285,0,0,-0.48211669921875,0.7738800048828125,0.0327606201171875,2.219473123550415,0.3260132670402527,0.03961319103837013
274,1.0089,2.308,0,0,-0.390411376953125,0.740081787109375,0.1883087158203125,2.170189380645752,-1.9874862432479858,0.37510302662849426
275,1.0249,2.2329,0,0,-0.472381591796875,0.720245361328125,0.3072357177734375,1.6759051084518433,-2.141582727432251,0.5652601718902588
276,1.0344,2.1104,0,0,-0.7065582275390625,0.7178802490234375,0.52484130859375,1.1868592500686646,-0.5117133259773254,0.5277037620544434
277,1.0365,1.9518,0,0,-0.932525634765625,0.6610107421875,0.644866943359375,-0.0268864743411541,1.0394283533096313,0.14778439700603485
278,1.0316,1.7702,0,0,-0.9138031005859375,0.6264801025390625,0.3224945068359375,-0.9805314540863037,1.4535658359527588,-0.16597086191177368
279,1.0209,1.5792,0,0,-0.7980194091796875,0.64105224609375,0.078094482421875,-1.152222752571106,1.2308340072631836,-0.3040198087692261
280,1.0068,1.3907,0,0,-0.6677093505859375,0.6973114013671875,-0.0251007080078125,-0.6971029043197632,0.8521337509155273,-0.27265337109565735
281,0.9921,1.2139,0,0,-0.556549072265625,0.7561187744140625,-0.0590362548828125,-0.38006263971328735,0.8074470162391663,-0.240645632147789
282,0.9796,1.0554,0,0,-0.47772216796875,0.745941162109375,-0.0771942138671875,-0.15826207399368286,0.9749089479446411,-0.18227820098400116
283,0.9719,0.9184,0,0,-0.4097137451171875,0.739990234375,-0.053985595703125,0.21630354225635529,0.911846935749054,0.002900448627769947
284,0.9707,0.8039,0,0,-0.4206695556640625,0.748260498046875,-0.0119171142578125,0.3490740954875946,0.4990854263305664,0.35015562176704407
285,0.9771,0.711,0,0,-0.56927490234375,0.721466064453125,-0.00634765625,0.4443628191947937,0.16602598130702972,0.6068822145462036
286,0.9909,0.6386,0,0,-0.7592315673828125,0.6867828369140625,0.000152587890625,0.5322748422622681,0.22860734164714813,0.6452288031578064
287,1.0114,0.5858,0,0,-0.9110107421875,0.665863037109375,0.0180511474609375,0.6148431897163391,0.2682277262210846,0.6361242532730103
288,1.0371,0.5531,0,0,-0.9799652099609375,0.65191650390625,0.0448150634765625,0.6389732956886292,0.20832496881484985,0.468437522649765
289,1.066,0.5424,0,0,-0.9420013427734375,0.6807098388671875,0.092132568359375,0.6989090442657471,0.23518694937229156,0.1637284755706787
290,1.0963,0.5568,0,0,-0.808349609375,0.7421417236328125,0.1386260986328125,0.5824037790298462,0.3781132102012634,-0.06934498250484467
291,1.1257,0.6002,0,0,-0.672943115234375,0.7413330078125,0.1751556396484375,0.3867780864238739,0.3667822480201721,-0.14073900878429413
292,1.1524,0.6761,0,0,-0.6150665283203125,0.6969451904296875,0.1642608642578125,0.05981406569480896,0.4780302345752716,-0.08670533448457718
293,1.1744,0.7862,0,0,-0.724456787109375,0.7084197998046875,0.050933837890625,-0.29884928464889526,0.6291449069976807,-0.09645117074251175
294,1.1904,0.9295,0,0,-0.942657470703125,0.8296661376953125,-0.0704193115234375,-0.45392143726348877,0.547607421875,-0.18388594686985016
295,1.1991,1.1017,0,0,-1.0619659423828125,0.928314208984375,-0.1758270263671875,-0.5486135482788086,0.2832820415496826,-0.43624868988990784
296,1.2003,1.2943,0,0,-1.0117340087890625,0.926788330078125,-0.2241058349609375,-0.5295125842094421,-0.07822449505329132,-0.5967230200767517
297,1.1941,1.4955,0,0,-0.91162109375,0.9321441650390625,-0.2291412353515625,-0.46359217166900635,-0.5619328618049622,-0.6762368083000183
298,1.1814,1.691,0,0,-0.7116546630859375,0.9172210693359375,-0.14215087890625,-0.5844956636428833,-0.9244329929351807,-0.737760066986084
299,1.1634,1.8658,0,0,-0.475433349609375,0.912689208984375,0.167388916015625,-1.2173447608947754,-2.3481028079986572,-0.74687659740448
300,1.1415,2.0058,0,0,-0.34381103515625,0.878448486328125,0.1724700927734375,-2.0471761226654053,-2.6990175247192383,-0.764129638671875
301,1.1169,2.0997,0,0,-0.2303466796875,0.9383392333984375,0.0656280517578125,-1.6982234716415405,-1.2705411911010742,-0.6409198045730591
302,1.0904,2.14,0,0,-0.288360595703125,0.924774169921875,0.3376007080078125,-1.098926305770874,-0.16716209053993225,-0.29548677802085876
303,1.0626,2.1241,0,0,-0.4973907470703125,0.8285369873046875,0.4338226318359375,-1.8235985040664673,-1.2758581638336182,0.24533705413341522
304,1.0335,2.0539,0,0,-0.6265716552734375,0.8232879638671875,0.1540985107421875,-2.0860977172851562,-1.3844892978668213,0.4972260296344757
305,1.0031,1.9352,0,0,-0.71197509765625,0.915008544921875,0.033935546875,-1.5875688791275024,-0.5871117115020752,0.5291903614997864
306,0.9716,1.7777,0,0,-0.784088134765625,0.899688720703125,0.1304779052734375,-1.3433655500411987,-0.4846404492855072,0.26683729887008667
307,0.9395,1.5928,0,0,-0.63995361328125,0.7537689208984375,0.124114990234375,-1.1903184652328491,-0.8042709231376648,0.07766203582286835
308,0.9075,1.3938,0,0,-0.5169219970703125,0.61016845703125,0.0898895263671875,-0.9448128342628479,-0.9226747751235962,0.05234682932496071
309,0.8769,1.1939,0,0,-0.4855804443359375,0.555816650390625,0.126983642578125,-0.7455183863639832,-1.046181321144104,0.010009224526584148
310,0.8491,1.0056,0,0,-0.4950103759765625,0.562713623046875,0.211273193359375,-0.6662248969078064,-1.1291824579238892,-0.0010713896481320262
311,0.826,0.8402,0,0,-0.5205841064453125,0.587371826171875,0.283233642578125,-0.4532631039619446,-1.000601053237915,-0.0023347933311015368
312,0.8089,0.7065,0,0,-0.5117645263671875,0.6055908203125,0.31494140625,-0.12840937077999115,-0.6041833758354187,-0.023027287796139717
313,0.7994,0.6104,0,0,-0.47216796875,0.6252899169921875,0.2922515869140625,-0.0485512912273407,-0.14749625325202942,-0.008769256994128227
314,0.7989,0.5544,0,0,-0.4480438232421875,0.6390533447265625,0.265533447265625,-0.00974264182150364,0.2085430920124054,0.0606716014444828
315,0.8083,0.5376,0,0,-0.384033203125,0.607391357421875,0.2701416015625,0.21220813691616058,0.41036489605903625,0.16636714339256287
316,0.8281,0.5558,0,0,-0.4267730712890625,0.584991455078125,0.3407135009765625,0.4537310004234314,0.37902241945266724,0.3033532202243805
317,0.8586,0.6019,0,0,-0.5131988525390625,0.6009368896484375,0.4410247802734375,0.5597996711730957,0.16605155169963837,0.3173702359199524
318,0.8991,0.6671,0,0,-0.579376220703125,0.608673095703125,0.4736480712890625,0.6670742034912109,0.1586727350950241,0.2794753313064575
319,0.9486,0.7418,0,0,-0.6322784423828125,0.605987548828125,0.4870147705078125,0.7311242818832397,0.32162997126579285,0.20914150774478912
320,1.0051,0.8165,0,0,-0.6750640869140625,0.573944091796875,0.477294921875,0.7005125880241394,0.4354422688484192,0.07628704607486725
321,1.0658,0.8831,0,0,-0.7068023681640625,0.5489959716796875,0.4571685791015625,0.8432620167732239,0.4531022310256958,0.013806626200675964
322,1.1272,0.935,0,0,-0.729949951171875,0.53009033203125,0.48663330078125,1.0846474170684814,0.22161655128002167,-0.05525366961956024
323,1.1851,0.9681,0,0,-0.7431488037109375,0.5778045654296875,0.483154296875,1.0684181451797485,-0.0396970771253109,-0.12732945382595062
324,1.235,0.981,0,0,-0.7506256103515625,0.62164306640625,0.447113037109375,0.9422444701194763,0.21299056708812714,-0.18149682879447937
325,1.2722,0.9745,0,0,-0.725189208984375,0.658843994140625,0.573150634765625,0.8648168444633484,0.2927418649196625,-0.29062384366989136
326,1.293,0.9517,0,0,-0.763397216796875,0.630157470703125,0.789398193359375,0.8236243724822998,-0.02203313075006008,-0.3269011676311493
327,1.2948,0.9173,0,0,-0.87823486328125,0.7535552978515625,0.8179931640625,0.4335881769657135,-0.12570039927959442,-0.1051490530371666
328,1.2768,0.8774,0,0,-0.9253997802734375,1.1998138427734375,0.4941253662109375,0.17598780989646912,0.4517464339733124,0.24745000898838043
329,1.2407,0.8389,0,0,-0.7657623291015625,1.45477294921875,0.183074951171875,0.12262418866157532,0.7456352710723877,0.8750907778739929
330,1.1904,0.809,0,0,-0.7214202880859375,1.449981689453125,0.028839111328125,0.3337361514568329,0.847446620464325,0.8242267966270447
331,1.1318,0.7951,0,0,-0.532257080078125,1.15228271484375,0.166046142578125,0.6952147483825684,0.07419300079345703,-0.08910031616687775
332,1.0717,0.8038,0,0,-0.2359771728515625,0.6527862548828125,0.3975067138671875,0.2245982140302658,-1.944502830505371,-0.4051123261451721
333,1.0169,0.8404,0,0,-0.2314910888671875,0.415679931640625,-0.0228118896484375,-0.36701342463493347,-0.49342596530914307,-0.14702193439006805
334,0.973,0.9077,0,0,-0.2792510986328125,0.3350067138671875,-0.1484222412109375,-0.5160132646560669,0.35028156638145447,-0.14916178584098816
335,0.9434,1.0052,0,0,-0.3014373779296875,0.4095001220703125,-0.2638702392578125,-0.1601470559835434,0.02545555867254734,0.011462511494755745
336,0.9292,1.1281,0,0,-0.516876220703125,0.721527099609375,-0.3212738037109375,0.43461084365844727,-0.31898942589759827,0.41015103459358215
337,0.929,1.2676,0,0,-0.7892608642578125,0.966461181640625,-0.224517822265625,0.7255534529685974,-0.19910697638988495,0.335964173078537
338,0.9396,1.411,0,0,-0.818267822265625,0.986572265625,-0.133331298828125,0.5959579348564148,0.5910049676895142,-0.17521868646144867
339,0.9567,1.5439,0,0,-0.6541595458984375,0.82562255859375,-0.1005401611328125,0.5985800623893738,1.2120472192764282,-0.38128212094306946
340,0.976,1.6518,0,0,-0.618499755859375,0.724395751953125,-0.1451873779296875,1.6367723941802979,1.9302955865859985,-0.33249005675315857
341,0.9936,1.7225,0,0,-0.6593170166015625,0.8074188232421875,0.01226806640625,2.2468278408050537,1.2044085264205933,-0.3441608250141144
342,1.0067,1.7482,0,0,-0.5407867431640625,0.86492919921875,0.3190155029296875,2.309377431869507,-1.3132572174072266,-0.18045206367969513
343,1.0134,1.7266,0,0,-0.4380950927734375,0.8641204833984375,0.324615478515625,1.3341622352600098,-2.1116585731506348,0.05764998123049736
344,1.0132,1.661,0,0,-0.47601318359375,0.8146820068359375,0.2515411376953125,0.360394150018692,-0.3927779197692871,-0.08670347183942795
345,1.0068,1.5595,0,0,-0.448272705078125,0.7096405029296875,0.288360595703125,-0.12836462259292603,1.3419204950332642,-0.2066354602575302
346,0.9957,1.4336,0,0,-0.5637664794921875,0.697265625,0.261932373046875,-0.5764233469963074,1.4045947790145874,-0.03905339166522026
347,0.9817,1.2956,0,0,-0.7205047607421875,0.7138824462890625,0.0849761962890625,-0.8620010614395142,0.8730664849281311,-0.04445694759488106
348,0.9672,1.1574,0,0,-0.742218017578125,0.7201080322265625,-0.032745361328125,-0.7018387913703918,0.5211302638053894,-0.07153064012527466
349,0.9546,1.0284,0,0,-0.7131195068359375,0.6844635009765625,-0.083099365234375,-0.1600719541311264,0.46529683470726013,-0.06332837045192719
350,0.9457,0.915,0,0,-0.6533660888671875,0.6714019775390625,-0.092010498046875,0.3114159405231476,0.49234285950660706,-0.060089170932769775
351,0.9423,0.8194,0,0,-0.5818023681640625,0.662139892578125,-0.057281494140625,0.49562546610832214,0.4879928529262543,-0.02809075638651848
352,0.9452,0.7409,0,0,-0.514312744140625,0.676422119140625,-0.0023193359375,0.6517865657806396,0.5018172860145569,0.03975912928581238
353,0.9548,0.6764,0,0,-0.4841156005859375,0.7436981201171875,0.06390380859375,0.7274019718170166,0.43285155296325684,0.23456962406635284
354,0.9704,0.6214,0,0,-0.53668212890625,0.7805023193359375,0.115386962890625,0.5809358358383179,0.3169175088405609,0.39558273553848267
355,0.991,0.5725,0,0,-0.659423828125,0.7608795166015625,0.138641357421875,0.4105483889579773,0.3799888789653778,0.4655732810497284
356,1.015,0.5274,0,0,-0.7861480712890625,0.7235565185546875,0.1378631591796875,0.1800592541694641,0.6161047220230103,0.37326571345329285
357,1.0408,0.4868,0,0,-0.8459930419921875,0.719818115234375,0.1181793212890625,-0.012168515473604202,0.7087023258209229,0.266740083694458
358,1.0667,0.4543,0,0,-0.85919189453125,0.7255401611328125,0.0939483642578125,-0.12920193374156952,0.6485399007797241,0.16894827783107758
359,1.0911,0.4362,0,0,-0.815216064453125,0.7477874755859375,0.081268310546875,-0.16439293324947357,0.577199399471283,0.053771354258060455
360,1.1129,0.4405,0,0,-0.7852020263671875,0.7609100341796875,0.061859130859375,-0.10618609189987183,0.5199710130691528,0.000990695902146399
361,1.1311,0.4758,0,0,-0.7856597900390625,0.7206878662109375,0.0662994384765625,-0.03190946206450462,0.449724018573761,-0.11809015274047852
362,1.1454,0.5491,0,0,-0.777099609375,0.6566009521484375,0.0805206298828125,0.042215362191200256,0.4652864634990692,-0.14320217072963715
363,1.1553,0.6647,0,0,-0.8797454833984375,0.655670166015625,0.036163330078125,-0.06119811162352562,0.4171072244644165,-0.11143438518047333
364,1.161,0.8224,0,0,-1.0427703857421875,0.72906494140625,-0.023406982421875,-0.08100057393312454,0.047996021807193756,-0.18219509720802307
365,1.1627,1.0166,0,0,-1.099609375,0.82415771484375,-0.092041015625,-0.07898269593715668,-0.23299649357795715,-0.43259111046791077
366,1.1609,1.2367,0,0,-0.950439453125,0.8315277099609375,-0.137237548828125,-0.07197991758584976,-0.44102320075035095,-0.6671847105026245
367,1.156,1.4674,0,0,-0.747528076171875,0.804229736328125,-0.157257080078125,-0.09823255985975266,-0.7432291507720947,-0.7022129893302917
368,1.1486,1.6907,0,0,-0.5828399658203125,0.7722930908203125,-0.00799560546875,-0.5214413404464722,-1.5308467149734497,-0.7309365272521973
369,1.1388,1.8884,0,0,-0.4625091552734375,0.79644775390625,0.0806884765625,-1.3025333881378174,-2.232077121734619,-0.6572329998016357
370,1.1265,2.044,0,0,-0.3902435302734375,0.87725830078125,0.1215057373046875,-2.1317272186279297,-2.1587648391723633,-0.4601239264011383
371,1.1114,2.1455,0,0,-0.4167327880859375,1.0502777099609375,0.264404296875,-2.8341541290283203,-2.077225923538208,-0.29116445779800415
372,1.0929,2.1861,0,0,-0.4322357177734375,1.227386474609375,0.1434478759765625,-1.3985981941223145,-0.11766218394041061,-0.43607717752456665
373,1.0707,2.1646,0,0,-0.4844512939453125,1.1112518310546875,0.452789306640625,-1.4259387254714966,-0.036610741168260574,-0.12358585000038147
374,1.0445,2.0854,0,0,-0.5527191162109375,0.81689453125,0.267913818359375,-2.038005828857422,-0.6942671537399292,0.16728566586971283
375,1.0148,1.9568,0,0,-0.5591888427734375,0.7469635009765625,-0.010345458984375,-1.6804157495498657,-0.5480460524559021,0.30662626028060913
376,0.9825,1.7901,0,0,-0.626251220703125,0.7482757568359375,-0.0139007568359375,-1.016533374786377,-0.5137762427330017,0.3215380907058716
377,0.9488,1.5982,0,0,-0.6563568115234375,0.7039337158203125,0.124298095703125,-0.7151111960411072,-1.2358829975128174,0.2087862342596054
378,0.9153,1.3944,0,0,-0.5955657958984375,0.6389007568359375,0.167144775390625,-0.5923144817352295,-1.7707408666610718,0.1461161971092224
379,0.8839,1.192,0,0,-0.547454833984375,0.5876312255859375,0.186859130859375,-0.4555440843105316,-1.61935293674469,0.08103066682815552
380,0.8563,1.0029,0,0,-0.5433807373046875,0.564788818359375,0.2496337890625,-0.30385923385620117,-1.063963770866394,0.0003454120014794171
381,0.8342,0.8374,0,0,-0.5528106689453125,0.5630340576171875,0.351837158203125,-0.29233360290527344,-0.6616876721382141,-0.1415366232395172
382,0.8188,0.7033,0,0,-0.5037078857421875,0.5840911865234375,0.3402557373046875,-0.32694029808044434,-0.38827797770500183,-0.1616261750459671
383,0.8114,0.6054,0,0,-0.4553985595703125,0.61468505859375,0.2639617919921875,-0.23547829687595367,-0.06607142835855484,-0.10047387331724167
384,0.8127,0.545,0,0,-0.407257080078125,0.6539306640625,0.2314453125,-0.017601363360881805,0.17164233326911926,0.018814167007803917
385,0.8231,0.5204,0,0,-0.3350982666015625,0.67095947265625,0.248687744140625,0.24317750334739685,0.3514648377895355,0.1803053319454193
386,0.8427,0.5266,0,0,-0.3901824951171875,0.6356353759765625,0.3342437744140625,0.4314829707145691,0.3576824963092804,0.34648603200912476
387,0.871,0.5567,0,0,-0.4941864013671875,0.6130218505859375,0.4582061767578125,0.535942018032074,0.15720826387405396,0.38435113430023193
388,0.9073,0.6027,0,0,-0.5750274658203125,0.6090545654296875,0.510223388671875,0.6151524186134338,0.12112881988286972,0.3278028964996338
389,0.9507,0.6569,0,0,-0.657318115234375,0.6030426025390625,0.51318359375,0.6244681477546692,0.35512346029281616,0.17366713285446167
390,0.9995,0.7123,0,0,-0.6996612548828125,0.600006103515625,0.4757843017578125,0.46901756525039673,0.5217324495315552,-0.0013709953054785728
391,1.0519,0.764,0,0,-0.705352783203125,0.5752105712890625,0.3937225341796875,0.5176836252212524,0.6907837390899658,-0.005947105120867491
392,1.1054,0.8092,0,0,-0.7114105224609375,0.5265350341796875,0.4235076904296875,0.9307644367218018,0.7830426096916199,0.17340800166130066
393,1.1573,0.8476,0,0,-0.7501373291015625,0.5992279052734375,0.5762481689453125,1.052012324333191,0.12539467215538025,0.08868619054555893
394,1.2042,0.8807,0,0,-0.77166748046875,0.68206787109375,0.563385009765625,0.8641970753669739,-0.19481556117534637,-0.08966117352247238
395,1.2427,0.9113,0,0,-0.7159881591796875,0.6717529296875,0.5731201171875,0.682544469833374,0.19509412348270416,-0.2421673685312271
396,1.2697,0.9424,0,0,-0.7427215576171875,0.5611724853515625,0.682586669921875,0.5716382265090942,0.21197031438350677,-0.3147536814212799
397,1.2825,0.9768,0,0,-0.839996337890625,0.5107574462890625,0.7189178466796875,0.6198970675468445,0.2073017954826355,-0.2863084673881531
398,1.2794,1.0158,0,0,-0.95269775390625,0.695831298828125,0.640106201171875,0.5040791034698486,0.2845933735370636,-0.15743675827980042
399,1.2603,1.0593,0,0,-0.9453887939453125,1.145111083984375,0.350311279296875,0.4694191515445709,0.4811820685863495,0.07749053090810776
400,1.227,1.1056,0,0,-0.74560546875,1.375885009765625,0.020233154296875,0.1808328926563263,0.7552549242973328,0.5115301012992859
401,1.1828,1.1525,0,0,-0.6523590087890625,1.4000701904296875,-0.1600799560546875,0.5017131567001343,1.6004908084869385,0.40166807174682617
402,1.1324,1.1975,0,0,-0.3928680419921875,1.240814208984375,0.193511962890625,1.4097446203231812,0.3479941785335541,-0.30981698632240295
403,1.0814,1.2388,0,0,-0.0740966796875,0.7043609619140625,0.4981842041015625,0.2921146750450134,-2.5890426635742188,-0.3308687210083008
404,1.0349,1.2755,0,0,-0.095428466796875,0.3759918212890625,0.0243377685546875,-0.7987669706344604,-0.9931582808494568,0.022540729492902756
405,0.9972,1.3077,0,0,-0.213836669921875,0.357391357421875,-0.2416839599609375,-0.6405235528945923,0.3380427658557892,0.15537121891975403
406,0.9707,1.3358,0,0,-0.3874053955078125,0.6261749267578125,-0.3192138671875,-0.034265827387571335,0.6378603577613831,0.3269437551498413
407,0.9559,1.3601,0,0,-0.666748046875,0.925262451171875,-0.276763916015625,0.3603275716304779,0.5639784336090088,0.40782609581947327
408,0.9517,1.3801,0,0,-0.8211669921875,0.975799560546875,-0.208526611328125,0.6249781250953674,0.686138391494751,0.20641149580478668
409,0.9556,1.3943,0,0,-0.76690673828125,0.8162994384765625,-0.152252197265625,1.2545642852783203,1.1075575351715088,-0.17375288903713226
410,0.9644,1.4007,0,0,-0.654571533203125,0.7566375732421875,-0.031707763671875,1.5113308429718018,1.0888919830322266,-0.23980461061000824
411,0.9752,1.3973,0,0,-0.6455841064453125,0.7392578125,0.0338592529296875,1.5591926574707031,0.6238771677017212,-0.18114688992500305
412,0.9852,1.3825,0,0,-0.5729522705078125,0.7719268798828125,0.2175750732421875,1.837830662727356,-0.4717118740081787,-0.11419394612312317
413,0.9924,1.3558,0,0,-0.4679718017578125,0.847320556640625,0.3094635009765625,1.054185152053833,-0.7597500681877136,0.009459281340241432
414,0.9958,1.3175,0,0,-0.455474853515625,0.8195648193359375,0.2916259765625,0.09899529069662094,0.3421916961669922,-0.12236080318689346
415,0.995,1.2691,0,0,-0.4412078857421875,0.7605743408203125,0.2978973388671875,-0.36105939745903015,1.486655354499817,-0.14344345033168793
416,0.9904,1.2125,0,0,-0.5935821533203125,0.6963348388671875,0.2388153076171875,-0.7073377370834351,1.5426818132400513,0.030314229428768158
417,0.9832,1.1501,0,0,-0.7556304931640625,0.68121337890625,0.05694580078125,-0.8524366021156311,1.062188982963562,0.07362361997365952
418,0.9747,1.0839,0,0,-0.8044586181640625,0.649749755859375,-0.076324462890625,-0.5841585397720337,0.630621612071991,0.05694424360990524
419,0.9665,1.0157,0,0,-0.7633819580078125,0.6112518310546875,-0.1484527587890625,-0.013772537931799889,0.4417835474014282,0.029463881626725197
420,0.9604,0.9466,0,0,-0.6910247802734375,0.5859222412109375,-0.126220703125,0.4610903859138489,0.43959280848503113,0.0020471718162298203
421,0.9576,0.8768,0,0,-0.6244354248046875,0.6259002685546875,-0.0397491455078125,0.7009751796722412,0.4869488775730133,0.010919492691755295
422,0.9593,0.8065,0,0,-0.5603485107421875,0.7200775146484375,0.045989990234375,0.8101503849029541,0.4736160337924957,0.10667664557695389
423,0.9662,0.7359,0,0,-0.5304718017578125,0.7928924560546875,0.1038360595703125,0.7695086598396301,0.3101690411567688,0.27352607250213623
424,0.9783,0.6662,0,0,-0.555267333984375,0.799774169921875,0.1286163330078125,0.5630207657814026,0.2601945698261261,0.397871196269989
425,0.9954,0.5999,0,0,-0.632171630859375,0.758544921875,0.1248016357421875,0.25886085629463196,0.5172455310821533,0.4240388870239258
426,1.0167,0.5414,0,0,-0.7555389404296875,0.732177734375,0.1110992431640625,-0.017004815861582756,0.7136850953102112,0.4284459054470062
427,1.0412,0.4971,0,0,-0.856658935546875,0.71826171875,0.0738372802734375,-0.28337791562080383,0.6394489407539368,0.27012869715690613
428,1.0679,0.4746,0,0,-0.8443450927734375,0.7218017578125,0.022613525390625,-0.36097630858421326,0.5277993679046631,0.1145300418138504
429,1.0955,0.4819,0,0,-0.81646728515625,0.72637939453125,-0.01025390625,-0.2603921592235565,0.5619272589683533,0.0552467443048954
430,1.1227,0.5264,0,0,-0.795562744140625,0.706329345703125,-0.0117340087890625,-0.062068697065114975,0.5034255981445312,-0.036377713084220886
431,1.1481,0.6131,0,0,-0.777679443359375,0.6565399169921875,0.01226806640625,0.06543359905481339,0.42657527327537537,-0.15525057911872864
432,1.1704,0.7435,0,0,-0.8450469970703125,0.64398193359375,-0.00628662109375,0.05546805262565613,0.33850640058517456,-0.11541767418384552
433,1.1885,0.9144,0,0,-1.04541015625,0.7239837646484375,-0.06134033203125,0.038599058985710144,-0.09269451349973679,-0.17642030119895935
434,1.2013,1.1177,0,0,-1.1286773681640625,0.816497802734375,-0.1236419677734375,0.034638404846191406,-0.4707973301410675,-0.37846049666404724
435,1.208,1.3409,0,0,-0.98834228515625,0.8520965576171875,-0.1412506103515625,0.08303976058959961,-0.8188471794128418,-0.5843260288238525
436,1.2082,1.568,0,0,-0.8036041259765625,0.8842010498046875,-0.097930908203125,-0.18080094456672668,-1.2907025814056396,-0.6474663615226746
437,1.2016,1.7818,0,0,-0.654266357421875,0.86834716796875,0.080657958984375,-0.9404399394989014,-2.2283709049224854,-0.6909273266792297
438,1.1884,1.9659,0,0,-0.567596435546875,0.8802947998046875,0.094085693359375,-1.7566418647766113,-2.3705878257751465,-0.7487091422080994
439,1.1688,2.1066,0,0,-0.464141845703125,0.967132568359375,0.1291046142578125,-2.3817739486694336,-1.8336412906646729,-0.6843301057815552
440,1.1432,2.1943,0,0,-0.336639404296875,1.169921875,0.1323089599609375,-1.4713810682296753,-0.6126061677932739,-0.6180352568626404
441,1.1119,2.2243,0,0,-0.272308349609375,1.1770172119140625,0.404815673828125,-1.3451522588729858,-0.45846718549728394,-0.16274870932102203
442,1.0758,2.1966,0,0,-0.418670654296875,0.9200439453125,0.324981689453125,-2.161395311355591,-1.0012564659118652,0.18316929042339325
443,1.0355,2.1151,0,0,-0.470611572265625,0.7476959228515625,0.0225677490234375,-2.010693311691284,-0.95435631275177,0.29640716314315796
444,0.9922,1.9872,0,0,-0.5430755615234375,0.781707763671875,-0.07708740234375,-1.1967118978500366,-0.5294625163078308,0.4096578359603882
445,0.9474,1.8224,0,0,-0.682281494140625,0.81195068359375,0.0707244873046875,-0.693816065788269,-1.0427546501159668,0.3370584547519684
446,0.9027,1.6319,0,0,-0.6639556884765625,0.743560791015625,0.2003021240234375,-0.5941296815872192,-1.9252580404281616,0.15499331057071686
447,0.8602,1.4278,0,0,-0.5501708984375,0.637054443359375,0.19293212890625,-0.5082421898841858,-2.1040079593658447,0.07271414995193481
448,0.8219,1.2225,0,0,-0.4829864501953125,0.5487213134765625,0.213592529296875,-0.24234765768051147,-1.5461785793304443,0.058869972825050354
449,0.7901,1.028,0,0,-0.467742919921875,0.5066680908203125,0.3090667724609375,-0.14374251663684845,-0.981496274471283,-0.008048338815569878
450,0.7668,0.8549,0,0,-0.4373016357421875,0.5142364501953125,0.3133392333984375,-0.1945686787366867,-0.4773117005825043,-0.05305389687418938
451,0.7541,0.7118,0,0,-0.412506103515625,0.546234130859375,0.2661895751953125,-0.07993930578231812,0.08442114293575287,-0.02141421101987362
452,0.7532,0.6045,0,0,-0.402435302734375,0.608428955078125,0.23907470703125,0.08733224123716354,0.3980048894882202,0.013129117898643017
453,0.7651,0.5358,0,0,-0.38092041015625,0.67889404296875,0.2266998291015625,0.2284954935312271,0.49290770292282104,0.002019474981352687
454,0.7901,0.505,0,0,-0.3188018798828125,0.653289794921875,0.24517822265625,0.38361263275146484,0.575778603553772,0.07780797779560089
455,0.8279,0.5089,0,0,-0.3706207275390625,0.609222412109375,0.3491973876953125,0.46838852763175964,0.45339730381965637,0.23684875667095184
456,0.8773,0.5422,0,0,-0.47540283203125,0.63555908203125,0.4467926025390625,0.35190504789352417,0.14692926406860352,0.274208664894104
457,0.9366,0.5981,0,0,-0.5652618408203125,0.667327880859375,0.4415740966796875,0.34615209698677063,0.22845448553562164,0.248903289437294
458,1.0031,0.6697,0,0,-0.617156982421875,0.67376708984375,0.46722412109375,0.4957146644592285,0.504938006401062,0.23571158945560455
459,1.0738,0.7501,0,0,-0.672332763671875,0.6562957763671875,0.4981231689453125,0.6605760455131531,0.5497113466262817,0.2148963212966919
460,1.1449,0.8335,0,0,-0.7171173095703125,0.59759521484375,0.551727294921875,0.9972717761993408,0.4442482888698578,0.191628560423851
461,1.2122,0.9153,0,0,-0.792266845703125,0.595672607421875,0.6573028564453125,1.1017662286758423,0.08041787892580032,0.10896962881088257
462,1.2713,0.9923,0,0,-0.85467529296875,0.6510772705078125,0.57916259765625,0.8498988747596741,0.3578401505947113,-0.09129422903060913
463,1.3179,1.0625,0,0,-0.8386077880859375,0.593292236328125,0.5270538330078125,0.6719983816146851,0.810909628868103,-0.28162235021591187
464,1.3483,1.1248,0,0,-0.886871337890625,0.450531005859375,0.6391448974609375,0.6714766621589661,0.5390669703483582,-0.4153338074684143
465,1.3597,1.1787,0,0,-0.9485626220703125,0.4251556396484375,0.754608154296875,0.7394623756408691,0.11874635517597198,-0.38072469830513
466,1.351,1.2238,0,0,-1.05230712890625,0.9226226806640625,0.55322265625,0.7148390412330627,0.20917585492134094,-0.0663907378911972
467,1.3226,1.2598,0,0,-0.8269805908203125,1.4874725341796875,0.13385009765625,0.45399653911590576,0.45913082361221313,0.5528168678283691
468,1.2773,1.2869,0,0,-0.761016845703125,1.72674560546875,-0.151397705078125,0.20834600925445557,1.6203972101211548,0.925745964050293
469,1.2198,1.3055,0,0,-0.6575775146484375,1.4673919677734375,-0.060760498046875,1.055071473121643,1.0969773530960083,-0.21373705565929413
470,1.156,1.317,0,0,-0.0595703125,0.801055908203125,0.4604949951171875,0.7204774618148804,-2.5357344150543213,-0.8388012051582336
471,1.0921,1.3236,0,0,0.018798828125,0.405731201171875,-0.000579833984375,-0.44657188653945923,-1.3205376863479614,-0.29265397787094116
472,1.0341,1.3278,0,0,-0.0940704345703125,0.3016357421875,-0.184326171875,-0.7034018039703369,-0.29249337315559387,0.025600967928767204
473,0.9861,1.3318,0,0,-0.3498077392578125,0.6067657470703125,-0.2778472900390625,-0.015545936301350594,-0.011053716763854027,0.04641330614686012
474,0.9506,1.337,0,0,-0.5896453857421875,0.995819091796875,-0.229766845703125,0.5131983160972595,0.47157737612724304,0.08747152239084244
475,0.9278,1.3433,0,0,-0.7343292236328125,1.105804443359375,-0.134124755859375,0.42183351516723633,1.2746893167495728,-0.057553574442863464
476,0.9166,1.3494,0,0,-0.66357421875,0.8684844970703125,-0.1093292236328125,0.7927713990211487,1.892217755317688,-0.4542543292045593
477,0.9146,1.3529,0,0,-0.559783935546875,0.7513580322265625,-0.0181121826171875,1.0802018642425537,1.8151546716690063,-0.43650782108306885
478,0.9191,1.3516,0,0,-0.5330963134765625,0.693939208984375,0.04144287109375,1.200848937034607,0.8653720617294312,-0.1932528167963028
479,0.927,1.3431,0,0,-0.512939453125,0.69464111328125,0.1615447998046875,1.1979188919067383,-0.5312635898590088,-0.03575959429144859
480,0.9356,1.3258,0,0,-0.4638214111328125,0.7520599365234375,0.1743316650390625,0.5443759560585022,-0.5996626615524292,0.013934724032878876
481,0.943,1.2984,0,0,-0.4827117919921875,0.7750244140625,0.169586181640625,-0.0018618159228935838,0.6740385890007019,-0.028120318427681923
482,0.9476,1.2603,0,0,-0.5596160888671875,0.7409820556640625,0.2196807861328125,-0.045700907707214355,1.7691237926483154,0.03248044475913048
483,0.9491,1.2112,0,0,-0.7144012451171875,0.683502197265625,0.213226318359375,-0.3572087287902832,1.510852336883545,0.08384855836629868
484,0.9477,1.1513,0,0,-0.7832489013671875,0.6566619873046875,0.0670013427734375,-0.6217647790908813,0.9260790944099426,0.09784507006406784
485,0.9446,1.0815,0,0,-0.7600555419921875,0.6259307861328125,-0.0449981689453125,-0.5316430926322937,0.6777385473251343,0.08957382291555405
486,0.9415,1.0031,0,0,-0.7000732421875,0.579132080078125,-0.0804443359375,-0.10645933449268341,0.7145242691040039,0.09716729819774628
487,0.9405,0.9182,0,0,-0.6484527587890625,0.61041259765625,-0.05804443359375,0.25512072443962097,0.8117634654045105,0.15387877821922302
488,0.9438,0.8297,0,0,-0.6138763427734375,0.6954345703125,-0.0200347900390625,0.461605429649353,0.6212204098701477,0.2722056806087494
489,0.9533,0.7419,0,0,-0.6006927490234375,0.749603271484375,0.0129547119140625,0.5363765954971313,0.44677484035491943,0.2968069016933441
490,0.9702,0.6598,0,0,-0.5815887451171875,0.76641845703125,0.0414276123046875,0.6389275193214417,0.4614078402519226,0.36587145924568176
491,0.995,0.5903,0,0,-0.614959716796875,0.7386322021484375,0.0874786376953125,0.5357882976531982,0.5617086291313171,0.4444509446620941
492,1.0273,0.5408,0,0,-0.744659423828125,0.6735687255859375,0.1114959716796875,0.36765843629837036,0.5366024374961853,0.37971776723861694
493,1.0656,0.5198,0,0,-0.8108062744140625,0.63330078125,0.1536102294921875,0.2196740359067917,0.4956827163696289,0.2729630768299103
494,1.1074,0.5352,0,0,-0.8336029052734375,0.6199798583984375,0.167022705078125,0.018038121983408928,0.5509912371635437,0.16766969859600067
495,1.1498,0.5936,0,0,-0.8282012939453125,0.6598358154296875,0.124359130859375,-0.21725881099700928,0.5416105389595032,0.01504259929060936
496,1.1891,0.6989,0,0,-0.7676239013671875,0.687042236328125,-0.0139617919921875,-0.38910406827926636,0.5100321173667908,-0.24983219802379608
497,1.2219,0.8513,0,0,-0.8343048095703125,0.7687225341796875,-0.1814117431640625,-0.363349974155426,0.4244820475578308,-0.36346635222435
498,1.2455,1.0461,0,0,-1.0504608154296875,0.9332275390625,-0.281646728515625,-0.21660873293876648,-0.13193726539611816,-0.5607134103775024
499,1.2578,1.2741,0,0,-1.0982208251953125,1.09295654296875,-0.3058013916015625,-0.18742261826992035,-0.4811221659183502,-0.6399144530296326
500,1.2584,1.5209,0,0,-1.0886383056640625,1.1222686767578125,-0.2842559814453125,-0.20090247690677643,-0.5003443360328674,-0.7166774272918701
501,1.2479,1.7691,0,0,-0.8310089111328125,1.0131072998046875,-0.1864776611328125,-0.4566487669944763,-0.34559735655784607,-0.9007612466812134
502,1.2285,1.9994,0,0,-0.4316864013671875,0.962860107421875,0.3258819580078125,-1.2326505184173584,-2.1807103157043457,-0.8406156301498413
503,1.2026,2.1933,0,0,-0.3204193115234375,0.890533447265625,0.2884063720703125,-2.2552783489227295,-3.6654531955718994,-0.7181504368782043
504,1.1729,2.335,0,0,-0.14990234375,0.945770263671875,0.046356201171875,-1.1049953699111938,-0.6731206178665161,-0.7948505282402039
505,1.1418,2.4137,0,0,-0.0890045166015625,0.9226531982421875,0.5927581787109375,-2.295255184173584,-0.6297292113304138,-0.04363536089658737
506,1.1108,2.4239,0,0,-0.3866424560546875,0.722686767578125,0.2691650390625,-2.9199018478393555,-1.1846579313278198,0.2950625419616699
507,1.0803,2.3666,0,0,-0.5846405029296875,0.7210540771484375,0.102935791015625,-2.081583261489868,-0.6982957720756531,0.5460169911384583
508,1.0502,2.2478,0,0,-0.75274658203125,0.8886260986328125,0.0528717041015625,-1.7678444385528564,-0.9171726703643799,0.6612969636917114
509,1.0196,2.0786,0,0,-0.8930206298828125,0.9603118896484375,0.0074462890625,-1.3354237079620361,-0.9038076400756836,0.5954806804656982
510,0.9878,1.8726,0,0,-0.88067626953125,0.8252716064453125,0.0654754638671875,-0.8547143936157227,-1.0449711084365845,0.19358304142951965
511,0.9547,1.6453,0,0,-0.7552490234375,0.621307373046875,0.162841796875,-0.48117008805274963,-1.395275354385376,-0.12842108309268951
512,0.9204,1.4127,0,0,-0.6508026123046875,0.501953125,0.23876953125,-0.20738381147384644,-1.6751283407211304,-0.3185654580593109
513,0.8862,1.1896,0,0,-0.565948486328125,0.5254364013671875,0.2856597900390625,-0.07812489569187164,-1.6473273038864136,-0.42000794410705566
514,0.8537,0.9892,0,0,-0.467193603515625,0.628692626953125,0.268890380859375,-0.12900325655937195,-1.184706687927246,-0.4003916084766388
515,0.8253,0.822,0,0,-0.4022064208984375,0.6968231201171875,0.22698974609375,-0.15302923321723938,-0.6044067740440369,-0.205287367105484
516,0.8036,0.695,0,0,-0.334564208984375,0.7110748291015625,0.20440673828125,-0.05384911596775055,-0.19655700027942657,-0.05819326639175415
517,0.7909,0.6114,0,0,-0.2346038818359375,0.69830322265625,0.20892333984375,0.1928083300590515,-0.08079791069030762,0.008039817214012146
518,0.7895,0.5704,0,0,-0.1802825927734375,0.687652587890625,0.229583740234375,0.39768531918525696,-0.004002731293439865,0.05140646547079086
519,0.8011,0.5676,0,0,-0.190673828125,0.665618896484375,0.324066162109375,0.4314323663711548,0.0016636766958981752,0.2708275020122528
520,0.8263,0.5955,0,0,-0.3809661865234375,0.5954742431640625,0.437103271484375,0.48965758085250854,-0.04463750869035721,0.449195921421051
521,0.8651,0.645,0,0,-0.5303802490234375,0.592529296875,0.4928741455078125,0.5931552052497864,0.2637786567211151,0.439370721578598
522,0.9165,0.7069,0,0,-0.5957489013671875,0.5951385498046875,0.5225067138671875,0.5657057166099548,0.7479868531227112,0.34161460399627686
523,0.9783,0.7724,0,0,-0.62225341796875,0.56982421875,0.5017242431640625,0.49003973603248596,0.9349964261054993,0.2921772599220276
524,1.0474,0.8348,0,0,-0.6700439453125,0.535552978515625,0.48736572265625,0.6661516427993774,0.8530302047729492,0.23696061968803406
525,1.1196,0.8898,0,0,-0.716064453125,0.581085205078125,0.4873046875,0.8258364200592041,0.5961230397224426,0.12985733151435852
526,1.1902,0.9353,0,0,-0.7488555908203125,0.63385009765625,0.508148193359375,0.8177356123924255,0.5296177864074707,0.0873120054602623
527,1.2538,0.9712,0,0,-0.793121337890625,0.665252685546875,0.580596923828125,0.5596204400062561,0.39354196190834045,0.012681440450251102
528,1.3053,0.9988,0,0,-0.8256683349609375,0.620452880859375,0.6491241455078125,0.4912453591823578,0.3402222990989685,-0.27630987763404846
529,1.34,1.02,0,0,-0.8452301025390625,0.42962646484375,0.780670166015625,0.6780538558959961,0.38457855582237244,-0.46174100041389465
530,1.3543,1.0367,0,0,-0.8804779052734375,0.41943359375,0.8294219970703125,0.653633177280426,0.3078073561191559,-0.4210177958011627
531,1.3465,1.0505,0,0,-0.96533203125,0.835205078125,0.564971923828125,0.409074604511261,0.474497526884079,-0.07582978159189224
532,1.3174,1.0626,0,0,-0.9105224609375,1.524627685546875,0.211151123046875,0.34743785858154297,0.717886209487915,0.49326643347740173
533,1.2699,1.0743,0,0,-0.8123016357421875,1.76824951171875,-0.078125,0.2517837584018707,1.296798586845398,1.079434871673584
534,1.2093,1.087,0,0,-0.72601318359375,1.4274444580078125,-0.062347412109375,0.8126532435417175,1.1832339763641357,-0.009815612807869911
535,1.1426,1.1023,0,0,-0.1681976318359375,0.8669281005859375,0.42474365234375,0.7339938282966614,-1.8899966478347778,-0.8338799476623535
536,1.0772,1.1224,0,0,0.0202484130859375,0.420623779296875,0.1016998291015625,-0.4941561818122864,-1.0011802911758423,-0.34412622451782227
537,1.0196,1.1489,0,0,-0.036773681640625,0.2489776611328125,-0.15679931640625,-0.5980572700500488,0.035661324858665466,0.09029421210289001
538,0.9748,1.1827,0,0,-0.2045440673828125,0.3854522705078125,-0.3035888671875,0.01098580565303564,-0.09046412259340286,0.2565750479698181
539,0.9453,1.2226,0,0,-0.4968109130859375,0.845489501953125,-0.2302703857421875,0.3405059278011322,-0.40673792362213135,0.3947044312953949
540,0.931,1.2657,0,0,-0.74920654296875,1.11749267578125,-0.18792724609375,0.4820270836353302,-0.12402553856372833,0.5546496510505676
541,0.9299,1.3071,0,0,-0.86859130859375,0.994720458984375,-0.18853759765625,1.1167374849319458,1.044682502746582,0.01781574822962284
542,0.9386,1.3412,0,0,-0.6707611083984375,0.7860870361328125,-0.06890869140625,1.2584255933761597,1.4775781631469727,-0.5276667475700378
543,0.953,1.3624,0,0,-0.507476806640625,0.66552734375,-0.0305328369140625,1.3430869579315186,1.281031847000122,-0.5026002526283264
544,0.9691,1.3665,0,0,-0.484283447265625,0.7348175048828125,0.0467529296875,1.5961898565292358,0.753298819065094,-0.2216823250055313
545,0.9835,1.3513,0,0,-0.415283203125,0.90264892578125,0.2621612548828125,1.3065276145935059,-0.54738450050354,0.01888926886022091
546,0.9935,1.3174,0,0,-0.395782470703125,0.8681640625,0.3388519287109375,0.32953396439552307,-0.5563556551933289,0.0797819122672081
547,0.9977,1.2672,0,0,-0.485687255859375,0.7694854736328125,0.3113861083984375,-0.10037241131067276,1.0916869640350342,0.06013444438576698
548,0.9956,1.2052,0,0,-0.7109375,0.69683837890625,0.3052520751953125,-0.4830484092235565,1.850288987159729,0.013343235477805138
549,0.9883,1.1365,0,0,-0.8296051025390625,0.6936187744140625,0.1346588134765625,-0.7580328583717346,1.1466705799102783,-0.06364288926124573
550,0.9774,1.0666,0,0,-0.8331298828125,0.6605377197265625,-0.041259765625,-0.665206253528595,0.5101343393325806,-0.06759848445653915
551,0.9653,0.9998,0,0,-0.7523651123046875,0.578521728515625,-0.1278228759765625,-0.1520553082227707,0.26001986861228943,-0.04290911927819252
552,0.955,0.9391,0,0,-0.661346435546875,0.5353240966796875,-0.099578857421875,0.28989654779434204,0.4652193486690521,-0.02816692367196083
553,0.9488,0.8854,0,0,-0.5747833251953125,0.6081390380859375,-0.0553131103515625,0.5453376173973083,0.6316767930984497,-0.022756977006793022
554,0.9491,0.8381,0,0,-0.484588623046875,0.7545318603515625,0.00775146484375,0.8059628009796143,0.5573791265487671,0.09506046772003174
555,0.9569,0.795,0,0,-0.4408721923828125,0.8145904541015625,0.0972442626953125,0.7970889210700989,0.23019538819789886,0.26387399435043335
556,0.9727,0.7536,0,0,-0.4630126953125,0.7947540283203125,0.132598876953125,0.5827563405036926,0.19412259757518768,0.3796791434288025
557,0.9958,0.7122,0,0,-0.575439453125,0.7784423828125,0.1385040283203125,0.3959478735923767,0.468180775642395,0.42916280031204224
558,1.0246,0.6704,0,0,-0.7329254150390625,0.77142333984375,0.13751220703125,0.14087562263011932,0.7533275485038757,0.3759762942790985
559,1.0569,0.6304,0,0,-0.8363800048828125,0.7629852294921875,0.12127685546875,-0.07108882069587708,0.8382049202919006,0.21817120909690857
560,1.0902,0.5968,0,0,-0.8430938720703125,0.757476806640625,0.0989990234375,-0.21905219554901123,0.861638605594635,0.06872313469648361
561,1.1218,0.5767,0,0,-0.8153533935546875,0.7355804443359375,0.057647705078125,-0.2673906981945038,0.8892508149147034,-0.07408993691205978
562,1.1493,0.5786,0,0,-0.8225555419921875,0.719696044921875,0.02490234375,-0.19255320727825165,0.7651839852333069,-0.08775834739208221
563,1.1705,0.6116,0,0,-0.855712890625,0.6800994873046875,-0.0205230712890625,-0.12992097437381744,0.6127843260765076,-0.10759276896715164
564,1.1842,0.6833,0,0,-0.890045166015625,0.6793975830078125,-0.084686279296875,-0.058455854654312134,0.4884690046310425,-0.16860872507095337
565,1.1897,0.7981,0,0,-0.9806671142578125,0.7635498046875,-0.1513519287109375,0.03190147504210472,0.34136131405830383,-0.17447619140148163
566,1.1873,0.9559,0,0,-1.0670623779296875,0.9137115478515625,-0.1969146728515625,0.11257448047399521,0.0471227690577507,-0.35968920588493347
567,1.1781,1.1513,0,0,-0.97930908203125,0.974578857421875,-0.2163238525390625,0.08421021699905396,-0.07598397880792618,-0.5935754776000977
568,1.164,1.3731,0,0,-0.75347900390625,0.92095947265625,-0.1597442626953125,0.06464290618896484,-0.46862632036209106,-0.6588578224182129
569,1.1471,1.6059,0,0,-0.5805206298828125,0.846649169921875,-0.104217529296875,-0.15581010282039642,-0.9525852799415588,-0.6057714223861694
570,1.1296,1.8311,0,0,-0.431060791015625,0.8342742919921875,0.1488189697265625,-0.9277340173721313,-2.0957257747650146,-0.5511824488639832
571,1.1131,2.0301,0,0,-0.3727569580078125,0.8285064697265625,0.219940185546875,-1.9587712287902832,-2.898509979248047,-0.4923290014266968
572,1.0984,2.186,0,0,-0.312591552734375,0.8916015625,0.125,-2.2600786685943604,-1.965290904045105,-0.4400593936443329
573,1.0855,2.286,0,0,-0.246002197265625,1.03826904296875,0.3234710693359375,-1.2192673683166504,-0.08273189514875412,-0.38587072491645813
574,1.0733,2.3226,0,0,-0.4287261962890625,0.9613037109375,0.56451416015625,-2.3387372493743896,-0.4279404282569885,-0.056722402572631836
575,1.0602,2.2941,0,0,-0.515594482421875,0.78839111328125,0.238616943359375,-2.784405469894409,-0.32507795095443726,0.2544187009334564
576,1.0442,2.2043,0,0,-0.6168212890625,0.789947509765625,0.037506103515625,-2.113807439804077,0.06344741582870483,0.48967915773391724
577,1.0236,2.0617,0,0,-0.7244110107421875,0.8622283935546875,0.002685546875,-1.660665512084961,-0.3285491168498993,0.5050402879714966
578,0.9975,1.8784,0,0,-0.7872772216796875,0.873077392578125,-0.0180816650390625,-1.221769094467163,-0.7788097858428955,0.28071901202201843
579,0.9657,1.6688,0,0,-0.725341796875,0.74700927734375,0.089630126953125,-0.7908914685249329,-1.1439241170883179,0.0550462082028389
580,0.9293,1.4483,0,0,-0.665191650390625,0.63726806640625,0.2041015625,-0.4788326323032379,-1.5630632638931274,-0.06559765338897705
581,0.8905,1.2318,0,0,-0.6253509521484375,0.597412109375,0.2810821533203125,-0.3396928608417511,-1.6210824251174927,-0.1920298933982849
582,0.8523,1.0331,0,0,-0.529754638671875,0.6050567626953125,0.2982025146484375,-0.39714789390563965,-1.1899006366729736,-0.24885030090808868
583,0.8183,0.8636,0,0,-0.4210205078125,0.593048095703125,0.2812652587890625,-0.43583428859710693,-0.6523868441581726,-0.20723068714141846
584,0.7924,0.7315,0,0,-0.3565826416015625,0.59808349609375,0.2458343505859375,-0.2490556240081787,-0.304470419883728,-0.14891918003559113
585,0.778,0.6415,0,0,-0.2885894775390625,0.6347503662109375,0.2236175537109375,-0.01125398650765419,-0.1374311000108719,-0.0005243764026090503
586,0.7777,0.5943,0,0,-0.251953125,0.6581573486328125,0.216644287109375,0.16847316920757294,0.05692879483103752,0.1594543755054474
587,0.7931,0.5868,0,0,-0.2834625244140625,0.647430419921875,0.23431396484375,0.31573453545570374,0.4421214759349823,0.2926347851753235
588,0.8243,0.6129,0,0,-0.363250732421875,0.5860748291015625,0.3297882080078125,0.46313995122909546,0.49743932485580444,0.41405123472213745
589,0.8703,0.6646,0,0,-0.4449310302734375,0.5820770263671875,0.429718017578125,0.6266570091247559,0.36720916628837585,0.46455249190330505
590,0.9287,0.7328,0,0,-0.5367584228515625,0.607666015625,0.514984130859375,0.8036272525787354,0.36395639181137085,0.48271045088768005
591,0.9959,0.8091,0,0,-0.6341552734375,0.6396636962890625,0.57647705078125,0.828323245048523,0.4157916009426117,0.38231274485588074
592,1.0678,0.886,0,0,-0.724334716796875,0.6092987060546875,0.6020965576171875,0.7754741311073303,0.6489465832710266,0.14182637631893158
593,1.1396,0.958,0,0,-0.82537841796875,0.5772552490234375,0.6201324462890625,0.775649905204773,0.8957206606864929,-0.02298840694129467
594,1.2065,1.0215,0,0,-0.932708740234375,0.6248779296875,0.5280914306640625,0.5910009741783142,0.6464560031890869,-0.14977671205997467
595,1.2638,1.0747,0,0,-0.9319610595703125,0.6259613037109375,0.3525390625,0.5500082969665527,0.4275079369544983,-0.24467766284942627
596,1.3076,1.1172,0,0,-0.8730621337890625,0.5121917724609375,0.403076171875,0.7486928701400757,0.266893208026886,-0.2864575982093811
597,1.3345,1.1497,0,0,-0.84027099609375,0.4675750732421875,0.7240753173828125,1.0839608907699585,-0.4701480567455292,-0.4723488986492157
598,1.3425,1.1735,0,0,-0.80120849609375,0.5660552978515625,0.894073486328125,0.7812662720680237,-1.1011353731155396,-0.35070157051086426
599,1.3311,1.1905,0,0,-0.775299072265625,1.0365753173828125,0.6209564208984375,0.3336173892021179,-0.21699808537960052,-0.06805148720741272
600,1.3015,1.203,0,0,-0.704345703125,1.380218505859375,0.111602783203125,0.15405747294425964,0.957807183265686,0.5908832550048828
601,1.257,1.2136,0,0,-0.7540283203125,1.5382843017578125,-0.161895751953125,-0.07085446268320084,1.487566351890564,1.155124545097351
602,1.2021,1.2255,0,0,-0.691558837890625,1.4740142822265625,-0.1041259765625,0.38178491592407227,1.4717158079147339,0.44026419520378113
603,1.1428,1.242,0,0,-0.189239501953125,0.9898223876953125,0.4151763916015625,0.5007539391517639,-1.814064621925354,-0.3568779528141022
604,1.085,1.2663,0,0,-0.033172607421875,0.508148193359375,0.0252838134765625,-0.6866710186004639,-1.2383874654769897,-0.1365855485200882
605,1.034,1.3008,0,0,-0.1257171630859375,0.3095245361328125,-0.1799774169921875,-0.9055339097976685,-0.11859136074781418,0.03196698799729347
606,0.9937,1.3459,0,0,-0.3155670166015625,0.4964141845703125,-0.3085784912109375,-0.33846592903137207,0.12029125541448593,-0.007733287289738655
607,0.966,1.4,0,0,-0.5378265380859375,0.8598175048828125,-0.321685791015625,0.3157214820384979,0.39708638191223145,0.0735197588801384
608,0.9508,1.4587,0,0,-0.7077484130859375,1.087646484375,-0.17462158203125,0.3052248954772949,1.3061749935150146,0.1707906424999237
609,0.9463,1.5157,0,0,-0.7760009765625,0.986846923828125,-0.1487274169921875,0.3713304102420807,1.7971473932266235,-0.20362822711467743
610,0.9501,1.5635,0,0,-0.6597137451171875,0.7731475830078125,-0.1423492431640625,1.3176606893539429,1.7475141286849976,-0.4362204670906067
611,0.9588,1.595,0,0,-0.550201416015625,0.754852294921875,-0.001739501953125,1.546863317489624,1.242315411567688,-0.34751614928245544
612,0.9695,1.6044,0,0,-0.4723968505859375,0.747314453125,0.020965576171875,1.38892662525177,0.5355491638183594,-0.05618524178862572
613,0.9796,1.5885,0,0,-0.44384765625,0.79986572265625,0.1272430419921875,1.8091723918914795,-0.7291713953018188,0.22417424619197845
614,0.987,1.5468,0,0,-0.4961090087890625,0.7619171142578125,0.3452911376953125,1.3044154644012451,-1.4092971086502075,0.3693937659263611
615,0.9905,1.4815,0,0,-0.6147308349609375,0.6781463623046875,0.4009857177734375,0.5055302977561951,-0.554559588432312,0.2553800940513611
616,0.9897,1.3971,0,0,-0.716796875,0.65509033203125,0.34130859375,0.1014307513833046,1.0678958892822266,0.05396496504545212
617,0.9852,1.2993,0,0,-0.780364990234375,0.675323486328125,0.234283447265625,-0.4099787473678589,1.663044810295105,-0.0739852786064148
618,0.9781,1.1944,0,0,-0.796417236328125,0.6505889892578125,0.0851287841796875,-0.6422843933105469,1.2913331985473633,-0.06979505717754364
619,0.9702,1.0883,0,0,-0.738739013671875,0.6367645263671875,-0.0106353759765625,-0.5264859199523926,0.6897104978561401,0.002799514913931489
620,0.9635,0.9857,0,0,-0.67559814453125,0.6271514892578125,-0.055938720703125,-0.15906529128551483,0.447672575712204,0.006274939980357885
621,0.9602,0.8899,0,0,-0.5801239013671875,0.6804351806640625,-0.066802978515625,0.16438788175582886,0.5749732851982117,-0.005602492019534111
622,0.962,0.8025,0,0,-0.502593994140625,0.7613677978515625,-0.055877685546875,0.34845438599586487,0.6208499670028687,0.09479415416717529
623,0.97,0.7238,0,0,-0.478912353515625,0.81573486328125,-0.024444580078125,0.5008907914161682,0.4711475372314453,0.20432864129543304
624,0.985,0.6536,0,0,-0.4765777587890625,0.8284912109375,0.0109405517578125,0.5596997737884521,0.3487206995487213,0.3205854594707489
625,1.0065,0.5917,0,0,-0.5362396240234375,0.8202056884765625,0.03851318359375,0.6116679310798645,0.3630242645740509,0.48836755752563477
626,1.0335,0.5391,0,0,-0.694976806640625,0.7707366943359375,0.081329345703125,0.5147461295127869,0.44552767276763916,0.5202248096466064
627,1.0644,0.4985,0,0,-0.83514404296875,0.7332305908203125,0.1203765869140625,0.3531884253025055,0.48454776406288147,0.3993101119995117
628,1.0971,0.4742,0,0,-0.9058990478515625,0.7178497314453125,0.1443939208984375,0.17795749008655548,0.4969322681427002,0.27242380380630493
629,1.1291,0.4724,0,0,-0.9224395751953125,0.702239990234375,0.141357421875,-0.01738298498094082,0.5975310802459717,0.11196834594011307
630,1.158,0.4995,0,0,-0.8611907958984375,0.6660614013671875,0.0969085693359375,-0.1562521904706955,0.6575621366500854,-0.0454830639064312
631,1.1815,0.562,0,0,-0.809722900390625,0.6283111572265625,0.0412139892578125,-0.17343756556510925,0.5480151772499084,-0.11185383051633835
632,1.1978,0.664,0,0,-0.8451385498046875,0.682281494140625,-0.060821533203125,-0.21222278475761414,0.45822909474372864,-0.1629263311624527
633,1.2054,0.8068,0,0,-0.9634246826171875,0.7935333251953125,-0.1683807373046875,-0.12997610867023468,0.18575042486190796,-0.21961891651153564
634,1.204,0.9871,0,0,-1.050384521484375,0.9192352294921875,-0.2431640625,0.04469583183526993,-0.2726014256477356,-0.46108052134513855
635,1.1938,1.197,0,0,-0.9769439697265625,0.9354248046875,-0.2606658935546875,0.07872118055820465,-0.5086491107940674,-0.6384502649307251
636,1.1762,1.4242,0,0,-0.871185302734375,0.9052886962890625,-0.240966796875,0.09910234808921814,-0.6884894371032715,-0.6936604976654053
637,1.1534,1.6529,0,0,-0.6732940673828125,0.89044189453125,-0.1432037353515625,-0.08380968123674393,-1.0028029680252075,-0.6421933174133301
638,1.1277,1.8657,0,0,-0.491912841796875,0.9387054443359375,0.1423797607421875,-0.7317637205123901,-2.4072821140289307,-0.512930691242218
639,1.1016,2.0456,0,0,-0.431488037109375,0.901336669921875,0.1594085693359375,-1.5756765604019165,-2.9978511333465576,-0.47109270095825195
640,1.0773,2.1781,0,0,-0.3059844970703125,0.892791748046875,0.075836181640625,-1.8713356256484985,-1.9206475019454956,-0.4826241731643677
641,1.056,2.2529,0,0,-0.166290283203125,0.905670166015625,0.170196533203125,-1.2863597869873047,-0.5683364272117615,-0.36496224999427795
642,1.0379,2.2647,0,0,-0.2738037109375,0.8270111083984375,0.3096466064453125,-1.8615695238113403,-1.0080066919326782,0.003114833263680339
643,1.0223,2.2132,0,0,-0.4777069091796875,0.7780609130859375,0.1760711669921875,-2.0100886821746826,-1.5474822521209717,0.19778577983379364
644,1.0079,2.1031,0,0,-0.601776123046875,0.8665771484375,0.05657958984375,-1.5449343919754028,-1.289841890335083,0.3106537461280823
645,0.9928,1.9435,0,0,-0.695831298828125,0.944183349609375,0.0835418701171875,-1.1669020652770996,-1.0557467937469482,0.3304831087589264
646,0.9754,1.7463,0,0,-0.70562744140625,0.903411865234375,0.1515960693359375,-0.9808382391929626,-1.2044332027435303,0.14677293598651886
647,0.9544,1.526,0,0,-0.6091461181640625,0.783447265625,0.214141845703125,-0.960639238357544,-1.4020339250564575,-0.022009162232279778
648,0.9296,1.2976,0,0,-0.533660888671875,0.697509765625,0.248138427734375,-0.8362528085708618,-1.3993384838104248,-0.06498964875936508
649,0.9014,1.0764,0,0,-0.4912261962890625,0.650299072265625,0.2592620849609375,-0.5279234647750854,-1.0053704977035522,-0.046423159539699554
650,0.8714,0.8761,0,0,-0.4802703857421875,0.6376495361328125,0.327667236328125,-0.47588157653808594,-0.6514182686805725,-0.02900528535246849
651,0.8418,0.7085,0,0,-0.47503662109375,0.60845947265625,0.332489013671875,-0.48856407403945923,-0.2994879186153412,0.004991030320525169
652,0.8153,0.5818,0,0,-0.470062255859375,0.571502685546875,0.284942626953125,-0.28490257263183594,0.09933457523584366,0.02955389767885208
653,0.7948,0.5007,0,0,-0.45709228515625,0.5583343505859375,0.2539520263671875,-0.041067276149988174,0.3442351520061493,0.06072193756699562
654,0.7832,0.4658,0,0,-0.4552154541015625,0.5650634765625,0.2442169189453125,0.11945129930973053,0.3878191113471985,0.10018545389175415
655,0.7828,0.4739,0,0,-0.4617156982421875,0.58111572265625,0.26678466796875,0.24719834327697754,0.19844917953014374,0.13835148513317108
656,0.7956,0.5185,0,0,-0.45672607421875,0.588165283203125,0.31146240234375,0.41783133149147034,-0.13452984392642975,0.21058839559555054
657,0.8224,0.5908,0,0,-0.49066162109375,0.607330322265625,0.3610687255859375,0.6454958915710449,-0.3192536234855652,0.15287743508815765
658,0.8631,0.6806,0,0,-0.501617431640625,0.6055450439453125,0.4156646728515625,0.7370588779449463,-0.34041082859039307,0.05385683849453926
659,0.9165,0.778,0,0,-0.515533447265625,0.591339111328125,0.4279937744140625,0.8057122230529785,-0.15689773857593536,0.0026735474821180105
660,0.9802,0.8737,0,0,-0.560302734375,0.581085205078125,0.46051025390625,1.0109667778015137,0.13541774451732635,0.009942645207047462
661,1.0506,0.9605,0,0,-0.623291015625,0.559967041015625,0.571685791015625,1.2563486099243164,0.2339744120836258,-0.030824758112430573
662,1.1234,1.0334,0,0,-0.6642608642578125,0.587860107421875,0.6506805419921875,1.1217128038406372,0.0561911016702652,-0.07014313340187073
663,1.1932,1.0896,0,0,-0.7242279052734375,0.62939453125,0.5755767822265625,0.8165677785873413,0.3930298388004303,-0.07623884826898575
664,1.2546,1.1289,0,0,-0.7909698486328125,0.627044677734375,0.548095703125,0.6568577885627747,0.9209056496620178,-0.127263143658638
665,1.3025,1.1525,0,0,-0.884796142578125,0.59478759765625,0.6482391357421875,0.6565080881118774,0.7175986170768738,-0.2856424152851105
666,1.3325,1.163,0,0,-0.926910400390625,0.5139312744140625,0.6648406982421875,0.9398806691169739,0.3234308063983917,-0.4182033836841583
667,1.3418,1.1637,0,0,-0.9313201904296875,0.6131439208984375,0.6669158935546875,0.9160994291305542,0.035885296761989594,-0.24578845500946045
668,1.3294,1.1581,0,0,-1.0325775146484375,1.1833648681640625,0.4364013671875,0.8010628819465637,0.4362950325012207,0.12933188676834106
669,1.297,1.1499,0,0,-0.805755615234375,1.607086181640625,0.155731201171875,0.3856033384799957,0.8064326047897339,0.6703304052352905
670,1.2481,1.1423,0,0,-0.71026611328125,1.5664215087890625,-0.063995361328125,0.33970242738723755,1.38846755027771,0.4504084587097168
671,1.1886,1.1385,0,0,-0.3511810302734375,1.235809326171875,0.1803131103515625,1.2030587196350098,0.056950367987155914,-0.5381465554237366
672,1.1251,1.1411,0,0,0.0321807861328125,0.672760009765625,0.415252685546875,0.09428735077381134,-2.0053904056549072,-0.4301851987838745
673,1.0643,1.1523,0,0,-0.0380859375,0.3295745849609375,-0.0542755126953125,-0.8227519392967224,-0.7210660576820374,-0.03905126079916954
674,1.0119,1.173,0,0,-0.162872314453125,0.308837890625,-0.2487945556640625,-0.7022790312767029,-0.2326177954673767,0.0288793183863163
675,0.9717,1.2023,0,0,-0.4208831787109375,0.6798858642578125,-0.302520751953125,-0.03291560709476471,-0.14923742413520813,0.14144927263259888
676,0.9452,1.2377,0,0,-0.67828369140625,1.068756103515625,-0.24359130859375,0.38511013984680176,0.19910217821598053,0.45375630259513855
677,0.9321,1.2749,0,0,-0.87225341796875,1.067108154296875,-0.2006072998046875,0.6317744851112366,0.9243863821029663,0.1346275806427002
678,0.9306,1.3084,0,0,-0.6946258544921875,0.807464599609375,-0.1443634033203125,0.9989061951637268,1.5231372117996216,-0.47243544459342957
679,0.9377,1.3327,0,0,-0.5214691162109375,0.6651763916015625,-0.06402587890625,1.366793155670166,1.3994877338409424,-0.5737099051475525
680,0.9501,1.3434,0,0,-0.4608001708984375,0.699737548828125,0.00897216796875,1.4760855436325073,0.7585780024528503,-0.3236968517303467
681,0.9647,1.338,0,0,-0.468048095703125,0.8366241455078125,0.0361175537109375,1.5694260597229004,0.09465726464986801,-0.12647750973701477
682,0.9786,1.3161,0,0,-0.3891448974609375,0.9085845947265625,0.2086334228515625,1.4841629266738892,-0.4980529248714447,0.10210852324962616
683,0.9897,1.2796,0,0,-0.431365966796875,0.8311614990234375,0.3554229736328125,0.6940733194351196,-0.47177553176879883,0.22270524501800537
684,0.9965,1.2318,0,0,-0.5926361083984375,0.7070465087890625,0.3733367919921875,0.062311843037605286,0.5815643072128296,0.18406358361244202
685,0.9987,1.1768,0,0,-0.7772216796875,0.66278076171875,0.2913665771484375,-0.3469025492668152,1.3227628469467163,0.02147599682211876
686,0.9966,1.1183,0,0,-0.8375701904296875,0.665130615234375,0.083251953125,-0.6454961895942688,1.1804847717285156,-0.0960540920495987
687,0.9914,1.0595,0,0,-0.7718353271484375,0.65185546875,-0.0510101318359375,-0.6021630764007568,0.7534844279289246,-0.09285510331392288
688,0.9846,1.0023,0,0,-0.7048797607421875,0.589752197265625,-0.100250244140625,-0.16755570471286774,0.4529392421245575,-0.03254249691963196
689,0.9781,0.9473,0,0,-0.630828857421875,0.6388702392578125,-0.1187591552734375,0.3249586522579193,0.4650198817253113,0.004315386060625315
690,0.9738,0.8944,0,0,-0.5452728271484375,0.7382965087890625,-0.088714599609375,0.5927174091339111,0.5995803475379944,0.017482588067650795
691,0.9732,0.843,0,0,-0.44525146484375,0.8168792724609375,-0.0232086181640625,0.8890901803970337,0.7409989833831787,0.17936496436595917
692,0.9776,0.793,0,0,-0.433502197265625,0.8365020751953125,0.0815582275390625,1.0148353576660156,0.41787126660346985,0.37972602248191833
693,0.9875,0.7458,0,0,-0.5052642822265625,0.818511962890625,0.1464691162109375,0.7913934588432312,0.14256806671619415,0.5622338056564331
694,1.0031,0.7043,0,0,-0.67938232421875,0.7407684326171875,0.163543701171875,0.4184925854206085,0.34833693504333496,0.5889527201652527
695,1.0241,0.6737,0,0,-0.8610076904296875,0.6937103271484375,0.1707916259765625,0.14691966772079468,0.6083858013153076,0.4543307423591614
696,1.0497,0.6607,0,0,-0.9418182373046875,0.68963623046875,0.1557159423828125,-0.14141279458999634,0.6960113048553467,0.2081710398197174
697,1.079,0.6728,0,0,-0.8921356201171875,0.7206268310546875,0.1156463623046875,-0.32586199045181274,0.6791723966598511,-0.008078699000179768
698,1.1106,0.7172,0,0,-0.7699737548828125,0.74322509765625,0.0880279541015625,-0.38894349336624146,0.6658816337585449,-0.14421921968460083
699,1.143,0.7996,0,0,-0.6719512939453125,0.7142486572265625,0.0505218505859375,-0.3749360740184784,0.6267640590667725,-0.2565966248512268
700,1.1743,0.9226,0,0,-0.716278076171875,0.67584228515625,-0.0260772705078125,-0.4223584234714508,0.6866422891616821,-0.2960180640220642
701,1.2024,1.0849,0,0,-0.9062347412109375,0.7288970947265625,-0.13275146484375,-0.4832596182823181,0.4816095232963562,-0.3497138023376465
702,1.225,1.2802,0,0,-1.0017547607421875,0.8384857177734375,-0.226654052734375,-0.44534656405448914,-0.12113361805677414,-0.5329842567443848
703,1.2401,1.4975,0,0,-0.935638427734375,0.91912841796875,-0.2939453125,-0.30269888043403625,-0.5471051335334778,-0.722515881061554
704,1.2459,1.7219,0,0,-0.80133056640625,0.942138671875,-0.277496337890625,-0.3176487982273102,-0.5619163513183594,-0.8729130625724792
705,1.2413,1.9357,0,0,-0.6284027099609375,0.9725189208984375,-0.04443359375,-0.9109038710594177,-1.0725455284118652,-0.9110447764396667
706,1.2261,2.1211,0,0,-0.5317535400390625,1.0876312255859375,0.2196044921875,-2.159031629562378,-2.4190001487731934,-0.707271933555603
707,1.2007,2.2621,0,0,-0.4723052978515625,1.217926025390625,0.263092041015625,-3.2910430431365967,-2.761690616607666,-0.47003594040870667
708,1.1667,2.3466,0,0,-0.2922210693359375,1.36822509765625,0.0702056884765625,-1.7515809535980225,-0.5333685874938965,-0.46886521577835083
709,1.1261,2.3679,0,0,-0.2578582763671875,1.124664306640625,0.5764617919921875,-1.4873805046081543,0.6086825132369995,-0.09859129041433334
710,1.0813,2.3248,0,0,-0.4030914306640625,0.6558380126953125,0.43084716796875,-2.4076104164123535,-0.3937954902648926,0.12053200602531433
711,1.0349,2.2217,0,0,-0.36138916015625,0.4929656982421875,0.0289154052734375,-2.252127170562744,-0.6143185496330261,0.47345730662345886
712,0.9891,2.0674,0,0,-0.5247955322265625,0.631561279296875,-0.1040496826171875,-1.5537019968032837,-0.5899447798728943,0.5388051271438599
713,0.9457,1.8742,0,0,-0.69305419921875,0.72052001953125,-0.04510498046875,-0.9273355603218079,-0.9733198285102844,0.3554856777191162
714,0.9059,1.6565,0,0,-0.708709716796875,0.703033447265625,0.10650634765625,-0.590408980846405,-1.5847158432006836,0.13513357937335968
715,0.8705,1.4297,0,0,-0.6425628662109375,0.6688690185546875,0.1929779052734375,-0.46402546763420105,-1.8606382608413696,0.07612752169370651
716,0.8402,1.2089,0,0,-0.6210479736328125,0.65869140625,0.2754974365234375,-0.47322002053260803,-1.5725483894348145,-0.08592076599597931
717,0.8157,1.008,0,0,-0.5605010986328125,0.6395721435546875,0.333404541015625,-0.31990930438041687,-0.9636515378952026,-0.19140245020389557
718,0.7979,0.8383,0,0,-0.446258544921875,0.6130828857421875,0.3444976806640625,-0.09951407462358475,-0.42673107981681824,-0.18028081953525543
719,0.788,0.7079,0,0,-0.3662872314453125,0.6121978759765625,0.2829132080078125,-0.04580983147025108,-0.032217856496572495,-0.06256511062383652
720,0.7873,0.621,0,0,-0.353363037109375,0.63507080078125,0.2373809814453125,0.05994908884167671,0.30184614658355713,0.014209561981260777
721,0.7968,0.5774,0,0,-0.3177947998046875,0.6655731201171875,0.231597900390625,0.2722962498664856,0.48620638251304626,0.03202371299266815
722,0.8177,0.5734,0,0,-0.291534423828125,0.6052093505859375,0.2865753173828125,0.5209089517593384,0.5768764019012451,0.20658326148986816
723,0.8501,0.6024,0,0,-0.42633056640625,0.55078125,0.4307708740234375,0.5602436065673828,0.3676949143409729,0.39378219842910767
724,0.8939,0.656,0,0,-0.5495452880859375,0.5551910400390625,0.50628662109375,0.55857914686203,0.23576192557811737,0.39005136489868164
725,0.9478,0.7249,0,0,-0.6390838623046875,0.57696533203125,0.5032196044921875,0.6510368585586548,0.3800003230571747,0.2925245463848114
726,1.0097,0.8008,0,0,-0.69580078125,0.585693359375,0.485809326171875,0.7475293278694153,0.4910371005535126,0.13262835144996643
727,1.0769,0.8762,0,0,-0.7192535400390625,0.5667724609375,0.4959564208984375,0.9373048543930054,0.6125621795654297,0.05452795699238777
728,1.1455,0.9458,0,0,-0.767730712890625,0.568572998046875,0.5799560546875,1.067870855331421,0.5057641267776489,-0.00440966198220849
729,1.2112,1.0063,0,0,-0.844940185546875,0.6214141845703125,0.5564117431640625,0.8382443189620972,0.24239479005336761,-0.12428626418113708
730,1.2695,1.056,0,0,-0.865692138671875,0.64404296875,0.432220458984375,0.7152521014213562,0.4197903573513031,-0.25182637572288513
731,1.3156,1.0952,0,0,-0.8082733154296875,0.5743255615234375,0.546417236328125,0.8144875764846802,0.2710176408290863,-0.40723487734794617
732,1.3458,1.1247,0,0,-0.7904052734375,0.5006103515625,0.768218994140625,1.0884480476379395,-0.36273133754730225,-0.5145685076713562
733,1.3569,1.1464,0,0,-0.8778076171875,0.53118896484375,0.915283203125,0.6492682695388794,-0.70854252576828,-0.3426321744918823
734,1.3479,1.1621,0,0,-0.9541473388671875,1.042205810546875,0.5741424560546875,0.2694069743156433,0.17138026654720306,-0.056825198233127594
735,1.3194,1.174,0,0,-0.781982421875,1.580352783203125,-0.010528564453125,0.3849298357963562,1.0487602949142456,0.5753362774848938
736,1.2745,1.1844,0,0,-0.750732421875,1.70050048828125,-0.16192626953125,0.22065646946430206,1.5220378637313843,1.0968012809753418
737,1.218,1.1958,0,0,-0.598876953125,1.3953399658203125,0.00323486328125,0.7957757115364075,0.044793568551540375,0.05577271804213524
738,1.1561,1.2111,0,0,-0.114837646484375,0.7942962646484375,0.344146728515625,0.09391264617443085,-2.7950925827026367,-0.51845383644104
739,1.0953,1.2331,0,0,-0.0090179443359375,0.3974761962890625,-0.0906524658203125,-0.9140897989273071,-1.0889301300048828,-0.18296022713184357
740,1.041,1.2641,0,0,-0.0313262939453125,0.2335662841796875,-0.276611328125,-0.6244782209396362,-0.31156107783317566,0.05414659157395363
741,0.9974,1.3052,0,0,-0.3596343994140625,0.50762939453125,-0.3234710693359375,0.1282394677400589,-0.39432281255722046,-0.05074626952409744
742,0.9662,1.3552,0,0,-0.594451904296875,0.9416046142578125,-0.2729339599609375,0.5635440349578857,-0.15551741421222687,-0.005227252375334501
743,0.9476,1.4107,0,0,-0.80914306640625,1.188873291015625,-0.170745849609375,0.4693232774734497,0.5407881736755371,0.15988953411579132
744,0.9399,1.466,0,0,-0.8531646728515625,1.0005340576171875,-0.1681976318359375,0.5774135589599609,1.3125860691070557,-0.4554133117198944
745,0.9408,1.5143,0,0,-0.652679443359375,0.7409515380859375,-0.1304779052734375,1.5397419929504395,1.8225969076156616,-0.8041800856590271
746,0.9476,1.549,0,0,-0.4986572265625,0.7093048095703125,0.01019287109375,1.6306252479553223,1.6484956741333008,-0.6641702651977539
747,0.9576,1.5646,0,0,-0.369964599609375,0.7295379638671875,0.0379791259765625,1.450842261314392,1.128609538078308,-0.3288079798221588
748,0.9684,1.5581,0,0,-0.2797088623046875,0.8297271728515625,0.174468994140625,1.6807688474655151,-0.19884225726127625,0.12884347140789032
749,0.9782,1.5287,0,0,-0.366180419921875,0.7863616943359375,0.3345184326171875,0.9965152144432068,-0.9144903421401978,0.4231850802898407
750,0.9856,1.4779,0,0,-0.5665435791015625,0.69256591796875,0.343353271484375,0.44540464878082275,-0.1842697113752365,0.34732601046562195
751,0.9897,1.4086,0,0,-0.73406982421875,0.6712188720703125,0.329559326171875,0.11439581960439682,1.261449933052063,0.17483972012996674
752,0.9905,1.3245,0,0,-0.844268798828125,0.6958465576171875,0.2091217041015625,-0.41181817650794983,1.6193220615386963,-0.09770418703556061
753,0.9882,1.2296,0,0,-0.8265228271484375,0.6492462158203125,0.06597900390625,-0.606402575969696,1.1598284244537354,-0.140616774559021
754,0.9841,1.1276,0,0,-0.7641143798828125,0.608551025390625,-0.015411376953125,-0.38413622975349426,0.7106575965881348,-0.07918243855237961
755,0.9794,1.0216,0,0,-0.667510986328125,0.6641845703125,-0.0400848388671875,-0.07369525730609894,0.7973400354385376,-0.1208590418100357
756,0.9756,0.9145,0,0,-0.567352294921875,0.73486328125,-0.0254669189453125,0.1755979210138321,0.970211386680603,-0.08629254251718521
757,0.9744,0.8089,0,0,-0.5101165771484375,0.756866455078125,0.0092620849609375,0.34650948643684387,0.6577703952789307,0.1098274290561676
758,0.9769,0.7076,0,0,-0.5670318603515625,0.726531982421875,0.026123046875,0.3583917021751404,0.41821402311325073,0.2434544712305069
759,0.9841,0.6142,0,0,-0.64288330078125,0.70501708984375,0.0255889892578125,0.39170384407043457,0.5372940897941589,0.3391226828098297
760,0.9963,0.5333,0,0,-0.7583160400390625,0.7142486572265625,0.03253173828125,0.4153234362602234,0.6981351375579834,0.3582193851470947
761,1.0134,0.4708,0,0,-0.8329925537109375,0.6903839111328125,0.050018310546875,0.29441165924072266,0.6660597920417786,0.311195969581604
762,1.0348,0.4334,0,0,-0.84912109375,0.63201904296875,0.0445404052734375,0.225010484457016,0.4565776586532593,0.24466806650161743
763,1.0597,0.4285,0,0,-0.83502197265625,0.6370086669921875,0.028900146484375,0.22684992849826813,0.46243423223495483,0.2089684009552002
764,1.0869,0.4631,0,0,-0.8191680908203125,0.6922149658203125,0.012908935546875,0.27759698033332825,0.4248623549938202,0.15098844468593597
765,1.1148,0.5424,0,0,-0.7771453857421875,0.722564697265625,0.0050201416015625,0.3473944365978241,0.3629893958568573,0.06483545154333115
766,1.142,0.6684,0,0,-0.7403411865234375,0.7313995361328125,0.030181884765625,0.40136420726776123,0.27973097562789917,0.0760984942317009
767,1.167,0.8393,0,0,-0.8573760986328125,0.7623291015625,0.0715179443359375,0.13270798325538635,0.08364429324865341,0.04619305953383446
768,1.1881,1.0485,0,0,-1.093048095703125,0.840240478515625,0.0355377197265625,-0.2917490303516388,-0.31973645091056824,-0.19675619900226593
769,1.2042,1.2846,0,0,-1.1025848388671875,0.854522705078125,-0.073699951171875,-0.6789031624794006,-0.6331101059913635,-0.6634658575057983
770,1.2142,1.5324,0,0,-0.901611328125,0.77447509765625,-0.2069244384765625,-0.7625730037689209,-0.9940555095672607,-0.8623773455619812
771,1.2174,1.7742,0,0,-0.75225830078125,0.7394561767578125,-0.23516845703125,-0.6446051001548767,-1.3824336528778076,-0.8037465214729309
772,1.2132,1.9918,0,0,-0.63568115234375,0.81256103515625,-0.0640106201171875,-0.8166801929473877,-1.8994476795196533,-0.7519581913948059
773,1.2012,2.1687,0,0,-0.5841064453125,0.90570068359375,0.0930023193359375,-1.485292911529541,-2.3522489070892334,-0.540795624256134
774,1.1811,2.2918,0,0,-0.55853271484375,1.0070343017578125,0.1907196044921875,-2.3355255126953125,-2.315016746520996,-0.3175848722457886
775,1.153,2.3531,0,0,-0.4856719970703125,1.1718292236328125,0.190643310546875,-2.375124216079712,-1.3677645921707153,-0.24729235470294952
776,1.1173,2.3498,0,0,-0.3970184326171875,1.272369384765625,0.358245849609375,-1.3169459104537964,-0.18019746243953705,-0.18737122416496277
777,1.0747,2.2844,0,0,-0.4312744140625,1.0121917724609375,0.3711395263671875,-1.879662275314331,-0.6469447016716003,0.03773965686559677
778,1.0266,2.1639,0,0,-0.4100494384765625,0.7286834716796875,0.0894622802734375,-1.8784809112548828,-0.9697027802467346,0.10194048285484314
779,0.9749,1.9988,0,0,-0.422271728515625,0.69158935546875,-0.026123046875,-1.3424861431121826,-1.1171693801879883,0.28956496715545654
780,0.9219,1.8022,0,0,-0.51214599609375,0.722412109375,0.046844482421875,-0.9016762971878052,-1.4418777227401733,0.3381351828575134
781,0.8703,1.5887,0,0,-0.5819549560546875,0.6812896728515625,0.163970947265625,-0.6212171912193298,-1.8442046642303467,0.25158774852752686
782,0.8228,1.3731,0,0,-0.5853729248046875,0.6202850341796875,0.22857666015625,-0.24523691833019257,-1.871898889541626,0.21587078273296356
783,0.7825,1.1697,0,0,-0.6092071533203125,0.5814056396484375,0.308624267578125,-0.07247047126293182,-1.4515713453292847,0.07871665060520172
784,0.7525,0.9912,0,0,-0.55596923828125,0.5296630859375,0.3424224853515625,-0.19033771753311157,-0.8006402254104614,-0.05366935208439827
785,0.7355,0.8472,0,0,-0.495574951171875,0.48089599609375,0.2198333740234375,-0.10524093359708786,-0.17547781765460968,-0.11351671069860458
786,0.7339,0.7436,0,0,-0.435455322265625,0.51910400390625,0.1422576904296875,0.09928983449935913,0.09891033172607422,-0.1402101069688797
787,0.7495,0.6823,0,0,-0.38165283203125,0.60736083984375,0.085845947265625,0.3530302345752716,0.1691053956747055,-0.1277502328157425
788,0.7828,0.6607,0,0,-0.3268585205078125,0.653228759765625,0.119476318359375,0.559343159198761,0.2898336946964264,-0.07687640190124512
789,0.833,0.6727,0,0,-0.3376617431640625,0.659271240234375,0.1941375732421875,0.6753432750701904,0.428316205739975,-0.008320780470967293
790,0.8982,0.71,0,0,-0.373779296875,0.6616058349609375,0.3054351806640625,0.8006716370582581,0.3042922616004944,0.11514123529195786
791,0.9749,0.7632,0,0,-0.4419708251953125,0.6587066650390625,0.448760986328125,1.0098257064819336,0.17871995270252228,0.233358696103096
792,1.0585,0.8233,0,0,-0.5506134033203125,0.6869659423828125,0.57537841796875,1.1308892965316772,0.2749125361442566,0.2724464237689972
793,1.1434,0.8831,0,0,-0.6822662353515625,0.711334228515625,0.69610595703125,1.1185611486434937,0.5125988721847534,0.2557428181171417
794,1.2238,0.9375,0,0,-0.8448638916015625,0.6981353759765625,0.809600830078125,0.8581972718238831,0.46470722556114197,0.0914984941482544
795,1.2938,0.9838,0,0,-0.94671630859375,0.6865692138671875,0.7310333251953125,0.34882083535194397,0.524071455001831,-0.08194360136985779
796,1.3481,1.0215,0,0,-0.8939666748046875,0.623016357421875,0.4683074951171875,0.0878925696015358,0.956225574016571,-0.23474885523319244
797,1.3827,1.0518,0,0,-0.86962890625,0.4811859130859375,0.435791015625,0.43878722190856934,1.1384528875350952,-0.390884131193161
798,1.3947,1.0764,0,0,-0.978851318359375,0.449554443359375,0.731719970703125,0.7739428281784058,0.25616520643234253,-0.40141561627388
799,1.3834,1.0976,0,0,-1.0773468017578125,0.7546234130859375,0.77667236328125,0.4442030191421509,-0.4045424163341522,-0.16900792717933655
800,1.3501,1.1171,0,0,-0.93719482421875,1.3413543701171875,0.4381561279296875,0.19740575551986694,0.14302000403404236,0.2049049437046051
801,1.2984,1.1359,0,0,-0.6853179931640625,1.5605926513671875,-0.1249237060546875,0.12917715311050415,1.1812591552734375,1.0264073610305786
802,1.2338,1.1546,0,0,-0.7507171630859375,1.4322052001953125,-0.1754913330078125,0.10838772356510162,1.563614845275879,0.522045373916626
803,1.163,1.1734,0,0,-0.405792236328125,1.08966064453125,-0.04644775390625,1.026326060295105,0.212402805685997,-0.802611768245697
804,1.0934,1.1924,0,0,0.0889739990234375,0.7010650634765625,0.2061614990234375,0.5172812342643738,-1.9549338817596436,-0.5771868824958801
805,1.0314,1.2114,0,0,0.0729827880859375,0.400482177734375,-0.1192169189453125,-0.36544081568717957,-0.8362640142440796,0.19496150314807892
806,0.982,1.2303,0,0,-0.13934326171875,0.3567047119140625,-0.23394775390625,-0.28192490339279175,-0.6688907146453857,0.285160094499588
807,0.9478,1.2483,0,0,-0.368255615234375,0.65423583984375,-0.256561279296875,0.023017434403300285,-0.542516827583313,-0.035046935081481934
808,0.929,1.2641,0,0,-0.48077392578125,1.0321197509765625,-0.1790618896484375,-0.029268406331539154,0.3096899390220642,0.24827159941196442
809,0.9238,1.2759,0,0,-0.6658782958984375,1.149169921875,-0.211883544921875,0.36331483721733093,1.6267237663269043,0.36031797528266907
810,0.9288,1.2817,0,0,-0.7087860107421875,0.9669189453125,-0.1076202392578125,1.0708421468734741,2.0274736881256104,-0.17715373635292053
811,0.9405,1.2799,0,0,-0.5397796630859375,0.8436279296875,-0.0039215087890625,0.8719133138656616,1.5127564668655396,-0.339594304561615
812,0.955,1.2699,0,0,-0.472412109375,0.7566375732421875,-0.015106201171875,0.908570408821106,0.8399703502655029,-0.13466674089431763
813,0.9691,1.2516,0,0,-0.48040771484375,0.78289794921875,0.0519561767578125,1.234647274017334,0.35621216893196106,0.13037638366222382
814,0.9804,1.2261,0,0,-0.519439697265625,0.7697601318359375,0.182403564453125,0.8774817585945129,0.14529220759868622,0.2360636591911316
815,0.9877,1.1944,0,0,-0.573760986328125,0.7142791748046875,0.30682373046875,0.6144378781318665,-0.07365398108959198,0.26432564854621887
816,0.9904,1.1575,0,0,-0.6728668212890625,0.661041259765625,0.3255767822265625,0.18246088922023773,0.5976349115371704,0.16243471205234528
817,0.9888,1.1157,0,0,-0.76611328125,0.629241943359375,0.276458740234375,-0.2523169219493866,1.3501230478286743,-0.013610883615911007
818,0.984,1.0688,0,0,-0.774688720703125,0.6427154541015625,0.170196533203125,-0.5189483761787415,1.4186246395111084,-0.03374624624848366
819,0.9775,1.0166,0,0,-0.745025634765625,0.6410369873046875,0.068756103515625,-0.49077290296554565,1.0469194650650024,-0.024765800684690475
820,0.9707,0.9585,0,0,-0.6853485107421875,0.623077392578125,0.008026123046875,-0.1505943089723587,0.8753397464752197,0.02015426941215992
821,0.9653,0.8946,0,0,-0.6240692138671875,0.6265716552734375,-0.0044097900390625,0.18397116661071777,0.786406934261322,0.0737871378660202
822,0.9626,0.8255,0,0,-0.63531494140625,0.64447021484375,0.01593017578125,0.40109017491340637,0.5040218830108643,0.10920531302690506
823,0.9635,0.7528,0,0,-0.649444580078125,0.6788482666015625,0.0356903076171875,0.5726984143257141,0.2756768465042114,0.16392208635807037
824,0.9686,0.6791,0,0,-0.6399078369140625,0.7248077392578125,0.0627593994140625,0.6467729210853577,0.35337910056114197,0.20969784259796143
825,0.9777,0.6084,0,0,-0.62542724609375,0.749969482421875,0.087921142578125,0.5521315932273865,0.5078786611557007,0.2351054549217224
826,0.9908,0.5457,0,0,-0.6708831787109375,0.7307281494140625,0.0931854248046875,0.351093053817749,0.5474873185157776,0.3307611346244812
827,1.0073,0.4972,0,0,-0.7815399169921875,0.7218170166015625,0.082366943359375,0.19511117041110992,0.3707173466682434,0.41612663865089417
828,1.0268,0.4696,0,0,-0.8446807861328125,0.7549285888671875,0.057373046875,0.10335355252027512,0.2796183228492737,0.3251818120479584
829,1.0487,0.4698,0,0,-0.8228759765625,0.802215576171875,0.036376953125,0.09360451996326447,0.444269061088562,0.08548986911773682
830,1.0725,0.5038,0,0,-0.738555908203125,0.815673828125,0.0369873046875,0.12014824897050858,0.5993294715881348,-0.11661263555288315
831,1.0975,0.576,0,0,-0.6462554931640625,0.758880615234375,0.0598602294921875,0.14828801155090332,0.5509092211723328,-0.18811318278312683
832,1.123,0.6882,0,0,-0.5892181396484375,0.71160888671875,0.0937957763671875,0.13066719472408295,0.5652817487716675,-0.07365690916776657
833,1.148,0.8393,0,0,-0.7057037353515625,0.6985321044921875,0.084716796875,-0.18124915659427643,0.5765054225921631,-0.009562079794704914
834,1.171,1.0243,0,0,-0.9584503173828125,0.786102294921875,-0.00201416015625,-0.5793818831443787,0.2797996997833252,-0.1502036154270172
835,1.1906,1.2348,0,0,-1.061065673828125,0.8671875,-0.1437530517578125,-0.8645510077476501,-0.08224240690469742,-0.5686458945274353
836,1.2051,1.4592,0,0,-0.987701416015625,0.8528289794921875,-0.2423248291015625,-0.8619416952133179,-0.48416534066200256,-0.9227416515350342
837,1.2129,1.6838,0,0,-0.8142852783203125,0.7929840087890625,-0.2487640380859375,-0.7853249311447144,-0.9893661737442017,-1.003968596458435
838,1.2128,1.8943,0,0,-0.6537017822265625,0.7813262939453125,-0.167510986328125,-0.8985611796379089,-1.3392003774642944,-1.02720308303833
839,1.2037,2.0769,0,0,-0.5695953369140625,0.88665771484375,-0.0301055908203125,-1.4064795970916748,-1.6075892448425293,-0.7935620546340942
840,1.1852,2.2201,0,0,-0.5638275146484375,1.055877685546875,0.1504974365234375,-2.301720142364502,-1.8744595050811768,-0.3806717097759247
841,1.1574,2.3156,0,0,-0.546478271484375,1.2663726806640625,0.2878570556640625,-3.0233302116394043,-2.291506767272949,-0.09239144623279572
842,1.1211,2.3589,0,0,-0.4701385498046875,1.3065643310546875,0.12384033203125,-0.9282887578010559,-0.7046465873718262,-0.19880737364292145
843,1.0779,2.3493,0,0,-0.4769134521484375,0.9253692626953125,0.44512939453125,-1.3275612592697144,-0.5493030548095703,-0.1035895124077797
844,1.0299,2.2894,0,0,-0.4113006591796875,0.5947265625,0.183258056640625,-2.077512741088867,-1.3732304573059082,0.08665073662996292
845,0.9794,2.1845,0,0,-0.4466400146484375,0.636077880859375,-0.0972442626953125,-1.633095383644104,-1.4657865762710571,0.27456897497177124
846,0.9291,2.0421,0,0,-0.56341552734375,0.6597442626953125,-0.059722900390625,-0.720809817314148,-1.2835794687271118,0.25184130668640137
847,0.8815,1.871,0,0,-0.5999298095703125,0.656768798828125,0.126312255859375,-0.2093183398246765,-1.8590773344039917,0.11133770644664764
848,0.839,1.6817,0,0,-0.560394287109375,0.663970947265625,0.219573974609375,-0.02508697658777237,-2.3881375789642334,0.11404640972614288
849,0.8038,1.4853,0,0,-0.579986572265625,0.6436767578125,0.2811279296875,0.05793733522295952,-2.2575511932373047,0.015740880742669106
850,0.7777,1.2931,0,0,-0.595458984375,0.577423095703125,0.292205810546875,0.15269659459590912,-1.4628599882125854,-0.20804348587989807
851,0.7626,1.116,0,0,-0.5069427490234375,0.5352325439453125,0.2784271240234375,0.08388744294643402,-0.5817331671714783,-0.3276521563529968
852,0.76,0.9635,0,0,-0.4239959716796875,0.557586669921875,0.165130615234375,0.13269838690757751,0.06268282234668732,-0.24322383105754852
853,0.7708,0.8423,0,0,-0.3482208251953125,0.6389617919921875,0.1356048583984375,0.33384668827056885,0.37062254548072815,-0.2407015562057495
854,0.7956,0.7564,0,0,-0.230560302734375,0.6727142333984375,0.2072296142578125,0.4966619610786438,0.321024626493454,-0.13317376375198364
855,0.834,0.7061,0,0,-0.2410125732421875,0.709014892578125,0.3018341064453125,0.6588727235794067,0.0723293274641037,-0.039448872208595276
856,0.8849,0.689,0,0,-0.2860565185546875,0.6968994140625,0.43646240234375,0.7678106427192688,-0.1165444552898407,0.20399174094200134
857,0.9463,0.7001,0,0,-0.4376220703125,0.688201904296875,0.5107421875,0.707352876663208,0.02948359027504921,0.30189087986946106
858,1.0153,0.7334,0,0,-0.5568695068359375,0.6779937744140625,0.5491943359375,0.7136073112487793,0.47450312972068787,0.24591070413589478
859,1.0882,0.7826,0,0,-0.6547393798828125,0.6764373779296875,0.5753631591796875,0.6170163154602051,0.6295265555381775,0.12352965772151947
860,1.161,0.8418,0,0,-0.7248687744140625,0.61572265625,0.6157684326171875,0.896079957485199,0.7438312768936157,0.14454439282417297
861,1.2291,0.9068,0,0,-0.80560302734375,0.6043853759765625,0.7222137451171875,0.9964858889579773,0.4245249330997467,0.14760276675224304
862,1.2879,0.9747,0,0,-0.90240478515625,0.6548614501953125,0.6064300537109375,0.7140573859214783,0.4576575756072998,-0.005588643718510866
863,1.3331,1.0442,0,0,-0.8806915283203125,0.6134490966796875,0.435272216796875,0.5752915143966675,1.150498867034912,-0.23446150124073029
864,1.3612,1.1148,0,0,-0.9038543701171875,0.4407958984375,0.618316650390625,0.6652456521987915,0.8802809715270996,-0.4635266363620758
865,1.3699,1.1867,0,0,-0.98175048828125,0.4448394775390625,0.755767822265625,0.6563704013824463,-0.0013339773286134005,-0.38038355112075806
866,1.3584,1.2597,0,0,-1.102264404296875,0.8961029052734375,0.594573974609375,0.46798983216285706,0.19348424673080444,-0.2250261902809143
867,1.3276,1.3328,0,0,-0.836578369140625,1.4550628662109375,0.1638031005859375,0.2693510353565216,0.7081505060195923,0.33693888783454895
868,1.2807,1.4045,0,0,-0.65789794921875,1.592926025390625,-0.17529296875,0.4246644675731659,1.5820395946502686,1.0717804431915283
869,1.2225,1.4724,0,0,-0.6263580322265625,1.449188232421875,-0.1088409423828125,0.7545126676559448,1.241571068763733,0.4475005567073822
870,1.1591,1.5337,0,0,-0.1229248046875,0.9491729736328125,0.487152099609375,0.45643171668052673,-2.739198684692383,-0.3706824481487274
871,1.0967,1.5857,0,0,0.0244598388671875,0.515960693359375,-0.02020263671875,-0.906920313835144,-1.5794920921325684,-0.08695966750383377
872,1.041,1.626,0,0,-0.0508880615234375,0.295562744140625,-0.2633819580078125,-1.0511054992675781,-0.4153093099594116,0.1369067132472992
873,0.996,1.6523,0,0,-0.2816314697265625,0.4549102783203125,-0.330963134765625,-0.4533560276031494,-0.08995998650789261,-0.06850502640008926
874,0.9637,1.6621,0,0,-0.423858642578125,0.8966217041015625,-0.3036346435546875,-0.028715001419186592,0.8269144296646118,-0.15924851596355438
875,0.9444,1.6536,0,0,-0.5862884521484375,1.2187652587890625,-0.20843505859375,-0.051652275025844574,2.030235767364502,0.04412192106246948
876,0.9365,1.6254,0,0,-0.68902587890625,1.036224365234375,-0.2168731689453125,0.8171800374984741,2.476438283920288,-0.10482894629240036
877,0.9373,1.5776,0,0,-0.602142333984375,0.84246826171875,-0.0635986328125,1.3070285320281982,1.8464773893356323,-0.3424769341945648
878,0.9441,1.5117,0,0,-0.5045166015625,0.733917236328125,0.0054779052734375,1.1711556911468506,0.7485514879226685,-0.19097395241260529
879,0.9538,1.4311,0,0,-0.5028076171875,0.7032928466796875,0.013275146484375,1.3596707582473755,-0.2984495460987091,0.1921665072441101
