id,ASVM,GSVM,walking_nonwalking,normal_abnormal,ax,ay,az,gx,gy,gz
1,1.1991,3.3213,0,0,-0.4380645751953125,1.2041015625,0.336669921875,-3.125187635421753,-2.225820541381836,-0.259942889213562
2,1.1249,2.9825,0,0,-0.31890869140625,1.1998748779296875,0.0215911865234375,-2.58245587348938,-2.047104597091675,-0.33229005336761475
3,1.0634,2.6903,0,0,-0.19561767578125,0.9022064208984375,0.178955078125,-1.074366807937622,-0.44891974329948425,-0.2794846296310425
4,1.012,2.4337,0,0,-0.36920166015625,0.5808868408203125,0.1287841796875,-1.2975112199783325,-1.320120930671692,0.10505478084087372
5,0.9682,2.2031,0,0,-0.5059661865234375,0.5850677490234375,0.012969970703125,-1.2040785551071167,-2.038594961166382,0.16232818365097046
6,0.9294,1.9911,0,0,-0.6142578125,0.70257568359375,0.0412139892578125,-0.8855215907096863,-1.9415704011917114,0.15665937960147858
7,0.8941,1.793,0,0,-0.71917724609375,0.706634521484375,0.2077178955078125,-0.5595762133598328,-2.0339629650115967,0.1266775131225586
8,0.8611,1.6068,0,0,-0.7430419921875,0.6270751953125,0.2790069580078125,-0.1179886907339096,-2.278047561645508,0.07147471606731415
9,0.8305,1.4334,0,0,-0.699066162109375,0.5497894287109375,0.347442626953125,0.3314434587955475,-1.7175018787384033,-0.14776283502578735
10,0.8031,1.2755,0,0,-0.58917236328125,0.508941650390625,0.3918914794921875,0.22195875644683838,-1.1466562747955322,-0.28900012373924255
11,0.7811,1.137,0,0,-0.5431976318359375,0.470550537109375,0.307159423828125,0.11570502817630768,-0.5040269494056702,-0.28492388129234314
12,0.767,1.0214,0,0,-0.4732666015625,0.474273681640625,0.24627685546875,0.23165453970432281,0.0760340467095375,-0.32305634021759033
13,0.7637,0.9312,0,0,-0.4257049560546875,0.5584259033203125,0.213531494140625,0.46671631932258606,0.23975959420204163,-0.2599620819091797
14,0.7739,0.8669,0,0,-0.3423004150390625,0.6269683837890625,0.228118896484375,0.6636991500854492,0.13719327747821808,-0.16091032326221466
15,0.7995,0.8272,0,0,-0.35577392578125,0.6227569580078125,0.259918212890625,0.7651200294494629,0.04472779110074043,-0.11880254745483398
16,0.8413,0.8094,0,0,-0.3923187255859375,0.5710296630859375,0.3466033935546875,0.8576537370681763,-0.06204952299594879,-0.08077553659677505
17,0.8986,0.8104,0,0,-0.43603515625,0.586578369140625,0.395751953125,0.960425078868866,-0.12911830842494965,-0.02418736182153225
18,0.9694,0.8275,0,0,-0.4844207763671875,0.6203155517578125,0.4579315185546875,1.3357899188995361,0.3191758692264557,0.04873691126704216
19,1.0499,0.8591,0,0,-0.5778045654296875,0.6187896728515625,0.5972900390625,1.5156992673873901,0.4176076352596283,0.02870914340019226
20,1.1353,0.9053,0,0,-0.6577911376953125,0.628692626953125,0.7214508056640625,1.3768385648727417,-0.01938435062766075,0.006589991971850395
21,1.2197,0.9674,0,0,-0.771453857421875,0.6684112548828125,0.75079345703125,0.981117844581604,-0.2553265690803528,0.05772321671247482
22,1.2972,1.0471,0,0,-0.8913421630859375,0.6552276611328125,0.7552947998046875,0.4907556176185608,0.17059756815433502,-0.06514198333024979
23,1.3617,1.1454,0,0,-0.911651611328125,0.5403289794921875,0.8015289306640625,0.0689883902668953,0.6295191049575806,-0.3032682538032532
24,1.4083,1.2617,0,0,-0.8600921630859375,0.4088592529296875,0.92047119140625,0.23698538541793823,0.7191453576087952,-0.5433903336524963
25,1.4331,1.3925,0,0,-0.7673492431640625,0.3727874755859375,0.8784027099609375,0.2602022886276245,0.22065860033035278,-0.46364036202430725
26,1.4342,1.5322,0,0,-0.856475830078125,0.853790283203125,0.4001617431640625,-0.12693370878696442,-0.3587419092655182,-0.015342471189796925
27,1.4117,1.6733,0,0,-0.8425445556640625,1.5302734375,-0.2519989013671875,0.1192595511674881,1.2407915592193604,0.6914157271385193
28,1.3684,1.8081,0,0,-0.8990478515625,1.8611907958984375,-0.181243896484375,4.76705827168189e-05,3.1189558506011963,1.5742813348770142
29,1.309,1.93,0,0,-0.9680023193359375,1.571502685546875,-0.1844482421875,-0.03407541289925575,3.83908748626709,0.35568591952323914
30,1.2399,2.0353,0,0,-0.0709381103515625,1.065338134765625,0.4842529296875,1.7526087760925293,-1.4484211206436157,-1.2023128271102905
31,1.1682,2.1229,0,0,0.0492401123046875,0.4868621826171875,0.1489715576171875,-0.027951739728450775,-2.175355911254883,-0.31904536485671997
32,1.1006,2.1943,0,0,-0.0999908447265625,0.2795562744140625,-0.262542724609375,-0.7549872398376465,-1.3969895839691162,0.31871354579925537
33,1.0425,2.2518,0,0,-0.3199615478515625,0.39947509765625,-0.3675689697265625,-0.28652018308639526,-1.3462345600128174,0.2792886197566986
34,0.9972,2.2971,0,0,-0.560577392578125,0.8292388916015625,-0.2838134765625,0.2663904130458832,-0.6497556567192078,0.305857390165329
35,0.9657,2.33,0,0,-0.7736358642578125,1.0853729248046875,-0.1884918212890625,0.17115497589111328,1.2422317266464233,0.427237868309021
36,0.9472,2.348,0,0,-0.8813934326171875,0.9604339599609375,-0.162811279296875,0.18780851364135742,2.7307615280151367,-0.10004138201475143
37,0.9396,2.3471,0,0,-0.7404022216796875,0.7394561767578125,-0.142669677734375,1.2422538995742798,3.3360912799835205,-0.39549165964126587
38,0.94,2.3224,0,0,-0.6354827880859375,0.673095703125,-0.028167724609375,1.69997239112854,2.6234817504882812,-0.37532567977905273
39,0.9451,2.2702,0,0,-0.546783447265625,0.55352783203125,0.211334228515625,1.7584855556488037,1.084157109260559,-0.15374429523944855
40,0.9521,2.1885,0,0,-0.4384307861328125,0.6428070068359375,0.4453125,1.835867166519165,-2.162461757659912,0.3089623749256134
41,0.9586,2.0778,0,0,-0.5526580810546875,0.75323486328125,0.315185546875,0.740750253200531,-1.6578819751739502,0.40891000628471375
42,0.9627,1.9413,0,0,-0.6228790283203125,0.6830596923828125,0.2823486328125,-0.16967745125293732,0.9642168879508972,0.04759947583079338
43,0.9635,1.7839,0,0,-0.7125091552734375,0.622344970703125,0.2185516357421875,-0.3262585401535034,2.313669443130493,0.051063183695077896
44,0.961,1.6121,0,0,-0.82598876953125,0.608062744140625,0.086273193359375,-0.50628662109375,1.7617931365966797,0.06540057808160782
45,0.956,1.433,0,0,-0.8053131103515625,0.5971527099609375,-0.0347442626953125,-0.5247226357460022,1.0229172706604004,0.0387018546462059
46,0.95,1.2538,0,0,-0.7573699951171875,0.5632171630859375,-0.0618133544921875,-0.0774625688791275,0.7261257767677307,0.057467021048069
47,0.945,1.0813,0,0,-0.6812896728515625,0.621490478515625,-0.033721923828125,0.3917850852012634,0.7644065618515015,0.03834738954901695
48,0.9434,0.9216,0,0,-0.591278076171875,0.6712188720703125,0.0086669921875,0.46859225630760193,0.7634121775627136,0.06817745417356491
49,0.9475,0.7805,0,0,-0.554290771484375,0.72784423828125,0.056549072265625,0.552838921546936,0.5445581078529358,0.1802097111940384
50,0.9593,0.6635,0,0,-0.5595550537109375,0.785858154296875,0.087127685546875,0.5842291116714478,0.5439200401306152,0.34424445033073425
51,0.9801,0.5763,0,0,-0.6303558349609375,0.7256622314453125,0.1194915771484375,0.40305396914482117,0.7951213717460632,0.39490070939064026
52,1.0106,0.5249,0,0,-0.827880859375,0.6326141357421875,0.1303863525390625,0.1336536705493927,0.9376252293586731,0.5042138695716858
53,1.0504,0.5151,0,0,-0.9820098876953125,0.5944061279296875,0.0982513427734375,-0.08495643734931946,0.6543304324150085,0.35990145802497864
54,1.0982,0.5525,0,0,-0.9709930419921875,0.61273193359375,0.056060791015625,-0.19485656917095184,0.534236490726471,0.08205439150333405
55,1.1513,0.641,0,0,-0.8395538330078125,0.629547119140625,0.05194091796875,-0.18416984379291534,0.4584336280822754,-0.16590827703475952
56,1.2063,0.7814,0,0,-0.7163848876953125,0.6284637451171875,0.068023681640625,-0.16535167396068573,0.21396954357624054,-0.32857388257980347
57,1.2588,0.9709,0,0,-0.812255859375,0.644775390625,-0.007965087890625,-0.29963305592536926,0.10033752024173737,-0.40956035256385803
58,1.3038,1.202,0,0,-1.0432891845703125,0.7108154296875,-0.13031005859375,-0.4396231770515442,-0.10061422735452652,-0.5604411959648132
59,1.3367,1.4623,0,0,-1.150726318359375,0.8688812255859375,-0.19964599609375,-0.3980240821838379,-0.6425603032112122,-0.7217829823493958
60,1.3533,1.7356,0,0,-1.170257568359375,1.015228271484375,-0.1671905517578125,-0.44799908995628357,-1.2289081811904907,-0.7225505113601685
61,1.3508,2.0032,0,0,-1.07183837890625,1.0684356689453125,-0.0982666015625,-0.7931665778160095,-1.8251079320907593,-0.9980441331863403
62,1.3283,2.2457,0,0,-0.8108978271484375,1.089324951171875,0.00238037109375,-1.5213526487350464,-1.548689365386963,-0.9318293929100037
63,1.2867,2.4456,0,0,-0.6533050537109375,1.190948486328125,0.2208099365234375,-2.7440860271453857,-1.0193272829055786,-0.8063740134239197
64,1.229,2.5887,0,0,-0.4257049560546875,1.4009552001953125,0.4565277099609375,-4.139671802520752,-1.557199239730835,-0.5341877937316895
65,1.1596,2.6659,0,0,-0.2086334228515625,1.2664031982421875,-0.0085601806640625,-2.1897051334381104,-1.5042500495910645,-0.42571374773979187
66,1.084,2.6737,0,0,-0.2043609619140625,0.7676544189453125,0.246124267578125,-1.1347694396972656,0.40057510137557983,-0.24506914615631104
67,1.0076,2.6136,0,0,-0.326019287109375,0.4151458740234375,0.1305999755859375,-1.7269840240478516,-0.6570129990577698,0.019216038286685944
68,0.9355,2.4919,0,0,-0.3823089599609375,0.49981689453125,-0.0591583251953125,-1.6827385425567627,-1.938767671585083,0.18848708271980286
69,0.8716,2.3187,0,0,-0.565765380859375,0.6197052001953125,-0.063323974609375,-1.1985149383544922,-2.3575828075408936,0.33791279792785645
70,0.8188,2.1067,0,0,-0.6877288818359375,0.637451171875,0.03271484375,-0.5338567495346069,-2.3527960777282715,0.2556770443916321
71,0.7783,1.8707,0,0,-0.744140625,0.562957763671875,0.228515625,0.13630804419517517,-2.189124345779419,0.10327951610088348
72,0.751,1.6266,0,0,-0.686065673828125,0.491241455078125,0.3638916015625,0.2483205944299698,-1.9950312376022339,-0.15255998075008392
73,0.7366,1.3899,0,0,-0.5855712890625,0.4323577880859375,0.3550262451171875,0.09882857650518417,-1.2777423858642578,-0.21004138886928558
74,0.7351,1.1747,0,0,-0.5156707763671875,0.4496612548828125,0.270355224609375,0.022899189963936806,-0.18659144639968872,-0.2272786945104599
75,0.7459,0.9924,0,0,-0.4465484619140625,0.55859375,0.2022857666015625,0.11063383519649506,0.5432323813438416,-0.28511855006217957
76,0.7685,0.8513,0,0,-0.344970703125,0.6566162109375,0.1794891357421875,0.32252585887908936,0.6368739604949951,-0.2615874111652374
77,0.8024,0.7554,0,0,-0.245697021484375,0.673858642578125,0.2079620361328125,0.5454633235931396,0.4443923532962799,-0.19458706676959991
78,0.8469,0.7053,0,0,-0.2498779296875,0.6325225830078125,0.2884521484375,0.8461054563522339,0.317059189081192,-0.042982086539268494
79,0.9009,0.6985,0,0,-0.469085693359375,0.5937652587890625,0.4576568603515625,0.9887587428092957,-0.015657790005207062,0.20203645527362823
80,0.9628,0.7301,0,0,-0.6767730712890625,0.572509765625,0.581695556640625,0.9321146011352539,-0.27260622382164,0.22265544533729553
81,1.0308,0.7935,0,0,-0.8048553466796875,0.537322998046875,0.6536712646484375,0.8952868580818176,-0.01290461327880621,0.13871712982654572
82,1.1024,0.8812,0,0,-0.8074951171875,0.4803009033203125,0.678466796875,0.7692258358001709,0.11748268455266953,-0.006800914648920298
83,1.1744,0.9854,0,0,-0.756378173828125,0.4522857666015625,0.6502227783203125,0.967443585395813,0.2868450880050659,-0.0153738958761096
84,1.2432,1.098,0,0,-0.7747344970703125,0.5535888671875,0.64251708984375,1.0614361763000488,0.12709537148475647,-0.02815866656601429
85,1.3049,1.2114,0,0,-0.831146240234375,0.60931396484375,0.478973388671875,0.826972484588623,-0.0004950816510245204,-0.15885277092456818
86,1.355,1.3185,0,0,-0.80279541015625,0.52899169921875,0.3791961669921875,0.861190915107727,0.4776632487773895,-0.31484076380729675
87,1.3895,1.4133,0,0,-0.84857177734375,0.4474029541015625,0.7083740234375,1.3854416608810425,0.6490280628204346,-0.4024481177330017
88,1.4051,1.4913,0,0,-0.9134521484375,0.5758819580078125,1.0538330078125,0.9262918829917908,-0.8948681950569153,-0.39046576619148254
89,1.4,1.5505,0,0,-0.8686065673828125,1.2848663330078125,0.3645172119140625,0.35612401366233826,-0.37697792053222656,-0.0952407643198967
90,1.3744,1.5916,0,0,-0.72930908203125,1.7531280517578125,-0.1682281494140625,0.08777166157960892,2.1176092624664307,1.1095757484436035
91,1.3309,1.6182,0,0,-1.0057220458984375,1.8636322021484375,-0.17999267578125,-0.5967406034469604,3.814948320388794,1.5404226779937744
92,1.2742,1.6369,0,0,-0.294952392578125,1.4192047119140625,0.389373779296875,0.8615816235542297,0.3283539116382599,-0.8272875547409058
93,1.2104,1.656,0,0,0.081024169921875,0.73089599609375,0.133575439453125,0.03512203320860863,-1.9255142211914062,-0.6606380939483643
94,1.1464,1.6839,0,0,0.0089569091796875,0.3498687744140625,-0.275848388671875,-0.9451593160629272,-0.49674397706985474,0.18483643233776093
95,1.0882,1.727,0,0,-0.1882781982421875,0.3090972900390625,-0.4140777587890625,-0.3512893319129944,-0.4956558346748352,0.3700515627861023
96,1.0403,1.7879,0,0,-0.42950439453125,0.65606689453125,-0.3125762939453125,0.24279452860355377,-0.45391955971717834,0.10539859533309937
97,1.0053,1.8642,0,0,-0.6302947998046875,1.019805908203125,-0.184814453125,0.1988992542028427,0.5257346034049988,0.30406349897384644
98,0.9832,1.9487,0,0,-0.7934112548828125,1.0744476318359375,-0.1709136962890625,-0.32486143708229065,2.143932580947876,0.21120119094848633
99,0.9727,2.0305,0,0,-0.724578857421875,0.8038330078125,-0.227630615234375,-0.012300875037908554,2.8254342079162598,-0.20403781533241272
100,0.9709,2.0972,0,0,-0.69110107421875,0.7003173828125,-0.1165618896484375,1.7573696374893188,3.156958818435669,-0.1342209279537201
101,0.9745,2.1371,0,0,-0.659454345703125,0.678253173828125,0.0650787353515625,1.9208883047103882,1.8603628873825073,0.007814247161149979
102,0.9801,2.1412,0,0,-0.63726806640625,0.556549072265625,0.405731201171875,1.7393009662628174,-1.1233035326004028,0.25512975454330444
103,0.9846,2.1044,0,0,-0.6506500244140625,0.633209228515625,0.35662841796875,0.905653178691864,-2.00225830078125,0.36299949884414673
104,0.9859,2.0258,0,0,-0.703948974609375,0.6201171875,0.3759307861328125,0.019712451845407486,0.7653104662895203,0.07772248983383179
105,0.9825,1.9081,0,0,-0.755218505859375,0.6026611328125,0.3642120361328125,-0.4426213502883911,2.504671096801758,-0.0712113305926323
106,0.9743,1.7574,0,0,-0.8525390625,0.62823486328125,0.1541748046875,-1.0378303527832031,1.680691123008728,-0.13113032281398773
107,0.9623,1.582,0,0,-0.768402099609375,0.614593505859375,-0.0198516845703125,-1.0363374948501587,1.0259785652160645,-0.037636592984199524
108,0.9482,1.3912,0,0,-0.747222900390625,0.5842132568359375,-0.058563232421875,-0.3316221535205841,0.9716386198997498,0.004446413833647966
109,0.9345,1.1945,0,0,-0.6919097900390625,0.5988616943359375,-0.01458740234375,0.1515602320432663,0.9589803218841553,-0.03843607380986214
110,0.924,1.0013,0,0,-0.630096435546875,0.5850830078125,0.023162841796875,0.35535889863967896,0.680007815361023,-0.03262984752655029
111,0.9192,0.8197,0,0,-0.6016387939453125,0.6020660400390625,0.051849365234375,0.5840927362442017,0.3377876281738281,0.026460370048880577
112,0.9223,0.6573,0,0,-0.6060638427734375,0.6338958740234375,0.0699462890625,0.627109706401825,0.2968641519546509,0.09242554008960724
113,0.935,0.5207,0,0,-0.634033203125,0.6475372314453125,0.077423095703125,0.5412366390228271,0.48469823598861694,0.18434907495975494
114,0.9577,0.4164,0,0,-0.725311279296875,0.65435791015625,0.0745849609375,0.4284994304180145,0.5269261002540588,0.28823819756507874
115,0.9902,0.3502,0,0,-0.808929443359375,0.663543701171875,0.0643463134765625,0.30071723461151123,0.4515823721885681,0.3720790147781372
116,1.0309,0.3281,0,0,-0.8208465576171875,0.681884765625,0.050994873046875,0.18104435503482819,0.4070247411727905,0.27816665172576904
117,1.0776,0.3552,0,0,-0.8187408447265625,0.716644287109375,0.0283660888671875,0.1432493031024933,0.4928637742996216,0.16513489186763763
118,1.1274,0.4352,0,0,-0.800933837890625,0.7518310546875,0.006378173828125,0.16166293621063232,0.42365407943725586,-0.021499432623386383
119,1.1767,0.5694,0,0,-0.7388763427734375,0.738311767578125,0.00714111328125,0.20437736809253693,0.33414575457572937,-0.20736943185329437
120,1.2216,0.7556,0,0,-0.7757415771484375,0.7091827392578125,-0.00994873046875,0.09282580763101578,0.34988850355148315,-0.25108468532562256
121,1.2583,0.9878,0,0,-0.962005615234375,0.748626708984375,-0.09307861328125,-0.19152815639972687,0.07033994048833847,-0.23504872620105743
122,1.2836,1.2551,0,0,-1.140594482421875,0.863494873046875,-0.1677703857421875,-0.41783612966537476,-0.5985811352729797,-0.36709144711494446
123,1.295,1.5429,0,0,-1.1652374267578125,0.9584197998046875,-0.204681396484375,-0.4617535173892975,-1.0573409795761108,-0.48882216215133667
124,1.2912,1.8334,0,0,-1.08062744140625,0.9733428955078125,-0.1072998046875,-0.5468955636024475,-1.5652092695236206,-0.7985339164733887
125,1.2723,2.1078,0,0,-0.8088226318359375,0.917694091796875,0.0093994140625,-0.9940605759620667,-2.1756396293640137,-1.014888048171997
126,1.2397,2.3479,0,0,-0.653045654296875,0.922760009765625,0.1129913330078125,-1.8469810485839844,-1.8115612268447876,-0.9983594417572021
127,1.1958,2.5381,0,0,-0.499603271484375,1.08917236328125,0.3398284912109375,-3.081404209136963,-1.4433627128601074,-0.8326998949050903
128,1.1441,2.6671,0,0,-0.3491973876953125,1.2324371337890625,0.1253204345703125,-2.9127132892608643,-1.0843433141708374,-0.5167339444160461
129,1.0878,2.7285,0,0,-0.3274993896484375,0.9526519775390625,0.308197021484375,-1.6060643196105957,0.36303412914276123,-0.2955158054828644
130,1.0306,2.7207,0,0,-0.3960113525390625,0.600341796875,0.2104034423828125,-2.273833990097046,-0.673358678817749,-0.16953018307685852
131,0.9753,2.6471,0,0,-0.336639404296875,0.595794677734375,-0.0431976318359375,-2.3556392192840576,-1.6430332660675049,0.19570878148078918
132,0.9242,2.5152,0,0,-0.5477294921875,0.66796875,-0.1379852294921875,-1.4982331991195679,-1.6390328407287598,0.5321515202522278
133,0.8788,2.3358,0,0,-0.7268829345703125,0.6883087158203125,0.0530548095703125,-0.4423923194408417,-1.6578643321990967,0.4593188464641571
134,0.8401,2.1221,0,0,-0.7426300048828125,0.64117431640625,0.2823028564453125,-0.1597619652748108,-2.607198715209961,0.17391906678676605
135,0.8089,1.889,0,0,-0.6846160888671875,0.5194549560546875,0.3440704345703125,-0.2500290274620056,-3.1087746620178223,0.10138334333896637
136,0.7857,1.6518,0,0,-0.71343994140625,0.39013671875,0.4107818603515625,-0.14085006713867188,-2.1843879222869873,0.03807761147618294
137,0.7714,1.4253,0,0,-0.6458892822265625,0.3672027587890625,0.3848114013671875,-0.1869528442621231,-0.7794843316078186,-0.1675698161125183
138,0.7667,1.2218,0,0,-0.4973297119140625,0.4035491943359375,0.21124267578125,-0.19340167939662933,0.037638988345861435,-0.15465135872364044
139,0.7725,1.0507,0,0,-0.433807373046875,0.4918060302734375,0.123321533203125,0.1145300418138504,0.16872483491897583,-0.0008743157959543169
140,0.7893,0.9169,0,0,-0.359588623046875,0.6051788330078125,0.1282806396484375,0.5519737005233765,0.03009052388370037,0.01997557282447815
141,0.8176,0.8215,0,0,-0.321441650390625,0.69036865234375,0.2291107177734375,0.866875171661377,0.13711631298065186,0.10128960013389587
142,0.8568,0.7621,0,0,-0.3144683837890625,0.6868896484375,0.4035491943359375,1.1295305490493774,0.2175283282995224,0.17751246690750122
143,0.9061,0.7345,0,0,-0.3885345458984375,0.615692138671875,0.6150970458984375,1.2191647291183472,-0.04868578165769577,0.2873913049697876
144,0.9638,0.7338,0,0,-0.510589599609375,0.5918121337890625,0.6148529052734375,1.0762273073196411,0.05965001508593559,0.27323418855667114
145,1.0276,0.7561,0,0,-0.627044677734375,0.5797576904296875,0.5591583251953125,0.7824364304542542,0.5233428478240967,0.1751912534236908
146,1.0947,0.7987,0,0,-0.7254486083984375,0.563232421875,0.5342864990234375,0.6871898174285889,0.935912013053894,0.08952295780181885
147,1.1619,0.8608,0,0,-0.79949951171875,0.5506744384765625,0.653228759765625,0.9514422416687012,0.9737454056739807,0.08536390215158463
148,1.2255,0.9424,0,0,-0.8845062255859375,0.638763427734375,0.714996337890625,0.7646931409835815,0.04820188507437706,0.030192257836461067
149,1.2819,1.0435,0,0,-0.817596435546875,0.7337646484375,0.6221466064453125,0.5000801086425781,-0.029948577284812927,-0.15350300073623657
150,1.3275,1.163,0,0,-0.6472625732421875,0.7696380615234375,0.7803955078125,0.763836681842804,0.6976621747016907,-0.29405584931373596
151,1.359,1.2974,0,0,-0.6749420166015625,0.4931182861328125,0.9396514892578125,0.5828202962875366,0.14035311341285706,-0.2660335600376129
152,1.3739,1.4405,0,0,-0.644195556640625,0.34332275390625,0.6717529296875,-0.0649622231721878,-0.4426855444908142,-0.24172234535217285
153,1.3707,1.5839,0,0,-0.7950439453125,0.8120880126953125,0.0578155517578125,-0.119949571788311,0.41140884160995483,0.19801002740859985
154,1.3494,1.7176,0,0,-0.980255126953125,1.3994598388671875,-0.2137451171875,0.43843433260917664,1.8865244388580322,0.4493008255958557
155,1.3118,1.8324,0,0,-0.963043212890625,1.798583984375,-0.0942230224609375,0.22511860728263855,2.842665433883667,1.365167260169983
156,1.2614,1.9213,0,0,-0.9328765869140625,1.667144775390625,0.113494873046875,-0.02672668546438217,2.7220044136047363,0.42762911319732666
157,1.2033,1.9815,0,0,-0.2071380615234375,1.1652984619140625,0.47552490234375,0.7747196555137634,-3.9923958778381348,-0.893998920917511
158,1.1436,2.0144,0,0,-0.1174774169921875,0.525970458984375,-0.0178375244140625,-0.9284359812736511,-1.8806822299957275,-0.31336402893066406
159,1.0879,2.0254,0,0,-0.1444244384765625,0.28997802734375,-0.2838287353515625,-1.3075172901153564,0.11544323712587357,-0.09833455830812454
160,1.0411,2.0219,0,0,-0.1488494873046875,0.3175201416015625,-0.5363311767578125,-0.47886884212493896,0.4384513795375824,-0.0029638318810611963
161,1.0059,2.011,0,0,-0.491973876953125,0.64947509765625,-0.3585205078125,0.5197009444236755,0.8303653597831726,0.01082521677017212
162,0.9832,1.9976,0,0,-0.6985321044921875,0.9398956298828125,-0.1896514892578125,0.635854184627533,1.3999830484390259,0.027244670316576958
163,0.9716,1.9836,0,0,-0.864105224609375,1.033233642578125,-0.115264892578125,0.5043089389801025,1.7067089080810547,0.016592025756835938
164,0.9688,1.9673,0,0,-0.7962799072265625,0.8362274169921875,-0.1190032958984375,0.6065847277641296,1.7598589658737183,-0.207173153758049
165,0.9713,1.9445,0,0,-0.6215057373046875,0.6719207763671875,-0.0914154052734375,1.6886060237884521,2.2473220825195312,-0.23969967663288116
166,0.9759,1.9097,0,0,-0.522491455078125,0.622222900390625,0.0918426513671875,2.0294456481933594,1.777616024017334,-0.058458250015974045
167,0.9795,1.8577,0,0,-0.5216064453125,0.54833984375,0.5607452392578125,2.185591220855713,-0.7536109089851379,0.23669403791427612
168,0.9801,1.7848,0,0,-0.7200775146484375,0.60284423828125,0.5556488037109375,1.041940689086914,-1.6121032238006592,0.41525712609291077
169,0.9767,1.6896,0,0,-0.863006591796875,0.6196441650390625,0.4252471923828125,0.11001784354448318,0.501575767993927,0.024208666756749153
170,0.9696,1.5726,0,0,-0.827117919921875,0.6084747314453125,0.2586669921875,-0.3788418471813202,1.9817204475402832,-0.22093291580677032
171,0.96,1.4368,0,0,-0.740234375,0.605499267578125,0.0528717041015625,-0.714815616607666,1.5832418203353882,-0.2845912575721741
172,0.9503,1.2868,0,0,-0.661529541015625,0.5887298583984375,-0.059967041015625,-0.4485282599925995,0.8646181225776672,-0.06234726309776306
173,0.9431,1.1285,0,0,-0.64801025390625,0.603759765625,-0.0744171142578125,0.0817534551024437,0.6564990282058716,0.060091301798820496
174,0.9411,0.9686,0,0,-0.62579345703125,0.6293182373046875,-0.03192138671875,0.3977263271808624,0.6203700304031372,0.09409453719854355
175,0.9467,0.8144,0,0,-0.603363037109375,0.6331329345703125,0.0078125,0.5491238236427307,0.6108998656272888,0.11103490740060806
176,0.9614,0.6738,0,0,-0.5953216552734375,0.650543212890625,0.045166015625,0.6448304057121277,0.5192141532897949,0.18281269073486328
177,0.9856,0.5548,0,0,-0.6413421630859375,0.68878173828125,0.0573577880859375,0.5588446259498596,0.45613718032836914,0.30648162961006165
178,1.0189,0.4658,0,0,-0.7718963623046875,0.7147064208984375,0.07232666015625,0.4525429606437683,0.5500889420509338,0.439411461353302
179,1.0596,0.415,0,0,-0.8930816650390625,0.701141357421875,0.092498779296875,0.2601407766342163,0.6715213656425476,0.4428378939628601
180,1.1051,0.4098,0,0,-0.960235595703125,0.695892333984375,0.0766448974609375,0.019650666043162346,0.5125053524971008,0.3379303812980652
181,1.1522,0.4558,0,0,-0.91790771484375,0.68939208984375,0.0506134033203125,-0.04803304001688957,0.25685203075408936,0.17098958790302277
182,1.1973,0.5558,0,0,-0.8255615234375,0.6728515625,0.0703277587890625,0.020611003041267395,0.15425615012645721,-0.06119358167052269
183,1.2367,0.7085,0,0,-0.858856201171875,0.65765380859375,0.04254150390625,-0.07550141215324402,0.13753575086593628,-0.17085643112659454
184,1.267,0.908,0,0,-1.0869598388671875,0.73193359375,-0.043212890625,-0.2829427421092987,-0.10505451261997223,-0.27600520849227905
185,1.2852,1.1437,0,0,-1.1726531982421875,0.8254241943359375,-0.0987396240234375,-0.4004342257976532,-0.52825528383255,-0.529370129108429
186,1.2894,1.4007,0,0,-1.03973388671875,0.9102935791015625,-0.1246795654296875,-0.4639018774032593,-0.885699450969696,-0.7123212814331055
187,1.2786,1.6615,0,0,-0.907257080078125,0.89239501953125,-0.0822296142578125,-0.6552382707595825,-1.4154757261276245,-0.8525444269180298
188,1.2532,1.9078,0,0,-0.756561279296875,0.908660888671875,-0.02008056640625,-1.1032805442810059,-1.7003196477890015,-0.8412944674491882
189,1.2149,2.1222,0,0,-0.6723175048828125,1.0248565673828125,0.11767578125,-1.9520057439804077,-1.4757497310638428,-0.6958270072937012
190,1.1663,2.2904,0,0,-0.55487060546875,1.19793701171875,0.298583984375,-3.11930251121521,-1.4534283876419067,-0.4555398225784302
191,1.1109,2.4023,0,0,-0.36297607421875,1.272979736328125,0.0596160888671875,-2.528247833251953,-1.080344557762146,-0.38079607486724854
192,1.0526,2.4529,0,0,-0.28118896484375,0.9283599853515625,0.253143310546875,-1.4671881198883057,0.020797690376639366,-0.22327809035778046
193,0.995,2.4419,0,0,-0.3339385986328125,0.5604705810546875,0.1190032958984375,-1.9418041706085205,-0.8199854493141174,-0.0439876988530159
194,0.9414,2.3734,0,0,-0.32281494140625,0.539031982421875,-0.0688018798828125,-1.8246259689331055,-1.4584293365478516,0.22400513291358948
195,0.8942,2.2545,0,0,-0.5128936767578125,0.6434783935546875,-0.1124267578125,-1.1786985397338867,-1.5436108112335205,0.37270140647888184
196,0.8549,2.0954,0,0,-0.63409423828125,0.6771697998046875,0.0758209228515625,-0.4227887988090515,-1.6770018339157104,0.28338828682899475
197,0.824,1.9078,0,0,-0.6296234130859375,0.64068603515625,0.2535400390625,-0.12440211325883865,-2.2587032318115234,0.15507666766643524
198,0.8016,1.7043,0,0,-0.58837890625,0.5706329345703125,0.353363037109375,-0.17225059866905212,-2.609445810317993,0.10930705070495605
199,0.7874,1.4979,0,0,-0.6024322509765625,0.50445556640625,0.4069061279296875,-0.0493028350174427,-2.022153377532959,0.11909203231334686
200,0.7813,1.3011,0,0,-0.5611572265625,0.5001068115234375,0.392333984375,0.01272991020232439,-0.8946884274482727,0.088251031935215
201,0.7833,1.1245,0,0,-0.5182647705078125,0.5471954345703125,0.3059234619140625,0.05449972674250603,0.13608726859092712,0.08064344525337219
202,0.7937,0.9763,0,0,-0.4863739013671875,0.61517333984375,0.249267578125,0.27874693274497986,0.49268054962158203,0.07323053479194641
203,0.813,0.8615,0,0,-0.3757781982421875,0.6582489013671875,0.256500244140625,0.5674464106559753,0.3558840751647949,0.05686834082007408
204,0.8417,0.7819,0,0,-0.3707275390625,0.6208343505859375,0.295867919921875,0.8136918544769287,0.24447153508663177,0.13144004344940186
205,0.88,0.7364,0,0,-0.4603271484375,0.60894775390625,0.3993377685546875,0.984923779964447,0.1959114521741867,0.18857869505882263
206,0.9272,0.7219,0,0,-0.5118408203125,0.59552001953125,0.5161590576171875,1.0242639780044556,-0.031001858413219452,0.20370438694953918
207,0.9823,0.7339,0,0,-0.55560302734375,0.584686279296875,0.5229949951171875,1.0035816431045532,-0.11241975426673889,0.12390383332967758
208,1.043,0.7679,0,0,-0.576568603515625,0.6065216064453125,0.4876556396484375,0.887793242931366,-0.10555731505155563,0.01188302505761385
209,1.1062,0.8192,0,0,-0.584991455078125,0.6396484375,0.4755859375,0.936440646648407,0.22153745591640472,0.056654226034879684
210,1.1679,0.8836,0,0,-0.59991455078125,0.7653656005859375,0.60516357421875,1.0175261497497559,0.4453146159648895,0.13011646270751953
211,1.2238,0.9571,0,0,-0.685638427734375,0.8102874755859375,0.6606903076171875,0.6080204248428345,0.29034340381622314,0.13174764811992645
212,1.2693,1.0356,0,0,-0.75042724609375,0.7247314453125,0.5977020263671875,0.22150255739688873,0.6122229099273682,-0.036379579454660416
213,1.3003,1.115,0,0,-0.7235565185546875,0.6163482666015625,0.7125244140625,0.2160811722278595,0.8844887614250183,-0.1956869512796402
214,1.3138,1.1909,0,0,-0.7223968505859375,0.52294921875,0.92559814453125,0.0682016909122467,0.1818491667509079,-0.26147234439849854
215,1.3085,1.2594,0,0,-0.8473968505859375,0.75494384765625,0.7084503173828125,-0.49367815256118774,-0.32733818888664246,-0.06522241234779358
216,1.2849,1.3172,0,0,-0.810943603515625,1.398162841796875,0.17919921875,-0.3222392797470093,1.1787207126617432,0.1900077611207962
217,1.2456,1.3635,0,0,-0.7745208740234375,1.649383544921875,-0.0977783203125,-0.17436887323856354,3.097949266433716,0.9620368480682373
218,1.1953,1.4,0,0,-0.8598480224609375,1.38232421875,-0.10406494140625,-0.33302775025367737,3.527190923690796,0.4350944757461548
219,1.1398,1.4311,0,0,-0.3187103271484375,0.8674774169921875,0.1435546875,0.14051157236099243,0.5061819553375244,-0.7774169445037842
220,1.0854,1.4636,0,0,-0.179168701171875,0.51348876953125,-0.1062164306640625,0.13577114045619965,-0.9144861102104187,-0.47312095761299133
221,1.0374,1.5044,0,0,-0.129730224609375,0.32843017578125,-0.29327392578125,0.12637604773044586,-0.6091336607933044,0.04325772449374199
222,0.9998,1.5592,0,0,-0.25140380859375,0.3732452392578125,-0.3475799560546875,0.6828014850616455,-0.6375458240509033,0.2605349123477936
223,0.9743,1.6301,0,0,-0.54901123046875,0.687347412109375,-0.19964599609375,1.0850660800933838,-0.8135163187980652,0.364918053150177
224,0.9605,1.715,0,0,-0.7788543701171875,0.9775848388671875,-0.1170806884765625,0.911182701587677,-0.24858450889587402,0.4815373420715332
225,0.9563,1.8071,0,0,-0.886444091796875,1.0582427978515625,-0.108245849609375,0.42251211404800415,0.9085397720336914,0.1571211814880371
226,0.9585,1.8962,0,0,-0.7710418701171875,0.79302978515625,-0.1861724853515625,0.6301465034484863,1.7153215408325195,-0.29570674896240234
227,0.9639,1.97,0,0,-0.7024993896484375,0.6805572509765625,-0.0931549072265625,2.1618151664733887,2.4809389114379883,-0.34657472372055054
228,0.9694,2.0167,0,0,-0.566436767578125,0.6795196533203125,0.2840423583984375,2.5368072986602783,0.9584562182426453,-0.26563459634780884
229,0.9728,2.0269,0,0,-0.441680908203125,0.7203521728515625,0.5371246337890625,1.7727442979812622,-2.429426431655884,0.1577528715133667
230,0.9729,1.9947,0,0,-0.5847625732421875,0.7773590087890625,0.2852783203125,0.4262346625328064,-1.435678482055664,0.17324848473072052
231,0.9695,1.9187,0,0,-0.5797882080078125,0.6962432861328125,0.162139892578125,-0.1891789734363556,1.2410575151443481,-0.23221325874328613
232,0.9631,1.802,0,0,-0.6036224365234375,0.6544952392578125,0.07171630859375,-0.4949796497821808,2.211773157119751,-0.24193885922431946
233,0.9551,1.6509,0,0,-0.635223388671875,0.6074676513671875,0.0152130126953125,-0.5617402791976929,1.6037052869796753,-0.13892433047294617
234,0.947,1.4746,0,0,-0.6903076171875,0.6218109130859375,-0.0164031982421875,-0.2804524302482605,1.0309722423553467,0.06167827919125557
235,0.941,1.2836,0,0,-0.726226806640625,0.658721923828125,-0.0371856689453125,0.06602109223604202,0.7098538875579834,0.12472941726446152
236,0.9387,1.0889,0,0,-0.6838836669921875,0.648895263671875,-0.0321807861328125,0.3055732250213623,0.5893932580947876,0.11114303022623062
237,0.942,0.9016,0,0,-0.6628570556640625,0.6607208251953125,-0.019805908203125,0.5753993988037109,0.7189384698867798,0.12105105817317963
238,0.9522,0.7321,0,0,-0.66455078125,0.710540771484375,0.03021240234375,0.7831070423126221,0.780785322189331,0.15827912092208862
239,0.9705,0.5903,0,0,-0.652801513671875,0.7399139404296875,0.1089019775390625,0.7602667212486267,0.5841673016548157,0.2735290229320526
240,0.9973,0.4857,0,0,-0.694000244140625,0.7118682861328125,0.1468048095703125,0.4309423267841339,0.33390527963638306,0.39523574709892273
241,1.0323,0.4268,0,0,-0.8255767822265625,0.659454345703125,0.142425537109375,0.1728636473417282,0.42278000712394714,0.4289063513278961
242,1.0747,0.4209,0,0,-0.929534912109375,0.633941650390625,0.1475677490234375,0.07069813460111618,0.5551082491874695,0.33165010809898376
243,1.1227,0.4732,0,0,-0.908966064453125,0.6483154296875,0.1476287841796875,-0.08864118903875351,0.46200013160705566,0.10890091955661774
244,1.1737,0.586,0,0,-0.85076904296875,0.6682281494140625,0.115203857421875,-0.2376229465007782,0.29726868867874146,-0.0880422443151474
245,1.2242,0.7575,0,0,-0.7856292724609375,0.6558380126953125,0.0598297119140625,-0.3212248980998993,0.15124571323394775,-0.2868160605430603
246,1.2704,0.9816,0,0,-0.8690948486328125,0.6522064208984375,-0.085174560546875,-0.47065380215644836,0.006638994440436363,-0.34042203426361084
247,1.3081,1.2469,0,0,-1.0514678955078125,0.7081756591796875,-0.22320556640625,-0.5294686555862427,-0.35570910573005676,-0.4648302495479584
248,1.3331,1.5379,0,0,-1.1106414794921875,0.8205413818359375,-0.26312255859375,-0.35865962505340576,-0.8808988332748413,-0.5703111290931702
249,1.3422,1.8358,0,0,-1.101531982421875,0.969940185546875,-0.184234619140625,-0.20954523980617523,-1.4550292491912842,-0.8399453163146973
250,1.3336,2.1198,0,0,-0.9276885986328125,1.0562896728515625,-0.00994873046875,-0.5535537600517273,-2.4064369201660156,-1.0011533498764038
251,1.307,2.3701,0,0,-0.8248748779296875,1.16619873046875,0.0852203369140625,-1.550458312034607,-2.16381573677063,-0.8500184416770935
252,1.2639,2.5692,0,0,-0.6992340087890625,1.37701416015625,0.30108642578125,-3.0462522506713867,-1.1173346042633057,-0.7207653522491455
253,1.2077,2.7036,0,0,-0.417877197265625,1.53717041015625,0.1491546630859375,-3.348308563232422,-0.8636210560798645,-0.7246743440628052
254,1.1429,2.7653,0,0,-0.0389556884765625,1.08172607421875,0.2978057861328125,-1.421576738357544,0.7257726192474365,-0.7850679159164429
255,1.0745,2.7515,0,0,-0.1338958740234375,0.529571533203125,0.187286376953125,-2.338988780975342,-0.11425972729921341,-0.33531275391578674
256,1.0074,2.6651,0,0,-0.1541290283203125,0.33575439453125,-0.1367034912109375,-2.3652265071868896,-1.2360212802886963,-0.01486176997423172
257,0.9455,2.5134,0,0,-0.354156494140625,0.4965362548828125,-0.2401580810546875,-1.3515262603759766,-1.7304344177246094,0.4798789918422699
258,0.8914,2.3077,0,0,-0.6839141845703125,0.68408203125,-0.0193023681640625,-0.1535237729549408,-1.8490049839019775,0.5817150473594666
259,0.8466,2.0627,0,0,-0.79742431640625,0.8005828857421875,0.2924041748046875,0.12875424325466156,-2.7261557579040527,0.24983486533164978
260,0.8114,1.7952,0,0,-0.7371368408203125,0.7070465087890625,0.35491943359375,-0.07599756121635437,-2.87296199798584,0.047809068113565445
261,0.7859,1.5231,0,0,-0.6791534423828125,0.5274200439453125,0.4146728515625,-0.0465235598385334,-1.7463634014129639,-0.13052818179130554
262,0.7699,1.2639,0,0,-0.5228271484375,0.506317138671875,0.356292724609375,-0.19371621310710907,-0.45772096514701843,-0.22875435650348663
263,0.7636,1.0332,0,0,-0.45751953125,0.54248046875,0.1949615478515625,-0.40897178649902344,0.30500277876853943,-0.10337459295988083
264,0.7671,0.8433,0,0,-0.3611907958984375,0.61761474609375,0.1398162841796875,-0.26410621404647827,0.3631470501422882,-0.06609193235635757
265,0.7809,0.702,0,0,-0.2833099365234375,0.643341064453125,0.1638336181640625,0.09560401737689972,0.17467167973518372,0.08936209976673126
266,0.8052,0.6122,0,0,-0.3204498291015625,0.6411285400390625,0.236663818359375,0.4547840356826782,0.14120613038539886,0.20006784796714783
267,0.84,0.5726,0,0,-0.4533538818359375,0.5789947509765625,0.3333740234375,0.607301652431488,0.11977646499872208,0.265693724155426
268,0.8845,0.5779,0,0,-0.507659912109375,0.55023193359375,0.4531097412109375,0.7556074857711792,0.06342717260122299,0.2877470850944519
269,0.9374,0.6208,0,0,-0.5468292236328125,0.5435333251953125,0.4919586181640625,0.9063434600830078,0.16590560972690582,0.320465087890625
270,0.9968,0.6931,0,0,-0.6224517822265625,0.5129852294921875,0.497955322265625,0.9553283452987671,0.3718092441558838,0.261735737323761
271,1.0598,0.7865,0,0,-0.7088623046875,0.5009613037109375,0.509002685546875,1.016524314880371,0.49235376715660095,0.20626609027385712
272,1.1233,0.8939,0,0,-0.7913055419921875,0.546966552734375,0.5601043701171875,1.1166906356811523,0.5376360416412354,0.260652095079422
273,1.1837,1.0089,0,0,-0.9163970947265625,0.61376953125,0.63116455078125,0.9656233191490173,0.4391044080257416,0.23255415260791779
274,1.2376,1.1264,0,0,-1.0058746337890625,0.6331787109375,0.6578369140625,0.5986892580986023,0.11657561361789703,-0.0036844832357019186
275,1.2817,1.2411,0,0,-0.955841064453125,0.61639404296875,0.7225189208984375,0.5461165904998779,-0.027228957042098045,-0.3390342593193054
276,1.3135,1.3481,0,0,-0.7166595458984375,0.60107421875,0.903656005859375,0.7865166664123535,-0.30308982729911804,-0.5661201477050781
277,1.331,1.442,0,0,-0.4163360595703125,0.5469818115234375,0.8398284912109375,0.6544681191444397,-0.8074840307235718,-0.3974645435810089
278,1.3334,1.518,0,0,-0.4337615966796875,0.7603607177734375,0.3755340576171875,0.163966566324234,-0.7245654463768005,-0.020540695637464523
279,1.3208,1.5723,0,0,-0.553253173828125,1.259552001953125,-0.0680694580078125,0.2652415335178375,1.2173473834991455,0.47447171807289124
280,1.2947,1.6033,0,0,-0.7846527099609375,1.5633392333984375,-0.1459808349609375,0.02238067239522934,2.958493232727051,1.055748701095581
281,1.2576,1.6128,0,0,-0.9110260009765625,1.6336822509765625,-0.1653594970703125,-0.27745476365089417,3.5058107376098633,0.6903693675994873
282,1.2133,1.6063,0,0,-0.26995849609375,1.3329315185546875,0.5505218505859375,0.9567182660102844,-0.49148130416870117,-0.3780516982078552
283,1.1662,1.5923,0,0,-0.2884063720703125,0.68450927734375,0.2267913818359375,-0.36551591753959656,-2.1427342891693115,0.16238358616828918
284,1.1208,1.5813,0,0,-0.40765380859375,0.48040771484375,-0.2761993408203125,-1.293071985244751,-0.23229369521141052,0.06406287103891373
285,1.0806,1.583,0,0,-0.287322998046875,0.418853759765625,-0.437042236328125,-0.827488899230957,-0.08693037182092667,-0.16886518895626068
286,1.0481,1.6042,0,0,-0.48223876953125,0.5791015625,-0.442596435546875,0.295622855424881,-0.18855473399162292,0.11520648002624512
287,1.0242,1.6473,0,0,-0.742401123046875,0.7622222900390625,-0.2144012451171875,0.9224494695663452,-0.019706061109900475,0.27301689982414246
288,1.0084,1.7088,0,0,-0.9037933349609375,0.8756866455078125,-0.1367950439453125,1.043135166168213,0.5082935690879822,0.19668430089950562
289,0.9989,1.7804,0,0,-0.91375732421875,0.8404693603515625,-0.0886993408203125,0.9145612120628357,1.2876818180084229,-0.14604376256465912
290,0.9936,1.8496,0,0,-0.7678985595703125,0.698883056640625,-0.095916748046875,0.9912860989570618,1.98942232131958,-0.41444191336631775
291,0.9904,1.9028,0,0,-0.600006103515625,0.6792144775390625,-0.032623291015625,1.7806179523468018,2.9913976192474365,-0.5322631001472473
292,0.9872,1.927,0,0,-0.342315673828125,0.73760986328125,0.662994384765625,2.4367566108703613,1.390423059463501,-0.28595930337905884
293,0.9827,1.9123,0,0,-0.362701416015625,0.7455291748046875,0.5627288818359375,0.9271129369735718,-1.5761191844940186,0.3163622319698334
294,0.9765,1.8529,0,0,-0.5637969970703125,0.747100830078125,0.1691436767578125,-0.4646776616573334,-0.7543007135391235,0.2230844795703888
295,0.9686,1.7481,0,0,-0.6417999267578125,0.6344757080078125,-0.008575439453125,-0.6049740314483643,1.1919448375701904,0.01245427317917347
296,0.96,1.6017,0,0,-0.741180419921875,0.580352783203125,-0.057861328125,-0.33532366156578064,2.074740171432495,0.09706822782754898
297,0.952,1.4219,0,0,-0.7857513427734375,0.5614166259765625,0.0003204345703125,-0.053352970629930496,1.6375631093978882,0.11697402596473694
298,0.9466,1.2203,0,0,-0.7539825439453125,0.61279296875,0.0402069091796875,0.3151147961616516,0.8132615089416504,0.2003871649503708
299,0.9457,1.0112,0,0,-0.7237701416015625,0.6737213134765625,0.0522613525390625,0.589146614074707,0.3667961061000824,0.2561867833137512
300,0.9513,0.8104,0,0,-0.6899566650390625,0.684844970703125,0.088623046875,0.6882606744766235,0.3026978075504303,0.2718789279460907
301,0.9652,0.6342,0,0,-0.668060302734375,0.67333984375,0.136505126953125,0.6779489517211914,0.42671695351600647,0.2694234848022461
302,0.9886,0.4982,0,0,-0.69000244140625,0.6685638427734375,0.1643524169921875,0.48076555132865906,0.49873924255371094,0.29125022888183594
303,1.0219,0.4164,0,0,-0.765838623046875,0.6625213623046875,0.140777587890625,0.24089597165584564,0.574357807636261,0.28689301013946533
304,1.0645,0.3996,0,0,-0.85418701171875,0.6571044921875,0.1441650390625,0.10681059956550598,0.5218080878257751,0.2816191613674164
305,1.1147,0.4544,0,0,-0.88665771484375,0.612274169921875,0.10009765625,-0.053351905196905136,0.38018596172332764,0.1414567232131958
306,1.1697,0.5822,0,0,-0.8971405029296875,0.554351806640625,0.042633056640625,-0.08018112182617188,0.18786364793777466,0.012101669795811176
307,1.2256,0.7784,0,0,-0.878662109375,0.56109619140625,-0.0108489990234375,0.031977105885744095,-0.09046199172735214,-0.13265791535377502
308,1.2778,1.0322,0,0,-0.9693145751953125,0.6344146728515625,-0.120361328125,0.049547046422958374,-0.3506624102592468,-0.2774350643157959
309,1.3215,1.327,0,0,-1.139404296875,0.7552642822265625,-0.194671630859375,0.06077706441283226,-0.8558651208877563,-0.5246874690055847
310,1.3518,1.642,0,0,-1.164031982421875,0.9312591552734375,-0.1729736328125,0.19415323436260223,-1.3786274194717407,-0.7265290021896362
311,1.3652,1.9541,0,0,-1.066253662109375,1.0261688232421875,-0.0037078857421875,-0.016347015276551247,-2.2216649055480957,-0.9942403435707092
312,1.3593,2.2407,0,0,-0.889617919921875,1.041015625,-0.01470947265625,-0.7201957106590271,-2.5191545486450195,-1.0793170928955078
313,1.3335,2.4814,0,0,-0.7705078125,1.111785888671875,0.0556640625,-1.7746509313583374,-1.4935699701309204,-0.988651692867279
314,1.2893,2.6608,0,0,-0.6417083740234375,1.281097412109375,0.2476043701171875,-3.0852394104003906,-0.6271978616714478,-0.9378896951675415
315,1.2299,2.7692,0,0,-0.337738037109375,1.5312652587890625,0.273712158203125,-3.958859443664551,-1.22805917263031,-0.756735622882843
316,1.1599,2.8033,0,0,0.0204315185546875,1.27325439453125,0.1524200439453125,-1.491593599319458,-0.004322576802223921,-0.7360990643501282
317,1.085,2.7657,0,0,-0.0878143310546875,0.7158050537109375,0.2392425537109375,-1.9044954776763916,-0.008344482630491257,-0.168169304728508
318,1.0106,2.6636,0,0,-0.2564697265625,0.402862548828125,0.038299560546875,-2.1930792331695557,-1.2842005491256714,0.03989894688129425
319,0.9418,2.5079,0,0,-0.37933349609375,0.557098388671875,-0.1367645263671875,-1.635486364364624,-2.0162179470062256,0.40836194157600403
320,0.8825,2.3116,0,0,-0.6590118408203125,0.6505126953125,-0.073028564453125,-0.438628226518631,-1.7451199293136597,0.6254343390464783
321,0.8353,2.0889,0,0,-0.80694580078125,0.685394287109375,0.1949005126953125,0.22324107587337494,-2.109412431716919,0.242513045668602
322,0.8017,1.8542,0,0,-0.6993865966796875,0.5912322998046875,0.27655029296875,0.2344154268503189,-2.694605588912964,0.0033593112602829933
323,0.782,1.6212,0,0,-0.6682281494140625,0.4669189453125,0.324981689453125,0.19876183569431305,-2.3285422325134277,-0.11363735049962997
324,0.7759,1.4022,0,0,-0.590240478515625,0.4477386474609375,0.3295135498046875,0.23484393954277039,-1.144661784172058,-0.2724562883377075
325,0.7825,1.207,0,0,-0.4502716064453125,0.573272705078125,0.242095947265625,0.14414837956428528,-0.1034315824508667,-0.2124054729938507
326,0.8005,1.0424,0,0,-0.287506103515625,0.6839141845703125,0.2102508544921875,0.13815760612487793,0.36949601769447327,-0.11796152591705322
327,0.8284,0.9117,0,0,-0.1942291259765625,0.6985321044921875,0.2379913330078125,0.3416593372821808,0.48690733313560486,0.03752633556723595
328,0.8643,0.8147,0,0,-0.21099853515625,0.6995697021484375,0.2823486328125,0.5766553282737732,0.6196129322052002,0.15688122808933258
329,0.9062,0.7487,0,0,-0.4165802001953125,0.6187591552734375,0.40997314453125,0.7462672591209412,0.7214798927307129,0.4174795150756836
330,0.9522,0.7095,0,0,-0.645172119140625,0.5875091552734375,0.5634307861328125,0.7263287305831909,0.5230677127838135,0.40010133385658264
331,1.0,0.6929,0,0,-0.7296905517578125,0.5579376220703125,0.5386505126953125,0.6866888999938965,0.4687829315662384,0.334658682346344
332,1.0479,0.6954,0,0,-0.7552337646484375,0.5444488525390625,0.522613525390625,0.7578136920928955,0.5203830003738403,0.21148721873760223
333,1.0941,0.7152,0,0,-0.692352294921875,0.5650634765625,0.5684814453125,0.987396240234375,0.30867448449134827,0.12749643623828888
334,1.1372,0.7521,0,0,-0.684051513671875,0.651275634765625,0.591156005859375,1.0864152908325195,0.02111966535449028,0.16028821468353271
335,1.1761,0.8073,0,0,-0.801361083984375,0.6903076171875,0.59442138671875,0.8149499297142029,0.059300608932971954,0.15155144035816193
336,1.2098,0.8824,0,0,-0.927642822265625,0.665069580078125,0.665740966796875,0.5096994638442993,0.3338429629802704,-0.032885778695344925
337,1.2377,0.9784,0,0,-0.88690185546875,0.581146240234375,0.84698486328125,0.5532621145248413,0.2992469072341919,-0.2850663661956787
338,1.259,1.0942,0,0,-0.7660369873046875,0.379852294921875,0.9048614501953125,0.5425892472267151,-0.419617235660553,-0.43630674481391907
339,1.2732,1.2262,0,0,-0.6024627685546875,0.315673828125,0.649566650390625,0.4932296872138977,-0.6263067722320557,-0.42349135875701904
340,1.2794,1.3679,0,0,-0.5986480712890625,0.67230224609375,0.23101806640625,0.3630780577659607,-0.4360976815223694,-0.30915969610214233
341,1.2769,1.5106,0,0,-0.6425323486328125,1.0225982666015625,-0.1303863525390625,0.5922334790229797,0.7852545976638794,-0.22332362830638885
342,1.2654,1.6442,0,0,-0.6761474609375,1.238494873046875,-0.1182861328125,0.47743740677833557,1.7134549617767334,0.21012234687805176
343,1.2447,1.7589,0,0,-0.7114715576171875,1.4687957763671875,-0.0764617919921875,-0.04195117950439453,2.592317581176758,0.5832008719444275
344,1.2159,1.8473,0,0,-0.4019927978515625,1.709197998046875,0.2505645751953125,0.9460099339485168,2.0944998264312744,0.21052980422973633
345,1.1805,1.9053,0,0,-0.1952362060546875,1.0355377197265625,0.673828125,0.48607322573661804,-2.8259294033050537,0.08647124469280243
346,1.1411,1.9331,0,0,-0.243499755859375,0.619964599609375,-0.091583251953125,-2.200272798538208,0.1284455955028534,0.22219498455524445
347,1.1006,1.9347,0,0,-0.3036346435546875,0.5395050048828125,-0.386932373046875,-2.319230318069458,0.9929572343826294,-0.07814326882362366
348,1.0618,1.917,0,0,-0.453887939453125,0.6681976318359375,-0.5662994384765625,-0.7881590723991394,0.673790693283081,0.04507453367114067
349,1.0271,1.8877,0,0,-0.781402587890625,0.7847747802734375,-0.233062744140625,0.7371086478233337,0.9562662839889526,0.28912633657455444
350,0.9983,1.8536,0,0,-0.829620361328125,0.83599853515625,-0.1468353271484375,0.9104031920433044,0.8641294836997986,-0.10385236144065857
351,0.9765,1.8189,0,0,-0.735626220703125,0.7446136474609375,-0.139129638671875,0.9533815979957581,0.6713733077049255,-0.24456048011779785
352,0.9619,1.7844,0,0,-0.6839752197265625,0.597137451171875,-0.116241455078125,1.1025364398956299,0.8836674690246582,-0.13569258153438568
353,0.954,1.7479,0,0,-0.65069580078125,0.5286407470703125,-0.0850982666015625,1.3756694793701172,1.43972909450531,0.02015453577041626
354,0.9518,1.7047,0,0,-0.6427459716796875,0.5829925537109375,-0.03411865234375,1.2985013723373413,1.7297755479812622,0.11573485285043716
355,0.9538,1.6491,0,0,-0.62554931640625,0.65777587890625,0.0225677490234375,1.413285732269287,1.9642144441604614,-0.011994078755378723
356,0.9582,1.5758,0,0,-0.5032501220703125,0.7509002685546875,0.36492919921875,1.7857997417449951,1.4223219156265259,0.024711204692721367
357,0.9635,1.4814,0,0,-0.5660858154296875,0.720947265625,0.4406890869140625,0.7909982800483704,0.2601493000984192,0.3094657063484192
358,0.9686,1.3652,0,0,-0.7651519775390625,0.6045989990234375,0.2140655517578125,-0.3631499707698822,0.2527424991130829,0.2828671336174011
359,0.9728,1.2295,0,0,-0.866607666015625,0.592376708984375,0.03155517578125,-0.4330422282218933,1.148278832435608,0.29135194420814514
360,0.9764,1.0799,0,0,-0.8850860595703125,0.6411895751953125,-0.037933349609375,-0.16480013728141785,1.5585516691207886,0.18264517188072205
361,0.9805,0.9254,0,0,-0.784515380859375,0.6613311767578125,-0.0152740478515625,0.12290728092193604,1.1384356021881104,0.17404690384864807
362,0.987,0.7776,0,0,-0.735931396484375,0.657562255859375,0.0323638916015625,0.3660975694656372,0.7458145022392273,0.23736914992332458
363,0.9981,0.6501,0,0,-0.71575927734375,0.6663360595703125,0.0646209716796875,0.38505688309669495,0.5936505794525146,0.24487818777561188
364,1.0158,0.5575,0,0,-0.7402801513671875,0.653106689453125,0.0534210205078125,0.3146556615829468,0.528770923614502,0.2844080328941345
365,1.0421,0.5135,0,0,-0.83758544921875,0.6279144287109375,0.0493316650390625,0.3454122543334961,0.42917826771736145,0.38940101861953735
366,1.0777,0.5298,0,0,-0.847259521484375,0.6679534912109375,0.0757598876953125,0.34297439455986023,0.3716782033443451,0.3170301616191864
367,1.1224,0.6138,0,0,-0.807373046875,0.703033447265625,0.092803955078125,0.10950678586959839,0.3700941801071167,0.17763790488243103
368,1.1741,0.7675,0,0,-0.7763671875,0.6639251708984375,0.125762939453125,-0.11353401839733124,0.17243142426013947,0.07325956970453262
369,1.2295,0.9866,0,0,-0.7816314697265625,0.609222412109375,0.1244659423828125,-0.330437570810318,-0.17393584549427032,0.010409497655928135
370,1.2841,1.26,0,0,-0.9821624755859375,0.6140899658203125,-0.086090087890625,-0.7236154675483704,-0.5341459512710571,-0.12436456233263016
371,1.3323,1.5705,0,0,-1.23095703125,0.7144927978515625,-0.2239532470703125,-0.6971879005432129,-1.033199429512024,-0.47174888849258423
372,1.3686,1.8969,0,0,-1.2256622314453125,0.834991455078125,-0.2450714111328125,-0.3752495050430298,-1.6025347709655762,-0.8477049469947815
373,1.3879,2.2155,0,0,-1.021759033203125,0.9145050048828125,-0.096710205078125,-0.21650780737400055,-2.302788496017456,-1.2348915338516235
374,1.3865,2.5034,0,0,-0.825653076171875,1.007598876953125,0.023040771484375,-0.6831628680229187,-2.6981403827667236,-1.1084800958633423
375,1.3628,2.7405,0,0,-0.8130645751953125,1.208404541015625,0.132965087890625,-1.8006387948989868,-2.119061231613159,-0.705625057220459
376,1.3172,2.9119,0,0,-0.76885986328125,1.5273590087890625,0.340118408203125,-3.52783203125,-0.9803306460380554,-0.2948846220970154
377,1.2528,3.0089,0,0,-0.5379486083984375,1.7486572265625,0.386199951171875,-4.590453147888184,-1.3926342725753784,-0.2399848997592926
378,1.1745,3.0292,0,0,-0.0293121337890625,1.213897705078125,0.2257843017578125,-1.53798246383667,0.6608181595802307,-0.7352529764175415
379,1.0886,2.9764,0,0,-0.0996246337890625,0.5537109375,0.2950897216796875,-1.7102452516555786,0.3764852285385132,-0.30243468284606934
380,1.0016,2.8588,0,0,-0.15948486328125,0.2805633544921875,-0.0240478515625,-2.107984781265259,-1.0637829303741455,0.002653307281434536
381,0.9197,2.6877,0,0,-0.2706451416015625,0.3908538818359375,-0.2156524658203125,-1.641677975654602,-1.8756203651428223,0.3073887228965759
382,0.8476,2.4765,0,0,-0.5057220458984375,0.5518646240234375,-0.1941070556640625,-0.7113298177719116,-2.029003620147705,0.45270755887031555
383,0.7887,2.2397,0,0,-0.7699127197265625,0.625335693359375,0.140411376953125,0.2057558298110962,-2.5925023555755615,0.3876912593841553
384,0.745,1.9923,0,0,-0.8596954345703125,0.5846710205078125,0.437225341796875,0.5544030070304871,-3.312587022781372,0.009832923300564289
385,0.7172,1.7493,0,0,-0.716033935546875,0.4666595458984375,0.47406005859375,0.404518723487854,-2.4942069053649902,-0.2913530170917511
386,0.7056,1.5248,0,0,-0.532501220703125,0.3944091796875,0.3403472900390625,0.038064293563365936,-0.9126128554344177,-0.4089829623699188
387,0.7101,1.3309,0,0,-0.400177001953125,0.4232177734375,0.1844940185546875,-0.006447779480367899,0.17443865537643433,-0.35385555028915405
388,0.7302,1.1766,0,0,-0.22735595703125,0.5613250732421875,0.1838226318359375,0.30543288588523865,0.45381808280944824,-0.22479583323001862
389,0.7653,1.0669,0,0,-0.212127685546875,0.6666259765625,0.252685546875,0.6185910701751709,0.5238174200057983,-0.0625869482755661
390,0.8146,1.0026,0,0,-0.243072509765625,0.716705322265625,0.3405303955078125,0.8512845039367676,0.599229097366333,0.007761516608297825
391,0.8766,0.9802,0,0,-0.33392333984375,0.6067352294921875,0.4939727783203125,1.080038070678711,0.4569012224674225,0.26910069584846497
392,0.9496,0.9931,0,0,-0.610565185546875,0.5128631591796875,0.6331939697265625,1.0632492303848267,0.2575785517692566,0.4067791998386383
393,1.031,1.0325,0,0,-0.8098602294921875,0.52105712890625,0.5630645751953125,0.8632189035415649,0.37846633791923523,0.3012876808643341
394,1.1175,1.089,0,0,-0.8617095947265625,0.499237060546875,0.5325775146484375,1.228494644165039,0.9242990612983704,0.08645446598529816
395,1.205,1.1532,0,0,-0.8177032470703125,0.5561981201171875,0.644775390625,1.4387022256851196,0.46865296363830566,-0.11910241842269897
396,1.2888,1.2173,0,0,-0.7675933837890625,0.6288299560546875,0.5402679443359375,1.200637936592102,-0.04096820577979088,-0.0912444218993187
397,1.3635,1.2748,0,0,-0.653228759765625,0.587005615234375,0.5467376708984375,1.0128912925720215,0.3279658854007721,-0.2530362606048584
398,1.4238,1.3214,0,0,-0.7404632568359375,0.47039794921875,0.812042236328125,1.0649863481521606,0.45849114656448364,-0.36249110102653503
399,1.4644,1.3547,0,0,-0.965576171875,0.385711669921875,1.0845489501953125,0.8464511036872864,0.16783666610717773,-0.480358362197876
400,1.4817,1.3742,0,0,-0.976348876953125,0.668914794921875,0.872528076171875,-0.4383688271045685,-0.9161170125007629,-0.30863428115844727
401,1.4735,1.3814,0,0,-0.84576416015625,1.516204833984375,-0.0443115234375,-0.42858943343162537,0.09018289297819138,0.09528843313455582
402,1.4404,1.3797,0,0,-0.81048583984375,1.9307708740234375,-0.2794952392578125,-0.09126359969377518,1.7323473691940308,1.3569660186767578
403,1.3856,1.3744,0,0,-1.02484130859375,1.8138427734375,-0.207061767578125,-0.7358828186988831,2.8279197216033936,1.2812923192977905
404,1.3148,1.3724,0,0,-0.26849365234375,1.2830810546875,0.09222412109375,0.22323468327522278,0.9248734712600708,-1.1017098426818848
405,1.2354,1.3815,0,0,0.1681060791015625,0.7019500732421875,-0.014404296875,0.018549183383584023,-1.5768150091171265,-0.8341081738471985
406,1.1554,1.4089,0,0,-0.028839111328125,0.4026031494140625,-0.36151123046875,-0.7489330768585205,0.05295322835445404,0.18889908492565155
407,1.0818,1.4596,0,0,-0.315460205078125,0.4705810546875,-0.375152587890625,-0.19510318338871002,-0.433026522397995,0.18499062955379486
408,1.0202,1.5348,0,0,-0.481201171875,0.697021484375,-0.2980194091796875,0.37530943751335144,-0.8244350552558899,-0.07864607870578766
409,0.9739,1.6309,0,0,-0.6147918701171875,0.8798828125,-0.22613525390625,0.6325585246086121,-0.09915481507778168,0.1416729837656021
410,0.9437,1.7398,0,0,-0.7494964599609375,0.9412384033203125,-0.14471435546875,0.6664459109306335,1.2263007164001465,0.14658571779727936
411,0.9284,1.8497,0,0,-0.7285308837890625,0.8292694091796875,-0.1015625,0.720868706703186,2.3803694248199463,-0.14116032421588898
412,0.9253,1.9469,0,0,-0.5859222412109375,0.69744873046875,-0.07470703125,1.3089649677276611,2.735260486602783,-0.24298815429210663
413,0.9309,2.0179,0,0,-0.45361328125,0.6377105712890625,0.0141143798828125,1.6534794569015503,2.3527228832244873,-0.10823406279087067
414,0.9414,2.0514,0,0,-0.3929290771484375,0.6079559326171875,0.454132080078125,2.0831964015960693,0.4339351952075958,0.27933576703071594
415,0.9532,2.0396,0,0,-0.5913543701171875,0.604217529296875,0.61083984375,1.2139066457748413,-1.3847670555114746,0.7542610168457031
416,0.9638,1.9789,0,0,-0.8833160400390625,0.5652618408203125,0.4656524658203125,-0.03753512352705002,0.11836738884449005,0.5002663135528564
417,0.9716,1.8702,0,0,-0.93939208984375,0.559967041015625,0.270477294921875,-0.4125063419342041,2.2296528816223145,0.13914909958839417
418,0.9765,1.7181,0,0,-0.8422088623046875,0.6243743896484375,0.0248870849609375,-0.6876177787780762,2.350381851196289,-0.05055105686187744
419,0.9795,1.5315,0,0,-0.7553863525390625,0.5467529296875,-0.06488037109375,-0.4501591622829437,1.4032573699951172,-0.07724365592002869
420,0.9825,1.3218,0,0,-0.6930694580078125,0.5612030029296875,-0.065582275390625,0.1873251497745514,0.8017513155937195,0.11939910054206848
421,0.9881,1.1031,0,0,-0.6708221435546875,0.6687164306640625,-0.02728271484375,0.49094656109809875,0.6426218152046204,0.1132863461971283
422,0.9988,0.8906,0,0,-0.586761474609375,0.78607177734375,0.0409393310546875,0.7310678362846375,0.7188361883163452,0.15068964660167694
423,1.0164,0.7003,0,0,-0.5771331787109375,0.7667999267578125,0.130462646484375,0.7996492385864258,0.5459256768226624,0.27512291073799133
424,1.0422,0.5478,0,0,-0.701904296875,0.6665802001953125,0.1572418212890625,0.505612313747406,0.4181716740131378,0.3627909719944
425,1.0758,0.447,0,0,-0.8604583740234375,0.64312744140625,0.122894287109375,0.29252535104751587,0.4055807888507843,0.4246618151664734
426,1.116,0.4095,0,0,-0.9262847900390625,0.6254119873046875,0.039764404296875,-0.04512247070670128,0.5781840085983276,0.20777903497219086
427,1.1601,0.443,0,0,-0.8900146484375,0.62310791015625,-0.026702880859375,-0.14773805439472198,0.4431430697441101,0.03906431049108505
428,1.2045,0.5503,0,0,-0.784088134765625,0.6669158935546875,-0.073150634765625,-0.0902920812368393,0.135368213057518,-0.09703519940376282
429,1.2449,0.7284,0,0,-0.8172454833984375,0.7213592529296875,-0.1475982666015625,-0.05332900211215019,0.10362999141216278,-0.23779365420341492
430,1.2772,0.968,0,0,-1.02044677734375,0.8123931884765625,-0.220977783203125,-0.0783936083316803,-0.04163958877325058,-0.3554619550704956
431,1.2976,1.254,0,0,-1.1742095947265625,0.9539031982421875,-0.21832275390625,-0.022875221446156502,-0.6127720475196838,-0.4667445421218872
432,1.3036,1.5665,0,0,-1.20404052734375,1.09002685546875,-0.1351470947265625,-0.0051870387978851795,-1.3185933828353882,-0.5364019274711609
433,1.2942,1.8826,0,0,-0.9850921630859375,1.090484619140625,-0.043182373046875,-0.3718651831150055,-2.197136640548706,-0.8532840013504028
434,1.27,2.1789,0,0,-0.7524566650390625,0.9910736083984375,0.0324859619140625,-1.1788709163665771,-2.136157751083374,-0.8552624583244324
435,1.2332,2.4337,0,0,-0.578277587890625,0.975494384765625,0.13470458984375,-2.179497241973877,-1.6711833477020264,-0.8525316715240479
436,1.1868,2.6293,0,0,-0.357452392578125,1.11053466796875,0.3261566162109375,-3.311269760131836,-1.4386076927185059,-0.6728535294532776
437,1.1346,2.7535,0,0,-0.15704345703125,1.1381378173828125,0.0926055908203125,-2.47591495513916,-1.0734901428222656,-0.4615758955478668
438,1.08,2.7999,0,0,-0.152923583984375,0.849884033203125,0.3023223876953125,-1.6677883863449097,0.0551772341132164,-0.16698072850704193
439,1.0259,2.7685,0,0,-0.2754974365234375,0.5307464599609375,0.1656646728515625,-2.3531150817871094,-1.0891250371932983,0.10085444152355194
440,0.9745,2.6649,0,0,-0.3539886474609375,0.5737457275390625,-0.06365966796875,-2.3199048042297363,-1.9742827415466309,0.29695257544517517
441,0.9267,2.4991,0,0,-0.563629150390625,0.7260894775390625,-0.1299591064453125,-1.3747732639312744,-1.799801230430603,0.5461267232894897
442,0.883,2.2851,0,0,-0.8447418212890625,0.760772705078125,0.099517822265625,-0.20054641366004944,-1.7598732709884644,0.40594643354415894
443,0.8437,2.0397,0,0,-0.8386993408203125,0.7257080078125,0.33941650390625,0.11223199963569641,-2.579030752182007,-0.05837782099843025
444,0.8092,1.7809,0,0,-0.7505950927734375,0.5613861083984375,0.438507080078125,0.012707805261015892,-2.7587451934814453,-0.1133451983332634
445,0.7807,1.5266,0,0,-0.6713409423828125,0.4163055419921875,0.4554290771484375,-0.035353198647499084,-1.7837117910385132,-0.22031985223293304
446,0.76,1.2935,0,0,-0.5189971923828125,0.3865814208984375,0.3209686279296875,-0.19835703074932098,-0.4623170495033264,-0.250308632850647
447,0.7495,1.0951,0,0,-0.4209747314453125,0.4661102294921875,0.1572265625,-0.0956927016377449,0.22973625361919403,-0.21813499927520752
448,0.7519,0.9407,0,0,-0.30810546875,0.568206787109375,0.10626220703125,0.23023533821105957,0.2503083646297455,-0.16289570927619934
449,0.7694,0.8346,0,0,-0.2510986328125,0.64300537109375,0.117645263671875,0.5518804788589478,0.14566239714622498,-0.07587159425020218
450,0.8032,0.7763,0,0,-0.239166259765625,0.694915771484375,0.20294189453125,0.7799890041351318,0.200616717338562,-0.021344169974327087
451,0.8536,0.7612,0,0,-0.2699737548828125,0.663299560546875,0.3170166015625,0.96512770652771,0.2472558617591858,0.07823781669139862
452,0.9192,0.7821,0,0,-0.3892822265625,0.6087646484375,0.4674224853515625,1.152733564376831,0.12463007867336273,0.17119944095611572
453,0.9971,0.8304,0,0,-0.498779296875,0.6099853515625,0.582855224609375,1.1765334606170654,0.12659229338169098,0.204107865691185
454,1.0831,0.8979,0,0,-0.580108642578125,0.598541259765625,0.6983795166015625,1.200191617012024,0.36732742190361023,0.20628605782985687
455,1.1717,0.9776,0,0,-0.6963043212890625,0.582061767578125,0.824737548828125,1.3290939331054688,0.78087317943573,0.2023930549621582
456,1.2568,1.0636,0,0,-0.84619140625,0.66802978515625,0.850799560546875,1.0590087175369263,0.607602596282959,0.13132180273532867
457,1.3324,1.1518,0,0,-0.918060302734375,0.69146728515625,0.6674346923828125,0.409485787153244,0.3441712260246277,-0.01007899921387434
458,1.3926,1.2387,0,0,-0.9007415771484375,0.5574798583984375,0.485687255859375,0.22216755151748657,0.6907978653907776,-0.17364156246185303
459,1.4325,1.321,0,0,-0.9120330810546875,0.4239654541015625,0.6988983154296875,0.6433398127555847,0.9171045422554016,-0.4158470034599304
460,1.449,1.3955,0,0,-0.90478515625,0.434295654296875,0.9400787353515625,0.4093872308731079,-0.12761548161506653,-0.5061734318733215
461,1.4406,1.4588,0,0,-0.891693115234375,1.054290771484375,0.631500244140625,-0.12477069348096848,-0.3373551368713379,-0.19026900827884674
462,1.4086,1.5083,0,0,-0.7933502197265625,1.7291259765625,-0.1303863525390625,0.21232451498508453,1.387273907661438,0.6013409495353699
463,1.3566,1.5429,0,0,-0.940948486328125,1.8814697265625,-0.144622802734375,-0.3609480857849121,2.8187735080718994,1.7257051467895508
464,1.2904,1.5641,0,0,-0.7311859130859375,1.3974761962890625,-0.048309326171875,-0.514129102230072,2.624011754989624,-0.13530083000659943
465,1.2171,1.5764,0,0,0.0789947509765625,0.8726654052734375,0.2759552001953125,0.6013393998146057,-2.603682279586792,-1.1334182024002075
466,1.1444,1.5866,0,0,0.068328857421875,0.4425811767578125,-0.1341094970703125,-0.691134512424469,-0.8145677447319031,-0.12794171273708344
467,1.0789,1.6026,0,0,-0.11474609375,0.2750244140625,-0.36334228515625,-0.7592869400978088,-0.2561124861240387,0.2072085738182068
468,1.0257,1.6316,0,0,-0.3252410888671875,0.451995849609375,-0.457489013671875,0.07108616083860397,-0.6357769966125488,-0.07681754976511002
469,0.987,1.6775,0,0,-0.560699462890625,0.8070220947265625,-0.3005218505859375,0.7268877029418945,-0.7266511917114258,-0.11307169497013092
470,0.9632,1.74,0,0,-0.786407470703125,1.0410308837890625,-0.2307891845703125,1.0070152282714844,-0.22087246179580688,0.30843454599380493
471,0.9524,1.814,0,0,-0.9173736572265625,1.0211334228515625,-0.137725830078125,1.0580039024353027,0.8215212821960449,0.05025811120867729
472,0.9516,1.8904,0,0,-0.7225494384765625,0.7863311767578125,-0.0750732421875,1.0795941352844238,1.6254531145095825,-0.4707683026790619
473,0.9569,1.9574,0,0,-0.53802490234375,0.629486083984375,-0.077301025390625,1.5653547048568726,2.403589963912964,-0.4934115707874298
474,0.965,2.0031,0,0,-0.466461181640625,0.657501220703125,0.01873779296875,1.902363896369934,2.478502035140991,-0.23063161969184875
475,0.9726,2.0173,0,0,-0.4624786376953125,0.6933135986328125,0.474945068359375,2.335278034210205,0.5976682305335999,0.10677491873502731
476,0.9775,1.9929,0,0,-0.5631256103515625,0.6933746337890625,0.6133880615234375,1.4028658866882324,-1.6265000104904175,0.4619753658771515
477,0.9785,1.9269,0,0,-0.7308197021484375,0.6181640625,0.40008544921875,0.025903236120939255,-0.3507276475429535,0.228859543800354
478,0.9754,1.8207,0,0,-0.778839111328125,0.572906494140625,0.2033843994140625,-0.5034591555595398,1.9701285362243652,-0.0300870630890131
479,0.9693,1.6794,0,0,-0.805999755859375,0.61083984375,0.0119476318359375,-0.6447321176528931,2.3659565448760986,-0.09987173229455948
480,0.9619,1.5117,0,0,-0.748809814453125,0.5883026123046875,-0.0616912841796875,-0.37132027745246887,1.3774611949920654,-0.01149766519665718
481,0.9558,1.3284,0,0,-0.710540771484375,0.585205078125,-0.08770751953125,0.17167988419532776,0.5996091365814209,0.12991271913051605
482,0.9538,1.1423,0,0,-0.6720733642578125,0.6273040771484375,-0.057952880859375,0.5587711334228516,0.5195611715316772,0.12971165776252747
483,0.9583,0.9669,0,0,-0.6195068359375,0.68829345703125,-0.0067291259765625,0.8046118021011353,0.7329311966896057,0.14881184697151184
484,0.9716,0.8156,0,0,-0.5791015625,0.7651824951171875,0.071380615234375,0.988059937953949,0.7285119891166687,0.2296861857175827
485,0.995,0.7012,0,0,-0.5707244873046875,0.7928009033203125,0.1411590576171875,0.8508210778236389,0.5583348870277405,0.34993642568588257
486,1.0287,0.635,0,0,-0.67852783203125,0.7646636962890625,0.1800079345703125,0.5045412182807922,0.4691248834133148,0.4919534921646118
487,1.0719,0.6259,0,0,-0.8372650146484375,0.71588134765625,0.15032958984375,0.12495151907205582,0.5959371328353882,0.45349106192588806
488,1.1224,0.6793,0,0,-0.9405517578125,0.6570587158203125,0.0690765380859375,-0.2088131308555603,0.6127797961235046,0.25546690821647644
489,1.1769,0.7964,0,0,-0.917877197265625,0.6159210205078125,-0.0069427490234375,-0.3257077932357788,0.3139089345932007,0.023625968024134636
490,1.2311,0.9729,0,0,-0.8204193115234375,0.6524658203125,-0.0131988525390625,-0.24551628530025482,0.18276529014110565,-0.21160465478897095
491,1.2801,1.1992,0,0,-0.8446807861328125,0.7356414794921875,-0.0670013427734375,-0.41275668144226074,0.3168799579143524,-0.39632683992385864
492,1.3188,1.4607,0,0,-0.98455810546875,0.8605499267578125,-0.12908935546875,-0.7843440771102905,-0.09140048921108246,-0.568159818649292
493,1.3423,1.7386,0,0,-1.054779052734375,1.0619659423828125,-0.1279296875,-0.953325092792511,-1.0146726369857788,-0.6497932076454163
494,1.347,2.0126,0,0,-0.9996185302734375,1.1156768798828125,-0.083526611328125,-1.1500123739242554,-1.9935818910598755,-0.8025417327880859
495,1.3307,2.2623,0,0,-0.8289337158203125,1.010772705078125,-0.0488128662109375,-1.509210228919983,-2.264294147491455,-0.9614919424057007
496,1.2933,2.4704,0,0,-0.705047607421875,1.0154266357421875,0.0592041015625,-2.0852510929107666,-1.6891809701919556,-0.9276791214942932
497,1.2366,2.6238,0,0,-0.6667633056640625,1.200927734375,0.2746429443359375,-3.094599723815918,-1.1286662817001343,-0.7459753751754761
498,1.1647,2.7153,0,0,-0.6103515625,1.460540771484375,0.3702392578125,-4.010368347167969,-1.3709473609924316,-0.29205024242401123
499,1.0833,2.7433,0,0,-0.4939422607421875,1.21917724609375,0.2444000244140625,-1.656121850013733,-0.3546409010887146,-0.3995804190635681
500,0.9991,2.7108,0,0,-0.3818206787109375,0.66302490234375,0.253753662109375,-1.6414999961853027,-0.23957131803035736,-0.3994150459766388
501,0.9187,2.6247,0,0,-0.2574615478515625,0.34039306640625,0.0207061767578125,-1.9023910760879517,-0.7645746469497681,-0.2631075382232666
502,0.8479,2.4936,0,0,-0.2880859375,0.3204345703125,-0.113494873046875,-1.4377461671829224,-1.2463042736053467,0.0211284551769495
503,0.7912,2.3272,0,0,-0.46929931640625,0.389739990234375,-0.0525054931640625,-0.5894771218299866,-1.742175817489624,0.12603409588336945
504,0.7508,2.1355,0,0,-0.5819549560546875,0.4734649658203125,0.119476318359375,-0.10286007076501846,-2.631269931793213,0.0453224740922451
505,0.7274,1.9286,0,0,-0.59423828125,0.5474395751953125,0.170440673828125,-0.04779655113816261,-3.087447166442871,0.0354464091360569
506,0.7199,1.7171,0,0,-0.6692962646484375,0.56304931640625,0.282989501953125,0.04742584004998207,-2.5195119380950928,-0.010596184991300106
507,0.7263,1.5114,0,0,-0.6548004150390625,0.5761871337890625,0.379241943359375,0.18531526625156403,-1.520583152770996,-0.17889997363090515
508,0.7444,1.3218,0,0,-0.5461273193359375,0.576995849609375,0.3072509765625,0.25147804617881775,-0.4764120876789093,-0.26651424169540405
509,0.7718,1.1575,0,0,-0.4229736328125,0.6438140869140625,0.21978759765625,0.37905117869377136,0.13149917125701904,-0.2694714069366455
510,0.8068,1.0256,0,0,-0.3154296875,0.6904296875,0.197601318359375,0.5413293242454529,0.4459039866924286,-0.17265139520168304
511,0.848,0.9309,0,0,-0.2610321044921875,0.715240478515625,0.2488861083984375,0.6962424516677856,0.7414839863777161,-0.11777510493993759
512,0.8945,0.8752,0,0,-0.2602386474609375,0.6944122314453125,0.34954833984375,0.9050790071487427,0.8384227752685547,-0.06064577028155327
513,0.9455,0.8575,0,0,-0.4304656982421875,0.5649871826171875,0.523681640625,1.0797621011734009,0.6678802967071533,0.08433698117733002
514,1.0004,0.8742,0,0,-0.6329803466796875,0.48699951171875,0.699951171875,0.9131361246109009,0.24723802506923676,0.09340877830982208
515,1.0583,0.9197,0,0,-0.7854156494140625,0.4763031005859375,0.7408447265625,0.5279783606529236,0.15009602904319763,0.06451427936553955
516,1.1177,0.9867,0,0,-0.8557891845703125,0.496307373046875,0.6754608154296875,0.2733907997608185,0.5756787657737732,-0.02634958177804947
517,1.1769,1.0664,0,0,-0.741912841796875,0.5023345947265625,0.59527587890625,0.5392887592315674,0.927609920501709,-0.12172270566225052
518,1.2331,1.15,0,0,-0.678558349609375,0.542877197265625,0.59747314453125,1.0002402067184448,0.6695288419723511,-0.08935064822435379
519,1.2831,1.2286,0,0,-0.6774749755859375,0.5897674560546875,0.5995330810546875,1.3567253351211548,0.3186592161655426,-0.046004511415958405
520,1.3233,1.2946,0,0,-0.7041778564453125,0.590362548828125,0.6396636962890625,1.4837565422058105,0.07086405158042908,-0.004157727118581533
521,1.3502,1.3425,0,0,-0.740875244140625,0.59185791015625,0.6901092529296875,1.3426659107208252,0.020805679261684418,-0.055635832250118256
522,1.3606,1.3691,0,0,-0.8420867919921875,0.8343505859375,0.5286407470703125,0.6414215564727783,-0.2995246648788452,-0.04000174626708031
523,1.3531,1.3745,0,0,-0.865753173828125,1.5504150390625,0.1330413818359375,0.5372743606567383,0.7367871999740601,0.2734978497028351
524,1.3278,1.3622,0,0,-0.8452911376953125,2.0228424072265625,0.1461181640625,0.5673526525497437,2.317777633666992,1.4218991994857788
525,1.2871,1.3387,0,0,-0.8533935546875,1.7093505859375,0.386474609375,-0.1736580729484558,1.1511551141738892,0.9246844053268433
526,1.2354,1.3133,0,0,-0.1944427490234375,0.8719329833984375,0.3101348876953125,-0.7529504895210266,-1.106500506401062,-0.8876784443855286
527,1.1779,1.2967,0,0,0.0313568115234375,0.41949462890625,-0.0962677001953125,-1.404444932937622,-0.8343909978866577,-0.49842071533203125
528,1.1206,1.2995,0,0,-0.1302032470703125,0.3577728271484375,-0.403533935546875,-1.3534495830535889,0.2466460019350052,0.294011652469635
529,1.0683,1.3302,0,0,-0.3927459716796875,0.5363922119140625,-0.4996490478515625,-0.4528966248035431,-0.10724949091672897,0.47027668356895447
530,1.0247,1.3932,0,0,-0.6899871826171875,0.7911376953125,-0.334564208984375,0.31688153743743896,-0.056183379143476486,0.40777602791786194
531,0.9915,1.4875,0,0,-0.857818603515625,0.9280242919921875,-0.246826171875,0.6964874863624573,0.07216367870569229,0.2825011909008026
532,0.9692,1.6064,0,0,-0.8740081787109375,0.8679656982421875,-0.157806396484375,0.7834324836730957,0.55611652135849,-0.08059630542993546
533,0.9566,1.7378,0,0,-0.67816162109375,0.730224609375,-0.0692596435546875,0.563075065612793,1.4099360704421997,-0.38343608379364014
534,0.9517,1.8662,0,0,-0.559356689453125,0.5876007080078125,-0.0684814453125,0.5002117156982422,1.8191627264022827,-0.4135705530643463
535,0.9522,1.9747,0,0,-0.5100860595703125,0.6027374267578125,-0.1107635498046875,1.4859932661056519,2.9028749465942383,-0.2750270366668701
536,0.9556,2.0481,0,0,-0.52142333984375,0.736419677734375,0.245208740234375,2.309366464614868,2.7169110774993896,-0.08903320133686066
537,0.9596,2.0747,0,0,-0.469146728515625,0.7391357421875,0.7289276123046875,2.1252999305725098,-0.3954967260360718,0.2558213770389557
538,0.9627,2.0478,0,0,-0.62603759765625,0.6508636474609375,0.510589599609375,0.2613368034362793,-1.1521040201187134,0.4226119816303253
539,0.9639,1.9665,0,0,-0.809783935546875,0.56494140625,0.278472900390625,-0.7923412919044495,0.7942339777946472,0.13739541172981262
540,0.9632,1.8353,0,0,-0.851806640625,0.5669097900390625,0.0628204345703125,-0.765034556388855,2.2500336170196533,-0.08271964639425278
541,0.9614,1.663,0,0,-0.7855377197265625,0.5438385009765625,-0.0258331298828125,-0.6116335391998291,2.065793752670288,-0.1543741226196289
542,0.9599,1.462,0,0,-0.6950836181640625,0.50506591796875,-0.031707763671875,-0.17283302545547485,1.3085514307022095,-0.03840650990605354
543,0.9602,1.2472,0,0,-0.64227294921875,0.5768280029296875,-0.0313873291015625,0.26801440119743347,0.6097109913825989,0.06908240169286728
544,0.9642,1.0341,0,0,-0.600128173828125,0.681732177734375,-0.0253448486328125,0.43581777811050415,0.32307180762290955,0.08249327540397644
545,0.9733,0.8385,0,0,-0.5649566650390625,0.7896728515625,0.000732421875,0.6909286379814148,0.47009533643722534,0.15387611091136932
546,0.9887,0.6747,0,0,-0.5802001953125,0.8291473388671875,0.05328369140625,0.753820538520813,0.6900284886360168,0.29343053698539734
547,1.0109,0.5552,0,0,-0.7193603515625,0.755859375,0.0724334716796875,0.5774292349815369,0.6588958501815796,0.39356353878974915
548,1.0397,0.4902,0,0,-0.887176513671875,0.6784820556640625,0.0740814208984375,0.372836172580719,0.4216388463973999,0.4495655596256256
549,1.0745,0.4866,0,0,-0.9559478759765625,0.65899658203125,0.06292724609375,0.1937769204378128,0.32817867398262024,0.26480236649513245
550,1.114,0.5474,0,0,-0.87957763671875,0.677978515625,0.0375518798828125,0.011093930341303349,0.49369335174560547,0.03630394488573074
551,1.156,0.6716,0,0,-0.7406158447265625,0.7116546630859375,0.0400238037109375,-0.009863283485174179,0.5410693883895874,-0.11738122254610062
552,1.1979,0.8533,0,0,-0.6639556884765625,0.7251434326171875,0.0813446044921875,-0.0703229010105133,0.395065575838089,-0.13247787952423096
553,1.2366,1.0822,0,0,-0.841156005859375,0.7161712646484375,-0.004119873046875,-0.472849041223526,0.10538528114557266,-0.19306986033916473
554,1.2688,1.3438,0,0,-1.119598388671875,0.771697998046875,-0.115264892578125,-0.7473003268241882,-0.4064747989177704,-0.3547125458717346
555,1.2911,1.6209,0,0,-1.2461090087890625,0.8324127197265625,-0.09228515625,-0.7515312433242798,-1.1175228357315063,-0.5754609107971191
556,1.3011,1.895,0,0,-1.1261749267578125,0.8731689453125,-0.064910888671875,-0.7711654305458069,-2.240037679672241,-0.9261499643325806
557,1.2967,2.1486,0,0,-0.8618316650390625,0.833587646484375,-0.06756591796875,-0.904525101184845,-2.420304775238037,-1.1795910596847534
558,1.2773,2.3664,0,0,-0.692474365234375,0.873321533203125,0.0092926025390625,-1.3627219200134277,-1.6358498334884644,-1.0620635747909546
559,1.2434,2.5372,0,0,-0.6381988525390625,1.0973052978515625,0.202606201171875,-2.4321229457855225,-0.6844989657402039,-0.6503130197525024
560,1.1968,2.6544,0,0,-0.6266632080078125,1.38232421875,0.485809326171875,-3.9164838790893555,-0.8632979989051819,-0.16983750462532043
561,1.1402,2.7157,0,0,-0.477325439453125,1.38885498046875,0.08770751953125,-2.8639285564422607,-1.7726948261260986,-0.27982738614082336
562,1.0771,2.7226,0,0,-0.2812042236328125,0.812744140625,0.1305999755859375,-1.0015478134155273,0.00923424493521452,-0.4343719482421875
563,1.0113,2.679,0,0,-0.301177978515625,0.4338836669921875,0.085784912109375,-1.1542373895645142,-0.40497490763664246,-0.16758260130882263
564,0.9464,2.59,0,0,-0.39410400390625,0.4928741455078125,-0.044036865234375,-1.087152123451233,-1.529627799987793,0.15664073824882507
565,0.8855,2.4615,0,0,-0.5643157958984375,0.5948944091796875,-0.09368896484375,-0.5867319107055664,-2.3090829849243164,0.30322831869125366
566,0.8311,2.2999,0,0,-0.7138824462890625,0.6090850830078125,0.0618133544921875,0.08847207576036453,-2.9723846912384033,0.15954545140266418
567,0.7852,2.1128,0,0,-0.71612548828125,0.578521728515625,0.261993408203125,0.628665030002594,-3.2773475646972656,0.008314388804137707
568,0.7493,1.9092,0,0,-0.700958251953125,0.5287322998046875,0.4379119873046875,0.7192401885986328,-2.980750322341919,-0.17086201906204224
569,0.7251,1.6995,0,0,-0.5718536376953125,0.4891357421875,0.4040374755859375,0.36399045586586,-1.9803845882415771,-0.2693481147289276
570,0.7142,1.4955,0,0,-0.42559814453125,0.499847412109375,0.288421630859375,0.1737680584192276,-0.5790396332740784,-0.28438085317611694
571,0.718,1.3085,0,0,-0.2799224853515625,0.5867462158203125,0.2223052978515625,0.2350362092256546,0.2066730111837387,-0.26631051301956177
572,0.738,1.1485,0,0,-0.1916046142578125,0.650848388671875,0.2124786376953125,0.3834930658340454,0.4350918233394623,-0.0878978967666626
573,0.7749,1.0227,0,0,-0.206756591796875,0.675262451171875,0.2354278564453125,0.4826265573501587,0.6230281591415405,-0.08819030970335007
574,0.8286,0.9347,0,0,-0.2083892822265625,0.662628173828125,0.2986602783203125,0.6113826632499695,0.833929717540741,-0.011968245729804039
575,0.898,0.8849,0,0,-0.3797607421875,0.6070556640625,0.4288482666015625,0.7702423930168152,0.7566589117050171,0.2508588433265686
576,0.9803,0.8705,0,0,-0.575439453125,0.5904693603515625,0.5220947265625,0.8481917381286621,0.7266027331352234,0.29983440041542053
577,1.0714,0.8866,0,0,-0.690277099609375,0.5893707275390625,0.5904998779296875,0.7248439788818359,0.8404728770256042,0.28327858448028564
578,1.1661,0.9267,0,0,-0.7227783203125,0.5495758056640625,0.6558380126953125,0.6876345872879028,0.9513253569602966,0.2588326334953308
579,1.2579,0.9836,0,0,-0.7653350830078125,0.5459136962890625,0.7745819091796875,0.9542785286903381,0.7387984395027161,0.15207688510417938
580,1.3399,1.0498,0,0,-0.8460845947265625,0.60516357421875,0.734405517578125,0.7853182554244995,0.12499040365219116,0.022578811272978783
581,1.4052,1.1183,0,0,-0.8472900390625,0.5724945068359375,0.5706787109375,0.4265364110469818,0.28145831823349,-0.12663304805755615
582,1.448,1.1824,0,0,-0.859222412109375,0.51263427734375,0.613067626953125,0.6792402863502502,0.8072293996810913,-0.23204629123210907
583,1.4642,1.2366,0,0,-0.9918212890625,0.60546875,0.9151611328125,0.7443056106567383,0.037216611206531525,-0.25748932361602783
584,1.452,1.2772,0,0,-1.1443939208984375,1.084197998046875,0.843963623046875,0.2332385778427124,-0.46674320101737976,-0.13747556507587433
585,1.4129,1.303,0,0,-0.8656158447265625,1.870361328125,0.3468017578125,0.01564207673072815,0.986638069152832,0.7740496397018433
586,1.3515,1.3161,0,0,-0.9956207275390625,1.964691162109375,-0.1121826171875,-0.2888627052307129,3.152979850769043,1.834601879119873
587,1.2752,1.3223,0,0,-0.7609100341796875,1.2898101806640625,-0.0068817138671875,-0.4640369117259979,2.4986441135406494,-0.3019515872001648
588,1.1934,1.3303,0,0,0.01904296875,0.63775634765625,0.0097503662109375,-0.37324467301368713,-0.558962881565094,-1.3780958652496338
589,1.1154,1.3504,0,0,0.2276763916015625,0.3087005615234375,-0.2614288330078125,-0.6760058999061584,-0.30817168951034546,-0.4356910288333893
590,1.0493,1.3925,0,0,0.0759735107421875,0.1560516357421875,-0.33258056640625,-0.5199601054191589,0.18159429728984833,0.3715631663799286
591,1.0007,1.463,0,0,-0.2194366455078125,0.3466033935546875,-0.3546142578125,-0.05982951074838638,-0.13926947116851807,0.2196607142686844
592,0.9717,1.563,0,0,-0.4414825439453125,0.803802490234375,-0.2492523193359375,0.2569439113140106,-0.657808780670166,0.13021498918533325
593,0.9615,1.6874,0,0,-0.609130859375,1.25665283203125,-0.156097412109375,-0.1615806370973587,0.18733073770999908,0.657509982585907
594,0.9662,1.825,0,0,-0.83392333984375,1.1874847412109375,-0.1812591552734375,-0.529667317867279,1.6179438829421997,0.4507211148738861
595,0.9807,1.9604,0,0,-0.682464599609375,0.768646240234375,-0.2866058349609375,1.193086862564087,2.403653860092163,-0.10399830341339111
596,0.9989,2.0762,0,0,-0.611328125,0.7646942138671875,-0.0360870361328125,2.5171878337860107,2.1950623989105225,-0.14444932341575623
597,1.0154,2.1564,0,0,-0.547454833984375,0.710479736328125,0.02850341796875,2.1098337173461914,1.0351656675338745,0.11480621248483658
598,1.0256,2.1886,0,0,-0.6720733642578125,0.537078857421875,0.1539459228515625,2.1756467819213867,-0.5011858940124512,0.5653733611106873
599,1.0267,2.166,0,0,-0.8223114013671875,0.5585479736328125,0.45587158203125,2.644171714782715,-2.2015810012817383,0.6700199246406555
600,1.0179,2.0879,0,0,-0.912933349609375,0.5594940185546875,0.6001434326171875,1.4254779815673828,-1.0719276666641235,0.41338998079299927
601,1.0004,1.9594,0,0,-0.89971923828125,0.5376434326171875,0.5450439453125,0.06329827755689621,1.1372805833816528,-0.10516875982284546
602,0.9772,1.7905,0,0,-0.818450927734375,0.6152801513671875,0.2747344970703125,-0.7138395309448242,1.4220733642578125,-0.35105523467063904
603,0.9528,1.5943,0,0,-0.690948486328125,0.660430908203125,0.0583343505859375,-0.9513248205184937,0.9861709475517273,-0.3669090270996094
604,0.9323,1.3852,0,0,-0.5766448974609375,0.657012939453125,-0.0604248046875,-0.4912424385547638,0.8773155808448792,-0.23077435791492462
605,0.921,1.1777,0,0,-0.53643798828125,0.6245880126953125,-0.06610107421875,0.0392984040081501,0.9349064230918884,-0.13978879153728485
606,0.9231,0.9853,0,0,-0.4983673095703125,0.6015777587890625,-0.040069580078125,0.35054337978363037,0.7865585088729858,-0.09869302064180374
607,0.9412,0.8198,0,0,-0.48138427734375,0.6186370849609375,-0.014892578125,0.5415309071540833,0.6425954699516296,-0.01792680285871029
608,0.9758,0.6914,0,0,-0.49530029296875,0.673065185546875,-0.00177001953125,0.6285912394523621,0.5562065243721008,0.1730402261018753
609,1.0253,0.6084,0,0,-0.6318206787109375,0.7055816650390625,-0.0102996826171875,0.6468636989593506,0.5011541843414307,0.4091174602508545
610,1.0859,0.5771,0,0,-0.8149566650390625,0.7457122802734375,0.0028076171875,0.7641386985778809,0.3904750645160675,0.5419207811355591
611,1.1521,0.6022,0,0,-0.9606170654296875,0.79583740234375,0.0589141845703125,0.8611600399017334,0.3945169448852539,0.4841722846031189
612,1.2177,0.6858,0,0,-0.9868621826171875,0.8062286376953125,0.1680908203125,0.6579395532608032,0.4636310338973999,0.18341749906539917
613,1.2762,0.8272,0,0,-0.9263153076171875,0.7167816162109375,0.1769866943359375,-0.01926530711352825,0.40233492851257324,-0.21025203168392181
614,1.3217,1.0217,0,0,-1.0160369873046875,0.73565673828125,-0.058746337890625,-0.6275893449783325,0.22140216827392578,-0.4234417974948883
615,1.3501,1.2605,0,0,-1.17431640625,0.8949432373046875,-0.2133026123046875,-0.6577991843223572,-0.22036033868789673,-0.5245314240455627
616,1.3588,1.5299,0,0,-1.228668212890625,1.030029296875,-0.26348876953125,-0.5256003737449646,-0.6291126608848572,-0.4524417817592621
617,1.3477,1.8122,0,0,-1.27166748046875,1.0778961181640625,-0.25787353515625,-0.30594339966773987,-1.0096125602722168,-0.520851731300354
618,1.3187,2.0868,0,0,-0.998321533203125,1.00518798828125,-0.1248321533203125,-0.2661541998386383,-1.4665977954864502,-0.9646973609924316
619,1.2757,2.332,0,0,-0.6873321533203125,0.9179229736328125,0.145355224609375,-0.8879793882369995,-2.28635835647583,-1.07720148563385
620,1.2233,2.5276,0,0,-0.4352569580078125,0.9197998046875,0.21685791015625,-2.0700063705444336,-2.5351319313049316,-1.0754835605621338
621,1.1666,2.6573,0,0,-0.152435302734375,1.000396728515625,0.3354644775390625,-3.4272472858428955,-2.0323450565338135,-0.8482133150100708
622,1.1099,2.7104,0,0,0.0976409912109375,0.961517333984375,0.0543975830078125,-2.314300298690796,-0.6098809242248535,-0.7767764329910278
623,1.0565,2.683,0,0,0.0127716064453125,0.7315216064453125,0.295196533203125,-1.792304515838623,-0.027782628312706947,-0.13433091342449188
624,1.0079,2.5783,0,0,-0.3224945068359375,0.5364990234375,0.0970458984375,-2.1423823833465576,-1.5876083374023438,0.3511148691177368
625,0.9643,2.4062,0,0,-0.5230865478515625,0.746185302734375,-0.016998291015625,-1.9346027374267578,-1.8935178518295288,0.3710190951824188
626,0.925,2.1816,0,0,-0.71539306640625,0.9342193603515625,0.0389251708984375,-1.3761032819747925,-1.5589268207550049,0.5638513565063477
627,0.8886,1.9235,0,0,-0.8987274169921875,0.8724822998046875,0.1530303955078125,-0.4983687698841095,-1.5119132995605469,0.3933928310871124
628,0.8544,1.6528,0,0,-0.7771759033203125,0.6964569091796875,0.3330078125,-0.04027258977293968,-1.6193987131118774,-0.15306970477104187
629,0.8226,1.3908,0,0,-0.65283203125,0.531097412109375,0.398712158203125,0.053579073399305344,-1.6834384202957153,-0.18625828623771667
630,0.7942,1.1568,0,0,-0.586578369140625,0.4381103515625,0.3963470458984375,0.03466423600912094,-1.4083863496780396,-0.13127893209457397
631,0.7719,0.967,0,0,-0.53790283203125,0.4269256591796875,0.305267333984375,-0.01525938045233488,-0.6171031594276428,-0.14417022466659546
632,0.7588,0.8325,0,0,-0.459075927734375,0.4703521728515625,0.166900634765625,-0.018153702840209007,0.079164057970047,-0.11612660437822342
633,0.7582,0.759,0,0,-0.40631103515625,0.51361083984375,0.09124755859375,0.12618349492549896,0.539011538028717,-0.07974516600370407
634,0.7732,0.7462,0,0,-0.33050537109375,0.5947418212890625,0.09832763671875,0.29471099376678467,0.6462956666946411,-0.049560628831386566
635,0.8056,0.7879,0,0,-0.28167724609375,0.665008544921875,0.14227294921875,0.46033936738967896,0.5607786178588867,0.04538638889789581
636,0.8559,0.8735,0,0,-0.283660888671875,0.6923828125,0.238311767578125,0.7895212769508362,0.36524349451065063,0.10875710844993591
637,0.9226,0.9893,0,0,-0.311126708984375,0.647857666015625,0.4124755859375,1.1829540729522705,-0.1667809933423996,0.2479754537343979
638,1.0026,1.1199,0,0,-0.4163665771484375,0.5991058349609375,0.6130218505859375,1.459073543548584,-0.5183912515640259,0.39672523736953735
639,1.091,1.2503,0,0,-0.5914764404296875,0.54461669921875,0.865936279296875,1.3569146394729614,-0.27615222334861755,0.4890309274196625
640,1.1821,1.3669,0,0,-0.8068389892578125,0.4924774169921875,0.9280242919921875,0.6662158370018005,0.5055356025695801,0.45697712898254395
641,1.2689,1.4593,0,0,-0.967193603515625,0.51580810546875,0.737701416015625,0.15766392648220062,1.562488079071045,0.25775617361068726
642,1.3449,1.5201,0,0,-1.0403900146484375,0.5994873046875,0.4505462646484375,0.20749913156032562,1.8327752351760864,0.00806165486574173
643,1.4038,1.5463,0,0,-1.0297088623046875,0.54327392578125,0.33038330078125,0.5451986193656921,1.355455756187439,-0.1873943954706192
644,1.4405,1.5383,0,0,-0.99169921875,0.4038543701171875,0.53070068359375,1.0930286645889282,0.4700247645378113,-0.2620452046394348
645,1.4516,1.5005,0,0,-1.0424346923828125,0.64971923828125,0.517486572265625,1.0257668495178223,-0.8330125212669373,-0.19574074447155
646,1.436,1.4404,0,0,-0.9842376708984375,1.345184326171875,0.311187744140625,1.05125892162323,-0.6039668321609497,0.03561178967356682
647,1.3953,1.368,0,0,-0.88787841796875,1.8570556640625,0.16729736328125,1.1935217380523682,1.0380115509033203,1.0564496517181396
648,1.3336,1.2949,0,0,-0.98431396484375,1.6622314453125,0.2512664794921875,-0.13195642828941345,1.2306747436523438,0.9482043981552124
649,1.2572,1.2336,0,0,-0.338836669921875,1.184539794921875,0.2354278564453125,-0.8468996286392212,-0.9594511985778809,-1.1140029430389404
650,1.174,1.1957,0,0,0.1801300048828125,0.7126922607421875,-0.0440826416015625,-0.33589544892311096,-1.2696537971496582,-0.8006154298782349
651,1.0923,1.191,0,0,-0.0417327880859375,0.4573822021484375,-0.2418060302734375,-0.4315812289714813,0.6343034505844116,0.3944455683231354
652,1.0194,1.2256,0,0,-0.3877410888671875,0.4596405029296875,-0.3042755126953125,-0.27157264947891235,0.6819798946380615,0.23373499512672424
653,0.9608,1.3006,0,0,-0.411224365234375,0.6329193115234375,-0.3122406005859375,0.09223511815071106,0.060321129858493805,-0.2891748249530792
654,0.9199,1.4121,0,0,-0.4711151123046875,0.912689208984375,-0.2158203125,-0.16856105625629425,0.24504943192005157,-0.06722670793533325
655,0.8973,1.5505,0,0,-0.5889129638671875,0.985015869140625,-0.1877899169921875,-0.9447917938232422,1.7522084712982178,-0.010700048878788948
656,0.8917,1.7026,0,0,-0.5778656005859375,0.8535308837890625,-0.1468353271484375,-0.9988790154457092,2.171659231185913,-0.42969757318496704
657,0.9001,1.8526,0,0,-0.4308624267578125,0.627716064453125,-0.273651123046875,0.15689001977443695,1.9891546964645386,-0.17850956320762634
658,0.9181,1.9847,0,0,-0.571807861328125,0.7134857177734375,-0.0798187255859375,2.103947162628174,1.8356986045837402,0.20704133808612823
659,0.9414,2.0846,0,0,-0.539031982421875,0.7964324951171875,0.0182342529296875,1.9334129095077515,0.6846305131912231,0.3594668209552765
660,0.9654,2.1415,0,0,-0.55157470703125,0.713836669921875,0.013671875,1.521832823753357,-0.3146308958530426,0.5485187768936157
661,0.9862,2.1485,0,0,-0.616485595703125,0.646087646484375,0.1934967041015625,2.5043327808380127,-1.0298521518707275,0.5855993032455444
662,1.0012,2.1031,0,0,-0.7368927001953125,0.63958740234375,0.5142974853515625,2.2108449935913086,-0.41087329387664795,0.5729660391807556
663,1.0089,2.0075,0,0,-0.892303466796875,0.5062103271484375,0.6765899658203125,0.705854058265686,0.7558514475822449,0.24347470700740814
664,1.0095,1.8674,0,0,-0.878265380859375,0.52081298828125,0.4598388671875,-0.6085823774337769,1.465795636177063,-0.00771624268963933
665,1.0045,1.6919,0,0,-0.795989990234375,0.6300048828125,0.18402099609375,-1.13585364818573,1.757350206375122,-0.18406064808368683
666,0.9965,1.4928,0,0,-0.6323394775390625,0.7381744384765625,0.0425872802734375,-0.9454101920127869,1.6218637228012085,-0.28809675574302673
667,0.9889,1.2832,0,0,-0.5064697265625,0.780303955078125,-0.025238037109375,-0.6198848485946655,1.2820159196853638,-0.18878643214702606
668,0.985,1.0775,0,0,-0.446258544921875,0.71746826171875,-0.0530242919921875,-0.32679277658462524,0.7049627304077148,0.009703493677079678
669,0.9878,0.8897,0,0,-0.5404205322265625,0.62994384765625,-0.053497314453125,-0.03671780228614807,0.3663649559020996,0.22971868515014648
670,0.9993,0.733,0,0,-0.689361572265625,0.6136474609375,-0.0689239501953125,0.18560607731342316,0.5079535245895386,0.38014891743659973
671,1.0205,0.6188,0,0,-0.8361358642578125,0.6573333740234375,-0.0845947265625,0.3267698585987091,0.49834853410720825,0.5180713534355164
672,1.0508,0.5562,0,0,-0.919281005859375,0.6893463134765625,-0.08154296875,0.4690907895565033,0.34978383779525757,0.505538284778595
673,1.0887,0.5513,0,0,-0.9094390869140625,0.7249908447265625,-0.0410919189453125,0.5688387155532837,0.49338147044181824,0.3257772922515869
674,1.1315,0.6067,0,0,-0.7898712158203125,0.753265380859375,0.043975830078125,0.6168863773345947,0.6300508975982666,0.04789428785443306
675,1.1756,0.7216,0,0,-0.676422119140625,0.7415618896484375,0.2097930908203125,0.5042027235031128,0.4783330261707306,-0.07323266565799713
676,1.2174,0.8908,0,0,-0.7584228515625,0.7043304443359375,0.237030029296875,-0.17388418316841125,0.15420927107334137,-0.09702162444591522
677,1.2529,1.105,0,0,-1.0650634765625,0.7677001953125,0.0052490234375,-0.8488037586212158,0.09857983887195587,-0.16616101562976837
678,1.2787,1.3513,0,0,-1.2134857177734375,0.8468017578125,-0.164581298828125,-1.0071220397949219,-0.020329240709543228,-0.44248899817466736
679,1.2922,1.6133,0,0,-1.1710662841796875,0.868621826171875,-0.230743408203125,-0.8687561750411987,-0.4188859462738037,-0.7172417640686035
680,1.2919,1.8731,0,0,-1.0360870361328125,0.858642578125,-0.1568756103515625,-0.7379267811775208,-1.3964670896530151,-0.9039309024810791
681,1.2775,2.1123,0,0,-0.87335205078125,0.8316802978515625,-0.092926025390625,-0.8365694880485535,-2.3446176052093506,-1.098927617073059
682,1.2498,2.3142,0,0,-0.670684814453125,0.8952484130859375,-0.0109405517578125,-1.3348642587661743,-1.8883672952651978,-1.022133469581604
683,1.2107,2.4656,0,0,-0.5444793701171875,1.074859619140625,0.2232818603515625,-2.475985288619995,-0.6932594180107117,-0.7191264629364014
684,1.1627,2.5575,0,0,-0.424468994140625,1.2741851806640625,0.455841064453125,-3.6892507076263428,-1.7715712785720825,-0.4536029100418091
685,1.1084,2.586,0,0,-0.2180023193359375,1.0606231689453125,0.0400848388671875,-1.5945298671722412,-1.4261810779571533,-0.6125808358192444
686,1.0508,2.5521,0,0,-0.241668701171875,0.6272735595703125,0.230255126953125,-0.9365197420120239,-0.229849174618721,-0.2504865527153015
687,0.9925,2.4612,0,0,-0.34173583984375,0.5142822265625,0.132354736328125,-1.3942673206329346,-1.451147437095642,0.2145325392484665
688,0.9357,2.322,0,0,-0.572662353515625,0.747833251953125,-0.0019683837890625,-1.2916022539138794,-2.3829360008239746,0.46616584062576294
689,0.8823,2.146,0,0,-0.81689453125,0.79736328125,0.0578460693359375,-0.6040909290313721,-2.307420015335083,0.362935334444046
690,0.8341,1.9461,0,0,-0.78094482421875,0.6546630859375,0.225250244140625,0.2602140009403229,-2.043440341949463,0.0020503676496446133
691,0.793,1.7367,0,0,-0.634185791015625,0.53369140625,0.361846923828125,0.336709588766098,-2.2617580890655518,-0.231607124209404
692,0.761,1.5316,0,0,-0.5729522705078125,0.4484405517578125,0.31732177734375,0.05560174211859703,-2.081148147583008,-0.19084744155406952
693,0.7405,1.3437,0,0,-0.5401153564453125,0.44244384765625,0.2155303955078125,0.041120804846286774,-1.0737940073013306,-0.15812678635120392
694,0.7336,1.1837,0,0,-0.449859619140625,0.52069091796875,0.133026123046875,0.14210467040538788,-0.08314069360494614,-0.2047523409128189
695,0.7422,1.0583,0,0,-0.369964599609375,0.6218414306640625,0.0912628173828125,0.22300484776496887,0.39028891921043396,-0.18939335644245148
696,0.7677,0.9707,0,0,-0.2908477783203125,0.688720703125,0.0821075439453125,0.3806370794773102,0.45850232243537903,-0.24292023479938507
697,0.8103,0.9196,0,0,-0.2026214599609375,0.7069854736328125,0.1351470947265625,0.6305537223815918,0.4515770375728607,-0.26575151085853577
698,0.869,0.9006,0,0,-0.1772308349609375,0.6843414306640625,0.233184814453125,1.0121828317642212,0.5312622785568237,-0.11620090901851654
699,0.9416,0.9067,0,0,-0.2887725830078125,0.6738128662109375,0.39007568359375,1.308821201324463,0.3650245666503906,0.17784616351127625
700,1.0242,0.9305,0,0,-0.4610443115234375,0.69293212890625,0.567352294921875,1.3963496685028076,0.1878303587436676,0.3504541516304016
701,1.1121,0.9648,0,0,-0.6233367919921875,0.695526123046875,0.6930694580078125,1.2089738845825195,0.2124054729938507,0.4153668284416199
702,1.1997,1.0037,0,0,-0.7451324462890625,0.6537322998046875,0.8015899658203125,0.9959329962730408,0.3716702163219452,0.43173250555992126
703,1.281,1.0433,0,0,-0.8545989990234375,0.6404266357421875,0.961517333984375,0.9352635741233826,0.47174251079559326,0.43290162086486816
704,1.3502,1.0812,0,0,-0.9989166259765625,0.654541015625,0.8598480224609375,0.1607140451669693,-0.008727178908884525,0.155412495136261
705,1.4024,1.1163,0,0,-0.9200897216796875,0.53631591796875,0.437713623046875,-0.2865561246871948,0.7810268402099609,-0.22118085622787476
706,1.4335,1.1485,0,0,-0.9149169921875,0.4149322509765625,0.4568634033203125,0.34937503933906555,1.720976710319519,-0.40546679496765137
707,1.4409,1.1783,0,0,-0.9427642822265625,0.4949493408203125,0.6657867431640625,0.20424102246761322,0.10620632767677307,-0.4094434380531311
708,1.4242,1.2067,0,0,-1.0597991943359375,1.0081939697265625,0.4268035888671875,0.2516500651836395,0.02520442195236683,0.11928164958953857
709,1.3847,1.235,0,0,-0.9434356689453125,1.715667724609375,0.0233001708984375,0.724092960357666,1.5814026594161987,0.8724997639656067
710,1.3262,1.2651,0,0,-1.0863037109375,1.75665283203125,-0.09173583984375,0.29520395398139954,2.2927639484405518,1.4758753776550293
711,1.2545,1.2996,0,0,-0.6302642822265625,1.2902984619140625,0.39678955078125,-0.16198064386844635,0.04657522588968277,-0.6194142699241638
712,1.1767,1.3413,0,0,-0.00091552734375,0.7533721923828125,0.0247650146484375,-0.015684952959418297,-2.8607187271118164,-1.2231371402740479
713,1.1,1.3924,0,0,0.051483154296875,0.3989410400390625,-0.2669677734375,-0.4167170524597168,-0.2966010272502899,-0.27837568521499634
714,1.0312,1.4542,0,0,-0.131317138671875,0.3699493408203125,-0.359893798828125,-0.13602308928966522,-0.15157674252986908,0.25278937816619873
715,0.9751,1.5252,0,0,-0.38018798828125,0.6514892578125,-0.329620361328125,0.4081589877605438,-0.4142046272754669,0.00908564031124115
716,0.9347,1.6015,0,0,-0.470489501953125,0.999755859375,-0.2127532958984375,0.13219478726387024,0.4227810800075531,0.036219522356987
717,0.9105,1.6766,0,0,-0.616546630859375,1.0441131591796875,-0.2025604248046875,-0.6810730695724487,2.302793502807617,-0.048519331961870193
718,0.9013,1.7426,0,0,-0.613006591796875,0.8493804931640625,-0.1825714111328125,-0.5932074189186096,2.451637029647827,-0.4531187415122986
719,0.9041,1.7913,0,0,-0.526763916015625,0.6432647705078125,-0.1829071044921875,1.2770845890045166,2.426130771636963,-0.26436933875083923
720,0.9154,1.8162,0,0,-0.5123138427734375,0.7175140380859375,0.0188446044921875,1.6890369653701782,1.6628497838974,-0.016141152009367943
721,0.9312,1.8131,0,0,-0.50665283203125,0.6778717041015625,0.0470733642578125,1.1276862621307373,0.6056252121925354,0.34842056035995483
722,0.9475,1.7806,0,0,-0.5885772705078125,0.6187286376953125,0.0843658447265625,1.4432964324951172,-0.47081997990608215,0.5168678760528564
723,0.9613,1.7198,0,0,-0.664581298828125,0.6935882568359375,0.250457763671875,1.786642074584961,-0.77608323097229,0.5734454393386841
724,0.9703,1.6339,0,0,-0.8126678466796875,0.6627655029296875,0.3871917724609375,1.1072651147842407,0.14384691417217255,0.4312041401863098
725,0.9736,1.5273,0,0,-0.879974365234375,0.6019439697265625,0.394317626953125,0.39348524808883667,0.9977455735206604,0.21522869169712067
726,0.9717,1.4048,0,0,-0.8617095947265625,0.572784423828125,0.2506103515625,-0.2880522906780243,1.3150547742843628,0.04512326791882515
727,0.9662,1.2714,0,0,-0.7748565673828125,0.5990447998046875,0.074310302734375,-0.5079931616783142,1.1053881645202637,-0.07647613435983658
728,0.9598,1.132,0,0,-0.6583709716796875,0.61419677734375,-0.00616455078125,-0.21582870185375214,0.9351509213447571,-0.04059722647070885
729,0.9557,0.9915,0,0,-0.6062164306640625,0.63201904296875,-0.0272216796875,0.11602913588285446,1.0631349086761475,0.016144081950187683
730,0.9571,0.8552,0,0,-0.5599517822265625,0.6637725830078125,-0.0122222900390625,0.3482506573200226,0.9432735443115234,0.06561815738677979
731,0.9666,0.7295,0,0,-0.571319580078125,0.6923980712890625,0.0101165771484375,0.47838494181632996,0.5751391649246216,0.2428712397813797
732,0.9859,0.6214,0,0,-0.635894775390625,0.70489501953125,0.007720947265625,0.5031840205192566,0.4870860278606415,0.4183759391307831
733,1.0154,0.5394,0,0,-0.74237060546875,0.7054595947265625,0.013214111328125,0.5203619599342346,0.5235902667045593,0.5722198486328125
734,1.0545,0.4926,0,0,-0.83074951171875,0.705352783203125,0.0326995849609375,0.5379832983016968,0.43707507848739624,0.5102108120918274
735,1.1008,0.49,0,0,-0.871124267578125,0.7026824951171875,0.0492401123046875,0.4332904517650604,0.3491468131542206,0.3733690679073334
736,1.1513,0.5394,0,0,-0.8611907958984375,0.7052459716796875,0.0556488037109375,0.2972806692123413,0.23260661959648132,0.17253369092941284
737,1.2019,0.6458,0,0,-0.7754364013671875,0.7076416015625,0.0606536865234375,0.13173405826091766,0.24403290450572968,-0.1052667647600174
738,1.2484,0.8101,0,0,-0.81866455078125,0.7090911865234375,-0.0170440673828125,-0.1717698872089386,0.2604108154773712,-0.1755792796611786
739,1.2863,1.028,0,0,-1.0807342529296875,0.8255615234375,-0.1930694580078125,-0.5752329230308533,-0.05927877128124237,-0.28578487038612366
740,1.3123,1.2896,0,0,-1.186798095703125,0.95501708984375,-0.2845916748046875,-0.6325343251228333,-0.7376639246940613,-0.5344191789627075
741,1.3237,1.5798,0,0,-1.2042388916015625,0.9733428955078125,-0.2847137451171875,-0.4942891001701355,-1.2133774757385254,-0.6911190748214722
742,1.3194,1.8792,0,0,-1.0562286376953125,0.928436279296875,-0.2401123046875,-0.3976491093635559,-1.2842295169830322,-1.0952692031860352
743,1.2997,2.1661,0,0,-0.7655792236328125,0.8864288330078125,-0.130889892578125,-0.5946236848831177,-1.1884031295776367,-1.239333152770996
744,1.2664,2.4186,0,0,-0.6235809326171875,0.9579315185546875,0.0740203857421875,-1.3403303623199463,-1.523029088973999,-1.1657345294952393
745,1.222,2.6175,0,0,-0.4472503662109375,1.1197357177734375,0.2772979736328125,-2.7483174800872803,-1.6301501989364624,-0.9972971081733704
746,1.1698,2.7477,0,0,-0.2055511474609375,1.30780029296875,0.39605712890625,-4.130901336669922,-2.500699758529663,-0.5738275647163391
747,1.1131,2.8008,0,0,-0.0204315185546875,1.0654144287109375,-0.011749267578125,-2.059962034225464,-1.181734561920166,-0.5405652523040771
748,1.0548,2.7751,0,0,-0.133575439453125,0.6641082763671875,0.214141845703125,-1.5515539646148682,0.00977433379739523,-0.049000564962625504
749,0.9975,2.6757,0,0,-0.3625335693359375,0.47320556640625,0.0609283447265625,-1.772089958190918,-1.5198204517364502,0.3417205810546875
750,0.943,2.5139,0,0,-0.5457305908203125,0.685272216796875,-0.04656982421875,-1.4787449836730957,-2.366089105606079,0.4569678008556366
751,0.8924,2.3057,0,0,-0.74481201171875,0.807342529296875,-0.0145263671875,-0.9075453877449036,-2.3701331615448,0.4092298448085785
752,0.8468,2.0701,0,0,-0.87176513671875,0.715423583984375,0.1950531005859375,-0.2666913568973541,-2.2549045085906982,0.09904003143310547
753,0.8076,1.8278,0,0,-0.769866943359375,0.5803070068359375,0.362548828125,0.23551158607006073,-2.1310946941375732,-0.21559886634349823
754,0.7762,1.5987,0,0,-0.65509033203125,0.4889068603515625,0.447509765625,0.17069052159786224,-1.6556720733642578,-0.36290043592453003
755,0.7549,1.4005,0,0,-0.5317230224609375,0.448333740234375,0.337310791015625,-0.04139058291912079,-0.7573100924491882,-0.2816215455532074
756,0.746,1.247,0,0,-0.428436279296875,0.480438232421875,0.1917572021484375,-0.06422186642885208,0.25358593463897705,-0.22309327125549316
757,0.7519,1.1462,0,0,-0.3349761962890625,0.53839111328125,0.11767578125,0.14316675066947937,0.946441113948822,-0.2116541862487793
758,0.7742,1.1007,0,0,-0.30010986328125,0.585845947265625,0.102752685546875,0.49386855959892273,1.1574941873550415,-0.1278993785381317
759,0.8138,1.1071,0,0,-0.2718963623046875,0.6393890380859375,0.1446075439453125,0.8858712315559387,0.953325092792511,-0.03419632092118263
760,0.87,1.1572,0,0,-0.3331298828125,0.648529052734375,0.2371673583984375,1.1100934743881226,0.5627216696739197,0.08392605930566788
761,0.9404,1.2396,0,0,-0.44818115234375,0.6427154541015625,0.3033905029296875,1.050021767616272,0.13210876286029816,0.15265825390815735
762,1.0215,1.3405,0,0,-0.509033203125,0.6517791748046875,0.39813232421875,1.131654143333435,-0.24770593643188477,0.2572634816169739
763,1.1085,1.4464,0,0,-0.6464996337890625,0.7003631591796875,0.7391357421875,1.9245655536651611,-0.16906332969665527,0.42303594946861267
764,1.1958,1.5446,0,0,-0.7759552001953125,0.662261962890625,1.261199951171875,1.756091594696045,-1.1459203958511353,0.36929282546043396
765,1.2777,1.6249,0,0,-0.84552001953125,0.5391693115234375,1.1519317626953125,0.48932549357414246,-1.5239143371582031,0.24709634482860565
766,1.3486,1.6803,0,0,-0.8139801025390625,0.542449951171875,0.6153411865234375,-0.6060854196548462,0.6198976039886475,0.041779935359954834
767,1.4035,1.7073,0,0,-0.799560546875,0.5250396728515625,0.2927703857421875,-0.664824366569519,2.412543773651123,-0.2530874013900757
768,1.4385,1.7054,0,0,-0.9146575927734375,0.399871826171875,0.4701690673828125,0.009441172704100609,2.112082004547119,-0.36293506622314453
769,1.4508,1.6773,0,0,-1.0335845947265625,0.4000396728515625,0.7100677490234375,0.5680242776870728,0.3749791979789734,-0.29746976494789124
770,1.4393,1.6279,0,0,-1.2331085205078125,0.8977203369140625,0.4891357421875,0.6883594989776611,-0.09534862637519836,0.1643330156803131
771,1.405,1.5637,0,0,-1.018646240234375,1.640655517578125,-0.2182769775390625,1.0684170722961426,0.9774554967880249,0.806427538394928
772,1.3511,1.4925,0,0,-1.025848388671875,1.855621337890625,-0.12823486328125,0.3740633428096771,1.7427635192871094,1.5102096796035767
773,1.2828,1.4227,0,0,-0.855865478515625,1.3481292724609375,-0.144622802734375,-0.2546599805355072,1.4768171310424805,-0.597952127456665
774,1.2067,1.3627,0,0,0.1265716552734375,0.7904815673828125,0.1886444091796875,0.9014038443565369,-1.744356393814087,-1.8921465873718262
775,1.1299,1.3202,0,0,0.2630157470703125,0.423492431640625,-0.1023406982421875,0.24282675981521606,-0.8697601556777954,-0.6016682982444763
776,1.0591,1.3009,0,0,-0.021087646484375,0.33721923828125,-0.256927490234375,-0.08809896558523178,-0.33676284551620483,0.33387330174446106
777,0.9991,1.3077,0,0,-0.302276611328125,0.6600189208984375,-0.2574462890625,-0.03297845646739006,-0.17283569276332855,-0.04122040793299675
778,0.9531,1.3398,0,0,-0.4604644775390625,1.037994384765625,-0.152069091796875,-0.3062262535095215,0.3772713840007782,0.011637480929493904
779,0.9219,1.3925,0,0,-0.667816162109375,1.0883026123046875,-0.2158660888671875,-0.4074290096759796,1.254814863204956,0.1212121769785881
780,0.9047,1.458,0,0,-0.75439453125,0.872161865234375,-0.21502685546875,1.378166675567627,2.0927302837371826,-0.10394903272390366
781,0.8993,1.5265,0,0,-0.57965087890625,0.7878570556640625,-0.02874755859375,1.7617689371109009,1.6368176937103271,-0.3716353476047516
782,0.9027,1.5878,0,0,-0.4546661376953125,0.5991058349609375,0.0057830810546875,1.352694034576416,0.4996550977230072,-0.058755990117788315
783,0.9119,1.6322,0,0,-0.455413818359375,0.5009765625,0.0576019287109375,1.4750324487686157,-0.6061993837356567,0.3716678321361542
784,0.9237,1.6525,0,0,-0.549346923828125,0.6542510986328125,0.208282470703125,1.5342329740524292,-0.5995835661888123,0.5645443201065063
785,0.9356,1.6434,0,0,-0.6772918701171875,0.7125396728515625,0.43927001953125,0.9275693893432617,0.5670799612998962,0.38907477259635925
786,0.9459,1.6028,0,0,-0.7449493408203125,0.657318115234375,0.5047454833984375,0.1596602350473404,1.44175124168396,0.2052285224199295
787,0.9539,1.5313,0,0,-0.799713134765625,0.5916748046875,0.2943878173828125,-0.6087357401847839,1.5962345600128174,0.07462630420923233
788,0.9597,1.4323,0,0,-0.79705810546875,0.589080810546875,0.055908203125,-0.9502922892570496,1.4780477285385132,-0.02076466754078865
789,0.9647,1.3118,0,0,-0.7470550537109375,0.5804290771484375,-0.058837890625,-0.7345011830329895,1.144089698791504,0.009306415915489197
790,0.9705,1.178,0,0,-0.6891632080078125,0.5686187744140625,-0.111968994140625,-0.2497938573360443,0.7889271378517151,0.15839523077011108
791,0.9795,1.041,0,0,-0.666778564453125,0.612548828125,-0.132110595703125,0.20124869048595428,0.5846397280693054,0.3128252923488617
792,0.9937,0.9119,0,0,-0.6747589111328125,0.6853790283203125,-0.1059417724609375,0.6506195664405823,0.5785350203514099,0.34084439277648926
793,1.0145,0.8028,0,0,-0.663787841796875,0.7487945556640625,-0.04296875,0.927984356880188,0.6103797554969788,0.3210137188434601
794,1.0428,0.7252,0,0,-0.6837158203125,0.74627685546875,0.0079498291015625,0.9038382768630981,0.5914838314056396,0.4063301980495453
795,1.0783,0.6902,0,0,-0.8122406005859375,0.701202392578125,0.062896728515625,0.8578052520751953,0.4144856035709381,0.5513734221458435
796,1.1199,0.7065,0,0,-0.9001922607421875,0.696136474609375,0.1406707763671875,0.661170482635498,0.15255172550678253,0.44176754355430603
797,1.1654,0.7798,0,0,-0.9195404052734375,0.6815185546875,0.1977386474609375,0.19778205454349518,0.18955475091934204,0.18656322360038757
798,1.2116,0.9115,0,0,-0.832550048828125,0.6521759033203125,0.1748199462890625,-0.31780967116355896,0.2639027535915375,-0.12167530506849289
799,1.255,1.0979,0,0,-0.871978759765625,0.7046051025390625,-0.0109405517578125,-0.7730677127838135,0.22305864095687866,-0.3043106198310852
800,1.2918,1.3296,0,0,-1.065032958984375,0.8233795166015625,-0.18084716796875,-0.8884118795394897,-0.15853850543498993,-0.44500330090522766
801,1.3182,1.5922,0,0,-1.1576385498046875,0.9175262451171875,-0.27325439453125,-0.6452213525772095,-0.9035460948944092,-0.6524326801300049
802,1.3315,1.8674,0,0,-1.1111907958984375,0.9627838134765625,-0.2812652587890625,-0.43000757694244385,-1.4225705862045288,-0.8696911931037903
803,1.3296,2.1345,0,0,-0.9232940673828125,0.9068145751953125,-0.163177490234375,-0.3842160999774933,-1.722975492477417,-1.1482304334640503
804,1.3116,2.373,0,0,-0.692535400390625,0.9231109619140625,0.05145263671875,-1.0027570724487305,-1.9134775400161743,-1.13944411277771
805,1.2781,2.5648,0,0,-0.5155792236328125,1.0982818603515625,0.26312255859375,-2.3842358589172363,-1.614480972290039,-0.8586335182189941
806,1.2308,2.6964,0,0,-0.3924102783203125,1.4158935546875,0.531005859375,-4.218879699707031,-1.80458402633667,-0.2682951092720032
807,1.1721,2.76,0,0,-0.280303955078125,1.368194580078125,0.0468597412109375,-2.659064531326294,-1.5105355978012085,-0.2131277173757553
808,1.1056,2.7543,0,0,-0.2290802001953125,0.8570709228515625,0.316497802734375,-1.4434394836425781,0.6344219446182251,-0.1774275153875351
809,1.0348,2.6838,0,0,-0.3018798828125,0.4376983642578125,0.1453094482421875,-1.9779406785964966,-0.45150965452194214,0.08773784339427948
810,0.9634,2.5582,0,0,-0.397705078125,0.5266876220703125,-0.102813720703125,-1.8639200925827026,-1.6628708839416504,0.2370983064174652
811,0.8949,2.3906,0,0,-0.605987548828125,0.6842193603515625,-0.1363067626953125,-1.1637846231460571,-1.9527345895767212,0.3780258595943451
812,0.8325,2.1961,0,0,-0.80242919921875,0.7156982421875,0.0545806884765625,-0.3326493203639984,-2.19089937210083,0.29816803336143494
813,0.779,1.9909,0,0,-0.745941162109375,0.621368408203125,0.2422943115234375,0.13227307796478271,-2.7698144912719727,0.002907106652855873
814,0.7374,1.7904,0,0,-0.704986572265625,0.5013275146484375,0.425384521484375,0.22396385669708252,-2.431185722351074,-0.12398213148117065
815,0.7105,1.6082,0,0,-0.57159423828125,0.4148712158203125,0.42254638671875,-0.053229931741952896,-1.2067091464996338,-0.2494729459285736
816,0.7007,1.4548,0,0,-0.4095306396484375,0.4089813232421875,0.2560577392578125,-0.17210891842842102,0.21728278696537018,-0.2377971112728119
817,0.71,1.3367,0,0,-0.31622314453125,0.4747772216796875,0.16888427734375,-0.022612901404500008,0.8947856426239014,-0.21041874587535858
818,0.7395,1.2556,0,0,-0.2784576416015625,0.5845947265625,0.091949462890625,0.31425780057907104,0.9573315978050232,-0.12584634125232697
819,0.7887,1.209,0,0,-0.22991943359375,0.65350341796875,0.11920166015625,0.8218017220497131,0.9434050917625427,-0.10309655964374542
820,0.8558,1.191,0,0,-0.2261962890625,0.65106201171875,0.2086181640625,1.2262578010559082,0.7437636256217957,-0.06699661165475845
821,0.9372,1.1932,0,0,-0.3101806640625,0.620849609375,0.3108367919921875,1.4589956998825073,0.38976508378982544,0.1484541893005371
822,1.0276,1.2067,0,0,-0.443572998046875,0.625274658203125,0.507476806640625,1.5577694177627563,-0.04921761155128479,0.3246814012527466
823,1.1212,1.2233,0,0,-0.6060943603515625,0.655853271484375,0.711029052734375,1.5135447978973389,-0.21903328597545624,0.4914640188217163
824,1.2112,1.2364,0,0,-0.8650360107421875,0.6585693359375,0.9698944091796875,1.4821932315826416,0.24126987159252167,0.5072341561317444
825,1.2914,1.2418,0,0,-1.0854644775390625,0.6557159423828125,1.2069854736328125,0.7738744020462036,0.04987115412950516,0.2727295458316803
826,1.3563,1.2373,0,0,-1.0760650634765625,0.6519012451171875,0.7900390625,-0.4313700497150421,0.21424944698810577,-0.04789535328745842
827,1.4018,1.2232,0,0,-0.8503570556640625,0.5164947509765625,0.27911376953125,-0.42916974425315857,1.4737040996551514,-0.3474447727203369
828,1.4253,1.201,0,0,-0.7924041748046875,0.426116943359375,0.45697021484375,0.25123488903045654,1.6229684352874756,-0.45517978072166443
829,1.4259,1.1739,0,0,-0.9216156005859375,0.473876953125,0.675018310546875,0.3788684904575348,0.17705999314785004,-0.3195875883102417
830,1.4046,1.1457,0,0,-1.216827392578125,0.9919891357421875,0.6467742919921875,0.4052577614784241,-0.038892537355422974,-0.0063095614314079285
831,1.3642,1.1212,0,0,-0.9263916015625,1.653228759765625,-0.0973663330078125,0.9110509157180786,1.1061607599258423,0.5304633378982544
832,1.3087,1.1051,0,0,-0.8640594482421875,1.5780792236328125,-0.18072509765625,0.28836601972579956,1.5069254636764526,1.2340686321258545
833,1.2438,1.1024,0,0,-0.6482086181640625,1.078216552734375,-0.136993408203125,-0.17350547015666962,0.9573006629943848,-0.2545875310897827
834,1.1752,1.1179,0,0,0.0354461669921875,0.6898193359375,0.044219970703125,0.07594483345746994,-1.779476523399353,-1.1236387491226196
835,1.1087,1.1551,0,0,0.0974884033203125,0.4296417236328125,-0.2041015625,-0.1687096506357193,-0.7556732892990112,-0.16468028724193573
836,1.0489,1.2158,0,0,-0.27471923828125,0.5652008056640625,-0.2951812744140625,-0.06477607041597366,-0.47195395827293396,0.14616014063358307
837,0.999,1.299,0,0,-0.4749603271484375,0.9031982421875,-0.3073577880859375,0.3761318325996399,-0.6626591682434082,-0.034518562257289886
838,0.9606,1.4005,0,0,-0.651641845703125,1.1353912353515625,-0.2198486328125,0.5039896368980408,-0.20483995974063873,0.04710359498858452
839,0.9337,1.5134,0,0,-0.750946044921875,1.0013427734375,-0.2298736572265625,0.6828352808952332,1.0008652210235596,-0.2079249620437622
840,0.9176,1.6279,0,0,-0.674041748046875,0.7751922607421875,-0.13555908203125,1.7547581195831299,1.998225450515747,-0.5485560297966003
841,0.9106,1.7335,0,0,-0.4994049072265625,0.6874237060546875,-0.0182952880859375,1.9096204042434692,1.7513461112976074,-0.47807496786117554
842,0.9109,1.8195,0,0,-0.3573760986328125,0.5999755859375,0.0888824462890625,1.6409062147140503,0.9676302671432495,-0.12598562240600586
843,0.9163,1.8767,0,0,-0.213226318359375,0.672515869140625,0.327545166015625,1.6300008296966553,-0.7809624075889587,0.2775575816631317
844,0.9249,1.8982,0,0,-0.414581298828125,0.711944580078125,0.3928375244140625,0.6630850434303284,-0.4556223750114441,0.5810593962669373
845,0.9348,1.8796,0,0,-0.6621246337890625,0.6566314697265625,0.4006195068359375,-0.1912732869386673,1.5401414632797241,0.3868243992328644
846,0.9447,1.8197,0,0,-0.7888031005859375,0.6243896484375,0.2627716064453125,-0.49674612283706665,2.310443162918091,0.28822407126426697
847,0.9538,1.7204,0,0,-0.8080291748046875,0.6320343017578125,0.0392913818359375,-0.9171276688575745,1.9640514850616455,0.18730837106704712
848,0.9621,1.5869,0,0,-0.74981689453125,0.601226806640625,-0.1070556640625,-0.8498080372810364,1.3374783992767334,0.18109601736068726
849,0.9699,1.4277,0,0,-0.74517822265625,0.56793212890625,-0.16326904296875,-0.2859180271625519,0.9446980953216553,0.28822726011276245
850,0.9785,1.2538,0,0,-0.76361083984375,0.5721588134765625,-0.12957763671875,0.21998775005340576,0.8716222643852234,0.33131080865859985
851,0.9894,1.0782,0,0,-0.7643280029296875,0.6365966796875,-0.074615478515625,0.6064348220825195,0.8737972378730774,0.36123037338256836
852,1.0041,0.9155,0,0,-0.7385101318359375,0.7247161865234375,0.000701904296875,0.9750890135765076,0.8032828569412231,0.3401610255241394
853,1.024,0.7804,0,0,-0.679840087890625,0.7336578369140625,0.10382080078125,1.008393406867981,0.46029597520828247,0.28558993339538574
854,1.0503,0.6873,0,0,-0.740875244140625,0.6546783447265625,0.177276611328125,0.659679651260376,0.23533129692077637,0.37267956137657166
855,1.0832,0.6485,0,0,-0.881805419921875,0.6175384521484375,0.1959381103515625,0.3395597040653229,0.3326927423477173,0.40493205189704895
856,1.1222,0.6732,0,0,-0.9496002197265625,0.6864471435546875,0.1731414794921875,-0.0883258655667305,0.5844584107398987,0.2554730474948883
857,1.1657,0.766,0,0,-0.86639404296875,0.7330474853515625,0.1060028076171875,-0.4482851028442383,0.38959968090057373,-0.044981054961681366
858,1.2114,0.9262,0,0,-0.708251953125,0.7215423583984375,0.0408172607421875,-0.5327799916267395,0.11248819530010223,-0.2635970115661621
859,1.2558,1.1467,0,0,-0.808685302734375,0.7221527099609375,-0.0749359130859375,-0.627021312713623,0.05972830951213837,-0.37132081389427185
860,1.2949,1.4143,0,0,-1.0448760986328125,0.802703857421875,-0.198883056640625,-0.6206531524658203,-0.3796786069869995,-0.49630188941955566
861,1.3248,1.7109,0,0,-1.1276702880859375,0.8674774169921875,-0.2750091552734375,-0.36850959062576294,-1.2585569620132446,-0.7168475985527039
862,1.3417,2.0146,0,0,-1.0494384765625,0.88385009765625,-0.25537109375,-0.21193382143974304,-1.8569356203079224,-0.9573832154273987
863,1.3426,2.3025,0,0,-0.8913116455078125,0.925048828125,-0.0836181640625,-0.4602416455745697,-2.075005054473877,-1.1002894639968872
864,1.326,2.5527,0,0,-0.7613525390625,1.0638275146484375,0.1015167236328125,-1.4410713911056519,-2.143963098526001,-0.8601629137992859
865,1.2917,2.747,0,0,-0.6826171875,1.3266754150390625,0.315673828125,-3.134024143218994,-1.5954585075378418,-0.5433101654052734
866,1.2415,2.8729,0,0,-0.505523681640625,1.5997161865234375,0.39105224609375,-4.669834613800049,-1.7325910329818726,-0.28125831484794617
867,1.1783,2.9243,0,0,-0.1774749755859375,1.2888641357421875,0.209259033203125,-1.5948363542556763,0.6504022479057312,-0.732377290725708
868,1.1062,2.9017,0,0,-0.22784423828125,0.649169921875,0.41961669921875,-1.838269829750061,0.4446304440498352,-0.332906574010849
869,1.03,2.8118,0,0,-0.19384765625,0.333251953125,0.009796142578125,-2.4805166721343994,-0.9838486909866333,-0.03556491807103157
870,0.9541,2.6655,0,0,-0.34490966796875,0.49285888671875,-0.2505035400390625,-1.9821803569793701,-1.6702337265014648,0.3625182807445526
871,0.8828,2.4772,0,0,-0.606201171875,0.612457275390625,-0.2610626220703125,-0.6292064189910889,-1.761023998260498,0.5127817988395691
872,0.8194,2.263,0,0,-0.8038330078125,0.680877685546875,0.09405517578125,0.456779807806015,-2.180060625076294,0.20136666297912598
873,0.7671,2.0397,0,0,-0.734527587890625,0.62640380859375,0.379638671875,0.4762536287307739,-3.2198593616485596,-0.06382665038108826
874,0.7284,1.8235,0,0,-0.7043609619140625,0.5055999755859375,0.412384033203125,0.2934055030345917,-2.7604362964630127,-0.1051567792892456
875,0.7056,1.6286,0,0,-0.5792083740234375,0.4533233642578125,0.3610382080078125,0.07910466939210892,-0.9936967492103577,-0.2189488559961319
876,0.7009,1.4663,0,0,-0.4400482177734375,0.4766387939453125,0.2176971435546875,-0.03937297314405441,0.42251530289649963,-0.22115129232406616
877,0.7158,1.3437,0,0,-0.33734130859375,0.5496368408203125,0.14447021484375,0.07267872989177704,0.8316130638122559,-0.19175772368907928
878,0.7509,1.2631,0,0,-0.228485107421875,0.605865478515625,0.079742431640625,0.33025461435317993,0.839290976524353,-0.12457229197025299
879,0.8057,1.222,0,0,-0.201385498046875,0.61767578125,0.0993804931640625,0.6473590731620789,0.8886545300483704,-0.044312868267297745
880,0.8782,1.2138,0,0,-0.1991729736328125,0.6366119384765625,0.180816650390625,1.0997920036315918,1.0270582437515259,0.16489334404468536
881,0.9647,1.2292,0,0,-0.3179931640625,0.6316070556640625,0.4029388427734375,1.3630458116531372,0.48810654878616333,0.528999924659729
