id,ASVM,GSVM,walking_nonwalking,normal_abnormal,ax,ay,az,gx,gy,gz
1,0.9861846829080565,0.19865413203539714,0,0,-0.07229031320583483,0.3443558911554914,-0.9229226086380161,-0.013848438,-0.15339808,-0.10439592
2,0.9895062251081836,0.2003880909787183,0,0,-0.0968046206396538,0.35357910074882176,-0.9384565014604597,-0.013848438,-0.15339808,-0.10439592
3,0.9930887998012059,0.20019145743961972,0,0,-0.026948610818527112,0.33517531019347907,-0.9270447981402627,-0.013848438,-0.15339808,-0.10439592
4,0.996984915424013,0.19766417297057653,0,0,-0.03136989326022403,0.34938567903442064,-0.914900328269866,-0.013848438,-0.15339808,-0.10439592
5,1.0012277973031352,0.19258226438093765,0,0,-0.10500184343335624,0.39959330389987263,-0.9224177059212711,-0.013848438,-0.15339808,-0.10439592
6,1.0058220933263906,0.18498988572834923,0,0,-0.14831010031630223,0.42215540709019,-0.944982390751324,-0.013848438,-0.15339808,-0.10439592
7,1.0107321105689235,0.17529161318667238,0,0,-0.13990696382650256,0.4262669851121088,-0.9091979457130958,-0.03423055990346288,-0.1778566377641899,-0.08197558016617361
8,1.015868715703005,0.16432815687192098,0,0,-0.09046239106829558,0.41509208167019634,-0.8733362728090985,0.050521516474212956,-0.1265513409808768,0.06720768195110782
9,1.0210788049426531,0.15341688861564978,0,0,-0.06330922643312224,0.4013450564353588,-0.9038043542690858,0.05539375,-0.12357068,0.07563378
10,1.0261438583823237,0.14433902813429617,0,0,-0.06087737011731681,0.3916421211863816,-0.9561769228647633,0.05539375,-0.12357068,0.07563378
11,1.0307928864613367,0.13925699960440455,0,0,-0.06919744351799201,0.3878297313544839,-0.9743053429079909,0.1690785583986314,-0.11071935270346125,0.11913056794523166
12,1.034729734377891,0.1405484107453265,0,0,-0.07658344363267681,0.386460976665945,-0.9693689702054644,0.17789917,-0.10972224,0.12250541
13,1.0376693720690233,0.15055052375530908,0,0,-0.0655630711946973,0.37363419097316963,-0.9616910468946335,0.058096201616942234,-0.17400675297452803,0.10010322854856063
14,1.0393763123330002,0.17122554371490908,0,0,-0.07774195820882736,0.37620057641302135,-0.9439957681397556,0.046871636,-0.18002969,0.098004326
15,1.0397001549482552,0.20378296683178523,0,0,-0.09627925100854842,0.3847290319057864,-0.9226469740686295,0.009467473054466609,-0.07357169171104541,0.05100935405812771
16,1.0386047928935898,0.24832336852903109,0,0,-0.12321693500022328,0.39564531101138156,-0.9914602170418161,0.0053263223,-0.06178534,0.04580637
17,1.0361864661220233,0.3035855025157196,0,0,-0.1212847287629058,0.3853904812554471,-1.0394972431214218,0.0733130714870248,0.07229964247055969,0.0052031744537112175
18,1.0326733042118683,0.36687302926337334,0,0,-0.07253999028388441,0.36531892591707577,-0.9936599895287602,-0.2639664748121229,-0.20708221526857706,0.06621407461320114
19,1.0284004335977384,0.43420447252902533,0,0,-0.032976676412765485,0.3471627544987972,-0.9339421018068976,-0.31318775,-0.24927188,0.07563378
20,1.0237632335344309,0.5006796747215042,0,0,-0.046784583034040025,0.35555938024657374,-0.883447391499821,-0.4909726861249917,-0.39681505551311985,0.03531142104721098
21,1.0191626258089892,0.5610079375778808,0,0,-0.06652373172537868,0.37838607380049094,-0.8364351223117655,-0.51984906,-0.42077947,0.02876214
22,1.0149608748337215,0.6101154436168894,0,0,-0.10833851210174754,0.40898351211373035,-0.9372850097237282,-0.31564588093776835,-0.3299225399540327,-0.07199009073068209
23,1.0114583023853796,0.6437471614556955,0,0,-0.18844633742348332,0.43526467534984425,-1.0398754194716253,-0.27803403,-0.31318775,-0.09054748
24,1.0088851709661,0.6589885345286235,0,0,-0.16356125216244746,0.43659455484425497,-1.0151028703538711,-0.645811836251163,-0.7248922324044079,-0.06212436704578693
25,1.0073921924111127,0.6546365608449001,0,0,-0.11440366803104289,0.4306787341120319,-0.8663415617402679,-0.73290193,-0.8223842,-0.05539375
26,1.0070287368819588,0.6313490743446436,0,0,-0.10601625954649606,0.44436165567737756,-0.737341820299811,-0.5414508137076647,-0.4218482426840585,-0.0982183467806731
27,1.0077162486216507,0.5915209168200478,0,0,-0.16857595004465087,0.47686316553114877,-0.7585846892931226,-0.49002165,-0.314253,-0.10972224
28,1.0092383145870556,0.538894100927387,0,0,-0.20039430980716105,0.4855400454203345,-0.902739828407954,0.08487912472439217,0.08685970515500624,-0.1937335234110703
29,1.0112641048476882,0.47798408895042993,0,0,-0.2132793063454838,0.47995276728879915,-0.9837751755067802,0.25353295,0.20453078,-0.21837921
30,1.0134025241731301,0.4134516901930013,0,0,-0.2325959709750445,0.4846858434700623,-0.9101994310968364,0.25353295,0.20453078,-0.21837921
31,1.015268125218014,0.3495470149924811,0,0,-0.21502852174435574,0.4836064221030088,-0.8067790406907159,0.08718332578256496,0.06148617883667609,-0.12676638013273867
32,1.0165391437551297,0.2897116845484912,0,0,-0.17591550479771825,0.46638514900818223,-0.8205977894475712,0.17991819233431908,0.1665728580840592,0.007872500564109191
33,1.016998558102174,0.23637460514727968,0,0,-0.14992925425471645,0.44893447955515753,-0.9200837410893707,0.23009712,0.21837921,0.043675844
34,1.0165574290525181,0.19093145864824712,0,0,-0.13959041100883784,0.439741740476676,-0.9793919728006529,0.20522111188057562,0.0768969467506727,0.014135589849540645
35,1.015259640954677,0.15386507618664447,0,0,-0.1412754275534585,0.4364804701725597,-0.951927003969741,0.19600865,0.024501082,0.0031957934
36,1.0132644938448208,0.12494794738453661,0,0,-0.15641906441026956,0.44519291657751914,-0.8795441445002118,0.19600865,0.024501082,0.0031957934
37,1.0108067691255778,0.10347050174234922,0,0,-0.1631321316789516,0.4533839914621734,-0.8293191628634048,-0.03199273853084351,-0.06005572629505762,-0.02926798331918437
38,1.0081428827031176,0.08845333027646039,0,0,-0.16191964807714077,0.45523358129432584,-0.8477412956987187,-0.1257012,-0.094808534,-0.04261058
39,1.0054988329373848,0.0788195326351643,0,0,-0.1444043868931981,0.4455703706775531,-0.8943072860221838,0.0037045940818674107,0.029421031789382025,-0.027081882627702315
40,1.0030346564321213,0.07351929459292712,0,0,-0.13700968220544224,0.43897140560465026,-0.8960338225478066,0.04685981502272951,0.00026485984316073296,-0.03482976885760993
41,1.0008323349142332,0.07161023421067637,0,0,-0.17112026601838107,0.44849113893498666,-0.871075616012358,0.040480047,-0.03834952,-0.041545313
42,0.9989055174055795,0.07230298714989843,0,0,-0.1879741719468092,0.45515989682255314,-0.8714351923916945,0.040480047,-0.03834952,-0.041545313
43,0.9972242015326028,0.07498210441653078,0,0,-0.1636682367101122,0.44511028336287084,-0.8860774889084163,0.04896099932457818,-0.017853892624086553,-0.0471992801106416
44,0.9957456955078484,0.07920966536871271,0,0,-0.15389495007043108,0.43896320275531875,-0.89389379146063,0.051169333677519996,-0.0535224332312775,-0.038900014199854074
45,0.9944432625997067,0.08471595084355493,0,0,-0.1751296241195703,0.44480495339984905,-0.8973848246484035,0.05006743,-0.0777643,-0.033023197
46,0.9933253628178221,0.09137976977243342,0,0,-0.17071358469177098,0.44190743614348793,-0.8794570307072715,0.024876118598071272,-0.08525361579108927,-0.015321195189565123
47,0.9924416328722135,0.09920087022617692,0,0,-0.13686185614727217,0.43344499931649844,-0.8597563315346118,0.010652645,-0.08948222,-0.0053263223
48,0.9918761467383014,0.10826786602424653,0,0,-0.11693149426316797,0.4333096071806763,-0.8612441399006834,0.010652645,-0.08948222,-0.0053263223
49,0.9917321071172762,0.11872608450584073,0,0,-0.12285439477969484,0.4409936886884623,-0.8885037982462164,0.05997406164918065,-0.08159078938522404,-0.0033534656957656967
50,0.9921128752329686,0.1307490821002661,0,0,-0.11849119532621259,0.4462201369024038,-0.9049796303983321,0.10482787240587592,-0.09941784809446248,-0.02614755414274901
51,0.9931023183637406,0.14451471306582364,0,0,-0.09561666219413313,0.4505589351624916,-0.8843882127984604,0.113983296,-0.113983296,-0.041545313
52,0.9947455184396624,0.16018309256857158,0,0,-0.07995192423053453,0.4616526443858112,-0.8533655839353297,0.11208240186126216,-0.11651782310447939,-0.055485191256256824
53,0.997031167627265,0.1778722597387586,0,0,-0.07884062735288326,0.4775987071193547,-0.8597495629878092,0.1107875,-0.11824436,-0.06498113
54,0.9998786046294558,0.1976291950490653,0,0,-0.07452847998607805,0.48667021413595607,-0.8813527773483343,0.1107875,-0.11824436,-0.06498113
55,1.0031328938195356,0.21939757079447375,0,0,-0.07244384342171357,0.49607118443381143,-0.8783049221677172,0.13346057380052043,-0.15746264173262317,-0.08152634368453063
56,1.0065699400391606,0.24298620672719404,0,0,-0.0741386919188007,0.5028520340211882,-0.859487344600488,0.15020229,-0.18642128,-0.09374327
57,1.00991202435661,0.2680422037929782,0,0,-0.06038080331542739,0.4997466679815448,-0.8528284813832535,0.17355186541646322,-0.1995928320486164,-0.08655878374332392
58,1.012853506624197,0.2940315285120884,0,0,-0.03520327397715054,0.4941751783353089,-0.885051190523444,0.1917476,-0.20985709,-0.080960095
59,1.0150959171445473,0.3202298240897477,0,0,-0.0029108858605797726,0.4888940531179897,-0.9249068433760785,0.26893255591384885,-0.1835440356000283,-0.05406230575285659
60,1.0163903602993924,0.3457282735714638,0,0,0.027490022165225208,0.48796513318821083,-0.8979967349469941,0.2776937193870018,-0.20853252515878068,-0.03886346393569559
61,1.0165841466501206,0.369462418141634,0,0,0.039481393434463455,0.4931936316322544,-0.8353290030700823,0.23116238,-0.24820662,-0.04474111
62,1.0156691849239954,0.39027439680904674,0,0,0.03594318230800315,0.5028002161505387,-0.8309083722944324,0.23116238,-0.24820662,-0.04474111
63,1.013830287239239,0.40701942557545734,0,0,0.025404934782730797,0.5191029751270526,-0.8700179276032446,0.2609652086985982,-0.2564851800734464,-0.0778553606556116
64,1.01148854909655,0.4187234655054555,0,0,-0.0006744701545375618,0.5454674853409435,-0.9098283590073875,0.28868666,-0.26418558,-0.10865697
65,1.009327956687077,0.42479004049002655,0,0,-0.018810039214908484,0.5629252164716714,-0.9275788151118276,0.326256391295747,-0.25254425746833437,-0.10812782123370626
66,1.0082877618951953,0.4252421082122148,0,0,-0.009798523903164465,0.5625183482344362,-0.8882419946159543,0.36432046,-0.24074976,-0.10759171
67,1.0095058422153913,0.42097399339180025,0,0,-0.010129612524393388,0.560484630253045,-0.8125465711352392,0.28089241365346,-0.27657776603412326,-0.042589494916319866
68,1.0142106562544078,0.4139818228479349,0,0,-0.017943516154150442,0.5585398270838047,-0.7815447024833083,0.19068234,-0.3153183,0.027696876
69,1.0235751817923848,0.40753810600535223,0,0,0.0012460676996599502,0.549256349511934,-0.8271729262781056,0.2707603308948234,-0.27900963475218976,0.09931942687405086
70,1.03855606517686,0.40627355290788714,0,0,0.028644204272029003,0.5342185860535832,-0.8941092176929596,0.36218992,-0.23755397,0.18109496
71,1.0597404449088685,0.4161249261670666,0,0,0.029938537024714797,0.5193307383003607,-0.9424353890388182,0.45873350672662067,-0.2263393149350763,0.20840021666703573
72,1.0872148621563096,0.44410584112342455,0,0,-0.0008571994616999639,0.5156108149093187,-0.9848223299361339,0.57311225,-0.2130529,0.24074976
73,1.1204628498088318,0.49786750470136815,0,0,-0.05831064280796709,0.5316898399341418,-1.0171652619144782,0.4933838029460908,-0.28240250588979243,0.19687551727960648
74,1.158295592122085,0.5850462869177036,0,0,-0.11403648090677392,0.5407319754746123,-1.0249398125222762,0.3930826,-0.36964676,0.14168017
75,1.198823975092503,0.7124423110035333,0,0,-0.13550820382381565,0.5080902360954159,-1.0390464314701184,0.21161918940807975,-0.4799838007795233,0.15216674753077317
76,1.239487168768102,0.8851220986856266,0,0,-0.12878427873698003,0.44731616887724657,-1.0832947056399502,-0.2710102335138445,-0.7461605980102758,0.1612717864600248
77,1.2771575625135534,1.1055676360909745,0,0,-0.13486390060814699,0.41376570272416596,-1.1186464058160377,-0.6040049,-0.9108011,0.15446335
78,1.3083392804706127,1.3729930505068861,0,0,-0.2073529202121764,0.43276565765622077,-1.0942171665309275,-0.6040049,-0.9108011,0.15446335
79,1.3294641938991407,1.6829237605269287,0,0,-0.37252676645018273,0.5019134433104339,-1.0490050766394001,-0.9797363072508197,-1.1231710155796961,-0.02900415114968215
80,1.337264804930054,2.0270920441905043,0,0,-0.6512226905811339,0.6225806691262347,-1.0883278120173892,-1.5595472,-1.4508902,-0.3121225
81,1.3291715657123468,2.3936531315862455,0,0,-0.9182742137154222,0.7041739363875528,-1.1320423699139996,-1.859662642326432,-1.6531418811760747,-0.43037447582235083
82,1.3036548294992358,2.7676764142587897,0,0,-0.9848013778712936,0.6827168086635488,-0.9669860388988751,-2.343582,-1.9792614,-0.62104917
83,1.2604275415014614,3.131838986558394,0,0,-0.9393574395051023,0.6219557742879656,-0.6632191767563769,-2.5997819339110353,-1.913639612723756,-0.36563508173543874
84,1.2004571876836498,3.467264364765562,0,0,-0.7695478131810439,0.5689265818829611,-0.5546597292158477,-3.0381343,-1.8013622,0.07137272
85,1.1257952275449257,3.754506053697876,0,0,-0.3775805603030639,0.5302358352599066,-0.6272826146142277,-2.984968218817893,-1.550991787173353,0.27385602290975497
86,1.0392884393911581,3.9747439317992725,0,0,-0.13272315640373317,0.5357048376066317,-0.8259359493908157,-2.8879318,-1.0940266,0.64341974
87,0.9442599369316028,4.111293820458279,0,0,-0.14928313484432457,0.4733411234585442,-0.8635139791043066,-2.8962841593030815,-1.1731920431330825,0.3736035074539006
88,0.8442330072035925,4.151478277133283,0,0,-0.43296270034843504,0.4356117593506524,-0.47740380471207805,-3.3200888163126514,-1.7819323672223937,-0.4362054847637948
89,0.7427376587799529,4.08874630389218,0,0,-0.5362339554575675,0.5172872468585441,0.002523539858348025,-4.133226,-2.6908581,-1.010936
90,0.6432106660959966,3.9247001576414653,0,0,-0.3955376997457982,0.45314410651637893,0.2554459127549175,-4.133226,-2.6908581,-1.010936
91,0.5489831132544793,3.6704998699712754,0,0,-0.21496606962622303,0.32762027756376577,0.13410776041575384,-3.8223891864960935,-2.7650877482701173,-0.9257706737714844
92,0.46333958459092806,3.3470970283427444,0,0,-0.24362555889668835,0.3060483901924968,0.0994238993660754,-3.134008,-2.9294772,-0.737163
93,0.38962214230198894,2.9839505794068066,0,0,-0.32579123485389694,0.3485084198148231,0.06579866126855584,-2.455185751414243,-2.3478557299829337,-0.8156834881924762
94,0.33133647714957304,2.6162404240044674,0,0,-0.3370768900753249,0.32467555986596114,-0.06558385607608494,-0.850081,-0.97258645,-1.0013486
95,0.2922022008150189,2.2809912654058397,0,0,-0.27058544876710594,0.2615943765435018,-0.17462924392036,-0.5516477438917492,-0.7535749374669563,-1.0052595091250436
96,0.27608691197861035,2.012808877129173,0,0,-0.2390750787957887,0.17676030964057363,-0.1801698800669855,0.121627529204579,-0.27475182695668315,-1.0405011552979413
97,0.286783603834335,1.8400101554817268,0,0,-0.2808300130240198,0.10143088149627767,-0.152695275308089,-0.101200126,-0.47830373,-1.1068097
98,0.32762882436889723,1.781780739606176,0,0,-0.30419282538580644,0.1567636165603496,-0.06863805402954039,-0.22997210384732786,-0.5921215470587509,-1.2524743443302362
99,0.40100099861313915,1.8466998693209475,0,0,-0.2974643101594219,0.18061921112995497,-0.05052403753672076,-0.5965481,-0.91612744,-1.6671388
100,0.5077722811485874,2.0326514452191726,0,0,-0.43553006060699634,-0.01941329781463572,-0.039578197827614604,-0.7582600856891663,-1.0392753635390637,-1.785916137680401
101,0.646807052694602,2.32788760247805,0,0,-0.54624962521674,-0.18231623119390597,0.10421569549313388,-1.2665994,-1.4263891,-2.159291
102,0.814603630267289,2.7128735656933123,0,0,-0.5524675505005284,-0.2722040834221046,0.2282485852160368,-1.1120508836661571,-1.2081887720261202,-2.381831248861583
103,1.005163018264906,3.162524298961135,0,0,-0.7100845983241383,-0.3352808439363491,0.3158728999454345,-0.5837649,-0.46232477,-3.1425302
104,1.210140867353537,3.648513373387992,0,0,-1.0429815295328608,-0.46363988068958073,0.2887323669265844,-0.3278524309258944,-0.3054607375760511,-3.4452776893877224
105,1.4192986293016354,4.141439138948664,0,0,-1.2623728739149993,-0.6976526959982345,0.02850693795067032,0.6327671,0.28336033,-4.581702
106,1.6212234548983924,4.612724371488788,0,0,-1.2496284096130588,-0.9043557366838202,-0.3667685393043528,0.6327671,0.28336033,-4.581702
107,1.804244674092316,5.036188100637962,0,0,-1.4037921417027366,-1.015635725615078,-0.36289478147522763,0.6219991899444467,0.44926584052684915,-4.669241185459634
108,1.9574464356253856,5.389275409563312,0,0,-1.5616324916499924,-1.198026444386539,-0.12242645567851858,0.39571719392770094,1.211833350553131,-5.156140388245137
109,2.0716610034104055,5.65396745963661,0,0,-1.8703831555157246,-1.2906871844628676,0.16201713095921735,-0.4133226,1.401888,-5.6373796
110,2.1403218020310253,5.817406329783643,0,0,-2.081186496231221,-1.2501091889139624,0.21971808822123082,-0.4133226,1.401888,-5.6373796
111,2.160064014169115,5.872256507725604,0,0,-1.9873091463479093,-1.1406562954112072,0.02131167210207644,-0.2240142390896947,1.4241896081305385,-5.632102102280356
112,2.130994149122747,5.816809237109424,0,0,-1.796520280009655,-1.020638377417603,-0.2489625278740774,0.9261775073716837,1.5807447574884685,-5.524426328932785
113,2.0566094327857853,5.654833176106951,0,0,-1.6873683096968146,-0.8949227246488781,-0.3914215187667474,1.7747306,1.7960359,-5.086638
114,1.9434136177868513,5.395179250590451,0,0,-1.6543997023007158,-0.7540554372645423,-0.30179961092026003,1.6676622724371803,1.6877762720408451,-5.018138094410668
115,1.8003197543136107,5.051151022698317,0,0,-1.6200250523298825,-0.5879416335112512,-0.11708775941089261,1.0088054,1.0215886,-4.5966163
116,1.6379382530770654,4.639656133759484,0,0,-1.555517088503119,-0.3659106855963268,-0.009921350216075844,1.0088054,1.0215886,-4.5966163
117,1.4678275313626943,4.18016218470207,0,0,-1.446386179342978,-0.21284664030328823,-0.015018304236646502,0.9808920868634803,0.8598408940132313,-4.459043503962793
118,1.3017525541679174,3.6934929869442987,0,0,-1.3708624708193209,-0.09061905971283542,-0.04974108525426566,0.7701862,-0.36112466,-3.4205642
119,1.15096906568893,3.2005266834718467,0,0,-1.2574991983084856,-0.008312264746177756,-0.09270546371927908,0.7827879310874801,-0.4263249293863306,-3.246112383074691
120,1.0255373742800915,2.7209025244082614,0,0,-1.0606331024608695,-0.04243374089938252,-0.17680940090298378,0.8926916,-0.99495703,-1.7246631
121,0.9336730152454796,2.27189185256563,0,0,-0.8842747781875917,-0.12417659479492452,-0.257242244302368,0.8782008996586538,-1.0045189238741243,-1.5884307833098084
122,0.8811599810909868,1.8676056195214654,0,0,-0.7576290651630404,-0.1665941018470919,-0.2997971590536584,0.73609775,-1.0982877,-0.25246766
123,0.8708758162028126,1.5186691811220787,0,0,-0.6887726072665964,-0.23040827160054958,-0.3109080352623431,0.6877655202301003,-1.1072041632495282,-0.22021839776339497
124,0.9024941120570129,1.23239604967948,0,0,-0.6549199375217225,-0.321071674298545,-0.2968798647506765,0.06445336225824451,-1.2190533349876194,0.1350769948696768
125,0.9724300469812355,1.0133615585753932,0,0,-0.69720508964624,-0.3648214317679415,-0.19009553075559849,-0.61678815,-1.3049489,-0.17789917
126,1.0740761423202259,0.8641572541368584,0,0,-0.8044369823741028,-0.43773273709003646,-0.1829117024613496,-0.61678815,-1.3049489,-0.17789917
127,1.1983399958745269,0.7860451549933347,0,0,-1.0356682275179854,-0.5133236190063808,-0.1600626243667494,-0.6202228699659363,-1.2800603793756562,-0.1949670964408883
128,1.3344481464311255,0.7792638429665815,0,0,-1.309354250466288,-0.5686446610572718,-0.10598958344269355,-0.6647093613804479,-0.7484045705382902,-0.5020418981535653
129,1.470930551536903,0.8428687160085768,0,0,-1.4968421478551281,-0.5656189532084286,-0.11263256905368778,-0.20985709,0.42077947,-0.07669904
130,1.5966638291738686,0.9741750865166906,0,0,-1.5982284024419304,-0.5762893783509543,-0.15290146347662362,-0.20985709,0.42077947,-0.07669904
131,1.7018417733347782,1.168039008934832,0,0,-1.629242163285137,-0.7100307648555013,-0.1134217868825339,-0.21081482941618537,0.43159491298064534,-0.051120400734727615
132,1.7787607222970439,1.4162814861995436,0,0,-1.5861926007187728,-0.890793131995351,-0.06364574843143479,-0.25353295,0.9139969,1.0897655
133,1.8223447410575446,1.707508552329309,0,0,-1.5553151231358153,-1.0789636772671456,-0.07230175864184557,-0.2569044212581226,0.9094065122319431,1.0988944059921923
134,1.8303770999890878,2.0274405770015154,0,0,-1.4771401653830232,-1.226105735241841,-0.10348848398971217,-0.6689861,0.34834146,2.2146847
135,1.8034417843253094,2.3597135688061144,0,0,-1.3597902083841258,-1.2546568150572417,-0.08582550836387273,-0.6689861,0.34834146,2.2146847
136,1.7446111118119583,2.6870125755844017,0,0,-1.2153033356202196,-1.0967601238886944,-0.04971134962251421,-0.34745626576077676,0.55707226771487,2.8292811529871735
137,1.658943766153268,2.992359700832596,0,0,-1.1677744810998885,-0.9515308743094354,-0.021050748984373244,-0.34408042,0.5592638,2.835734
138,1.55287656329784,3.2603907925546824,0,0,-1.1797838228297637,-0.913982927597158,0.011927149295755793,0.1470301909669468,1.3489946176472694,3.0282242675427375
139,1.4335937439875914,3.4784874669557615,0,0,-1.0999870382872097,-0.933474892526777,0.03940080839687338,0.1587244,1.3677995,3.0328078
140,1.3084371499617922,3.6376607739903775,0,0,-0.9336453297919821,-0.985416090186058,0.04405910901858049,0.27564448772654254,1.6016397909866356,3.515872636979749
141,1.1843905635792806,3.7330991157770943,0,0,-0.7490267943710481,-0.9713165412552426,0.053293942390458274,0.28016454,1.6106799,3.5345476
142,1.0676487024707768,3.764303052642718,0,0,-0.5920750636397769,-0.8882239094725286,0.049787087814834444,0.3661406387788148,1.4346817292845646,3.8622679125812813
143,0.9632746716059448,3.734753204651551,0,0,-0.508968316281107,-0.7704483610172845,0.052797715251075725,0.37071204,1.4253238,3.879693
144,0.8749550942521762,3.65111370749287,0,0,-0.5356749102797269,-0.6098868320437315,0.059633225028227356,0.5553790414490909,1.253633416988412,3.2767805211576744
145,0.8048689835148788,3.522065536870455,0,0,-0.5727122404014918,-0.4972723052219856,0.040345416011149215,0.567786,1.2420983,3.2362735
146,0.7536858111509992,3.3569698373241788,0,0,-0.5891554646731795,-0.41925302206581005,0.03048319434835126,0.6878552367407206,1.0334534186207827,2.4686174696716536
147,0.7206977689745839,3.1646401786075518,0,0,-0.5731859473361073,-0.38481728564105727,0.04090153527366638,0.666744438219977,0.8961226579164632,2.25228593728382
148,0.7040743801325638,2.952512200970678,0,0,-0.6021705433495899,-0.37159044349833537,0.038915825728877695,0.66365975,0.8841695,2.2370553
149,0.7012100399930948,2.7264172347385305,0,0,-0.6301232904399755,-0.3993314890651914,0.006466077174879753,0.5807387842576225,0.8088734454028097,2.406709798897479
150,0.7091214941711567,2.4910064652634136,0,0,-0.5735000781640796,-0.5000568557081383,-0.012521572993228753,0.57098174,0.8000136,2.4266725
151,0.7248460596873821,2.2506842819246646,0,0,-0.4990705314190861,-0.5877735546940495,0.0014914820590821603,0.31886260254866416,0.6425562833456917,2.4013668954877354
152,0.7457945352475308,2.010758696137992,0,0,-0.5114849976632247,-0.5778145088695361,0.07072759184577754,0.28442562,0.62104917,2.3979104
153,0.7700245008824433,1.7784496289053733,0,0,-0.4823168203594174,-0.5653517620425008,0.07058584332318586,0.28442562,0.62104917,2.3979104
154,0.7964157396635683,1.5634262423284881,0,0,-0.3381279224430481,-0.6259785112389208,-0.08963641733082758,0.12420471559695843,0.3402022135201713,1.832533194305888
155,0.8247430459113332,1.3776622484359595,0,0,-0.38294661477596836,-0.6666497108149883,-0.2269923516521676,0.099069595,0.29614353,1.743838
156,0.8556466043590549,1.2345762613410294,0,0,-0.6268381355920047,-0.7046820665196744,0.02868893609507425,-0.06493360893713084,0.4873295612402699,0.7480394368092066
157,0.8904957694837266,1.1476171087172498,0,0,-0.7411292573644364,-0.6351863712584523,0.4041538427859148,-0.5683183256100236,0.11591984091156464,-0.2859398878956321
158,0.9311367307186759,1.1286035097001557,0,0,-0.7547759649551151,-0.5558207784156564,0.4112589559373113,-0.660464,0.037284255,-0.4527374
159,0.9795213916131184,1.186184909526655,0,0,-0.7098083798644588,-0.6874532808099942,0.22142464751378904,-0.660464,0.037284255,-0.4527374
160,1.0372404215596198,1.3247418023492552,0,0,-0.6472415055054584,-0.7982300146212125,-0.0002546005809850562,-0.001591953427916481,-0.6799798359519661,-0.6592885664500482
161,1.1050205409587923,1.543916863656669,0,0,-0.6085488932065921,-0.794177314490608,-0.02420336106141662,0.14487597,-0.83942837,-0.7052051
162,1.1822785681944121,1.8388062356421073,0,0,-0.6061897365816633,-0.7709947579196492,0.04934852271016696,-0.007815337927045059,-1.5960224159477059,-1.316828080004788
163,1.266837959429856,2.200677154772865,0,0,-0.6649896564460773,-0.7720729844233672,0.14312156615401894,-0.04474111,-1.7789917,-1.4647386
164,1.3548989351439917,2.6179417652518135,0,0,-0.8446975247407716,-0.770555612443125,0.2203045346354276,-0.8354226881744462,-2.4557543035095417,-2.4697564386107675
165,1.4413087317204074,3.077044524553008,0,0,-1.1964072043921117,-0.7521926700423739,0.20845578614258378,-1.0428939,-2.6333337,-2.7334685
166,1.5201112360756772,3.562952116702814,0,0,-1.5228825281497034,-0.6844629519719854,0.10242937929607415,-0.6875159483063694,-2.1843480127052697,-3.551086538779787
167,1.5852843953866709,4.059089329271852,0,0,-1.720180147898683,-0.537407925035454,-0.06742389725472249,-0.5858955,-2.0559604,-3.7848847
168,1.6315254179611323,4.546817401276148,0,0,-1.7933453414416662,-0.3620046288225202,-0.2535019883054143,0.14133795541972938,-1.4751497563322127,-3.749905889659748
169,1.6549377995658459,5.0048285506340395,0,0,-1.747304384558288,-0.2544307902406525,-0.316572270688538,-0.4609539392458478,-1.8332953563018113,-3.084551951568535
170,1.6535125785582494,5.409025579743019,0,0,-1.5962662638365783,-0.22043161320370244,-0.31640167329430136,-0.72970617,-2.0080235,-2.871953
171,1.6273615979318894,5.733463635856179,0,0,-1.281299911255429,-0.2953353447135107,-0.2824928448072099,-0.72970617,-2.0080235,-2.871953
172,1.5787239592783628,5.952685381443423,0,0,-1.2113712620493353,-0.3249019849479292,-0.004805240281864963,-2.993000043191477,-3.6407556012724522,-2.686539769412898
173,1.5117984176915829,6.045296464919216,0,0,-1.3576948535062974,-0.34433073593459457,0.6466598704436796,-5.5572465808865275,-5.727350016330213,-2.944056756366848
174,1.4324383587896163,5.998050340974455,0,0,-1.2596600687606532,-0.23937667146450164,1.5143540865543785,-6.2179484,-6.2935824,-3.0668964
175,1.347698771945817,5.809310224306017,0,0,-1.0673810456259172,-0.21036480018839054,1.534730819751152,-3.1512492489324506,-5.403982548979647,-2.091059706993302
176,1.265196353675054,5.49078767892776,0,0,-0.8622489114857881,-0.3244815636766312,0.7843132944255957,-1.8993665,-5.0408316,-1.6927053
177,1.1922810270585358,5.066946026746841,0,0,-0.7007905430603057,-0.36626032211169535,0.309431151721617,-1.8993665,-5.0408316,-1.6927053
178,1.135112229496181,4.572143261826238,0,0,-0.6356978935298339,-0.34373283464926524,0.24751846527769683,1.1801029488350168,-3.106424767750572,-1.0216895531553494
179,1.0978214954843561,4.046153208203623,0,0,-0.6468471520267373,-0.37913049717182,0.3338013030799927,2.5640914,-2.2370553,-0.72011876
180,1.0819593857663317,3.5289925339472807,0,0,-0.7830822276116881,-0.45563241617960437,0.2935538942884367,2.100699322400787,-1.190825080945018,-1.1971824926252925
181,1.0863593118554715,3.056009588628158,0,0,-0.8185277222535015,-0.4965242090050818,-0.42608309170635505,1.8780613,-0.68816084,-1.4263891
182,1.107442994323128,2.654032166377019,0,0,-0.9092806332617916,-0.33404570024587904,-0.2810767654636758,1.637892070668117,-0.30994725431162073,-1.469351888727757
183,1.1398893557077416,2.339106978877869,0,0,-1.0672685584443526,-0.4328111955660265,0.5193458160159733,0.9316376936381789,0.3302448647125615,-0.9662423410370745
184,1.177516244336461,2.116064826122837,0,0,-0.8876192049939643,-0.7989896562991501,1.0690684893132139,0.61572284,0.572047,-0.68176925
185,1.2141903536860492,1.9798443260689964,0,0,-0.581674994441348,-0.9593620201228371,0.9963087277489884,1.9053037302858673,1.0631237386243904,-0.47726608184318964
186,1.2445909119220595,1.9182051115580503,0,0,-0.5644936005764967,-0.8620567733632899,0.6879844175338942,2.6578348,1.3496901,-0.35792887
187,1.2647095696430963,1.9151874683864913,0,0,-0.7407829834492853,-0.745243094995668,0.5313867975096788,2.6578348,1.3496901,-0.35792887
188,1.2720541441344857,1.9545189240045284,0,0,-0.8815774159108626,-0.677689118122232,0.49291036817434747,2.778939367036619,1.2852311485374976,-0.7310090453832899
189,1.265599696289974,2.0222213545952816,0,0,-0.9217514958536289,-0.6440197665102909,0.4698207495456844,2.017307109205177,1.4418642450589239,-0.7033143423643147
190,1.245568392838344,2.1079385150825685,0,0,-0.8459522381005949,-0.6519427253290124,0.7152579083572224,1.4636734,1.5723304,-0.52837116
191,1.213121290857884,2.204885660182267,0,0,-0.700685119376066,-0.6499330297655278,0.6702322481445586,1.0269658400584294,1.7372671412029357,-0.27596795407450836
192,1.1700307301610946,2.3086878376023408,0,0,-0.6618953990212832,-0.6603630515826499,0.44529821659752794,0.7190535,1.8535602,-0.098004326
193,1.1183865996566171,2.415624034008454,0,0,-0.6735361127927658,-0.6614302940165901,0.4838651413617703,0.24188145548740747,1.6691429023286928,-0.052965129871171114
194,1.0603741070973132,2.52089334752389,0,0,-0.4586565756356004,-0.7531681423601553,0.548488547776871,-0.11611383,1.530785,-0.01917476
195,0.9981394931734939,2.617472165330895,0,0,-0.1860466390361373,-0.8632805603138817,0.5770467533598532,-0.11611383,1.530785,-0.01917476
196,0.9337345138669255,2.6959546030986328,0,0,-0.29809353369265246,-0.7175396443234475,0.6304427532210349,0.13126175418513097,2.057777002099231,0.18013257232863406
197,0.8691101763755512,2.74548424370398,0,0,-0.49347425730098404,-0.48508440373075196,0.6394362397551061,0.9986376555564266,3.0773793756955734,0.44126510652869366
198,0.8061246512406666,2.7555472902848424,0,0,-0.4425623363639662,-0.3992950531393465,0.5999932371908947,1.5595472,3.5739622,0.52411014
199,0.7465409571430173,2.718109836471881,0,0,-0.26798920123862263,-0.3843229429008992,0.535957065980591,1.5595472,3.5739622,0.52411014
200,0.6920101698104826,2.6294667198303396,0,0,-0.13916495685869476,-0.3861425141529999,0.4521385936416095,1.2393064465962491,2.964615246983392,0.3428627588204668
201,0.6440547652702614,2.4912876177577896,0,0,-0.1610736600218796,-0.39391025049563183,0.40228854848944123,0.94595486,2.4064324,0.1768339
202,0.6040744778757432,2.3106437686086543,0,0,-0.2968027710486092,-0.3531146510478176,0.3031320021699016,0.4702797377359149,1.7906612427476705,-0.21738999548339843
203,0.5733897568655415,2.099134941885918,0,0,-0.5579927946345129,-0.16871647434144244,0.09643309463110004,0.05933055209617493,1.2203586495561907,-0.36060103753121275
204,0.5533195723553233,1.8714689683278458,0,0,-0.5612185856260244,-0.05958365024996223,0.022271951357910293,0.10546118,1.2420983,-0.12676647
205,0.5452699523531875,1.6439013519148113,0,0,-0.45449527378052007,-0.13856932823728108,0.12909487679455212,0.09196771131973219,1.3874125818427587,0.3709348369130738
206,0.5507949371215345,1.4328325667427737,0,0,-0.6765964715194432,-0.15052069878671603,0.2239988355583883,0.0777643,1.5403724,0.8948221
207,0.5715858304686765,1.2536660652865785,0,0,-0.601311220366318,-0.25448346651370374,0.23171332337783504,0.0777643,1.5403724,0.8948221
208,0.609349396679491,1.1198590187938355,0,0,-0.4231230684109925,-0.35887861686327416,0.1396352496853088,-0.09711841753058284,1.3080211466072291,0.961703640627605
209,0.6655534342741879,1.0420329722556274,0,0,-0.7349803142023833,-0.19108310342827203,0.2724030309725036,-0.45039468474718763,0.6312078669264867,0.8114270701463634
210,0.7410478424415126,1.0270694213007219,0,0,-0.8322589006496549,-0.24053451825389524,0.27899416807302124,-0.6306366,0.14594123,0.5422196
211,0.8356047129732586,1.0772452366897096,0,0,-0.6076083842230403,-0.43331402433418303,-0.03309509841236558,-0.6306366,0.14594123,0.5422196
212,0.9474568586039824,1.189585167834854,0,0,-0.6098929228164498,-0.3937728671261803,-0.031694368358408984,-0.4981469513327876,-0.03536037313159575,0.5729014303719957
213,1.0729448797717518,1.3556624624014124,0,0,-0.6655016939850813,-0.4164005667851192,-0.0705720590964195,-0.6500006434571389,-0.3884506484393731,0.30054159943873326
214,1.2063937014532082,1.5620448634884512,0,0,-0.7735514753312802,-0.5198086672418777,-0.19624717988384963,-1.0791129,-0.54648066,-0.113983296
215,1.3403124746569395,1.7914740830147076,0,0,-1.0740030577702018,-0.6218287602817355,-0.08929765586922918,-1.0791129,-0.54648066,-0.113983296
216,1.4659445809439418,2.024706138127915,0,0,-1.3810117729746236,-0.7057021724473173,0.3130590306380156,-1.8289319938885207,-0.860388671907244,-0.4582835318909398
217,1.574108442346313,2.2427577110048214,0,0,-1.470389714609011,-0.8105417196461089,0.5748236831236495,-2.9188247,-1.3166668,-0.958738
218,1.6561980896831558,2.4291463606945127,0,0,-1.3526689572661197,-0.8295152440894323,0.6262320159405979,-3.124012479021015,-1.3982373977608373,-0.8086313550915275
219,1.7051804715358883,2.5716498020951524,0,0,-1.459835394252958,-0.737233745221522,0.556370113647245,-2.958205864126337,-1.4018685884153514,-0.43219128820466174
220,1.7164372202527727,2.6632047259769966,0,0,-1.7714591726537252,-0.6166231412231665,0.25675155558507684,-2.1997712,-1.2101405,-0.20133498
221,1.6883346634723262,2.701811189229686,0,0,-1.7938131508728075,-0.6114704561073238,0.13410473150369145,-2.0837747984725006,-1.0329679963497822,0.21259715263997245
222,1.622449517094471,2.6896024167679733,0,0,-1.5079464734765653,-0.7471335969949935,0.06842310338313133,-1.8887138,-0.7350325,0.9086706
223,1.5234252136713546,2.631450496483177,0,0,-1.2240662654631813,-0.8877281835909268,-0.0698269284637347,-1.8887138,-0.7350325,0.9086706
224,1.3984867794548606,2.5335360069882005,0,0,-0.9241610489747515,-1.0056447812201141,-0.0071150421562453025,-1.7745737405061013,-0.5692487021796624,1.1500488115851375
225,1.2566926946906605,2.4022322636141826,0,0,-0.6722719686431712,-1.0047624932067132,-0.00953233645346001,-1.5638082,-0.26312032,1.5957662
226,1.1080362964351445,2.243506813063361,0,0,-0.5883551685920504,-0.8541845749901648,-0.2043573789282828,-1.212377445902266,-0.4807922365785678,1.5928973490480636
227,0.9625205887593443,2.0628835925208975,0,0,-0.4407132227997534,-0.6971830060556072,-0.16708076411648534,-0.51984906,-0.90973586,1.587244
228,0.8293224381709838,1.8658721535211868,0,0,-0.22816277784282452,-0.5846162193821449,0.03456304749635982,-0.6985064531730987,-1.061281829439067,1.4892257682010972
229,0.7161398157058038,1.658666649293419,0,0,-0.10344052593901823,-0.5603298771186159,-0.012401426123909874,-1.067395,-1.3741912,1.2868395
230,0.6287792256078978,1.4488527931814914,0,0,-0.24340647269581658,-0.46263495260067417,0.10718684948933058,-1.261827740814973,-1.1857614946192108,0.8359422358317986
231,0.5709898982812386,1.2458511424030834,0,0,-0.543522147969424,-0.24506113187358614,0.4734850567033904,-1.4606264166480527,-0.5533114805240533,-0.31528572617116246
232,0.5444958660578896,1.0608866606777099,0,0,-0.7401960949564227,-0.0571006530760922,0.5360261922673444,-0.94488955,-0.05752428,-0.68176925
233,0.5491381188622657,0.9063995095868442,0,0,-0.6325301221083475,-0.009286251400817718,0.30594411645654845,-0.5752373052890332,-0.1831132451978686,-0.3384102560495994
234,0.5830401309116118,0.7949580225292247,0,0,-0.38673838266546956,-0.13423947603303737,0.060827158951649724,0.32810146,-0.49002165,0.5006743
235,0.6427551998987455,0.7378494560766804,0,0,-0.3547192712298952,-0.2617318707889971,0.19677191253933388,0.32810146,-0.49002165,0.5006743
236,0.7234156550827079,0.7435800471182129,0,0,-0.44385843002986486,-0.22470296621949795,0.4496869056804142,0.26877745496540867,-0.3972037119643624,0.4941458218949917
237,0.8189416061971205,0.8165229192505986,0,0,-0.5036901407742512,-0.19830183307789095,0.4255840059073699,0.10546118,-0.14168017,0.47617322
238,0.9223617009657037,0.9559351319311883,0,0,-0.7483908469916676,-0.1656375467768093,0.3852451697403965,0.2679013326556748,-0.12449642026382501,0.2831245102912411
239,1.026262573083078,1.1555305047677662,0,0,-0.8879371953006336,-0.2563560533298692,0.24136694209718165,0.9038391801226034,-0.0997201121485012,-0.37941362474976087
240,1.1233392164307199,1.4037284299154378,0,0,-1.225552696571929,-0.2086368471879195,0.045437877331161794,1.3752564,-0.18002969,-0.6540724
241,1.2069797265164026,1.6845961918690913,0,0,-1.4554043106291923,-0.2473915961533831,0.11119718177428616,1.3752564,-0.18002969,-0.6540724
242,1.2717949754873663,1.9793892235620163,0,0,-1.3427770100926837,-0.31257462488491305,0.08722303322328576,1.350143276573815,0.32103723186221156,-0.3230573166946034
243,1.314007979604456,2.2685015527035843,0,0,-1.16061859345392,-0.40950960310980755,-0.01657298853985953,1.255257790969435,2.1939035334750407,0.900781633766202
244,1.3316514638614945,2.5335715512501,0,0,-1.1854843529939727,-0.5086833723705514,0.036068369107979885,1.2261194,2.702576,1.1888351
245,1.3245692883332283,2.7594417156021613,0,0,-1.3640628145960594,-0.5485431573375391,0.05912248292579625,1.2261194,2.702576,1.1888351
246,1.2942544627062678,2.9356713470001843,0,0,-1.0688269884726873,-0.6032705752772699,0.5075326304889,1.2470143686088042,2.758020104732021,1.2202809968129633
247,1.2435753726525263,3.057383253886115,0,0,-0.7233856798430827,-0.6873074569070226,0.38724673465075865,1.3393345952853266,2.697251879994509,1.3931323604906598
248,1.1764512956404791,3.1253803294017146,0,0,-0.602022660420859,-0.6482736735800744,0.31630490038204423,1.3635385,1.4455639,1.5755261
249,1.0975417091903938,3.145634574624365,0,0,-0.029298696190405628,-0.8539542799514573,0.6959137290358587,1.6261547683201265,1.3893813728190427,1.2380614311935652
250,1.0120007856994253,3.1283589379249017,0,0,-0.20571910016077316,-0.8310912910419638,-0.4067798679151017,2.8772793,1.1217234,-0.36964676
251,0.9253133130820995,3.08687685873202,0,0,-0.7119505620453038,-0.6733595431007704,-0.4087436465059651,2.8772793,1.1217234,-0.36964676
252,0.8431852022347651,3.036414676997264,0,0,-0.7208218493486823,-0.5000880269944785,-0.3160540741897763,2.8832981316147372,1.391461742676196,-0.6129339702293884
253,0.7714329229604234,2.992824442226468,0,0,-0.7016465514363424,-0.30221185180115784,-0.14941738944805272,2.7502808385411135,2.7306807796126167,-1.9327642591977394
254,0.7158126757734438,2.9711831504248143,0,0,-0.3871827900041809,-0.5275550428409159,-0.3126457418624747,1.7491642,1.5041534,-1.4956313
255,0.6817468617587801,2.9842585265201977,0,0,-0.14840743714143534,-0.6879658250197355,-0.6310171083031211,1.602257618995091,1.4249551581147517,-1.557457917258748
256,0.6739311948561532,3.0409642056994173,0,0,-0.16673554157496043,-0.6434517442270064,-0.2645766694411574,0.60507023,0.8873653,-1.9771309
257,0.6958358362996813,3.145062412657442,0,0,-0.29555987541419737,-0.723972947065811,-0.017697955781262813,0.5920569434455888,0.9922996780507927,-2.082301879969617
258,0.74915091079547,3.294405635975394,0,0,-0.38108909621472886,-0.5226591554757496,0.05229263060509332,0.4878911,1.8322549,-2.924151
259,0.8332682228115815,3.4809025059156555,0,0,-0.3568949170567157,-0.357209100155792,-0.1099099649447074,0.5612157454176676,1.8812051368351805,-2.9568852183927072
260,0.9449215337152956,3.691207727171534,0,0,-0.1953253096722476,-0.5370130722099689,-0.5529179490379151,1.2634037,2.3499734,-3.270362
261,1.0781080465512807,3.907977404482187,0,0,-0.15059518352846823,-0.698388250228443,-0.8156876526756852,1.2634037,2.3499734,-3.270362
262,1.2243767897221727,4.111472810352039,0,0,-0.3718036168376835,-0.710131448359357,-0.4438420616789212,1.1524789065727288,2.263969717503577,-3.312809219620504
263,1.3735067312829385,4.281341357072492,0,0,-0.6766758949551717,-0.6382821273277379,0.2225304452635163,-0.28820401314134636,1.0958243600079651,-3.861083023559299
264,1.5145250880949725,4.398501441219656,0,0,-1.2493660523917918,-1.0041798902806696,1.4193111334274122,0.3834952,0.8745821,-3.560114
265,1.636943692457216,4.44713512903589,0,0,-0.6715007179212795,-1.31009413851213,0.8149715691130728,0.3834952,0.8745821,-3.560114
266,1.7320324725101597,4.416786118607666,0,0,-0.32085827147512785,-1.6203757094076245,0.355886624765471,0.5131873832987044,0.7694030669011555,-3.5288178626431193
267,1.7939287844686604,4.304440798512128,0,0,-0.7891634885706759,-1.766563165236456,0.3817404442281295,3.601659,-1.7353158,-2.783536
268,1.8204071365205727,4.116262768916914,0,0,-1.0592514144503113,-1.65055232736769,-0.08826734934414679,3.6164957380410234,-1.8063339427105667,-2.791959079145934
269,1.813183125887641,3.868445292338005,0,0,-0.9161728741525524,-1.1737389596298866,-1.3475390689871738,4.122998618788714,-4.474805373119113,-3.0804650485971314
270,1.7776778189317446,3.5865767463550555,0,0,-1.0173445810277788,-0.6919133198144922,-2.326621413393831,1.675661,-4.0629187,-1.7353158
271,1.722231631798162,3.303101990808479,0,0,-0.5994793739675476,-1.1027733978680387,-0.25909394770651256,1.6583372178298816,-4.034319250865806,-1.7276265588939979
272,1.6568459349875033,3.052928155726869,0,0,-0.14977961537893295,-1.372400251635951,0.2902977145340106,-0.9201656832180768,0.22247420432384213,-0.5831460809021646
273,1.5916353000925394,2.8678292698906143,0,0,-0.06140340189577639,-1.3981896489647083,0.25557803331265144,-0.9331717,0.24394555,-0.5773733
274,1.5352488592156797,2.7707931325800925,0,0,-0.039730786140937155,-1.4305202400176866,0.15438329790914063,-0.9331717,0.24394555,-0.5773733
275,1.4935268400622697,2.7715914840311435,0,0,-0.32987704616641506,-1.2776510061048845,-0.13506254647448532,-0.5890400255590955,0.9737957788415479,-0.8809577433007256
276,1.4686058683143886,2.8645803914511268,0,0,-0.7558292278716802,-1.0542089751685326,-0.15204802853873525,-1.540763298049297,-1.3824808917269769,-1.8434788877061226
277,1.4586121286716431,3.0291937364566506,0,0,-0.893315035341506,-0.8506962281511142,-0.07163260618915038,-1.5744609,-1.4658039,-1.8769959
278,1.4580081745636595,3.233007032482927,0,0,-0.6194078750269688,-0.8739811174838952,-0.14350194120083556,-1.5744609,-1.4658039,-1.8769959
279,1.4585837721976707,3.4367904682153423,0,0,-0.1530618654751864,-0.9613892779081498,-0.32104176913915466,-2.0902076213872145,-2.8838550057351635,0.43528548118703697
280,1.4509905775599319,3.600685755124014,0,0,0.129249588846531,-1.1180102684543995,-0.6978462442200417,-2.118811,-2.9625003,0.5635249
281,1.4266083251744528,3.6904939598476942,0,0,0.27115057468071035,-1.656676775985094,-1.2405233496168369,-2.1983176278904755,-4.162056403691195,2.8364194539739502
282,1.379413842552369,3.683019656724927,0,0,0.792543040626923,-2.0904864181177745,-0.9590976055753575,-2.2040322,-4.248275,2.9997847
283,1.3074562211985905,3.5695128257759943,0,0,0.9177745105683408,-1.6457151941095867,-0.1267245244225951,-2.287198645077495,-3.199399147144021,2.8902006296251974
284,1.2135862051593773,3.356548728395209,0,0,0.6621540889191099,-1.024760004649603,0.20510671957538068,-2.2945797,-3.106311,2.880475
285,1.1052613340535578,3.064194191766614,0,0,0.1875943418851026,-0.7166611725500283,0.34434198735557897,-1.8851364825529768,-0.772966537307793,1.0230479762980136
286,0.9934834926122617,2.7219189914903623,0,0,-0.2396204059281688,-0.6401337720971543,0.4915929023674305,-0.5464556912126832,0.16482282394482384,-0.5850306254131376
287,0.8911160567442327,2.363230692450785,0,0,-0.33555134447660107,-0.6346843468463489,0.3532393625898873,-0.39414784,0.24607609,-0.75101143
288,0.8109112524469485,2.0202485493356694,0,0,-0.45723094432211026,-0.46960046861065946,-0.06940468143275336,0.9078312651688089,0.6366697934133866,-0.26581349244688773
289,0.7635681674935432,1.719301631369616,0,0,-0.32686257167197313,-0.29880973148699214,-0.5574205936617695,1.0865698,0.69029135,-0.19920446
290,0.7560887822235072,1.4782243395126364,0,0,0.10288081914785625,-0.33527420078834114,-0.5356200085728656,0.6022856846932617,0.9674197318682086,0.5161733279505882
291,0.7906408730799241,1.3055280161063392,0,0,0.17963511444309593,-0.3881966855730273,-0.1571950969127053,0.52624065,1.010936,0.628506
292,0.864081560380436,1.2012200921161995,0,0,-0.014469180271110228,-0.4394076432395416,0.2702318438990554,0.52624065,1.010936,0.628506
293,0.9682337242142336,1.1587841787378668,0,0,-0.16481304897094468,-0.4906996531250672,0.44708632005899046,-0.1305887067876182,1.9116019944746292,0.3378815358854692
294,1.090924658170783,1.1677156223674026,0,0,-0.33201123577213654,-0.5474790561198388,0.3854474234311794,-0.2514024,2.0772657,0.28442562
295,1.2176852359420751,1.2160111576730481,0,0,-0.411403415475904,-0.6162745313911894,0.05603648295022197,0.6585519877116025,1.4060747741446544,0.07572858388156564
296,1.3338759529440278,1.2921332065989946,0,0,-0.9502901375651039,-1.0965534675311686,-1.8694916814679865,1.3353732464831998,0.2472637877503736,0.3224969040285568
297,1.4268785669479862,1.3861826372106925,0,0,-1.4914962116263855,-1.3083741647354887,-1.751514853589592,1.442368,0.024501082,0.38562572
298,1.4879214080899814,1.4902512302142303,0,0,-0.8907621414584009,-1.3332189891553181,0.12299973328684531,1.442368,0.024501082,0.38562572
299,1.513158303818608,1.598114360251374,0,0,-0.4222011670852363,-1.6421965894508193,0.019706105228801986,0.22293115096541002,0.2271704635626669,1.2783971918192296
300,1.5038080383577,1.704534331006182,0,0,-0.2692270060154613,-1.4805325603239368,-0.3246346886213614,-0.07669904,0.27696875,1.4977618
301,1.4654045909192481,1.8044828765385488,0,0,-0.38501050443723667,-1.1478046136598072,-0.14792948936409886,0.4423921232281927,-0.5587847953003756,1.35244991392121
302,1.4064020790580727,1.8925730225105295,0,0,-0.5621609635582724,-0.9653139814785646,0.034952920860939374,0.5816344,-0.78296936,1.3134711
303,1.336472988544708,1.9629271841016311,0,0,-0.4345300556245647,-0.959940830052726,0.16176014315416234,0.5197454731806567,0.29719862100918604,0.7911285728274875
304,1.264842655917632,2.009606689914843,0,0,-0.2115288733172539,-0.8781411601374416,-0.03363577104903166,0.11497986417226541,1.2976747471876855,1.005519638552595
305,1.198941988685001,2.027584677388614,0,0,0.2215613983967209,-0.6633805928067428,-0.6681691724936342,-0.0031957934,1.5073493,1.1174624
306,1.1435579609541693,2.014059515844994,0,0,0.5770681275837373,-0.9193183886790695,-0.5582880551364765,0.5291330900439848,2.709691920295499,1.3215884772470452
307,1.1005430072886375,1.9697191816190758,0,0,0.18162266587793274,-1.1316934683814062,0.22433372798212528,0.7052051,3.1073763,1.3891048
308,1.0690380209063772,1.8994706785265438,0,0,-0.0004926734342552488,-1.010939372939391,0.3933800079917961,0.7052051,3.1073763,1.3891048
309,1.0460929669091177,1.8122402887775613,0,0,0.02092783470223107,-0.8873666909380671,0.36839265513066155,-0.535278632220879,1.0064190341212382,0.2475171872152948
310,1.0275399547285267,1.7197465548689412,0,0,0.17325084716502706,-0.9844232309431704,0.052575331592616105,0.12174386739080251,0.6247114633466325,-0.19025972811278138
311,1.0089699101224157,1.634528480111273,0,0,0.33148980016833157,-1.1606755950748133,-0.20535358763647008,0.55074173,0.7755125,-0.19707392
312,0.9866661965644623,1.5677759167597605,0,0,0.27508900591726654,-1.1716632342199624,-0.15976768604139213,0.55074173,0.7755125,-0.19707392
313,0.9583550031910786,1.5275280257047428,0,0,0.006770575235327373,-1.0804433392229689,-0.11314002255955637,0.9540933063495554,0.7441407137668361,-0.4062192036255236
314,0.9236568751306498,1.517615082252645,0,0,-0.24940941383506277,-0.9764502742222795,-0.26163350216975684,0.8396345768950082,-0.21757821896864543,-1.1787501542098753
315,0.8841741846031175,1.5374556570905664,0,0,-0.463958668226005,-0.8072634773517158,-0.2929361051956177,0.7126619,-0.6380934,-1.4817829
316,0.8432156148595412,1.5826010429578412,0,0,-0.5068673137432905,-0.6706099728773061,-0.2162570001497035,0.5002830164632174,-1.239833614098688,-1.2441207370896217
317,0.8052231261172664,1.6457906347148894,0,0,-0.4010343407276244,-0.6115197086734411,-0.13982563504000392,0.39947417,-1.5254587,-1.1313108
318,0.7750171349818614,1.7182489362940543,0,0,-0.29290948930587446,-0.5481778885619267,-0.02328963398660609,0.39947417,-1.5254587,-1.1313108
319,0.7570052829056256,1.7909968708003476,0,0,-0.2479638925794774,-0.5041212389513218,0.04252437439499602,0.211995516928133,-1.5619714282755317,-0.6889454637779511
320,0.7545036224948922,1.8560335056778328,0,0,-0.1707392350405872,-0.5045115422901854,0.002421780254289345,0.11504856,-1.5808525,-0.46019423
321,0.7692925049637869,1.9073294825843075,0,0,-0.07007307956426169,-0.6051576965790038,-0.09265844350190428,0.24237439094373234,-1.5526343080882974,-0.661162545416483
322,0.8014753304029919,1.941624540461284,0,0,-0.05771487198559935,-0.7709905951179625,-0.10786901947151524,0.3121225,-1.5371766,-0.77125144
323,0.8496375505074037,1.959020211859668,0,0,-0.19141703204847155,-0.8633542264319441,-0.1611930142806111,0.6152600498238985,-1.2394281523361375,-1.4428695282308848
324,0.9112336073142827,1.963313784047208,0,0,-0.46630828877750863,-0.8859474426371399,-0.279897605761432,0.7914915,-1.0663297,-1.8333201
325,0.9830797125368277,1.9619629009065473,0,0,-0.6674703202424869,-0.9533810812086596,-0.30319042590750483,0.7684569821139289,-1.2025624774369594,-2.086041676490155
326,1.0618135220652754,1.9655437287739472,0,0,-0.6197357581419003,-1.1068808243835844,-0.23585477215360287,0.75420725,-1.2868395,-2.2423816
327,1.1442016311348195,1.9866059977132562,0,0,-0.5195457217199281,-1.1786676186139522,-0.024571916000561907,0.12760167014539373,-1.1428809112635947,-1.5907119084407593
328,1.227227738055341,2.037946474892548,0,0,-0.5270793477990913,-1.1410970594281518,0.24279704425025583,-0.28442562,-1.0482203,-1.1622036
329,1.3079658437321546,2.130483564046502,0,0,-0.4885395907963679,-1.0926670599790353,0.25799869773826095,-0.24491437359984855,-1.6051406267659112,-0.6228437571952058
330,1.3833145913612876,2.2710463191937706,0,0,-0.3809465084104936,-1.0872005846252326,0.027664422550712806,0.23179126407822148,-2.578567817962015,-0.03480513036998775
331,1.4497190936116602,2.4604341186529948,0,0,-0.45348402497057305,-1.1160637339416855,-0.17141352829961504,0.5571333,-3.0019152,0.11824436
332,1.5030186786508954,2.692074520801009,0,0,-0.5900689697719153,-1.165379768054308,-0.31687595042479005,0.2179095367220686,-1.9289095715658948,0.47671488077669
333,1.5385280797311038,2.951572794050493,0,0,-0.5482566292749483,-1.2230591654601284,-0.528694637266772,-0.043675844,-1.1014835,0.753142
334,1.5513960256340762,3.2174253952799843,0,0,-0.4897408695312122,-1.3278463642722949,-0.6469840910999534,-0.9754097837482599,0.07035787452817609,1.4752211190194164
335,1.5372106308115108,3.463079669566225,0,0,-0.521346463154116,-1.4233901643570408,-0.5778853407537611,-1.7385116,1.0301107,2.066613
336,1.492758083848041,3.6602682094762096,0,0,-0.46852892043873096,-1.4022182129802256,-0.37937966232684295,-2.556680949097938,2.4943831286206497,2.5856605758032214
337,1.4168038717488938,3.7831566792403115,0,0,-0.31799769391745936,-1.3891268446427025,0.20434256406592816,-3.2682314,3.7678404,3.037069
338,1.3107559845711503,3.8124939991072813,0,0,-0.15227851368656575,-1.431345995722161,0.4910008632748726,-2.2213930564956557,3.1981475812520004,3.2620643893709174
339,1.1790807007399007,3.738847064612358,0,0,-0.047710186946315035,-1.3555543473469287,0.0955675755103346,-1.2559468,2.6727486,3.4695663
340,1.029367935326652,3.564218041933787,0,0,-0.042781865135651354,-1.1540210267217594,-0.1258041320169825,-0.38060519351874034,0.6958231735344346,3.1614460385798937
341,0.8719848106525347,3.3017770544797433,0,0,-0.008825512971631278,-0.9551965563936412,-0.05480570972590391,0.47510794,-1.2367721,2.860235
342,0.7193125295130338,2.9738902878996725,0,0,0.039207647827677945,-0.7828813267244473,0.028105241092006582,0.47510794,-1.2367721,2.860235
343,0.5846242688038717,2.608923673987122,0,0,-0.022973286427762314,-0.5898649317181868,0.08999242007161372,0.3871542657190526,-0.9791195173021656,2.1788526886874204
344,0.480718106038339,2.237427917553906,0,0,-0.132844642601225,-0.40437684236644295,0.09902769366303191,0.294013,-0.70627034,1.4572818
345,0.41846054419683515,1.8883223628295223,0,0,-0.2091220121016004,-0.2841020885815336,0.0915474801613564,0.47500873332344,-0.18942697237163014,0.9509964963637463
346,0.40542003176870356,1.5856409144664791,0,0,-0.22131260039851253,-0.18224452440481237,0.03362058317455425,0.6775082,0.3888215,0.38456047
347,0.4447750882843305,1.3462788793248128,0,0,-0.08079816661358419,-0.14553428990593356,-0.06731853541693995,0.9043374709012705,-0.1777564235360504,0.3107666665749291
348,0.5346669411365599,1.1789752124921367,0,0,0.10786615342820219,-0.24161275428466614,-0.12172725663700266,1.1220734426966463,-0.8478528681263116,0.10121346028230652
349,0.6681289977559468,1.084515486075821,0,0,0.13592970129740556,-0.37785882646379015,-0.12482367372708443,1.0705907,-0.8692558,-0.046871636
350,0.8336620067443157,1.0569217260874622,0,0,0.06263287643091991,-0.5181234007404113,-0.147017217556698,1.0705907,-0.8692558,-0.046871636
351,1.016435913182168,1.085272254569163,0,0,-0.07892320337532706,-0.710054446426879,-0.2774697206935029,0.7606549374283907,-0.1978829034021685,-0.43429138342281887
352,1.1999952064750545,1.1557814477600314,0,0,-0.6315119804016053,-1.0796108470732333,-0.7033721044960602,0.2704650031043607,0.6046441732733792,-1.189633737707888
353,1.368238920865822,1.2538245066937441,0,0,-1.2628840076843553,-1.3372337383648658,-0.6291361550228111,0.15233281,0.51452273,-1.5275892
354,1.5073661245019825,1.3656631037865383,0,0,-1.3338565063369352,-1.2385817335544644,0.2528879984216178,0.15233281,0.51452273,-1.5275892
355,1.6074589190654416,1.479695726277607,0,0,-1.4355940523257633,-1.1709346585352494,0.5278729116851565,0.2850387776582255,-1.1142592832151126,-1.3019458483459394
356,1.6634387995480107,1.5871365047103732,0,0,-1.5672103007513998,-1.1555249008683584,0.24892003278806182,0.5843350749989591,-1.7689409892895895,-0.7960111442083913
357,1.6752616098780277,1.6821301202595587,0,0,-1.3010719615810333,-1.1843135174642558,-0.10424243830164712,0.74248934,0.8383631,-0.531567
358,1.6473680947686735,1.7614248758551116,0,0,-1.0484800732264654,-1.1897464766242933,-0.25347585118754107,0.6233694288692249,0.912864200100156,0.03947175616782445
359,1.5875425971427573,1.8238145491942723,0,0,-0.8635957328736847,-1.1344620641653025,-0.1754346496906416,0.43249738,1.0322412,0.95447695
360,1.5054287522245162,1.86957589178436,0,0,-0.2977975692242105,-0.9479413367244166,0.06645508113031268,0.4246193761474625,0.7978705114334748,1.4736376250032903
361,1.4109931186002092,1.90005152004283,0,0,0.2761937847752965,-0.9542291353779975,-0.2046870909043151,0.4111921,0.39840892,2.3584955
362,1.3132057802460566,1.9173963736006012,0,0,0.5336565224645952,-1.1948133153397067,-0.6655110725663523,0.4111921,0.39840892,2.3584955
363,1.2191258886316363,1.924402361692996,0,0,0.26502454612844667,-1.0413502410314444,-0.34866128521728545,0.26063886230814587,-0.21823046786577693,1.9171932782261054
364,1.1334695418844836,1.9243030507002359,0,0,0.0017377475727719037,-0.9585780288198402,-0.08355559027746452,-0.022370555,-1.3773869,1.087635
365,1.0586391433268625,1.9205306700349567,0,0,0.01611887532693372,-1.0055517732895833,-0.04273920170562759,-0.4729784470902637,-0.36928937281915364,0.5738212978464354
366,0.9951283741957331,1.9164781072425026,0,0,0.1196332867969518,-1.027951245204869,0.0007221704184152238,-1.3741912,1.6468989,-0.45380265
367,0.942175752397676,1.915329355952895,0,0,0.18288748378717418,-1.0945077239405339,0.1507133212139263,-1.2853258227699875,2.0592204670360466,-0.4006877282339108
368,0.89851088493202,1.919950773304467,0,0,0.1864101156165632,-1.1176441651384719,0.24917113336622165,-0.8862111001287343,2.3287915375969894,-0.5940291042801188
369,0.8630280543573027,1.9327566427997223,0,0,0.04113760144185949,-1.062326666767252,0.0486579911837938,-0.4261058,0.9960223,-1.2655342
370,0.8352455011925536,1.955463017899279,0,0,-0.21637732344799468,-0.9210100596251689,-0.18530282838224338,-0.4261058,0.9960223,-1.2655342
371,0.8154668141007982,1.9887275476852466,0,0,-0.38781307050717473,-0.7532209616754054,-0.12285964192116995,-0.2451030642387888,1.0028525572718539,-1.5418505257194255
372,0.8046379079433285,2.0317614851620402,0,0,-0.4796225046523318,-0.594314126465219,0.04632682076002387,0.2957025045612298,0.9875914351197483,-2.118626751189081
373,0.8039666092472498,2.0820287512637967,0,0,-0.46719573740088405,-0.5613977310753746,-0.02284888454717284,0.5486112,0.9076053,-1.8801918
374,0.8144236231031466,2.135128358118616,0,0,-0.32167549731551115,-0.5856672743661065,-0.10898210966677221,0.6125435267346075,0.5555475097943413,-1.7339788642600056
375,0.83626539397589,2.184940157539796,0,0,-0.20931045447360402,-0.6018799046307703,-0.00599427912151022,0.7861652,-0.40053943,-1.3369069
376,0.8687110235922796,2.2241117696159636,0,0,-0.17236585565288426,-0.6323533166239418,0.10343359103131577,0.838555543933816,-0.5993541275606769,-1.4016560298881744
377,0.9098702287763308,2.2449382550466144,0,0,-0.21343396801359985,-0.6557951857734401,0.229431137474784,0.9938917,-1.1888351,-1.5936357
378,0.9569617494771947,2.240599517781927,0,0,-0.290843109765148,-0.7870337488501798,0.13552911922731517,0.9938917,-1.1888351,-1.5936357
379,1.0067891302603105,2.2065875257267997,0,0,-0.3907999694208897,-0.9926285140728042,-0.2264255199917915,1.169756055815523,-1.443683294207375,-1.6654608667791244
380,1.0563666435623305,2.142032707087651,0,0,-0.6110302368693394,-1.1134252121661317,-0.3714112310168584,1.7710908955288305,-1.8787479833629095,-1.8719876751003106
381,1.1035316985787142,2.0505849495918613,0,0,-0.8986443573965636,-1.1437360518626511,-0.3068390977831747,1.7427727,-0.27377295,-1.7204021
382,1.1473632147873276,1.9405539337331221,0,0,-1.00447635093981,-1.107523090509015,-0.26887303404942714,1.6030796752596943,0.0435543939807632,-1.4903828813043132
383,1.188263328288812,1.8241648306588982,0,0,-0.949504263992398,-0.8053272519946425,0.07601329568853886,1.0524813,1.2942963,-0.5837649
384,1.2276491562034162,1.7159923526395051,0,0,-0.7734048678156243,-0.8481555853636825,0.017143387377034972,1.0524813,1.2942963,-0.5837649
385,1.2673148911981122,1.6308256475446021,0,0,-0.5876230376314001,-0.9481742932115003,-0.10481420145637374,0.966775218869176,1.0221088434433239,-0.33116740888636165
386,1.3086212959986356,1.5813365101678942,0,0,-0.4337840747758499,-1.0052135451084296,-0.07527678602025471,0.567786,-0.24501082,0.8447547
387,1.3517178650891757,1.5759639165726005,0,0,-0.26363605315688265,-1.1446053368209554,-0.2597799143520552,0.5032098750090354,-0.2934861947357734,0.9101964545931376
388,1.3949955904377047,1.6173966416310308,0,0,-0.2650213299365945,-1.021268744160522,-0.19440086192774975,0.17044231,-0.5432849,1.2474247
389,1.434918041487555,1.701938542735532,0,0,-0.4870857411015324,-0.9706040816193544,-0.1443299936232797,0.05654689585902258,-0.5222338801115419,1.231557891641507
390,1.46630046737082,1.819892805816469,0,0,-0.7307296813353072,-1.1845444917970815,-0.3941237751814147,-0.6018744,-0.40053943,1.139833
391,1.4830114284759135,1.9569303513114393,0,0,-0.8415982838367886,-1.4370764011991706,-0.7466941129789587,-0.6015912292269948,-0.44938705556577696,1.333382848377342
392,1.478975638949192,2.096236466466938,0,0,-0.2726481637029884,-1.6639364442989784,-0.23972196088318565,-0.5997439,-0.7680557,2.5960495
393,1.4492910181350218,2.2210723930911302,0,0,0.1266738912856819,-1.5201078947943452,-0.04098092721282011,-0.690736626556769,-0.7974163525387201,2.6788161905233285
394,1.3912642212017472,2.317277972460146,0,0,-0.02456737435127801,-1.1783380782568331,-0.058119247065050395,-1.4291938952834642,-0.9298921370494824,3.097559804290837
395,1.305210334245464,2.3752368391701375,0,0,-0.3222913141552223,-1.2658655178789997,0.05637932497183519,-1.9249328,-0.26418558,1.5744609
396,1.1949149205932772,2.3909644244980925,0,0,-0.4211657561289655,-1.3980666591722102,0.28179030786698717,-1.7865917368943587,-0.33789015559763,1.559698888076437
397,1.0676880839401783,2.3662230001150557,0,0,-0.328767464206961,-1.3635588440225215,0.3797936994043982,-0.5273059,-1.0088054,1.4253238
398,0.9339578579638408,2.3078127210669748,0,0,-0.289873463619613,-1.0332709854758422,0.2795762307446138,-0.45063036239680554,-1.0619850405602778,1.4322290939326388
399,0.8063872605506955,2.226331067513816,0,0,-0.3755036070603906,-0.6467457442514777,-0.13855148754728863,0.3834952,-1.6405072,1.5073493
400,0.6985721648719416,2.1347006786458587,0,0,-0.3436831847897399,-0.47057589797196864,-0.16127897349942086,0.3834952,-1.6405072,1.5073493
401,0.623463829103279,2.0466814801601805,0,0,-0.20659844149579942,-0.4560483665990478,0.0422947864989758,0.34580792225438595,-1.4963485615462406,1.491608933906337
402,0.5917222600489476,1.975486359876032,0,0,0.021918763165463515,-0.4411429429001375,0.18742018024315832,-0.20287270962176893,0.8321014942323999,1.2046325783146783
403,0.6102242971708447,1.932561967575057,0,0,0.20684657248977126,-0.4268858987714836,0.23375300951015077,0.5006743,2.0751352,0.50813115
404,0.680930085914686,1.9265733356720727,0,0,0.3377533082867233,-0.45394995898546187,0.11812920877649807,0.5323360702518898,2.038569295132967,0.4611117040653337
405,0.8002717238245597,1.9626161602484848,0,0,0.38987036306976913,-0.4933621136937218,0.17612969806490872,1.284709,1.1696603,-0.6562029
406,0.9591816810298306,2.041669812737629,0,0,0.38844140202329014,-0.4998893071030576,0.22847324631423044,1.2751495394018422,1.1446314058924267,-0.6939505050563369
407,1.1438277540924375,2.1603089081557294,0,0,0.22122078228843445,-0.41283225690653524,0.08089983837950321,0.9108011,0.19068234,-2.1326594
408,1.3370536969480296,2.310704878061355,0,0,-0.07096087540975421,-0.2963890273633533,-0.15370784038157126,0.9108011,0.19068234,-2.1326594
409,1.5204176700396705,2.4809538868224856,0,0,-1.2051533132491419,-0.35457536186127664,-2.245480378120349,0.908663145832992,0.19325082878719185,-2.1325177284475796
410,1.6765661707834312,2.6557624880439468,0,0,-2.137207941052883,-1.0364775214251232,-0.32375608534415434,-0.3234891402899262,1.6735301443388662,-2.050869145944113
411,1.7915278877156506,2.817516297923447,0,0,-1.3964229939296187,-1.6526412410216607,1.749568999336878,-0.3270362,1.6777915,-2.0506341
412,1.8564608604376434,2.947746210877392,0,0,-0.5252915574695299,-2.038031346362072,0.2307792106312402,-0.3511627516022054,-0.2502364071154327,1.8778015068975262
413,1.868504106408177,3.0289722125766088,0,0,-1.795880563235608,-0.888060759301462,-0.5636296539083598,-0.35153726,-0.28016454,1.9387813
414,1.8306299303924494,3.046817183722429,0,0,-1.1269254541492837,-0.3986354284734321,0.18189434029878987,1.3201864294484027,-4.23047749454882,1.0279659591009902
415,1.7506484295911393,2.9921316830210603,0,0,-0.0759614428013363,-1.15430225686124,-0.29465464068813396,1.3709954,-4.35054,1.0002834
416,1.6396761721843742,2.8627239632656973,0,0,-0.7871426139414928,-1.4712496235349732,-0.5069667557129484,-0.24721983545151419,-2.487912282892853,-0.391850184999767
417,1.5104068917441598,2.6642792380323517,0,0,-0.7538364157545802,-1.3521381890318687,0.8490662037074617,-0.32170987,-2.4021714,-0.45593318
418,1.3754486423597119,2.410228078864745,0,0,0.07970677983154498,-1.094654677325654,-0.8485993533123876,0.7890020573526335,2.2252933648422966,-0.36763811403623653
419,1.2459005128341736,2.120570061898816,0,0,0.06873071892679032,-0.733514791160366,-0.379628107390172,0.85753787,2.5108283,-0.36218992
420,1.1302922217753077,1.8198284661395914,0,0,-0.09683555199645176,-0.6210513326900955,0.47096855580513153,-0.19479752748166715,2.31320670923962,-0.422464529298761
421,1.033991038421441,1.5343881773205934,0,0,-0.021320215707805682,-0.6494154605681814,0.23464948426117965,-0.7863599131715209,-0.1895397080789153,-0.16416484783516178
422,0.959140362216611,1.289527472497822,0,0,0.04140564253278829,-0.8674600713192275,0.11732971785925239,-0.8319715,-0.41225734,-0.14061491
423,0.9051059150270861,1.1065222547111317,0,0,-0.02462829829137929,-1.1845734963827532,0.15347487245065639,-0.8319715,-0.41225734,-0.14061491
424,0.8692936521450441,1.000227530692013,0,0,-0.06712591321879302,-1.3057605006430792,0.19051243049066116,0.23996785183894173,0.20219363402324064,-0.0822324990014079
425,0.8481205026870606,0.9774805925773697,0,0,-0.1388186458673764,-1.0633386259704403,0.19546098858625066,0.36112466,0.27164245,-0.07563378
426,0.8379065764799841,1.0365347290976294,0,0,-0.18936366935668816,-0.871879616386395,0.1707972622617302,0.2603700415991214,-0.0711115852309876,-0.7790328440020813
427,0.8355197472248255,1.1675568513677688,0,0,-0.14853965320037826,-0.8258853759479098,0.11947775876546474,0.009561411435075775,-1.131651639306563,-1.0157977401252716
428,0.8387053068692844,1.3540408768893726,0,0,-0.1047395792740402,-0.8080774453495196,0.07543269412705353,-0.024501082,-1.2772521,-1.0365024
429,0.8461270548625411,1.5748456346219992,0,0,-0.10776108607115392,-0.7803308556973704,0.08328202892362643,-0.19021975650131331,-1.7258826906556934,-1.0612228304220723
430,0.8572039572300106,1.8065088257931163,0,0,-0.111462456652254,-0.7404778597570985,0.11697305521993169,-0.21731395,-1.7992316,-1.0652645
431,0.8718473595641446,2.0255312798324177,0,0,-0.0810911922598025,-0.7201355297359779,0.13515712850959885,-0.21731395,-1.7992316,-1.0652645
432,0.8901978076900949,2.2104372494726796,0,0,-0.16984058582186823,-0.7464583384653204,0.1446788720763327,-0.03744097445281102,-1.0135178453721345,-1.4384338241869952
433,0.9124358780396886,2.3435409500068203,0,0,-0.25598986809549973,-0.7899120926945977,0.18886238295564994,0.5048568248794709,0.39292548693977514,-1.938757661406389
434,0.9387036912871527,2.4124307233130327,0,0,-0.29949857625935633,-0.8718140931664454,0.1866923773068372,0.608266,0.6487461,-2.026133
435,0.9691307934689164,2.411185742981631,0,0,-0.32451563661033755,-0.9475408700670693,0.16464481931949002,0.608266,0.6487461,-2.026133
436,1.0039205567535003,2.341272161436444,0,0,-0.4039992659417906,-0.9762744215803321,0.43297910714963306,1.1068112053780854,1.0652084927051715,-2.129816629690498
437,1.0434312298477095,2.2119685837417395,0,0,-0.5475970811605024,-0.9359094243790965,0.15771625779141019,1.2229236,1.1622036,-2.1539648
438,1.0881846989138457,2.0400992982316084,0,0,-0.7820441016592293,-0.8499605929633195,-0.3137737333979156,1.772430477200763,-0.8438787462010832,-2.04270439530553
439,1.1387550555302224,1.8488546667297177,0,0,-0.9677155478009047,-0.8266165756551197,-0.45117379158308507,0.9880046710258273,-1.8869502378481635,-1.3118634677378764
440,1.1955229464231947,1.6655796009989972,0,0,-0.8656668233570084,-0.7828839210925037,-0.12484796593318409,0.7392935,-2.030394,-1.1227888
441,1.258324314502734,1.518609663721861,0,0,-0.8891913605218964,-0.6164751004433677,0.2594060258047315,-0.6565421696260124,0.15214060394125503,-0.38623469680007544
442,1.326065453012756,1.4334852795217408,0,0,-0.936322661275851,-0.5617792725520726,0.46010353288171774,-1.0695255,0.7978831,-0.16831179
443,1.3964059594568892,1.4290984260650554,0,0,-0.8376046237512541,-0.821971813929124,0.3631681155614281,-0.52468120414528,0.22724732454790886,0.3056060515873648
444,1.4656118564997742,1.514441715613147,0,0,-0.7406761785204544,-1.1428729497477919,0.2220342164333117,-0.34940675,0.043675844,0.45806372
445,1.5286497766927556,1.6865969143876127,0,0,-0.7792334149111394,-1.280081698970363,0.021639445943501662,0.2094613169627637,-0.16263895949283771,0.9141696909172988
446,1.5795425315317122,1.930430263040705,0,0,-0.9236902232878738,-1.2720905183665074,-0.41719145586538586,0.40373522,-0.23435818,1.0727214
447,1.6119556879409263,2.220192385927757,0,0,-0.8113770546056868,-1.3068624892510647,-0.6357509779379974,0.40373522,-0.23435818,1.0727214
448,1.619948630553672,2.5228911806102285,0,0,-0.41365283849721923,-1.4063410948687094,-0.2800387937605063,-0.8983384122346532,-0.7624128319368139,2.146509272001623
449,1.5988062626892816,2.80295808650928,0,0,-0.14035646642002106,-1.5036359228896299,0.030510089824119898,-2.392426924830569,-1.0891021773522729,3.192123447711213
450,1.5458611848011536,3.027420167583603,0,0,-0.039015715676964026,-1.5500558541852465,0.12244966846168932,-2.7931235,-1.1387677,3.4471958
451,1.461207835780541,3.170618637996407,0,0,0.03317116617441648,-1.620003747751772,0.08853493462770495,-2.7931235,-1.1387677,3.4471958
452,1.3481959477418284,3.217580661635115,0,0,0.023063260898985003,-1.6648430440518014,0.15325848932690783,-2.0133023349447403,-1.0494131243480005,2.9546382430815075
453,1.213584407877067,3.1654731707592525,0,0,-0.13776191563765833,-1.4863789594380548,0.20622230898777283,-1.6682042,-1.0098706,2.7366643
454,1.067259776247647,3.023034593627807,0,0,-0.2985780238856459,-1.1549169707985827,0.07617371801528475,-0.7975084255491294,-1.3208334153817993,2.0865352832341966
455,0.9214863645106166,2.808321161706425,0,0,-0.3266162507752812,-0.8169270034183063,-0.008820890117074001,-0.38562572,-1.4679344,1.7789917
456,0.7897436660274545,2.5453904803859495,0,0,-0.2846190086520978,-0.5842719782587554,-0.05754817780577074,-0.04764944467350343,-1.0595167386999242,1.521418148597491
457,0.6852910053596637,2.2606363859078478,0,0,-0.17391814905395592,-0.5177942002067402,-0.020776547410994512,0.12037488,-0.8564726,1.3933659
458,0.6196490408095509,1.9794132936339144,0,0,-0.03654525127762053,-0.516196567049947,0.09041336891525997,0.07643216636049774,0.42065620571457013,1.2622352628883236
459,0.6011928118474238,1.7234004874012228,0,0,0.12042799606462468,-0.5310643436823124,0.2255980045451159,0.33640468030630183,1.5597288183902736,0.8479529483397625
460,0.6340226868083609,1.5089178020333915,0,0,0.2689783966522577,-0.5363444234360705,0.27729248017041924,0.4910869,1.8141453,0.6593987
461,0.7172398075952761,1.3461786862381169,0,0,0.38788851918782397,-0.5072110518167153,0.24111253479191175,0.7820454137459258,1.0348883770271644,0.015518257982490711
462,0.8447196903458354,1.2393161476558583,0,0,0.43912713015010524,-0.4510980104758037,0.19617729696765465,0.95128113,0.5816344,-0.35899413
463,1.0054556998733,1.1869668252803316,0,0,0.39683383688269624,-0.37525585469376477,0.14493147931582803,0.6400578743218251,-0.28097384944304876,-0.9090631499472237
464,1.1845194113337132,1.1832161803068637,0,0,0.2716847770167773,-0.3067283150931047,0.01772148113402768,0.44741106,-0.8149273,-1.2495552
465,1.364629944704737,1.2187397016707637,0,0,-0.26858100519519823,-0.36086554148756916,-0.9877984173194642,-0.19949194785970967,0.09279260093935073,-1.1737512755588848
466,1.5282147394897914,1.282000012437409,0,0,-1.496196557933966,-0.737819780357861,-0.9930746958358955,-0.62531024,0.69029135,-1.123854
467,1.6596883920145022,1.3603904679177037,0,0,-1.9642358184654007,-1.427249402826019,1.0198824389128283,-0.7105399745072056,0.9967424116633262,0.030507582684242123
468,1.747536465414019,1.4412594387413267,0,0,-1.7231874459634249,-1.6839674050901905,1.1149775375927578,-0.7701862,1.2112057,0.8383631
469,1.7857586748292196,1.5127943258568168,0,0,-2.017999388818454,-1.1028208400977177,-0.43312566967066046,-0.7701862,1.2112057,0.8383631
470,1.7743524715840964,1.5647798970847346,0,0,-1.390906718613288,-0.8824588096343473,-0.47106606196440154,0.7341071942769853,-0.3974068335479896,0.37232226748594216
471,1.7187674675052727,1.589270062069188,0,0,-0.3618640742913705,-1.2059789614172751,0.07514800965695634,0.5539853961012443,-1.3492390484876937,0.4416010274967861
472,1.6285277539065046,1.5812166066479347,0,0,-0.39375325239785497,-1.3189359895874921,0.21332222549425792,-0.39840892,-1.1877699,0.74675035
473,1.5153969623977352,1.5390652557871725,0,0,-0.25742623815391796,-1.0797191619196813,0.10098572177986029,-0.39840892,-1.1877699,0.74675035
474,1.3915040334347162,1.465259355734383,0,0,0.3592350418894272,-0.7946368263199973,-0.5403289175914102,0.2842363994427857,0.9756996999458417,0.5279989132183556
475,1.2677784656078053,1.3665119179163188,0,0,0.2937456016609436,-0.748142059913482,-0.23791598159850147,0.84155893,2.7419908,0.34940675
476,1.152912840948927,1.2536547709527188,0,0,-0.12453705523453493,-0.9876340924935303,0.35388611648491525,0.1677066662125356,1.919091496504573,-0.27247894434121495
477,1.0529178918927584,1.1408920409853047,0,0,-0.1639650588495957,-1.3084017377799206,0.2149706244769732,-0.42727561140703346,0.4536838387716616,-0.5342454448589341
478,0.9711909045453815,1.0444080923895196,0,0,-0.054665938697665756,-1.407721813069136,0.23698713870603644,-0.43782368,-0.21837921,-0.2876214
479,0.9089171179501951,0.9804745900412507,0,0,-0.15413367721430923,-1.0882456956650963,0.355015257779729,-0.43782368,-0.21837921,-0.2876214
480,0.8655993029620925,0.9633578925446677,0,0,-0.1238947496772815,-0.7321073268190393,0.16706338197934034,-0.30442031868552855,-0.5851034571468613,-0.5020389625724336
481,0.8395642952829196,1.0033581344352906,0,0,0.026131777336366947,-0.6657482072024308,-0.05139706168224144,-0.17470337,-0.9416938,-0.7105314
482,0.8283842886656335,1.1052318163462955,0,0,-0.03617801215450716,-0.7435928373065375,-0.06966439740866229,0.2529628385617844,-0.7905675649051521,-0.8464400494698805
483,0.8292179166683836,1.2671461149575174,0,0,-0.15125984699786402,-0.8797883164893379,-0.04330745837878164,0.47625122270891335,-0.3557416835806735,-1.1376228655601954
484,0.8390941202764761,1.4802518559266187,0,0,-0.19514003931832657,-0.9627051409337702,-0.0030020100684148418,0.24501082,-0.058589544,-1.2985574
485,0.8551468936799649,1.728950354556739,0,0,-0.17717419926424555,-0.9138505314756296,0.05012108251394053,0.24501082,-0.058589544,-1.2985574
486,0.8747957444084336,1.9919316638414402,0,0,-0.16922849199060563,-0.7919937266089211,0.10015282483956622,-0.08640161095217024,-0.017285918113751415,-1.390998840543159
487,0.8958740018838076,2.244033746088501,0,0,-0.16904933787516088,-0.704705803561897,0.14012188981324003,-0.3360499485838002,0.45180001344144655,-1.6945755463326266
488,0.9167266656003266,2.458884526996132,0,0,-0.20873411354713628,-0.7041253187581626,0.186635966822662,-0.17044231,0.96086854,-1.9313245
489,0.9363088979370625,2.6121404030465167,0,0,-0.33781320204425763,-0.7733548579384195,0.25008231108278317,0.309899454517487,1.5293038266263665,-2.1274485646225383
490,0.954300511905009,2.6849562683158075,0,0,-0.4748463405078839,-0.8702941457733699,0.3630387116999667,0.9331717,2.2668827,-2.3819313
491,0.9712159524196016,2.6671689262803446,0,0,-0.5162001041095027,-0.9232348323291564,0.45626121358377936,0.9331717,2.2668827,-2.3819313
492,0.988454815548671,2.559609346994548,0,0,-0.48451686498866614,-0.9047519748318436,0.18014584046863333,1.560562630241252,1.5687565312440483,-2.25847412265186
493,1.0082267475781184,2.375020741058889,0,0,-0.5235247739796404,-0.8346748150414288,-0.4606836397231381,2.4543693,0.57417756,-2.082592
494,1.0333032414601708,2.1372474060488527,0,0,-0.7230600566309214,-0.7424510490028372,-0.6772206833980353,2.2253241803887107,-0.7220481610269343,-1.9014766597169959
495,1.066587853744629,1.878635826965949,0,0,-0.8147865905592804,-0.7408719861089708,-0.1822845682702635,0.8883264571153042,-1.6958916136917093,-1.1882024451966036
496,1.1105430420961317,1.6359078047829803,0,0,-0.6894644965911815,-0.7600419286803909,0.2182192249211451,-0.65194184,-0.16405073,-0.5049353
497,1.1665583149320466,1.445073880700155,0,0,-0.5703507082355534,-0.6788597374325684,0.3187005451410558,-0.65194184,-0.16405073,-0.5049353
498,1.2343808286443851,1.336180508951988,0,0,-0.5389293770489931,-0.6735408746814958,0.34167351133316426,-0.6920473314558743,-0.007953895073039756,-0.2823892144376244
499,1.3117390887643632,1.32875287642653,0,0,-0.674067285009709,-0.8733548707499847,0.30083474305152885,-0.4203364349071165,0.29786778808134157,0.1524617603923312
500,1.394259740810182,1.4286901292038001,0,0,-0.8625787156488935,-1.2025715095487373,0.21680034181488567,0.17789917,0.36645097,0.24820662
501,1.4757127092381777,1.6271382394045981,0,0,-0.969029249537299,-1.3548637128390306,0.05739912872139104,0.18486260897028986,0.40969760238112357,0.6081065432278451
502,1.5485494941657043,1.901564357322222,0,0,-0.9037942153654648,-1.2538248497661766,-0.2502137400256709,0.19813919,0.49215218,1.2942963
503,1.6046562835320881,2.218917456961908,0,0,-0.7083470445727392,-1.1828290324964725,-0.5772482638315445,-0.41028003318669526,0.06574458590580294,1.801940724988797
504,1.6362388723379249,2.54041295291486,0,0,-0.42330123014671245,-1.3129283984873164,-0.3951978593911742,-1.6927053,-0.8330368,2.871953
505,1.6367700823095608,2.827177017175583,0,0,-0.17693888209429326,-1.5007812633128865,-0.04423491301692782,-1.9341151995898407,-0.837616391258265,3.0446690614231438
506,1.6019310031356693,3.045802429339258,0,0,-0.07444818961610679,-1.6628132942752625,0.054000401490450704,-2.4788704,-0.8479505,3.4344127
507,1.530451514609192,3.1728663906033465,0,0,0.024179832332120326,-1.7843995176410428,0.11131061140890888,-2.4788704,-0.8479505,3.4344127
508,1.4247188893854505,3.197661819026668,0,0,0.09948406522204313,-1.8072448083449415,0.1391255102117294,-2.129181734808438,-0.8963922180078452,3.2451872203804535
509,1.2910082854137106,3.1227549264848466,0,0,0.08246051695740161,-1.6102865490214384,0.1700634356908212,-1.24849,-1.0183928,2.7686224
510,1.1392222722528742,2.9624144425830825,0,0,-0.06330716485023996,-1.1936197291053807,0.12237562684314499,-0.9803364832973235,-1.2839596216257725,2.469428596334779
511,0.9821104362693188,2.739358644447835,0,0,-0.18005556442883755,-0.824510841778977,0.039773060993205704,-0.10038622970164195,-1.6077572436899252,1.5197957348864193
512,0.8340475309262866,2.480549686598214,0,0,-0.2896260900206889,-0.5344942584354192,0.019008723272142834,0.330232,-0.5049353,1.1291803
513,0.7095368449354424,2.212882115683814,0,0,-0.4437948119795639,-0.37172754991395235,0.04349923999408367,0.330232,-0.5049353,1.1291803
514,0.6216420572255547,1.9595509363152737,0,0,-0.4551366730874378,-0.4059781795159367,0.020958938222622788,0.3676572457457803,-0.11940398520648886,1.108673304162898
515,0.5805336119882102,1.7376611190211386,0,0,-0.06515846921208611,-0.5790972272070035,0.05204181955451918,0.4857606,1.0972224,1.0439591
516,0.5922898539982782,1.5573114656063793,0,0,0.2420616793166693,-0.6245379309463378,0.19647934825381919,0.5486442414407655,1.2017875501340614,0.9663785215197841
517,0.6580505008448669,1.4220449918823146,0,0,0.3542771837037149,-0.5250121315559261,0.25300453597614175,0.8513413020316551,1.480919474795992,0.43478328632418356
518,0.7735988031593123,1.3302986536280497,0,0,0.4346622815001601,-0.4399271414418534,0.17274401142090387,1.1611383,1.2026836,-0.5070659
519,0.9294476032771886,1.2773577064417487,0,0,0.4605741130186757,-0.3822411523909045,0.13739024862855836,1.1611383,1.2026836,-0.5070659
520,1.1115056367724043,1.2573225525608582,0,0,0.4047468992800484,-0.34962827407425356,0.08024948599538555,1.0463821989812698,0.9134557129769267,-0.6874879894973378
521,1.3023757437785695,1.2646942327569515,0,0,0.2146813674129635,-0.3813790035690707,-0.19895160091494302,0.5858955,-0.24714136,-1.4114754
522,1.4832573213006568,1.2953345712959046,0,0,-0.4605969848586985,-0.552676988240027,-1.1138867983868537,0.4059111144931522,-0.16032070067460216,-1.431892141383963
523,1.636278999944669,1.3467189933003934,0,0,-1.9702234034105912,-0.9579930342369749,-0.740103796448082,-0.38136467,0.21944448,-1.5211977
524,1.7469044768102324,1.417548225382824,0,0,-2.167990693788269,-1.7165952442729662,1.889559814727499,-0.45480947182081144,0.300600985003674,-1.1558097860781231
525,1.8059217858190675,1.506907056850388,0,0,-1.615084186657346,-1.887038154951413,0.5316578844365021,-0.80747044,0.69029135,0.59867865
526,1.810549676920437,1.6132434420391615,0,0,-1.8313357519783346,-0.9128162313511573,-0.8024765017637406,-0.37853952112914213,0.3358766715789162,0.551243930945634
527,1.7644107929592363,1.7334698422751023,0,0,-0.6170925490009636,-0.6696797300314028,-0.2024040746134138,1.5470851444168345,-1.5777715127642147,0.30038548584210056
528,1.6764428802470492,1.8624453654163433,0,0,0.07216064454846874,-1.2599641341828853,0.06588607036989629,-0.4644553,-1.7086842,0.3121225
529,1.5590876942416663,1.9930008715018308,0,0,-0.4005586617100897,-1.417898321967638,-0.49997219352699673,-0.38001213440805953,-1.417171708275004,0.24456796559640345
530,1.4262025428600391,2.116567249056812,0,0,-0.6566087328526514,-1.068053661406186,0.1753543529866384,0.14807177,0.40586576,-0.17789917
531,1.2910914578794388,2.2243712083563127,0,0,-0.05605745686539208,-0.8552862864988171,0.2334917638505469,0.22141376768052287,1.0779045362807724,-0.22416508712320776
532,1.1649384436594834,2.309017315194224,0,0,0.2627182491939249,-0.8061234065546956,-0.15591616488620272,0.74248934,5.852563,-0.55287224
533,1.0558101871066479,2.366058186590488,0,0,0.09142946152443666,-0.8800751042332048,0.11276156037691529,0.5882409763808821,5.235221615076367,-0.5377953345207331
534,0.9682877858775853,2.3950126902449274,0,0,-0.2108782659041942,-0.9790237917707502,0.264727226069137,-0.6743124,0.18216023,-0.41438788
535,0.9036778567420481,2.3994439405366346,0,0,0.015187704333372382,-0.9979078557081031,0.23754885982887017,-0.6743124,0.18216023,-0.41438788
536,0.8606573786600838,2.386141340474678,0,0,-0.03382869247582024,-0.9981717800414297,0.4427674970016032,-0.6937688145513166,-0.05257783634755278,-0.40492990044585125
537,0.8361510030955269,2.3638327181144323,0,0,-0.53269333706443,-0.8205096626153148,0.36685644616401275,-0.8579830330027077,-2.638058026746826,-0.3439631178491894
538,0.8262373526784178,2.341879378968893,0,0,-0.09455550432617185,-0.8207984072355258,0.26097892224513314,-0.3206446,-3.1489217,-0.82344943
539,0.8269232613550358,2.3291298695809,0,0,0.08448222339457054,-0.9456112188856649,-0.06798246819218884,-0.3206446,-3.1489217,-0.82344943
540,0.8346901869078064,2.3328306607211164,0,0,-0.14074705535132842,-0.8769303068015796,-0.15262854160752787,-0.24115473672132515,-3.0441557193536144,-0.8291188396014796
541,0.8467831375287664,2.3574429706539095,0,0,-0.19873206956614542,-0.848433632356041,-0.13308349882806067,1.1132014,-1.2591426,-0.9257148
542,0.8612670446618634,2.403394797505857,0,0,-0.17086954859078632,-0.8030122032532602,-0.07847515018850727,1.0770137719596438,-1.1906041070803222,-0.9409746440864625
543,0.876915965720149,2.4660507917580707,0,0,-0.19155687730495072,-0.7040497247295734,0.01419327030777878,0.22903186,0.41545314,-1.2985574
544,0.8930254305126639,2.535339059602807,0,0,-0.18728017867755326,-0.6591634635567043,0.09444407275274129,0.21277069631873544,0.4446309704933764,-1.304727416110376
545,0.9092422158612635,2.5964385661178673,0,0,-0.18569035788129848,-0.7318661061626303,0.14675806870381514,-0.3717773,1.4935007,-1.526524
546,0.9254834851673231,2.631707588688353,0,0,-0.17903221016840676,-0.8360548147683261,0.24479409618869574,-0.3626797497230405,1.5068115256876693,-1.5318296022315365
547,0.9419714243036619,2.6237005518072167,0,0,-0.21303419356999928,-0.8906179921257128,0.44714516801447773,0.24927188,2.4021714,-1.8887138
548,0.9593548337144402,2.5587856150387958,0,0,-0.2232613619470654,-0.916113764803523,0.40761383474741025,0.25062141694920714,2.4021900356879398,-1.8889125810358167
549,0.9788457304509545,2.4306360742295627,0,0,-0.2783896846515054,-0.95600924290042,0.08119606916820966,2.0836060392830684,2.4275016282608273,-2.1589033968319655
550,1.0022803533335312,2.2427900626551387,0,0,-0.5719705551724101,-1.0022107183173752,-0.33334768159317474,2.1007016,2.4277377,-2.1614215
551,1.0320211628756077,2.0095885801349254,0,0,-0.9530577606500699,-0.8752959973308897,-0.72503967961997,2.3080536064264106,-0.34324124463483724,-1.9907225009042684
552,1.070646378059819,1.7551113869058461,0,0,-0.7573461340237728,-0.8029319222467322,-0.059874213403653835,-0.0035139864185252073,-0.8469484084669598,-0.833833573271165
553,1.1204276682695977,1.5101733052981965,0,0,-0.5509726539673133,-0.7283960016597207,0.31519635830249865,-0.07350325,-0.8607337,-0.79894835
554,1.1826706998809047,1.3078843998107608,0,0,-0.48508235293200613,-0.660962146975191,0.3471168246789299,-0.8307761414667885,0.09807152104493623,-0.13226320082387308
555,1.2570614684817762,1.1785661810356194,0,0,-0.5659216335974379,-0.7229455576328705,0.3220168401858957,-0.86606,0.14274544,-0.101200126
556,1.3411864278717505,1.1448904783382474,0,0,-0.7867467056878115,-0.9228333363243201,0.2710792472026594,-0.2682590080851381,-0.3919710445910489,-0.15727526513657442
557,1.4303600162979144,1.2180182897804692,0,0,-0.922050357201891,-1.2078035664795823,0.16858008452334441,-0.23009712,-0.4261058,-0.16085494
558,1.5178192810224018,1.3953443704179547,0,0,-1.0236218013555345,-1.200516733096269,0.048656633302978945,-0.23009712,-0.4261058,-0.16085494
559,1.5952711725297923,1.6602373225986262,0,0,-0.9762574433646287,-1.0270931880399388,-0.2969939314866004,0.0013327674643185531,-0.26233971992386007,0.6991620737160155
560,1.6537319647370659,1.9839007465561929,0,0,-0.8533674917559234,-1.065489799188044,-0.664929994941822,0.02130529,-0.24820662,0.773382
561,1.6845788315815626,2.3291618214055645,0,0,-0.5240848114291087,-1.3698462543612446,-0.3034533514951019,-0.9930971549980835,-0.9981501639145948,2.336970934049038
562,1.680717655599438,2.6556399346769988,0,0,-0.31290273609509783,-1.6603343785173656,-0.024533511496505817,-2.1278403968773825,-0.7454669828331838,3.4598988676134312
563,1.6377400513843936,2.925432262700415,0,0,-0.11687155674439081,-1.8801073351910629,0.04516410749354204,-2.2466428,-0.7073356,3.5707664
564,1.5549020315156752,3.108297802668393,0,0,0.18284311801023867,-1.997380578926033,0.04233926386205628,-2.2466428,-0.7073356,3.5707664
565,1.4357343157610694,3.1854252064660145,0,0,0.24852837972161101,-1.8099436868829737,0.06183268227727543,-1.5544704737925148,-0.9184434813557004,3.1905856019062253
566,1.2881205306247734,3.1512157143828468,0,0,-0.010876036536604482,-1.4148763775414517,0.0246039008415154,-1.4572818,-0.94808537,3.137204
567,1.123764670576872,3.0129687069876026,0,0,-0.19551947030849,-1.079582562699542,-0.03398090608880763,-0.5258388617432732,-1.7884088507520666,1.918596645364264
568,0.9570904723540014,2.7887731413295884,0,0,-0.2854205925137187,-0.7374967563756252,0.024415578905145587,-0.37923414,-1.9206718,1.7267936
569,0.8037282422177611,2.5041915884034043,0,0,-0.3767010153001052,-0.4757964718267492,0.07823749983907434,-0.01411554064349815,-0.5797895935288374,1.3571450716300764
570,0.6788106916358992,2.1884453507809196,0,0,-0.2760977096640621,-0.4106803819579613,0.020583821843202912,0.05006743,-0.34408042,1.2921658
571,0.595306244284936,1.8707722329165517,0,0,0.029294531102411675,-0.5362754822926088,0.054646889909918554,0.10527791708068272,0.8019824225407771,1.2690129962192496
572,0.5625793991712105,1.5774557790685193,0,0,0.24188834871405196,-0.5617575598971484,0.20670780192963178,0.27641544397449325,1.332544947072139,0.7870871970932344
573,0.585309637429014,1.329770342445753,0,0,0.3353257685227634,-0.4971300540772111,0.27777101608882726,0.30999196,1.3965617,0.6870956
574,0.6628503286991461,1.1428364682775252,0,0,0.409036840769424,-0.44973451508444007,0.13807531265149955,0.30999196,1.3965617,0.6870956
575,0.7890834529145117,1.0252175282822267,0,0,0.45157619882757144,-0.3888272784815489,0.08093108541684482,0.670221790369808,0.8463299548296682,-0.12363647994998618
576,0.9528208499140169,0.979043277599512,0,0,0.4130738670452348,-0.3441956434313816,0.11749219889089309,0.3650968061436493,-0.11945888814467073,-0.8224127185533013
577,1.1387946430189204,1.0004910622343417,0,0,0.32639350505149367,-0.34396883418661045,0.15003643868982175,0.26525086,-0.3323625,-0.95128113
578,1.329236377030758,1.0805313398615266,0,0,0.13369269928540692,-0.4476501145060048,-0.1493209151810561,0.26525086,-0.3323625,-0.95128113
579,1.5059408036966957,1.2059018078833998,0,0,-1.0858989899924494,-0.8054189077634576,-1.7998929062228297,0.051121018477262116,-0.001660064733640532,-1.2464330304055316
580,1.6525500098154544,1.3602990740278176,0,0,-2.3363128265257798,-1.4185387567459151,0.6737248419239025,-0.6642259727440589,0.458016688165435,-0.4001163447181997
581,1.756638352694668,1.5257755520606509,0,0,-1.8444264886125932,-1.8964541647345976,1.3502333519975782,-0.86499476,0.5699165,-0.113983296
582,1.811138166640842,1.6843017001245082,0,0,-1.8561762409825795,-1.125300275107546,-0.006050336097717784,1.2102209795390593,-1.3465264615800554,0.06712933777429006
583,1.8147958820973393,1.8193907288262001,0,0,-1.3145558212500206,-0.29531969074062164,-0.374515646183388,1.9057581,-1.9888487,0.12783173
584,1.7716422052312533,1.9176016293871598,0,0,-0.25804717454138937,-0.6010246743999139,-0.12696889534345607,0.51042938869068,-2.178907515958428,0.21073803115339979
585,1.6897456627918832,1.9696971501037275,0,0,0.030731093231919873,-1.3540406577759068,-0.3935756229257982,0.0053263223,-2.247708,0.24074976
586,1.5796494948165773,1.9712923564902038,0,0,-0.6398510749521155,-1.6880742334226406,0.17304844650923049,0.0053263223,-2.247708,0.24074976
587,1.4528349159340106,1.922974726245069,0,0,-0.5898586390182373,-1.6659269305326485,0.39107634161859517,0.20695082477121554,0.0272250741813326,0.07716761969427631
588,1.3204028450708973,1.8300254636106843,0,0,0.03056637776573057,-1.1531962004800718,-0.4634516900258657,0.2876214,0.9374327,0.011717909
589,1.1920487895355747,1.7019216304932272,0,0,0.08386143641553417,-0.7415920493220717,-0.1979239837126095,0.3234383085464287,2.7006689728324447,-0.012906212648673384
590,1.075372013779076,1.5517013260470551,0,0,-0.010956343215124828,-0.6264526022266369,0.16611387880741993,0.3387541,3.4546525,-0.023435818
591,0.9755625174863801,1.395106816858586,0,0,0.0284067890336127,-0.801412590058052,0.16184141089760934,-0.581769619941033,0.5101475225318471,-0.07977947834614352
592,0.8954766955502885,1.2493538089339025,0,0,0.012111581372928438,-1.191081923347734,0.16575471427101968,-1.0013486,-0.8319715,-0.10546118
593,0.836029234317765,1.1314957013505915,0,0,0.025888910570512354,-1.3043392934459188,0.19456490153158842,-0.5307740713566951,0.20817033317085606,-0.07533293405323375
594,0.7967435294455002,1.0565560832116219,0,0,-0.02802085851617395,-0.9949170599715464,0.1808273165679179,-0.30253512,0.7126619,-0.060720075
595,0.7762774119078084,1.035724895240956,0,0,-0.12201128289609185,-0.733723974072887,0.1320964639400722,-0.18299882624966698,0.8336045235120747,-0.5951175724721445
596,0.7727938125202991,1.0748987864944815,0,0,-0.12549012394370995,-0.709986170988559,0.10335337548890026,-0.11380145753840643,0.33062422043616674,-1.0314279987989652
597,0.7841404101843857,1.1737547373315151,0,0,-0.08306665347627876,-0.7603583150568924,0.10409639359415573,-0.10972224,0.02876214,-1.1174624
598,0.8078837371746328,1.3254547914553674,0,0,-0.0805490575771765,-0.742109335303082,0.10224124642843299,-0.1483608791922333,-0.4809967946524922,-1.1167845064743258
599,0.8412835149384831,1.5170224667470624,0,0,-0.09437476192098593,-0.6771179153863595,0.11169272628994689,-0.17044231,-0.77231675,-1.1163971
600,0.8812970773071009,1.7303995493771256,0,0,-0.10440617186364073,-0.673794693694466,0.1429381092289408,-0.17044231,-0.77231675,-1.1163971
601,0.9246852885548041,1.9441594842533907,0,0,-0.16503979207201663,-0.7799257780176332,0.16023157266083676,-0.035964556027337904,-0.5919197449401093,-1.3938804915581249
602,0.9682561538997561,2.135797780765266,0,0,-0.2695480619281337,-0.9023271069234748,0.1895365896691913,0.4766588387529728,0.3819605219397984,-1.840945610619766
603,1.0092338129690077,2.2844301499517807,0,0,-0.32449754999091707,-0.9614969578800502,0.21028295288040047,0.753142,0.9374327,-2.0176108
604,1.0456896559610702,2.3736139621648564,0,0,-0.3305426119668506,-1.0118219596773224,0.41683055883718584,1.331452029602975,0.8780216214758776,-2.0997751446364306
605,1.076934552797593,2.3938999877531746,0,0,-0.4415155330968899,-1.0370084134769308,0.39294421973738247,1.7278589,0.83729786,-2.1560953
606,1.1037573394982207,2.3446626282866094,0,0,-0.6784973110378032,-1.0017942277794114,-0.17000348634669457,2.2000970080389424,-0.9221896028457833,-2.025397546710181
607,1.128406931734108,2.2347830086279235,0,0,-0.9928901423697245,-0.8914212565945255,-1.0710892282422906,2.5438516,-2.202967,-1.9302592
608,1.154253477374288,2.081892080208967,0,0,-0.8243409430847043,-0.8031765723600076,-0.6023580789386771,1.2202258778565287,-1.550170571299492,-1.220358213398513
609,1.1851306361463918,1.9101269223152697,0,0,-0.5207953324965006,-0.6976023065599938,0.279755512765179,0.19813919,-1.0460896,-0.67218184
610,1.2244521049489074,1.7466748488735595,0,0,-0.5475816782773425,-0.5652472424080072,0.40605227064424787,0.19813919,-1.0460896,-0.67218184
611,1.274281433107567,1.6176700629722898,0,0,-0.7076229661733434,-0.5792559798675858,0.38068888149080715,-0.40274977472069834,0.565148689854164,-0.467451643506564
612,1.3345693070545317,1.544146441710788,0,0,-0.8290434668407255,-0.7997149106243837,0.3075064393802662,-0.9086706,1.9217371,-0.29507825
613,1.4027347097268998,1.5387074032230141,0,0,-0.8303949775002569,-1.0952372900889744,0.20287088887204083,-0.4782679830552494,0.8800951811247263,-0.11762168186659364
614,1.4736786931103338,1.603428984950613,0,0,-0.833127157820779,-1.250914607899039,0.13602449849541415,-0.094808534,-0.0479369,0.040480047
615,1.5402269709391794,1.729352976732575,0,0,-0.9107159845416811,-1.1940715100211685,-0.16715163964883517,-0.03539517024390119,-0.20417204329738692,0.554295659635363
616,1.5939320150121774,1.89774893161157,0,0,-0.858748447006207,-1.0822635543475565,-0.7681894069815427,0.020240024,-0.350472,1.0354371
617,1.6261321562982374,2.0830586952388765,0,0,-0.5561435244158965,-1.1854124544325222,-0.6835637481251378,-0.7128610034142184,-1.4028008850440246,1.7915310874261945
618,1.6291508557835652,2.257075674591761,0,0,-0.24916444900170923,-1.4936902998681574,-0.0452067424839769,-1.4402375,-2.4469125,2.541721
619,1.5975060887263133,2.393566559784342,0,0,-0.13483936047260836,-1.7257227389847198,0.17581487241601257,-1.8305623489614415,-1.7899608557153202,3.033395205903885
620,1.5289788960096447,2.4723831387842847,0,0,-0.08824850935394311,-1.8276413195170986,0.12904627712444194,-1.685953271437303,-0.5537976200800842,3.0878021231290766
621,1.4253703854791318,2.4822379528068823,0,0,-0.029295177190008438,-1.8293217464390972,0.0867518372543033,-1.0865698,0.037284255,2.5885925
622,1.292782042915947,2.421692294947395,0,0,-0.05108498686493337,-1.6022634194698488,0.06466399716633878,-0.6890803738249309,-0.5148394490162812,2.105360441357379
623,1.1413073659029622,2.2983727912657823,0,0,-0.15678071506847166,-1.2110373304726862,0.02771638828906329,-0.23222765,-1.1494204,1.5499598
624,0.9841227261564717,2.1268191417037934,0,0,-0.22525684074972788,-0.8621918529759933,-0.011236893619671996,-0.04396351033004541,-0.7762453984388004,1.4038514793974264
625,0.8360832368535754,1.9255718224826543,0,0,-0.19696848960966584,-0.6153053885525172,0.020370804487682005,0.18642128,-0.31957933,1.2250541
626,0.7120246342336995,1.7141302934787637,0,0,-0.12269221432363038,-0.49750191463077104,0.07371614125863551,0.24237500878532148,0.20157638510509646,1.1663258095232625
627,0.6250157004619282,1.5102980471639238,0,0,-0.02515940680701273,-0.48728580342040234,0.06876265309953992,0.3153183,0.8809737,1.0897655
628,0.584793644581811,1.328241852917134,0,0,0.1157879960209103,-0.5130989688759434,0.10909851340293222,0.36396510618166067,0.8416992064727441,0.9585530055300912
629,0.5965652196089515,1.1773897754494296,0,0,0.24044308178206913,-0.5248943861717102,0.1411247517832229,0.4314321,0.78723043,0.7765778
630,0.6602955626076304,1.0621291658972274,0,0,0.34074670608716573,-0.5114973919331458,0.11123050289558353,0.4314321,0.78723043,0.7765778
631,0.7705554334437604,0.9821694936155938,0,0,0.4222911997120472,-0.4638993743057164,0.11408148589345637,0.5147155527481336,0.7229711197701635,0.45401295323689284
632,0.9169619195765855,0.9333994612567773,0,0,0.4067866367833219,-0.3903652960846805,0.16715718195713528,0.49611243271755495,0.27688599073456754,-0.3979165487608266
633,1.0852174711182052,0.90906684187036,0,0,0.3118599694492514,-0.332437527606074,0.15884450445350812,0.26844665,-0.2695119,-0.9651296
634,1.2587043849139414,0.9011154482336748,0,0,-0.014436737039930331,-0.4058968675309449,-0.5866541209596806,0.26844665,-0.2695119,-0.9651296
635,1.4205020713504999,0.9015129788598323,0,0,-1.1373754692541724,-0.7010327466386554,-1.1281979138214673,-0.07391779252211259,-0.12055608191311458,-1.0536452190616292
636,1.555559964417147,0.9034041645895736,0,0,-2.373379473186184,-1.2547028535061238,0.7245956956314907,-0.6668556,0.13741912,-1.2069446
637,1.6526279075350274,0.9019462121260128,0,0,-2.129907794701308,-1.6962998980311206,1.4253222386993467,-0.5559305277890709,0.152835821768546,-0.5323698637311466
638,1.7055144747843851,0.8947392737440957,0,0,-1.5529389439139225,-1.1859561017487097,-0.3065867704448048,-0.35260254,0.18109496,0.7041398
639,1.7133890252061446,0.8818409902750338,0,0,-0.9296936808775761,-0.48109644870646867,-0.6333386031152931,0.3701083570846178,-0.27638103930641034,0.575135897387276
640,1.6801343005528953,0.8654203619370685,0,0,-0.025097516458608377,-0.6488061666235434,0.04504912457711364,1.079058788054902,-0.8140184323736919,0.023160682053361973
641,1.613045939971504,0.8491401701839395,0,0,0.020871633721455028,-1.153534914276724,0.15007917874932497,-0.32170987,-0.10546118,-0.5795039
642,1.5213071879049824,0.8373681494092142,0,0,-0.5731699971630204,-1.4763628126055148,0.046016215085364645,-0.32170987,-0.10546118,-0.5795039
643,1.414599351179817,0.8343286193913874,0,0,-0.6745837875934089,-1.5026328233309771,-0.06842473117934131,0.07025702431196611,0.40283990651610885,-0.5441409381502019
644,1.3020320016819085,0.843319752465263,0,0,-0.04167339606119821,-1.317558346645407,-0.5230876017834305,0.7083510477486992,1.0312772299266475,-0.2590397447050628
645,1.1914218964953718,0.8661203019962379,0,0,0.20126965162514765,-0.9539332012135479,-0.22049179537077745,0.1736381,-0.11824436,0.21411815
646,1.0888818631494686,0.902690530652769,0,0,0.019360882909054643,-0.8736392837722999,0.07249511311483665,-0.15221536760394846,-0.14557797015589183,0.02646831700689471
647,0.9986774454654082,0.9512401070614501,0,0,-0.00032774116211704726,-0.9934054466681941,0.0928787836788112,-0.95660746,-0.2130529,-0.43675843
648,0.923312415562228,1.0086765888707994,0,0,0.00014827304418820033,-1.1061269889853782,0.2158157795250701,-0.951964136994611,0.02520861425264161,-0.6108837700874439
649,0.8637860796223592,1.0713518635319728,0,0,-0.2551539247930302,-0.9674850969455729,0.4245813087870736,-0.9395633,0.66152924,-1.0759171
650,0.8199424855242412,1.1359279872716448,0,0,-0.2990809188688703,-0.6538437483542,0.2745305702224341,-0.774908407932064,0.539410199514887,-1.0605493136458777
651,0.7908332960230972,1.2001495385807968,0,0,0.038872558607972306,-0.6243181414578052,0.09135622092979495,-0.30040458,0.18748654,-1.0162623
652,0.7750453029511587,1.2633568462249076,0,0,0.02354808945600755,-0.7669152416777526,-0.03084192062563705,-0.06808181825144624,0.3712256711801108,-1.0415878026868268
653,0.7709749793079247,1.3266636289430964,0,0,-0.16213452663748354,-0.8823557817729819,0.0010507935458953712,0.65726817,0.94488955,-1.1206582
654,0.777043919489816,1.3927977741907354,0,0,-0.19511092477598654,-0.9065142781411488,0.045118274356962335,0.5799863713414409,0.8731973286315192,-1.1731514931558653
655,0.791846061289076,1.4656443799042176,0,0,-0.16250508761078178,-0.7924594907006761,0.06262537021751644,0.31851408,0.6306366,-1.3507553
656,0.8142220025469711,1.549557250735632,0,0,-0.14429920760465784,-0.661436049003677,0.08662887207543384,0.31851408,0.6306366,-1.3507553
657,0.8432760489647909,1.648542882715859,0,0,-0.10633574672068886,-0.6368248052143755,0.12735677397855444,0.27623480014906227,0.5568121543066256,-1.3652135083456987
658,0.878372590653715,1.7654636145935891,0,0,-0.17556956910998053,-0.7290085424052584,0.17804964795236888,0.112918034,0.27164245,-1.4210628
659,0.9191479702053406,1.9014280662427567,0,0,-0.23535466355944037,-0.8814371286828344,0.21014628014113992,0.18210517433620155,0.3882545935296631,-1.4684877966408116
660,0.9655458809047446,2.05551674783658,0,0,-0.26056276524183963,-0.9914646854213799,0.28011520484985836,0.47191215,0.8767126,-1.6671388
661,1.0178439168476887,2.2249248358034315,0,0,-0.34090169293502226,-1.0461620647860743,0.47582000876953506,0.61406486503341,0.8551222087406835,-1.7013395318328772
662,1.0766108177074125,2.405505581666648,0,0,-0.5079546162578746,-1.0742297080445322,0.3098455012653978,1.2644689,0.75633776,-1.8578212
663,1.1425352171741685,2.592590742036495,0,0,-0.6586757773275562,-1.0028984284655662,-0.05130308677015501,1.42106453240155,0.3202575105449774,-1.854661191576468
664,1.2160984022548367,2.7818706213847175,0,0,-0.9430441940654768,-0.8568003172799599,-0.3656388756868385,2.025779970882709,-2.2299094767468457,-1.7069392426357395
665,1.297114087713318,2.9700516867803906,0,0,-1.118837110323309,-0.635086688163461,-0.8959673481758834,1.0290455,-4.024569,-1.0120013
666,1.3842134241182067,3.1550028366569496,0,0,-0.6293766784345362,-0.5955259356150465,-0.20871329907504307,1.0290455,-4.024569,-1.0120013
667,1.4744019907154753,3.3352030540072506,0,0,-0.6072297490163815,-0.7069776510922992,0.2283262890932783,0.7737869741582866,-3.3387783014544223,-0.8973659593561706
668,1.5628398234343281,3.5085413853891843,0,0,-1.0646726749798796,-0.9356977011851839,0.3819792860748576,-0.7497598409259574,1.3516772199470013,-0.0862554712617405
669,1.6429699341311441,3.6708273184439353,0,0,-1.1676291070707856,-1.2154389489429405,0.36534405599910674,-0.05006743,3.4674358,0.44847634
670,1.7070393085652886,3.8145860276297747,0,0,-0.9822756419525471,-1.4465348448798818,0.06722332560845531,-0.0670839558097735,3.1170169301639348,0.6558348414576937
671,1.7469551605457248,3.928708991253051,0,0,-0.9441269081434667,-1.5654048031397478,-0.2714607826907243,-0.19920446,0.39627838,2.2658174
672,1.7553482308781354,3.999311399436446,0,0,-0.5613029456682818,-1.5615348539436236,-0.3527255118309522,-0.426350338705267,0.03229638920362144,2.4388407121607445
673,1.7266920319990466,4.0118025120874,0,0,-0.17769453989020853,-1.582424309969919,-0.21992656782810965,-2.492719,-3.278884,4.012851
674,1.6583329689148476,3.953782988782426,0,0,0.2224450969389877,-1.7158243574527263,-0.18084391049353268,-2.4498905703412444,-3.156607086245019,3.9854984261569957
675,1.5512946696018504,3.818047779065777,0,0,0.38874825032316435,-1.8008094253893483,0.0009839040716970026,-1.9856529,-1.8311896,3.6890109
676,1.4107226181186023,3.604856348169472,0,0,0.20676472292778078,-1.7392282936836796,0.17384308891741318,-1.9856529,-1.8311896,3.6890109
677,1.2458482116405105,3.322825611371775,0,0,-0.04529094246087315,-1.554125316124707,0.2095256430951173,-1.888281155993997,-1.7620198368332414,3.5666286110057723
678,1.0693986666230852,2.988215221347134,0,0,-0.1613490757740713,-1.156884771917377,-0.03345460158556849,-0.3930826,-0.69987875,1.6873789
679,0.8964677233209088,2.6228254835946334,0,0,-0.19175543374689427,-0.7382474512307403,-0.07659155533293538,-0.3653831325678784,-0.713421845717397,1.6617236722993967
680,0.7429700998516129,2.2510645335568715,0,0,-0.17295462008346055,-0.4632763360265912,-0.045106139683352635,0.18199242221906045,-0.910465969955258,1.1538571953274728
681,0.6238912664858192,1.896872964576543,0,0,-0.16244292668973992,-0.2976585827924743,-0.13640432258807964,0.13102753,0.67963874,1.1813782
682,0.5515805943303097,1.5811018588033972,0,0,0.018915942977104905,-0.3773871130516596,0.00022358276890615283,0.13102753,0.67963874,1.1813782
683,0.5343117555612344,1.3196983058840634,0,0,0.21421326797704388,-0.49569374337593447,0.2093876393450016,0.12791789993858582,0.701062878950362,1.1758858681555084
684,0.575268196901975,1.1227835673140607,0,0,0.28065494806153424,-0.5169978233498154,0.3637441334944523,-0.026754547145675593,1.7923107798824192,0.8788456174634381
685,0.6720380143561933,0.9945103180426481,0,0,0.4016201322125254,-0.5319765930808702,0.23497076167118755,0.40586576,0.5795039,-0.0031957934
686,0.8166524494219057,0.9335007883165038,0,0,0.42909067991410615,-0.4874888958881731,0.12557468030295926,0.40586576,0.5795039,-0.0031957934
687,0.9961845260843062,0.9336836569354195,0,0,0.3761573638107312,-0.42292271559335953,0.11682799187596048,0.40586576,0.5795039,-0.0031957934
688,1.19391916061404,0.9853991534402984,0,0,0.2750373564084859,-0.406863659994821,0.10398621796529678,0.16866864630789014,-0.9780206025081484,-0.8459803007505912
689,1.391074281318471,1.0766628604620088,0,0,0.025967747807690542,-0.5177983780836434,-0.37609647763465426,-0.2969263233511988,-0.4406680541271304,-1.2479646252104908
690,1.5689585454081723,1.1944637375591922,0,0,-1.3683538067752814,-0.8565842820672123,-1.5900259819144353,-0.3089267,-0.4261058,-1.2580773
691,1.7112954091650812,1.3259670364952536,0,0,-2.0880376972610346,-1.4471964641715498,1.6888722960733245,-0.701099516720971,0.5716880872966542,-0.4420718800023671
692,1.8062913163387977,1.4595266421002049,0,0,-1.7435273127443347,-1.8006412508942922,1.101383664360258,-0.71798825,0.6146576,-0.406931
693,1.847991158092887,1.5854580319625131,0,0,-2.0734659738233274,-0.9233325921376302,-0.5370338545130698,1.9212149902813713,-0.7426182265476069,-0.3848288202847536
694,1.8366190294091658,1.6965390595126182,0,0,-1.1369972095116345,-0.4283927947356135,-0.5137055830642164,2.0804615,-0.8245147,-0.3834952
695,1.777894480952823,1.7881926878616667,0,0,-0.17483279609285565,-0.9846674056995305,0.05848105985300287,2.0804615,-0.8245147,-0.3834952
696,1.6815938606853087,1.8583187034590283,0,0,-0.4078041850895971,-1.5092373218494544,-0.03869657716389067,-0.07833339228449164,-1.4178388436762415,0.2295080687997421
697,1.5597612093862865,1.9068219568962388,0,0,-0.8543029477019315,-1.4986325767288962,0.08432299592452924,0.3266230586354095,1.1207197051113598,0.4505928800434292
698,1.4249428336035885,1.934996657277108,0,0,-0.05788308474402651,-1.1395441783506177,-0.08689136455459112,0.38136467,1.3635385,0.46658584
699,1.2887049445401877,1.944979802672887,0,0,0.3436966417958497,-0.8192738368932526,-0.36638501842914634,0.38136467,1.3635385,0.46658584
700,1.1605835466489776,1.9394262040682768,0,0,0.0004964928051381426,-0.8072925860585343,-0.011832711563385025,0.5367534593223405,2.751551190740456,0.18917397822777687
701,1.047531634393407,1.9214166204446406,0,0,-0.0329129488478743,-1.0515619385146824,0.074804602208846,0.5550028,2.9145637,0.15659387
702,0.9538444107942106,1.8944896330998224,0,0,-0.002642745890654423,-1.3283753678447576,0.0900133881670381,-0.5817822704199218,0.46906644333980485,-0.07546060101182522
703,0.8814523818402142,1.8626718449902069,0,0,0.09861315037281754,-1.295027010768785,0.14994550023609257,-0.7869519980194457,1.4133148250805776,-0.23015759011358228
704,0.8304103822316666,1.8304551550538986,0,0,0.0630535091026482,-0.898141792297722,0.16210236306914333,-0.7946873,1.598962,-0.24820662
705,0.7994159187483114,1.802731107662594,0,0,-0.02834900224899328,-0.6055603898175619,0.13500320720675765,-0.505967061034656,1.7899193053298643,-0.9745754963152253
706,0.7862579480892185,1.7846716577279678,0,0,-0.04121003862415701,-0.5695498751513195,0.10252435140849678,-0.45806372,1.8216022,-1.0950918
707,0.7881780081901538,1.7814863113800856,0,0,-0.033394131170276564,-0.7683357209396952,0.09211775597875398,-0.45806372,1.8216022,-1.0950918
708,0.802168294656342,1.7979737989011026,0,0,-0.08372467676145814,-0.957662967562937,0.08945979083757728,-0.048694808288844156,1.4372056711704426,-1.199440786378993
709,0.8252255211723465,1.8378533278062372,0,0,-0.14633321201234384,-0.9464118658108002,0.09543168502962426,0.03089267,1.3624732,-1.2197278
710,0.8545559612470547,1.902971907212781,0,0,-0.16044683792043038,-0.8172824738730187,0.13242568474219416,0.10177858344852524,0.21779698718517868,-1.2626094366490361
711,0.8877207115853737,1.992582341104217,0,0,-0.15820698248914403,-0.7171159788135182,0.16582011526774545,0.10504382120922799,-1.024251230045528,-1.447887156781224
712,0.9227272427793836,2.102922955228677,0,0,-0.16917561401362208,-0.7477821493531897,0.18057594099675203,0.10226539,-1.2516857,-1.4881744
713,0.9580926238697585,2.227287694631653,0,0,-0.22064429779127254,-0.8852262278523304,0.13788150469757174,0.10226539,-1.2516857,-1.4881744
714,0.9929031034686316,2.356675170769727,0,0,-0.3061991206554901,-1.005572099096841,0.09216300209219923,0.533693309044885,-0.8211054162452472,-1.8585752118233243
715,1.0268720947046484,2.4809862212025764,0,0,-0.40616887305861954,-1.0284273426705348,0.10365316358207458,0.644485,-0.7105314,-1.953695
716,1.0603712736894488,2.590624645400738,0,0,-0.43671084602000376,-0.9816808161794627,0.23929537621951688,1.2370457662919923,0.331443444835254,-2.2924200152597654
717,1.0943961382950287,2.6782482302501416,0,0,-0.5028810369702613,-0.9308610322570039,0.26629605040900867,2.2036275941138594,0.17881777220163864,-2.35598780109528
718,1.1304331633234157,2.740327235447838,0,0,-0.7100203989608894,-0.8871689594594816,0.011312920942797995,2.4394555,0.0479369,-2.3467777
719,1.1702123814117211,2.7781294077536085,0,0,-0.9905184292525746,-0.8870684030586452,-0.12545698387757656,2.4394555,0.0479369,-2.3467777
720,1.2153475535336267,2.7978040618505733,0,0,-1.1004211079602113,-0.757501656052268,-0.7490595126866246,2.515612487462763,-1.9265336952886394,-1.638918240246352
721,1.2668875640492607,2.809394549936304,0,0,-0.7316242407927971,-0.5881374271839666,-0.7278069794254918,0.45954757601811547,-3.1004451587315933,-0.08267208752791166
722,1.32483618560775,2.82484172936363,0,0,-0.49162263834720965,-0.6935554127826948,-0.15499769754995515,-0.25672874,-3.2810144,0.37284255
723,1.3877390748378373,2.85530165379978,0,0,-0.5686626875273266,-0.9640625726440596,0.25328043341217044,-1.0587090422434489,0.18335407761751726,0.7031154606186254
724,1.4524584555457758,2.9083268652507224,0,0,-0.681328971884385,-1.2276630728260665,0.3189079986023294,-1.3560816,1.4679344,0.82557994
725,1.5142284388365777,2.985574868586366,0,0,-0.7655151668774669,-1.385312617175669,0.2508349086784469,-1.3560816,1.4679344,0.82557994
726,1.5670147029915382,3.0816431020662516,0,0,-0.8939411132763341,-1.3988375499175632,0.2405808184924473,-0.46447891343875164,2.2166085064509335,1.012370360639145
727,1.604132902388185,3.184389695666123,0,0,-0.8490135395229748,-1.2658942371360022,-0.17414460490818337,-0.10013486,2.5225463,1.0887003
728,1.6190447255303249,3.276764709438,0,0,-0.5428627184546718,-1.2269880229549637,-0.617860882982774,-0.4186928957761174,-0.42300414410727866,1.9739951732961747
729,1.6062468829353946,3.3398370672616027,0,0,-0.2305604676289565,-1.3829214648383836,-0.4073786246694204,-1.5930504816189086,-2.6153302280063793,3.2633443422645954
730,1.5621698458099058,3.35640673967391,0,0,-0.0707434804977114,-1.5643886068279975,-0.020910171407608223,-2.0644825,-3.0264163,3.674097
731,1.485988471861221,3.3143910930191702,0,0,0.06910583970268724,-1.696528363624817,0.16766795672654494,-2.0644825,-3.0264163,3.674097
732,1.3802186038146225,3.2091690864978415,0,0,0.11975134359822143,-1.7463631171730432,0.24389304205123835,-1.6533473486041679,-0.8173636423352436,3.468174506768233
733,1.2509573655903279,3.044336767716975,0,0,-0.011971304956086474,-1.5908915680070428,0.2327728966189017,-0.4674101490746492,-0.07858477975536651,2.403791667679489
734,1.1076491535679047,2.8308064600315253,0,0,-0.16356737492661189,-1.2337050543197974,0.18796709988546706,0.043675844,-0.2695119,1.9025623
735,0.9623349351984333,2.5846572647274435,0,0,-0.23247886861271944,-0.8300244576585041,0.09415126574463646,0.44734059208855104,-0.9201647111992353,1.5276329386770684
736,0.8284502389648469,2.3244064378103704,0,0,-0.23490953036026777,-0.551763198065281,-0.08825582836893507,0.67218184,-1.2825783,1.3187973
737,0.7193363750950571,2.068357368586546,0,0,-0.15084736393814333,-0.47075612395014027,-0.22206632239410537,0.67218184,-1.2825783,1.3187973
738,0.6466821581535037,1.832481488783076,0,0,0.023607830141858403,-0.5210194575840454,-0.12145654493205565,0.6351151881898398,-0.40158245701890316,1.3260783144828636
739,0.619107772895861,1.6290489136493318,0,0,0.16972445644706224,-0.578847662284866,0.12519532609859088,0.6125271,0.13528858,1.3305153
740,0.6410560872720777,1.4660251445664698,0,0,0.2615430587812188,-0.5975458625374477,0.286940301869954,0.5142427304473488,1.3728953355069524,0.9735879807845685
741,0.712101115954991,1.3471179858959939,0,0,0.35267768989608633,-0.556239620608536,0.2702769590077527,0.6253585054007339,1.5351494709474354,0.10726074498958965
742,0.8267431926351955,1.272283669332638,0,0,0.4193435068315936,-0.46611488210930724,0.18306071436506502,0.74248934,1.1068097,-0.31851408
743,0.9747410120239135,1.238484760031122,0,0,0.4163775391574337,-0.3866810466835536,0.1118478043063227,0.45534614311234894,-0.1269114982133884,-0.7890062926988596
744,1.1420156422119874,1.2405273299527544,0,0,0.33993398838748845,-0.3727564596075612,-0.008648786500293604,0.25033715,-1.0077401,-1.1249193
745,1.3121207244483972,1.271858265334673,0,0,-0.0397418119198888,-0.4934157559613662,-0.9273818497291787,-0.32538319624022116,-0.5815496886563186,-1.2242023203519155
746,1.4681812303619592,1.3252431374663067,0,0,-0.9707493238403273,-0.8035091244973311,-0.7587077850637125,-0.76272935,-0.257794,-1.2996227
747,1.595064711208993,1.3932724273959964,0,0,-1.600165107614046,-1.3678058276920833,1.3023535082646402,-0.76272935,-0.257794,-1.2996227
748,1.6814123187881813,1.4686811871667478,0,0,-1.7624572107066157,-1.7634628730963207,1.2847385892334489,-0.4355003070403218,0.6247328153195555,-0.7845723137567364
749,1.7211009073565582,1.5445177320487549,0,0,-2.0963230814857856,-1.2354934312589105,-0.1559108315159446,1.0484313154968208,0.09496764843558539,-0.5476403363010628
750,1.7137967764963171,1.6142351308244076,0,0,-1.5829124035518145,-0.6116735095332607,-0.33116700304448415,2.082592,-0.9779128,-0.70840085
751,1.6644919644906966,1.6717817548164047,0,0,-0.4527549696243013,-0.8280399221917563,0.053110167070425165,0.8890915960296697,-1.166478020089085,-0.19754015833791563
752,1.582194121354142,1.7117471232060706,0,0,-0.1757208566745029,-1.200797008106908,0.02065735303856179,-0.18961707,-1.3369069,0.26418558
753,1.4781428478223169,1.7296113565947044,0,0,-0.5289685258288431,-1.1912644404552746,-0.13512019863577418,-0.18961707,-1.3369069,0.26418558
754,1.3639736535629212,1.7221497938501868,0,0,-0.4173432456585748,-1.0164278921134025,0.06906641604913161,0.20202902001567732,0.07623801343590719,0.19712289835530655
755,1.2501677740523092,1.688007270644037,0,0,0.08778296658591725,-0.9424794084124487,-0.0006155481778107722,0.7936961487803855,2.483603792248319,0.0601797188625333
756,1.1449891791753999,1.6283412807371287,0,0,0.07268696609203634,-1.0073786536450788,-0.23732373366635967,1.0024139,3.5132422,-0.011717909
757,1.053977336092275,1.5472913641592694,0,0,-0.1461436985673883,-1.0882949874374466,-0.07596981639097647,0.19237667767624847,1.6833481744936059,0.04317378268526001
758,0.9799532202333445,1.4519946474595726,0,0,-0.01937838690833311,-1.130340259640208,0.11692659690409729,-0.67963874,-0.28655612,0.10226539
759,0.923412627067965,1.3520129817523654,0,0,0.1465495919095885,-1.118502893206877,0.17571976696563324,-0.9069201659913092,0.012838651326204974,0.06297604048472973
760,0.8831375249196517,1.2582737703544526,0,0,0.11418656596667033,-1.009730513788765,0.20859924742274422,-1.1664646,0.35473305,0.018109497
761,0.8568607434593798,1.18177636182508,0,0,-0.05867489238836733,-0.8436646351440026,0.17171370916388223,-1.1664646,0.35473305,0.018109497
762,0.8418620942735731,1.132308292697025,0,0,-0.14197857896156665,-0.7687767002517472,0.09055376717896511,-0.7649991958042058,0.5206278361129926,-0.3989973937348178
763,0.8354311325183098,1.1173255624465346,0,0,-0.11987163863685295,-0.8361398539140102,0.06624927232293802,-0.020724532241820796,0.7369036143573839,-0.9650304834859613
764,0.8351785255550758,1.1410729683006207,0,0,-0.15087360276083375,-0.9162671860231183,0.07827608200071731,0.29188246,0.7488809,-1.0237192
765,0.8392035741589916,1.2039848635559613,0,0,-0.18218055565436603,-0.897792980844653,0.08393655680283148,0.29188246,0.7488809,-1.0237192
766,0.8461372093250685,1.3024041827669994,0,0,-0.16447094183042543,-0.8019931775740887,0.08297131834368678,0.18731758751847827,0.3709409226308819,-1.0334667237121737
767,0.8550916195939908,1.428675034579961,0,0,-0.13575387374496603,-0.7141750254084737,0.0845658207036748,0.040480047,-0.15978967,-1.0471549
768,0.8655631522522202,1.5716822330711306,0,0,-0.12076407336698905,-0.6985470046946208,0.08441732378933973,-0.0771221020580866,-0.4941403289986074,-1.0905046355907388
769,0.8773437243657422,1.7178998168181416,0,0,-0.1471042289740898,-0.7574890705145226,0.09570314660040492,-0.2514024,-0.9896307,-1.1547467
770,0.8904849300359023,1.8529485503206697,0,0,-0.23249644581849505,-0.8555153611009578,0.11171509812154931,-0.1744452531324485,-0.7227631536800685,-1.3272796788160945
771,0.9053273791950929,1.9635557450007661,0,0,-0.29108361179864856,-0.9453513251343378,0.14120059001674218,0.2521309424689996,0.36518427622759364,-1.7547089319561426
772,0.9225690997183984,2.0396864683034486,0,0,-0.27326160508765107,-0.9457097686320008,0.290486597267682,0.74675035,1.4466292,-2.0069582
773,0.9433198935992897,2.0765048775216415,0,0,-0.2665651174660869,-0.8819105942971377,0.3402720521862745,0.74675035,1.4466292,-2.0069582
774,0.9690847090707958,2.0757624502637144,0,0,-0.34844909475915126,-0.8746554230522455,-0.008962780284995803,1.2561619534456552,1.1465700411490665,-2.067812048168176
775,1.0016355657853708,2.0462323115894905,0,0,-0.5291445866330264,-0.9008357691112234,-0.3662752060444961,2.0928505915067364,0.09143494401684983,-2.0346805849037075
776,1.0427564146405186,2.002934228637227,0,0,-0.7630024312114335,-0.8947825917830535,-0.5710150413250056,1.9611518,-0.8628642,-1.7747306
777,1.0938709809985734,1.965110900036994,0,0,-0.7058248016329932,-0.8252445922361722,-0.2824991072444645,1.2168552234680265,-0.2898853919454318,-1.3979034487410311
778,1.15559382912818,1.9531851925552937,0,0,-0.5249652059885207,-0.7530273254829298,0.14024932047219754,-0.24181503,0.8330368,-0.6593987
779,1.2272823334009129,1.9851855227517603,0,0,-0.5329603551536448,-0.6903976231173227,0.37048863151587685,-0.43493935713780874,1.1447160529689586,-0.534658262554239
780,1.3066968343611705,2.0732852849927705,0,0,-0.7128616429464554,-0.7362653464504323,0.4873527323418862,-0.8404937,1.7992316,-0.2727077
781,1.3898721235947267,2.2211020257417444,0,0,-0.91743720124159,-0.9858444232369026,0.36002004258743275,-0.8404937,1.7992316,-0.2727077
782,1.4712571175630489,2.422266663673715,0,0,-0.8988715672038048,-1.3179880046218875,0.1929147219545078,-0.5404615783112229,1.117049992175332,-0.0659763123670323
783,1.5441137276740204,2.66058014689864,0,0,-0.8150396708295556,-1.4812589632142266,0.07274176941920014,0.10596248924321752,-0.8797506144145828,0.7804777755113795
784,1.601116117836839,2.911859791375386,0,0,-0.7840148885164941,-1.2688929484495453,-0.37082528565051165,-0.023435818,-1.8524948,1.655421
785,1.63507784004037,3.147305710211419,0,0,-0.745562752270521,-1.0361320782478687,-0.8710003075385018,-0.5494804227388863,-2.3931187396638123,2.0749474945390274
786,1.6397482887891546,3.3378757676761914,0,0,-0.4626296966258883,-1.1668860957743419,-0.5304746698187606,-1.9068234,-3.7880805,3.1574438
787,1.6106339044515567,3.4588391884999696,0,0,-0.15344544378763206,-1.472810109275718,0.025090425430277015,-1.9068234,-3.7880805,3.1574438
788,1.5457887023130765,3.493550241004266,0,0,-0.06637676240933055,-1.6995673037743404,0.16884834966380732,-1.7806024154634659,-2.9203795478092656,3.249787316054042
789,1.4464799162581783,3.4356585084236975,0,0,-0.013995732487970137,-1.7874317825088595,0.1888381537936918,-1.1014329077597058,-0.21616381363190634,3.2474886473329074
790,1.3175918664001929,3.2894125756720327,0,0,0.06137555015851564,-1.7375221583913951,0.15064021910162095,-0.16405073,0.34834146,2.4394555
791,1.167622665295231,3.0682322337106966,0,0,0.011570979927053505,-1.3880439019030228,0.049147115599793394,-0.16405073,0.34834146,2.4394555
792,1.008179256474217,2.7921005006281003,0,0,-0.1462798080056064,-0.9756849433381019,-0.028001455784116204,-0.1121889078948381,-0.16639923960078865,2.2463065776167266
