id,ASVM,GSVM,walking_nonwalking,normal_abnormal,ax,ay,az,gx,gy,gz
1,0.8947751994770232,1.9057385318263673,0,0,0.2530650120071584,-0.8541461151361577,0.09182362988380334,1.2731323,1.0789185,-0.789978
2,0.9465566604404747,1.849416772764047,0,0,0.2548229591991024,-0.989506793123537,0.014719355509751422,1.2731323,1.0789185,-0.789978
3,0.9940549862434083,1.7819264679836262,0,0,0.25658090639104636,-1.1248674711109161,-0.0623849188643005,1.2731323,1.0789185,-0.789978
4,1.0356960228682512,1.7032774258332901,0,0,0.30536723879568056,-1.1636906937582683,-0.06558560867600088,0.9813045763608323,1.3158759767259722,-0.6053213638727898
5,1.0710543912961925,1.6166500340555723,0,0,0.4045391827430924,-1.0990849191714496,0.010393058543946683,0.37681635514777645,1.8067066689679632,-0.22282596516371977
6,1.1009291090874853,1.5290792181682193,0,0,0.5037111266905043,-1.0344791445846309,0.08637172576389425,-0.22767186606527942,2.297537361209954,0.1596694335453503
7,1.1271701557159084,1.4514564348990733,0,0,0.5265435648003566,-0.9972084065058172,0.08967835234823616,-0.2277095499427326,2.026388725350511,0.16548870419284883
8,1.1522820105766678,1.3977087834912045,0,0,0.5466511698347731,-0.9609133547479727,0.0903910509550424,-0.20617220790763247,1.7280422912707476,0.15786304143125293
9,1.178872773078782,1.383162603308592,0,0,0.6097399456635166,-0.9407800865896331,0.049150100123456,-0.25787161325582475,1.233271927983004,0.0657392950024479
10,1.209041960328754,1.4222947541577056,0,0,0.7257224317989672,-0.9405359160047994,-0.043720067378896,-0.3996980027765529,0.4967773348331142,-0.13036991939679157
11,1.2438060943360527,1.526253562802445,0,0,0.8417049179344176,-0.9402917454199659,-0.136590234881248,-0.541524392297281,-0.23971725831677548,-0.32647913379603105
12,1.2826542624678698,1.700612566748158,0,0,0.7715310270586361,-0.9250841090436123,-0.01969278882330343,-1.1130956011724469,-0.2530962619377095,-0.8878796075229283
13,1.3233136230855436,1.9437597568141451,0,0,0.6875760613202921,-0.9087687338640705,0.11273366157297258,-1.716480630355066,-0.21294333593270787,-1.4763224328053157
14,1.361790604781654,2.2461546975839077,0,0,0.610981139709072,-0.942455402877787,0.1965429760965608,-1.8679345367516622,-0.09437169850110934,-1.9079955595493086
15,1.3927314679433025,2.590502891681227,0,0,0.5448108747606588,-1.0469642210729513,0.21149170491604596,-1.3792799453039581,0.13527103150034378,-2.117622424862379
16,1.410105637270901,2.9527948136905096,0,0,0.47864060981224554,-1.1514730392681158,0.2264404337355311,-0.890625353856254,0.3649137615017969,-2.3272492901754496
17,1.4081533691777415,3.3041510132576133,0,0,0.3807713730050306,-1.3973259459979,0.04938634964492283,-0.760947684655402,-0.7136664032111074,-2.1638117374358488
18,1.3824662112766988,3.613432394778186,0,0,0.27924684395364263,-1.659477613232651,-0.1498080863793648,-0.672664593347198,-1.9431012083205326,-1.957355140420646
19,1.3310064565159585,3.8505221563550065,0,0,0.17495236535704325,-1.7443385630768193,-0.23949765986967603,-0.6552371732072387,-3.14628278348892,-1.611751360181173
20,1.2548475011129998,3.990022484055499,0,0,0.06612654114070682,-1.5391705782580096,-0.15004881546314505,-0.7537221658896779,-4.306516840460477,-1.038517448449925
21,1.158451189254453,4.014880526209504,0,0,-0.04269928307562963,-1.3340025934391995,-0.06059997105661406,-0.852207158572117,-5.466750897432033,-0.465283536718677
22,1.0493897562527075,3.9192766808886623,0,0,-0.019858065971397755,-1.055534431992077,0.04361964621741621,-0.8078785039652585,-5.1858669280992125,-0.1338194517400967
23,0.9375409244608743,3.710095767254318,0,0,0.024036214929938172,-0.7653458484908304,0.15020105441796147,-0.7407144852663458,-4.674553616368741,0.15898654890858552
24,0.8338943278725411,3.406518650489872,0,0,0.055476623535487005,-0.5696066215697562,0.23231945594112705,-0.6154121792857246,-3.9194575728581125,0.2171736934797082
25,0.7491736448107565,3.037673522446899,0,0,0.0632637592230349,-0.5532522763192712,0.2679759892523728,-0.3796895362887534,-2.701352165629941,-0.17024384639651008
26,0.6924901997746508,2.6387425685295156,0,0,0.07105089491058279,-0.5368979310687862,0.3036325225636186,-0.14396689329178228,-1.4832467584017694,-0.5576613862727283
27,0.6702100598223161,2.2462818786485084,0,0,0.018007976066794468,-0.5654497429869593,0.2805668356466017,0.10918045169030537,-0.5050182489796322,-0.6026606090553003
28,0.6851610333234202,1.8936669108413882,0,0,-0.04769931066560786,-0.6033506850222989,0.24527561636837625,0.36595549087699547,0.4232696627363144,-0.5763708683002827
29,0.7362518261221678,1.6074758420094548,0,0,-0.10799988966408769,-0.6246567271985897,0.19684211302237578,0.5386523270929608,1.1304979935615886,-0.4155462076559481
30,0.8185344204469683,1.4053090806671695,0,0,-0.15629151245612816,-0.6091034761663343,0.1192179965362793,0.5246012370142246,1.3467260786598814,0.0440968912499867
31,0.9237094753711919,1.2951369719037118,0,0,-0.20458313524816862,-0.5935502251340788,0.04159388005018286,0.5105501469354884,1.562954163758174,0.5037399901559214
32,1.0410407164349806,1.2759172765430642,0,0,0.03832432520479821,-0.7660768146127637,-0.35932245875444035,0.2398184685890521,1.704278850074139,0.7557950794968394
33,1.1585947197918613,1.3390296119641225,0,0,0.35714322734698006,-0.9876331320932035,-0.8445164622056276,-0.09782617284745944,1.8260772902026987,0.9537349398065712
34,1.2646562314384704,1.470057410644005,0,0,0.6189412108427498,-1.1918111512101028,-1.0759533172888132,-0.32754803700166696,1.7797363516224107,0.8546052703505033
35,1.3491085908967781,1.6505737498660171,0,0,0.7311531220410477,-1.3503997365345466,-0.6416952652597887,-0.27415021897042263,1.2923062503866158,-0.023843028334963427
36,1.404552230717343,1.8597906412243694,0,0,0.8433650332393454,-1.5089883218589906,-0.20743721323076425,-0.2207524009391783,0.8048761491508208,-0.9022913270204301
37,1.4269863718004017,2.076126206697889,0,0,0.698472697850387,-1.3012829820801861,-0.1216912237256425,-0.10504225587104188,1.125942592489955,-0.7041179411369368
38,1.415987300579234,2.2788413495260196,0,0,0.47183475603592945,-0.9771154701085968,-0.14675371084344221,0.03047992664504871,1.7040683462312922,-0.1636355748918012
39,1.3744365402331298,2.449847392103296,0,0,0.3200553730997819,-0.8276672858529037,-0.13215500503421737,0.09163403541809914,2.315142625176878,0.27378765894661933
40,1.3079320995353976,2.5756120174166863,0,0,0.40336005717406925,-1.2269035908558332,0.00699478318265925,-0.08075561477522039,3.0296876818541327,0.3875664044090104
41,1.2240236282185615,2.6488774995839774,0,0,0.4866647412483567,-1.6261398958587625,0.14614457139953585,-0.25314526496853995,3.744232738531387,0.5013451498714016
42,1.1313596930849534,2.6697578716795336,0,0,0.3612843191371308,-1.4206190301112618,0.12617445391357748,-0.05705184816850125,3.7262504355518566,0.35062463488652973
43,1.038779890106696,2.645785156122203,0,0,0.15646618124361017,-0.9848923335524759,0.04563402513146576,0.27930770300715246,3.429425520069633,0.09922028357000012
44,0.9543838724139871,2.590659159320273,0,0,-0.009188286370143699,-0.6253928015761553,-0.022316234695214893,0.5339397273709214,2.9799586217055625,-0.03099602875090975
45,0.8846650095210457,2.5217768159868386,0,0,-0.02486516833208922,-0.5578058003584118,-0.04205234274819347,0.47559554023613665,1.945948040428525,0.3028782145018316
46,0.8338518965912257,2.456971895648353,0,0,-0.04054205029403474,-0.4902187991406683,-0.06178845080117205,0.41725135310135186,0.9119374591514873,0.6367524577545729
47,0.8035985793937924,2.411159393636778,0,0,0.020912182389762425,-0.6334662412146161,-0.02345950475817436,0.316585617371312,-0.20548682811860297,0.7411846164585303
48,0.7930927392556437,2.393645653819597,0,0,0.11704728512101417,-0.8715122864581106,0.04097753792844058,0.19689062044389,-1.36041686013267,0.7424515200744404
49,0.7995427972701099,2.4066898041656897,0,0,0.19182937243027928,-1.0637251544239852,0.10518480960083397,0.14413949605152948,-2.3768219036395193,0.7407043184170379
50,0.8189075069280047,2.445538169535798,0,0,0.1642484050387809,-1.0362208564504773,0.1682905945542511,0.4123069468938185,-2.729159568569648,0.7245079620679633
51,0.8466833855695814,2.4997476835345984,0,0,0.13666743764728254,-1.0087165584769697,0.23139637950766823,0.6804743977361076,-3.0814972334997766,0.7083116057188887
52,0.8785806967708532,2.555328607540804,0,0,0.14768258863286998,-0.9333924254254496,0.2222382545861533,1.0376430493507842,-2.86332308506868,0.7748178693754542
53,0.9109836213432868,2.597154585629309,0,0,0.17900235663863606,-0.8329112693867787,0.17506358613412837,1.4416333859433013,-2.3450145095791197,0.8848322653621566
54,0.9411726607669162,2.611186735333649,0,0,0.21205324532409525,-0.7554128578840513,0.1275858347965357,1.8059237537236728,-1.754221957680419,0.9624986060039512
55,0.9673552361889933,2.5862511845154907,0,0,0.2559135294971176,-0.8214223935700099,0.07821558525587492,1.9223211416740786,-0.7108278184351431,0.8381784949913903
56,0.9885844907752932,2.5153007011580537,0,0,0.29977381367014,-0.8874319292559686,0.028845335715214134,2.0387185296244845,0.3325663208101328,0.7138583839788295
57,1.0046436819149542,2.396211712148975,0,0,0.33023203287373926,-0.9147126844482949,-0.06281556897890374,1.6248338426374493,1.2374939469986737,0.6325101299357446
58,1.0159461338918523,2.232190896288267,0,0,0.35250430341273825,-0.9183379947991844,-0.18030750283796762,0.8870541555422253,2.0578465637894743,0.5774089815358462
59,1.0234665452066767,2.03180953668926,0,0,0.37796237290384105,-0.9236664858615916,-0.2772560600964907,0.18686484693310115,2.7272116852920143,0.5248167871343774
60,1.028691857971987,1.808605939634368,0,0,0.43099191372644335,-0.943735140680455,-0.19641212940417574,-0.18799883092344935,2.089856740480795,0.4939383151183996
61,1.0335634625515577,1.5801654978635429,0,0,0.48402145454904555,-0.9638037954993183,-0.11556819871186078,-0.5628625087799999,1.4525017956695758,0.4630598431024217
62,1.0403767467200975,1.366642839209504,0,0,0.5266498281686204,-0.9699741496881937,-0.03191720355144564,-0.4889024555486592,1.1502620770087957,0.4454459415259886
63,1.0516077681301006,1.18880856209805,0,0,0.561940440506257,-0.9663396031138384,0.05371410483419426,-0.09830857343001494,1.084437703225734,0.4371898600377182
64,1.0696493116270038,1.065821632226559,0,0,0.5979675775941317,-0.9609581559075365,0.12758173079819302,0.26464871270697937,1.0028479231277798,0.42124756600774715
65,1.096458491347236,1.013001448742345,0,0,0.6439146564039031,-0.9320484396820875,0.04300927172783135,0.2553803249055561,0.7089205239406232,0.30178291179752614
66,1.133142956710458,1.0398982213110153,0,0,0.6898617352136746,-0.9031387234566384,-0.04156318734253032,0.24611193710413284,0.41499312475346656,0.1823182575873051
67,1.1795388644682032,1.1489493288744101,0,0,0.7305574070505357,-0.8809681020620095,-0.06796429506086042,-0.15593313173054618,0.11769358249598565,-0.13910980218679284
68,1.2338560732019968,1.3349550060957858,0,0,0.7669890599339728,-0.8642694671722875,-0.04713163362153337,-0.8769036277942358,-0.1823440606246916,-0.6245273972730234
69,1.2924791638936795,1.58548720315094,0,0,0.7998643866313271,-0.8482318054660969,-0.025102070777365686,-1.5713103645031945,-0.46441234829406947,-1.108657175333038
70,1.3500122956642189,1.8821685654077527,0,0,0.7336656881145197,-0.8506078860390408,0.030271407601349637,-1.5256897734623538,-0.2458807804071151,-1.5569102621531294
71,1.3996376446650989,2.202586565740157,0,0,0.6674669895977126,-0.8529839666119846,0.08564488598006496,-1.4800691824215129,-0.02734921252016076,-2.005163348973221
72,1.4338169617714742,2.5225184293739487,0,0,0.6111900598527854,-1.0307312371571642,0.10103735059899648,-1.271164335440476,-0.16916898027782484,-2.3295355879162702
73,1.4453004102633118,2.8181611574693557,0,0,0.5641668237492009,-1.3720412053253919,0.07914089412838218,-0.9099698598997029,-0.6470760868933337,-2.538368406354689
74,1.4283215028387741,3.068146608821266,0,0,0.5171267993949821,-1.713285148730818,0.05722984815463012,-0.548904833922414,-1.1250558640666208,-2.7470749542145025
75,1.3797739466356975,3.255212379397424,0,0,0.3809501966873231,-1.7039731246997156,-0.04214360994861008,-0.8751473428157348,-1.9888772043938252,-2.2853526665290254
76,1.3001216711288954,3.367456951496983,0,0,0.24477359397966414,-1.694661100668613,-0.14151706805185027,-1.2013898517090558,-2.8526985447210294,-1.8236303788435484
77,1.1938167745644228,3.3991286557840996,0,0,0.12866639106074612,-1.497886655807723,-0.1308010660344154,-1.2136697469248894,-3.242589835258157,-1.3780506320142065
78,1.0690934144858317,3.3509045503194406,0,0,0.03404507789962202,-1.1004187696841998,-0.002225535154793847,-0.889827676533772,-3.1251012883370666,-0.9497527599243466
79,0.9371410227247816,3.2296366465155093,0,0,-0.06057623526150208,-0.7029508835606768,0.12634999572482772,-0.5659856061426546,-3.0076127414159766,-0.5214548878344867
80,0.810794534828058,3.0475896097296347,0,0,-0.04098888811340847,-0.5782277937379945,0.12290839659877063,-0.05369848724883168,-2.8951001159516565,-0.4404143324660204
81,0.7029710744388713,2.8212461912362348,0,0,-0.01734808532968479,-0.46318487115185253,0.11478128957714422,0.4652768603816891,-2.782764094230142,-0.3716985178279601
82,0.6251078958398915,2.5697851099122335,0,0,-0.007167373776972156,-0.44070450623732443,0.13005804873616092,0.8121510630415157,-2.6178657464391093,-0.3116334324997462
83,0.5858195864937292,2.3133358396055406,0,0,-0.013538386264892129,-0.5320472859643365,0.17411428106943197,0.9473944075041154,-2.388332092608545,-0.26220605250572077
84,0.5899203201601646,2.0711106543348015,0,0,-0.019909398752812103,-0.6233900656913486,0.21817051340270305,1.0826377519667152,-2.1587984387779806,-0.21277867251169538
85,0.6378815397078376,1.8595370588668696,0,0,-0.032987144729353164,-0.6320485316341347,0.19554567045941001,0.9252412646021115,-1.4686224230246923,-0.022207898994538948
86,0.7257404049129454,1.690572769989656,0,0,-0.04655993108495628,-0.6346038664315313,0.16799893449067005,0.7462443165181153,-0.7444452694827676,0.17878101312173475
87,0.8454473004915699,1.570454880349099,0,0,-0.03257785368432158,-0.6575538764885882,0.12676216592458667,0.6404037064131081,-0.24257058664089326,0.39669810401503336
88,0.985631340550086,1.4991594404998638,0,0,0.020402246432027798,-0.7093681921757464,0.06615008101025192,0.6381002633048809,-0.0553175574864737,0.6385734153634285
89,1.132749082745222,1.4707748569834787,0,0,0.07338234654837718,-0.7611825078629048,0.005537996095917177,0.6357968201966537,0.13193547166794586,0.8804487267118236
90,1.2725428342820913,1.4748142019786012,0,0,0.4662262499960253,-1.0394097091695718,-0.5387651619685967,-0.15168787527849956,1.217235057547174,0.3305813795798328
91,1.3916649527037817,1.4982564722070864,0,0,0.8981811541063204,-1.3436921550556808,-1.1387307403822766,-1.029530014472617,2.405880451749842,-0.3103984877350938
92,1.479243825685974,1.5278972786560807,0,0,1.0634136133506746,-1.4680549523296642,-1.3271307230564982,-1.1824039496020216,2.7335257474421146,-0.6061458740531014
93,1.5281244103426495,1.5524948235969203,0,0,0.7926650471922857,-1.2983234414495588,-0.8427909573335913,-0.15025432531038907,1.6537915254147681,-0.3375807551261118
94,1.5355602825755275,1.5642806727717171,0,0,0.5219164810338967,-1.1285919305694534,-0.3584511916106846,0.8818952989812434,0.5740573033874218,-0.0690156361991222
95,1.5032645934027375,1.5596434597265612,0,0,0.3972736536539049,-1.2498107508547156,-0.18355099098597674,0.44399821501690023,0.9365452007988546,0.16764762810210546
96,1.436879122693676,1.539056339755139,0,0,0.29595557685777135,-1.4174777391822762,-0.0580506341801363,-0.22858145638980795,1.5292736863192529,0.399217986344133
97,1.3450176619657226,1.5064636923833588,0,0,0.2068255517285506,-1.4478887687238575,0.03261833514871489,-0.5891470181767886,1.7891002144424248,0.5462329196424103
98,1.2380615527077812,1.4683430783613487,0,0,0.14082465265290908,-1.2178307373256998,0.05718817940055468,-0.3576069777631245,1.4171825108746225,0.5327879914726626
99,1.1268682788666817,1.432604795369521,0,0,0.0748237535772675,-0.9877727059275422,0.08175802365239447,-0.12606693734946037,1.0452648073068203,0.5193430633029149
100,1.0215392569161073,1.407472480639138,0,0,0.034285908744891444,-0.8337681344375302,0.08318601201647687,0.25673570107512556,0.6673953753592572,0.5530403684904288
101,0.9303862906483279,1.4005057979758633,0,0,-0.0009577139794309735,-0.6955764306810174,0.07980239671778344,0.6709885254381421,0.28828847316683576,0.5965393829182647
102,0.8592184424278655,1.417919487141409,0,0,-0.006553449248857919,-0.637340617042421,0.07527725950654335,0.9691291907011544,-0.16159143342373433,0.673667105873949
103,0.8110269465202732,1.4642771319632806,0,0,0.05364449231526789,-0.756540447119094,0.06821889209713904,1.0095973359947783,-0.768528607146588,0.8254226209304039
104,0.7860776286800258,1.5425069925896275,0,0,0.1138424338793937,-0.8757402771957671,0.061160524687734724,1.0500654812884023,-1.3754657808694415,0.9771781359868588
105,0.7823454656607396,1.6540584030428473,0,0,0.15519629056458414,-0.9080735905874404,0.09936101329482076,1.0140012459690746,-1.757153540101098,0.9409572793895981
106,0.7961680550817968,1.7989522852230928,0,0,0.19164340184622486,-0.9177880352887609,0.1493462972451435,0.9580090115344866,-2.0801893915161838,0.8557899123348904
107,0.8229724388217384,1.9755154335529492,0,0,0.21918810405729375,-0.9147136643829388,0.18357682906311654,0.9707856003916623,-2.199309406934008,0.7396633489904912
108,0.8579465048046159,2.1797257377659394,0,0,0.2234006269432488,-0.878121294389876,0.17651598693267903,1.163797281154971,-1.7839897201316524,0.5423963309819383
109,0.8965703402757482,2.4042985029712036,0,0,0.22761314982920383,-0.8415289243968133,0.16945514480224155,1.35680896191828,-1.368670033329297,0.34512931297338545
110,0.9349759763858326,2.6378484246914806,0,0,0.24811687343583996,-0.8454269405378615,0.1495961867714073,1.456839597639712,-0.5916163404299768,0.2665602219531761
111,0.9701493189242524,2.864589346371843,0,0,0.27379501475756923,-0.8621855293828806,0.12567228602884523,1.527337556495786,0.3003314527503377,0.22569201416949952
112,1.000015305074501,3.0650148368218484,0,0,0.30650550619403205,-0.8786929631114498,0.09918065302326531,1.5572012642465254,1.2748283206654158,0.20307866966115037
113,1.0234538905153965,3.2178052074423786,0,0,0.36127754796320344,-0.894412485096082,0.06463365393987847,1.4595891550418365,2.5082941729835837,0.23773360366492813
114,1.0402843445198235,3.302863226498762,0,0,0.4160495897323748,-0.9101320070807142,0.030086654856491618,1.3619770458371474,3.741760025301751,0.2723885376687059
115,1.051235393342385,3.3049930440228836,0,0,0.47068548850932246,-0.9221158442146712,-0.1334461992677916,0.6458816569016435,4.194288271504767,0.28672350239091576
116,1.0578957961973223,3.217443693714084,0,0,0.5252696121711311,-0.9326790021780883,-0.34603231266735246,-0.30542262891980637,4.349826317825514,0.2933307924675733
117,1.0626202713787987,3.0444525860234783,0,0,0.5701209173295011,-0.9434881154915171,-0.46286666879906785,-1.026791268927611,4.319802017517378,0.2869367711003774
118,1.068355859908002,2.8020787288571865,0,0,0.5777430257041505,-0.9552380374846068,-0.2134390821592986,-0.8686285170201404,3.579979510671748,0.23081117588140845
119,1.078359450431129,2.5169629011272496,0,0,0.5853651340788001,-0.9669879594776963,0.03598850448047062,-0.7104657651126698,2.8401570038261177,0.17468558066243953
120,1.095799071462144,2.2231012192258777,0,0,0.5961050637867071,-0.9544588567725072,0.08351505575532096,-0.37070274254020685,1.8599882217484247,0.21487082327091653
121,1.1232631748013835,1.957161212963378,0,0,0.6082456425117589,-0.9310226530996872,0.04033965316007035,0.05064232513114894,0.7718463590495864,0.298322714581947
122,1.16223321269012,1.753195140906648,0,0,0.6343571040204642,-0.9108089038602892,0.0025234043423877795,0.35173580498483414,-0.20939379813444062,0.3190795932039365
123,1.2125972885961573,1.6377251930514611,0,0,0.7273546007608501,-0.9060227553032565,-0.009635729321639943,0.07712107341117097,-0.678838720034086,0.039682151407724374
124,1.2722927635191643,1.626057346502062,0,0,0.8203520975012359,-0.901236606746224,-0.021794862985667664,-0.19749365816249223,-1.1482836419337314,-0.23971529038848774
125,1.337162817338865,1.7203720212683937,0,0,0.8225723708113688,-0.9023945627890279,0.016822547596820468,-0.6833670459779325,-0.9991126360369137,-0.7617921388632249
126,1.4010973955113173,1.9097503750794975,0,0,0.7770957036978765,-0.9066757208009696,0.08211940170408699,-1.2802417528465064,-0.5249031905596672,-1.4113796641905072
127,1.4565033959170461,2.1719425043953113,0,0,0.7289634864373237,-0.941567026719964,0.13529447678304415,-1.743455999187523,-0.11721793159731424,-2.0243025857138623
128,1.4951094677008632,2.4764420081596024,0,0,0.6642884650321366,-1.1671448772802508,0.11295668061314972,-1.374029663374045,-0.12394645789717065,-2.4088226053223956
129,1.5090533019815362,2.7883225288947826,0,0,0.5996134436269496,-1.3927227278405379,0.0906188844432553,-1.0046033275605668,-0.13067498419702706,-2.7933426249309283
130,1.4921272550882785,3.0723010821793473,0,0,0.4572827931034626,-1.5833036194564587,-0.051191297471089955,-0.9647397484239061,-0.9243655733651576,-2.688141811532267
131,1.4409887160754165,3.2965766698347516,0,0,0.26757657282187886,-1.7525338261495351,-0.2658883056112581,-1.1259333694655889,-2.198160136059732,-2.284175747635388
132,1.35610104117059,3.436093690713997,0,0,0.09151897136152451,-1.867066843365848,-0.4325541853242,-1.2475011523346728,-3.3440026848711355,-1.8661062535558544
133,1.2421829212735271,3.474961853344698,0,0,0.03322856332309207,-1.5096448168435086,-0.18478317102966443,-1.0271571410726454,-3.3858104763878427,-1.3263452233591404
134,1.1080191951754919,3.4078357697227353,0,0,-0.025061844715340377,-1.1522227903211693,0.06298784326487113,-0.8068131298106183,-3.4276182679045495,-0.7865841931624263
135,0.965612097011479,3.2401488079768264,0,0,-0.05424893871660126,-0.8708614998530476,0.1492091889501214,-0.4491587331753849,-3.271187619960431,-0.4595592994005191
136,0.8287913354083746,2.987215604801455,0,0,-0.06292803046200876,-0.6430973270392751,0.12159260662346019,0.005253087352851712,-2.975065857854299,-0.28244149733044666
137,0.711508108762214,2.6723399803572336,0,0,-0.06852973217664654,-0.4310065110667566,0.09889972786044615,0.4212214589520758,-2.6783324661716277,-0.11560192288706456
138,0.6260837564597537,2.32415921103225,0,0,-0.03286269193473495,-0.4291002061920526,0.14223522047935763,0.32165141718535,-2.3733969347163506,-0.08659652593026844
139,0.5816682158068449,1.9735134439982098,0,0,0.0028043483071766473,-0.4271939013173486,0.1855707130982691,0.22208137541862424,-2.068461403261073,-0.057591128973472336
140,0.5831055395912397,1.650162440459865,0,0,0.001376579061396441,-0.45488495691076763,0.22953284660672088,0.17592045678440804,-1.528304165664063,-0.01969927360675456
141,0.6303279052613461,1.379694818747014,0,0,-0.030137280557475565,-0.5065812270920763,0.27400322303903607,0.17307750439680206,-0.7973681747473691,0.025400026534853758
142,0.7183270738357582,1.1809851405130845,0,0,-0.060473690762260834,-0.5580584033802167,0.31491162722210236,0.1822484939253459,-0.07826465953700977,0.07557970492985668
143,0.8376943330995275,1.064523815673532,0,0,-0.058279964556824486,-0.6034825347170041,0.25741118107900474,0.5233362220255906,0.31393559835061674,0.2661181924772961
144,0.9756750978365826,1.0318376394965016,0,0,-0.056086238351388144,-0.6489066660537914,0.19991073493590714,0.8644239501258354,0.7061358562382433,0.45665668002473553
145,1.1176412663569102,1.0760330595384109,0,0,0.14879512635346712,-0.8389276726634488,-0.17099935048268117,0.5465112028944186,1.0489352267581677,0.3611050644475299
146,1.248829433373826,1.1832882281436332,0,0,0.5425047838006967,-1.1636583305167676,-0.8338887966138072,-0.38534098136708383,1.345711636575295,-0.0009744269461944775
147,1.3561243983387572,1.3349762181072713,0,0,0.935949003278887,-1.4881684963792525,-1.496219838027871,-1.3162712305081483,1.642191950975438,-0.362790958414549
148,1.429612631616812,1.5100656836866062,0,0,0.7622998254955439,-1.3416098373723813,-0.9655503859868237,-0.27753858102147727,1.306080942668834,-0.16280829453302428
149,1.4636408403676293,1.687505372212596,0,0,0.5886506477122008,-1.1950511783655098,-0.4348809339457763,0.7611940684651939,0.9699699343622302,0.03717436934850046
150,1.4572193507549498,1.8484059690154233,0,0,0.4471401139348334,-1.1494412641986858,-0.17380995701222754,0.8600069924773885,1.1615337715353358,0.19284042988834507
151,1.4137700637558046,1.9779179024992206,0,0,0.33999806130981525,-1.2117841010484696,-0.20104268414009843,-0.04631313653170558,1.9173834876666869,0.30111512113452976
152,1.3403515518076143,2.066712453063937,0,0,0.23285600868479708,-1.2741269378982534,-0.2282754112679693,-0.9526332655407997,2.6732332037980377,0.4093898123807144
153,1.2465469480122453,2.1119165152954995,0,0,0.18764275792973908,-1.2637935685847836,-0.12281209323935408,-0.5914837988267277,2.6887106658556963,0.42934941344263106
154,1.1431870291314818,2.1173086308779343,0,0,0.14460890662294515,-1.2509025769884432,-0.012678933733615923,-0.18572952055161626,2.6781329349608667,0.4462010283493311
155,1.0410481741458042,2.0926385444381466,0,0,0.08940951070635222,-1.0887839393711174,0.039418229485087365,0.13284329799254785,2.292259808520374,0.4820406234262763
156,0.9496472409153253,2.052100004286164,0,0,0.019267176716683508,-0.7433689886987774,0.020229780234958607,0.3443311322088774,1.445411359180465,0.5412031539670579
157,0.8762577991391818,2.0122032642809375,0,0,-0.05087515727298521,-0.3979540380264375,0.001041330984829851,0.555818966425207,0.5985629098405559,0.6003656845078393
158,0.8252743300765262,1.9894582666919889,0,0,0.007054420570630389,-0.536984657542246,0.03738328279100799,0.4356673573987045,-0.4139217566933077,0.8037180577206245
159,0.7980223293783487,1.9983047482394654,0,0,0.07439602984424817,-0.7116172827396093,0.07780617531698225,0.29114349673209844,-1.4385790632686941,1.017666972452073
160,0.7930366263874247,2.049584559032997,0,0,0.1527023378230953,-0.8690613467151994,0.1366855617226169,0.30944328330277393,-2.259742613060067,1.0921133787069226
161,0.8067257862665873,2.149605801685706,0,0,0.24650896585247487,-1.0022066855449179,0.2216560948014373,0.5579198136055122,-2.7932358452956003,0.9693511258484919
162,0.8342508130616064,2.299627729847186,0,0,0.34031559388185445,-1.1353520243746364,0.3066266278802577,0.8063963439082505,-3.326729077531134,0.8465888729900614
163,0.8704103502792763,2.4955243268772596,0,0,0.3176532645639867,-1.0118487664057019,0.2620274476134143,1.0155735938021053,-2.5699523248957177,0.5921383589148491
164,0.9103547616350908,2.727507338214703,0,0,0.2816283304012114,-0.8588999474810224,0.2025625991140993,1.2202419963021653,-1.6651415523482753,0.3225791134022431
165,0.9500323509718244,2.9800412600469177,0,0,0.2712114566908899,-0.7740497414539286,0.16399048541670963,1.4010631481119677,-0.6365494285741994,0.15606008175404476
166,0.9863673822854586,3.232314805563748,0,0,0.3026035421297618,-0.8003806274130131,0.15952886194838062,1.54295012402896,0.5941341213145137,0.1577694913101215
167,1.0172427599909917,3.4596861515873876,0,0,0.33399562756863366,-0.8267115133720977,0.1550672384800516,1.6848370999459525,1.824817671203227,0.1594789008661982
168,1.041388228172807,3.6363149388301497,0,0,0.38437294433003605,-0.8703853500708855,0.06330000593110878,1.6112762589994092,3.208599160721271,0.18823759421788203
169,1.058261177654101,3.7387897794296774,0,0,0.4377739860360182,-0.9168213502573533,-0.04237214794820995,1.5034016439914244,4.616764132913639,0.22130435170406654
170,1.06797043496042,3.750123262271217,0,0,0.48073604065264686,-0.9422254591213861,-0.16140104519193924,1.0044062646444096,5.366968785141455,0.28469712291425253
171,1.0712527042795148,3.663211525959689,0,0,0.5039126315462011,-0.9277669146505994,-0.3057455560183701,-0.23589721795282934,4.8701127835375875,0.4055680997671291
172,1.0694788389439016,3.482870476437065,0,0,0.5270892224397554,-0.9133083701798127,-0.4500900668448011,-1.4762007005500684,4.373256781933719,0.5264390766200057
173,1.0646488085640622,3.225868303706829,0,0,0.5605181561624316,-0.9063235602057838,-0.30492421200516634,-1.241278716951682,3.448704401733494,0.5043095407956515
174,1.0593315080158148,2.918860369200349,0,0,0.5960745542155023,-0.9008896253655365,-0.0996820422685619,-0.7002326004667281,2.4354007180635833,0.45250595924149917
175,1.0565158617273511,2.5946353165878513,0,0,0.6204105209215294,-0.9021189851529349,0.0407469363415555,-0.17612245377020566,1.2745622151869243,0.42619868784420667
176,1.059357424977029,2.287453946971467,0,0,0.6198789278342466,-0.918116037237392,0.03753206955193188,0.3104529290348666,-0.2132539969010356,0.45639824739878704
177,1.0708241486936572,2.028402538916255,0,0,0.6193473347469638,-0.934113089321849,0.03431720276230827,0.7970283118399388,-1.7010702089889955,0.48659780695336746
178,1.0932636090618835,1.8415580069735855,0,0,0.6346125024890623,-0.9381288031970239,-0.07002994680935784,0.6477228884463144,-1.8884457342479117,0.3010379153877935
179,1.1279325233771145,1.7414497894788912,0,0,0.6539839211644197,-0.9390300569790861,-0.2006656839618371,0.333124960969308,-1.737781338435962,0.05939295314914366
180,1.1745486914590804,1.7319650977455383,0,0,0.6678417710817813,-0.9208659594673266,-0.2542924523929178,-0.10279738186900872,-1.3079290134211028,-0.26773614194096595
181,1.2309442336221919,1.806614275827625,0,0,0.6672693849992389,-0.8528035963010492,-0.1063696181011743,-0.856252709795285,-0.14737976894186797,-0.8185962296853033
182,1.292912472478094,1.9499605734932821,0,0,0.6666969989166966,-0.7847412331347715,0.041553216190569175,-1.6097080377215611,1.0131694755373668,-1.3694563174296406
183,1.3543402394890427,2.139946926617418,0,0,0.6601941370391445,-0.8666181197169976,0.07324344344104455,-1.6242094431196656,0.9160542394918921,-1.7565927377943553
184,1.407691474966343,2.3507768819314,0,0,0.6518105121586476,-0.9960460297522854,0.0680722122495152,-1.4043625017052663,0.42008924722966734,-2.0918066097906607
185,1.4448500374023194,2.5559591595944817,0,0,0.6316201518510429,-1.170160994914412,0.06221829239413552,-1.182115720435414,-0.133156310154325,-2.3780293123599248
186,1.458245807475575,2.731147941182699,0,0,0.5744466949118716,-1.484252475019152,0.05422593715326536,-0.9523517461343094,-0.8658259503500048,-2.5107934095255477
187,1.442099021058792,2.856492727263431,0,0,0.5172732379727003,-1.798343955123892,0.04623358191239521,-0.7225877718332048,-1.5984955905456846,-2.6435575066911703
188,1.3935528191561848,2.9183074673465037,0,0,0.35366401616555865,-1.759942248426749,-0.030885302682174546,-0.9593968722897945,-1.9547515293599385,-2.2893811764113967
189,1.3134525052090738,2.9099545750871205,0,0,0.14963398820545562,-1.5876752118601527,-0.1342561717154235,-1.3733950955413965,-2.168057912865121,-1.7502808720311325
190,1.2065868722150759,2.8319232571267925,0,0,-0.012195026955642667,-1.3782791533331613,-0.18398526743797902,-1.5526679256452447,-2.2849576592170235,-1.2710327815379037
191,1.0813198581128873,2.6911737133899294,0,0,-0.012874346183683438,-1.0271014122738833,-0.02887673285294868,-0.8356133165550274,-2.0337169455952733,-1.0203376434288778
192,0.9486729198906989,2.4999104974200876,0,0,-0.013553665411724206,-0.6759236712146053,0.12623180173208165,-0.11855870746481009,-1.782476231973523,-0.7696425053198518
193,0.8210273317815024,2.2740121352113505,0,0,-0.019862297805273328,-0.5651785840410981,0.1624766186562276,0.4586660210223709,-1.7682354289289635,-0.6431401756223051
194,0.710670782431301,2.0313475323311243,0,0,-0.028696537829066893,-0.5623043023034062,0.14539288492823713,0.9731556692246187,-1.860325321108206,-0.5723573085525216
195,0.6284056549723506,1.7901429833258524,0,0,-0.03500872075670916,-0.5657146237908622,0.13004172859229143,1.3704555427402623,-1.8506121684262584,-0.4753728084352623
196,0.5823830427020217,1.5674650209056873,0,0,-0.02927004956998286,-0.5991539389710145,0.12296914668879871,1.2078010517813331,-1.3544652851626937,-0.2531920715257461
197,0.5772583750086177,1.37782405574046,0,0,-0.023531378383256564,-0.6325932541511667,0.11589656478530597,1.0451465608224038,-0.8583184018991288,-0.031011334616229895
198,0.6137103858622778,1.231925105351936,0,0,-0.04434026622366201,-0.6005589737224934,0.1160187836664328,0.8393620183087563,-0.483531175324602,0.16655717101827028
199,0.6883374970626943,1.1356707642202482,0,0,-0.07908073712588722,-0.5341655706849157,0.11991667791725116,0.6109437603909532,-0.1724308638366687,0.3512097116107802
200,0.7939388171340193,1.0895894374131843,0,0,-0.08823054007580297,-0.5049871918421773,0.10621281656482313,0.40041343863281675,0.07847504267838669,0.5484831968619318
201,0.9201826711261217,1.0888631316405812,0,0,0.061664110939635565,-0.7070979381370088,-0.016884891558896588,0.3010555585000094,-0.044723638014756206,0.824195090031993
202,1.054642923858698,1.1240540532984489,0,0,0.21155876195507411,-0.9092086844318403,-0.13998259968261628,0.20169767836720207,-0.16792231870789912,1.099906983202054
203,1.1841319769016583,1.1825072260232337,0,0,0.47740530252748054,-1.1302155904858595,-0.14190450754082667,-0.25441529676595925,0.11954886845304823,0.7852117262227868
204,1.2961889649052176,1.2502787225449987,0,0,0.813906922971444,-1.3627368382392884,-0.06998815472927027,-0.927916361288132,0.6572610169725149,0.1107529111857256
205,1.3805194385825184,1.314332851542915,0,0,1.096113591018357,-1.5495539187146938,-0.01973281377858533,-1.4424438866749727,1.1787278062467534,-0.45487426653907276
206,1.4301604026740509,1.3646751807461015,0,0,0.9112392341847199,-1.3431935793551961,-0.15581979698979062,-0.5893760775044748,1.5604412904563734,-0.08425985179492988
207,1.4421824636653604,1.3960537674006894,0,0,0.7263648773510829,-1.1368332399956984,-0.2919067802009959,0.263691731666023,1.9421547746659935,0.28635456294921297
208,1.4178325588907403,1.4088936109438803,0,0,0.5766969947913827,-1.174207806326584,-0.2530969377166044,0.21841268930543295,1.9308241453369275,0.35245746337594264
209,1.3621292032937182,1.4092426004571035,0,0,0.4518091952436053,-1.383135228217962,-0.09118593419186706,-0.45916794000843275,1.6428493486580367,0.20422988173966247
210,1.2830041129312304,1.407683873190055,0,0,0.32599415437529755,-1.5505103784694059,0.06046322087347292,-1.0577481042037113,1.3556356205608315,0.06126939202393377
211,1.190126302411874,1.4173735643228869,0,0,0.18779813271872045,-1.163059222459246,0.07509114336986006,-0.6014753199366188,1.0785840533593618,-0.011362303628671905
212,1.0935693894949663,1.451555095889954,0,0,0.04960211106214335,-0.7756080664490863,0.0897190658662472,-0.14520253566952637,0.801532486157892,-0.08399399928127758
213,1.0025110383217195,1.521039660422891,0,0,-0.023020483329890408,-0.5816119817837871,0.08520917032796879,0.25302618826197065,0.34705024220362507,0.046342642025054136
214,0.9241726152737997,1.6321819870321073,0,0,-0.04251923164837593,-0.5443421482996378,0.06519490751976603,0.6042309292268304,-0.25117620353705344,0.34111263903980293
215,0.8631823168297821,1.7857841652206987,0,0,-0.05757724353405689,-0.5200412180643756,0.04713322011373042,0.9488126685773847,-0.8546058579469477,0.6276357923607648
216,0.8214582028295224,1.9771296455166139,0,0,0.049042492662977874,-0.8510928214246779,0.08257278897283007,1.1119218224297875,-1.6006052692551993,0.6881925131690009
217,0.7985779544821137,2.1970463540207312,0,0,0.15566222886001266,-1.18214442478498,0.11801235783192973,1.2750309762821905,-2.3466046805634506,0.7487492339772369
218,0.7924756542319232,2.4336263345800067,0,0,0.18409376791436863,-1.24471265525874,0.1368107940781754,1.3601775980785509,-2.8092701840110443,0.8298468547249598
219,0.8002331223149556,2.6740839294874927,0,0,0.1397649435806987,-1.0574356598703394,0.14012332707626102,1.3727738558769171,-3.0082708524903685,0.9300594237453337
220,0.8187461935720656,2.9062572569514766,0,0,0.09548843171935428,-0.87019325936284,0.14340801702957426,1.3854395929148977,-3.2068118762603786,1.0302092182175986
221,0.8451370241374386,3.119431272329193,0,0,0.12115792022699469,-0.7292070085782377,0.10946430745702547,1.4910046846126215,-2.7907708017655684,1.0464243720582511
222,0.8769057373799033,3.3044261627552296,0,0,0.1468274087346351,-0.5882207577936354,0.0755205978844767,1.596569776310345,-2.374729727270758,1.0626395258989034
223,0.9119122216286923,3.4531727417316325,0,0,0.19127299606192638,-0.6033520123420614,0.08676499341388268,1.7706691144910098,-1.420828406426655,0.917767118579456
224,0.948316548385929,3.5582008026883702,0,0,0.2557749422115916,-0.7852457416456828,0.14627867316112705,2.017975749474155,0.10760749695712465,0.6008232943229233
225,0.9845810824814132,3.6125185422846218,0,0,0.3202768883612568,-0.9671394709493043,0.20579235290837142,2.2652823844573002,1.6360434003409043,0.2838794700663905
226,1.019571801830494,3.6102180213860615,0,0,0.40030463701003144,-0.979023471415983,-0.10027483796618927,1.9612243640870681,2.8338198428565367,0.36869169160921017
227,1.052726090753159,3.5478332948313938,0,0,0.48087412037008764,-0.9849754003281121,-0.4190980746173013,1.6379278294824957,4.020058736342019,0.46752220273733064
228,1.084209159198125,3.426120447607787,0,0,0.5315104221909335,-0.9954769872730147,-0.5317906669309911,0.7742284971561767,4.38890329087254,0.3733468415394611
229,1.1149724967008114,3.25167695266201,0,0,0.5454213196876236,-1.0115606080077895,-0.39157892807714123,-0.7524979583724799,3.7548762478392077,0.042370100280362304
230,1.1466500875468988,3.0377766915774895,0,0,0.5593322171843139,-1.0276442287425644,-0.2513671892232913,-2.2792244139011366,3.1208492048058747,-0.2886066409787365
231,1.181269446872378,2.803965685643296,0,0,0.5812170012275817,-1.0400196847985617,-0.08354176311270284,-1.9899016614878944,2.8299201284156177,0.04972940864753335
232,1.220801487948173,2.574259334826682,0,0,0.6036852199355279,-1.0521238212410557,0.08630410588618909,-1.5677019168468258,2.564094901440698,0.4370378485171549
233,1.2666135072561628,2.3741132515020262,0,0,0.6766542916172693,-1.0286285373095887,0.15909581617334262,-1.1102128420845894,1.9577687253786282,0.6230398483411417
234,1.3189158392099012,2.2266466777882528,0,0,0.8209320469552311,-0.9548658290415694,0.09484421147555616,-0.6028941995058246,0.8706452353445038,0.5247912582073154
235,1.3763040144600909,2.148830678612963,0,0,0.965209802293193,-0.88110312077355,0.03059260677776973,-0.09557555692705967,-0.21647825468962054,0.426542668073489
236,1.435496641043205,2.148445005297977,0,0,1.010360407151664,-0.7972181060949237,-0.01611340398755594,-0.5197779665914611,-0.6807146997519453,-0.3317830940106362
237,1.491355817897377,2.222491204104408,0,0,1.0441724732319633,-0.7121752636848834,-0.06081248328933245,-1.0505312810529082,-1.0737029662913244,-1.1656109821474316
238,1.5372498857240293,2.357423316512306,0,0,1.0053249472987005,-0.7866464986043639,-0.08448009754509324,-1.2762614667505388,-1.2126627663584304,-1.9172750726105152
239,1.5657734960590464,2.5311243005152706,0,0,0.8479905249006318,-1.1212393147418382,-0.07385144131057471,-1.004586659168495,-0.937375200428824,-2.534953640744994
240,1.5697748734889374,2.71617768977184,0,0,0.6906561025025628,-1.4558321308793125,-0.06322278507605619,-0.7329118515864516,-0.6620876344992177,-3.1526322088794734
241,1.5435614694456896,2.8837779386899185,0,0,0.47356386266736034,-1.664586143587005,-0.1569272471874496,-0.8161876459685792,-1.2491688338998417,-2.9605673231874685
242,1.4840830199075403,3.007606216426344,0,0,0.24697660382022082,-1.8533454195012702,-0.2672093720173867,-0.9558621319109177,-1.9732732408619755,-2.6398409532141396
243,1.3918532595223878,3.067115355436806,0,0,0.07167849811602639,-1.8558101618118281,-0.2704715840880668,-0.9549246027790442,-2.5043242563421897,-2.1966982542043008
244,1.2713913375999093,3.0498487199148947,0,0,-0.006529129152074448,-1.5056189468831938,-0.07114486857349041,-0.6878082233282838,-2.669924781921535,-1.5218211781143853
245,1.1310471590708837,2.952611254477012,0,0,-0.08473675642017528,-1.1554277319545592,0.12818184694108606,-0.42069184387752345,-2.83552530750088,-0.84694410202447
246,0.9822025682430201,2.78148407699731,0,0,-0.09917079571732233,-0.8724850270578202,0.1542972692692544,-0.010391113268130945,-2.6794996012088657,-0.6502353730067657
247,0.8379726310474475,2.5508057685248398,0,0,-0.10039715387292647,-0.6034696689829291,0.14454016813892842,0.42956348055848026,-2.456864239533378,-0.5525565913551221
248,0.7116260741949744,2.2813253088947136,0,0,-0.11082155943506651,-0.41991129369482405,0.14542111639714064,0.7301828596944986,-2.1879007623060938,-0.5085572265966749
249,0.6149781971698979,1.9977711131087876,0,0,-0.14160479686546007,-0.425502231041067,0.16984817714369815,0.7223995872854615,-1.8163952700613788,-0.583371146333578
250,0.5569859291768987,1.7260973911693211,0,0,-0.17238803429585364,-0.4310931683873098,0.19427523789025564,0.7146163148764245,-1.4448897778166643,-0.6581850660704811
251,0.5427136022943261,1.490680877216911,0,0,-0.19893347014269774,-0.4301813962547587,0.20142324864577413,0.6237398190563728,-1.0344823066999351,-0.4600546993120063
252,0.572766358431528,1.311751982893347,0,0,-0.224379200766906,-0.42758217759265027,0.2040873634135489,0.5113007158444468,-0.6139798114314167,-0.19109556640441464
253,0.6432275771343489,1.2033413236237465,0,0,-0.23566776937354872,-0.4356288423479261,0.1955224673526648,0.5051408255807948,-0.3793518696287936,0.10066571955755177
254,0.7460942500014012,1.1719809712792648,0,0,-0.20995562443690297,-0.4714992532928088,0.15760978163378414,0.7767489448254121,-0.6305198168076632,0.4520219958352553
255,0.8701713206471126,1.2163039630295034,0,0,-0.18424347950025718,-0.5073696642376915,0.11969709591490348,1.0483570640700295,-0.8816877639865327,0.8033782721129589
256,1.0023466842810924,1.3275528279425135,0,0,0.21949483538203274,-0.8410116693569947,-0.17425105099929455,0.0543746607415352,-0.5325939507278306,0.6537560178592539
257,1.1291111291997855,1.4908851447160338,0,0,0.7429353190084061,-1.2689431931574686,-0.5492729499896464,-1.3403575909790495,0.0065730380172420635,0.34549867067678036
258,1.2381191351425858,1.687285026014392,0,0,1.0724292403380449,-1.540877298824756,-0.7514574527945753,-2.066798971531532,0.634018076235997,0.13910523925795337
259,1.319542804801216,1.895846641466345,0,0,0.7953349814623407,-1.324913146015233,-0.4130749025823931,-0.7030906810138888,1.5375619570853831,0.25130186976104807
260,1.3669994903358822,2.096171984012106,0,0,0.5182407225866366,-1.10894899320571,-0.0746923523702108,0.6606176095037544,2.4411058379347694,0.3634985002641427
261,1.3779459865675847,2.2706255559072206,0,0,0.4045156013352134,-1.024305677439228,-0.0305242525438285,0.8201407649166218,2.3010973210293573,0.5696030221642872
262,1.3535773488866603,2.4062252108411557,0,0,0.3527458024888642,-0.9894638414125554,-0.09793261933138685,0.5229945679307931,1.7653370349117088,0.811320719064874
263,1.2983672626455192,2.4960112461507276,0,0,0.31177591674823785,-1.0233148458247612,-0.1748885047161493,0.20477022194183717,1.5908554314432388,0.9424401763985354
264,1.2193970936982346,2.539790667240822,0,0,0.3119768070588556,-1.319032545121232,-0.2882408634949699,-0.1938069698235045,2.793618588171598,0.6519437088356436
265,1.1255620347571726,2.544162588408037,0,0,0.3121776973694734,-1.614750244417703,-0.40159322227379046,-0.5923841615888462,3.9963817448999572,0.36144724127275174
266,1.0266730968230493,2.521703789440845,0,0,0.22129302504127116,-1.3326848017765967,-0.32678855742159835,-0.4419056627617414,3.669058555746283,0.34480883976195
267,0.9324520954354565,2.489218724037775,0,0,0.08959596474287781,-0.7917340971000947,-0.16767703618871665,-0.045413710073070615,2.6561549544295153,0.450877059549666
268,0.8514683696650084,2.4651303486869693,0,0,-0.015806233732244046,-0.34389267652002686,-0.034804553506837047,0.26483234584777926,1.6404458031741158,0.5696763713484768
269,0.7901587367006463,2.466384729121807,0,0,0.0041882507522193,-0.3400769921049383,-0.02706254005725325,0.16378324280384296,0.6113573590916085,0.7491885600345768
270,0.7521336709529599,2.5055057015203417,0,0,0.024182735236682646,-0.33626130768984974,-0.019320526607669457,0.06273413975990663,-0.4177310849908989,0.9287007487206768
271,0.7379458943512172,2.5884910336200324,0,0,0.12694622683788237,-0.5602422735856004,0.045069221075761993,0.11835409396891013,-1.5510852662877395,0.934099967434979
272,0.7453836602866017,2.7140255748760036,0,0,0.27309133723431966,-0.9036180200986798,0.1391496766431327,0.2560888101584519,-2.7390881213189058,0.8482415674615267
273,0.7702017166811531,2.8740846076954574,0,0,0.3908526937419052,-1.183797368665699,0.21896386994409028,0.42796762017674,-3.7784768702055778,0.7524079873617928
274,0.8070840450361944,3.055590452490693,0,0,0.3326228602632261,-1.072132519283234,0.21032124802765237,0.811554146075551,-3.896395770828544,0.5947241027665304
275,0.8505924088236348,3.2425426912310225,0,0,0.274393026784547,-0.9604676699007691,0.20167862611121448,1.195140671974362,-4.01431467145151,0.4370402181712681
276,0.8959044457633903,3.4180517239232127,0,0,0.23871406801130052,-0.8485153843891957,0.2087855321643384,1.533779253029617,-3.3940631746953893,0.33666796738146915
277,0.9392528845594816,3.5659292946590617,0,0,0.2167601282245816,-0.7363881581544369,0.2254779896976012,1.845061405367959,-2.3245429532596016,0.27117699159336256
278,0.9780891241966106,3.67180209796948,0,0,0.2033742659358998,-0.6508397842257442,0.22999990512833182,2.147261357339701,-1.1415208375418857,0.21373017999534175
279,1.011065187437573,3.723962322243643,0,0,0.2634763966234235,-0.793256961732745,0.130135660098633,2.371563708956859,1.0150016242788227,0.22527778186240663
280,1.037940828795806,3.7142323218467244,0,0,0.32357852731094716,-0.9356741392397455,0.030271415068934167,2.595866060574018,3.1715240860995313,0.23682538372947154
281,1.0594862092452042,3.6389736198910323,0,0,0.348897325929303,-1.0126445645927165,-0.20779157145787533,2.1729409768449095,3.9079426102689268,0.29698676625294407
282,1.0773907566532825,3.5001132471067162,0,0,0.3497620847662117,-1.043603369266073,-0.5430136660021516,1.2949897499049352,3.6459726502062755,0.3913255335777454
283,1.0941363103703312,3.3058632363024008,0,0,0.3546130732879246,-1.070544853046277,-0.8264612182750654,0.40757391138253457,3.3930996563076197,0.4614600014262441
284,1.1127708613592557,3.0707818544451766,0,0,0.4124615307448837,-1.0440755058579991,-0.42155914701920616,-0.6056752282430045,3.2611720733024696,0.2097949963176006
285,1.1365372701308125,2.814942913712253,0,0,0.47030998820184283,-1.0176061586697216,-0.01665707576334692,-1.6189243678685434,3.1292444902973195,-0.04187000879104289
286,1.1683615347142327,2.562148625436148,0,0,0.5139317393356129,-0.9817793243468093,0.1391057085899107,-1.7259995574845424,2.7577929292120666,-0.023139945166138463
287,1.2102646057406314,2.3372915199511435,0,0,0.5460408497741817,-0.9383801549560521,0.09325815334593257,-1.0997739495149157,2.192511999973853,0.21440121931135991
288,1.2628038547298919,2.163152098871397,0,0,0.5856625594493232,-0.8962249062735113,0.04308560219955622,-0.49330810881479725,1.607615227282589,0.4340325467662069
289,1.3246601372394755,2.057110211348269,0,0,0.8294516062235648,-0.8878752647532162,-0.12462588168509797,-0.4238466973505311,0.48962539363506985,0.16693436587824803
290,1.39246469111443,2.0283872444465274,0,0,1.0732406529978065,-0.879525623232921,-0.2923373655697522,-0.354385285886265,-0.6283644400124493,-0.10016381500971083
291,1.4609177709021777,2.0764285544159176,0,0,1.1278645439107444,-0.9118147664835307,-0.27400804501910214,-0.5635130148437548,-1.0825707619430192,-0.6814637143235709
292,1.5232041309585145,2.1908299434270306,0,0,1.0066521284207743,-0.9818792271718714,-0.08274662318805212,-1.0316000919575157,-0.9197647148671272,-1.5548262262359427
293,1.5716736487590215,2.352855297456962,0,0,0.8853717456032842,-1.0521499528969742,0.10816850302385722,-1.4991312561951722,-0.7569744660033122,-2.4276009113524077
294,1.5987301855656317,2.5382160181386624,0,0,0.6979711154367981,-1.323080256507829,-0.03780105976090414,-1.4258570332889182,-0.6095530969868749,-2.72852358224389
295,1.5978462035604417,2.7205260794027324,0,0,0.5105704852703118,-1.5940105601186842,-0.1837706225456655,-1.3525828103826645,-0.4621317279704375,-3.0294462531353723
296,1.5645852311875506,2.8747800938070918,0,0,0.32031666818445226,-1.7344932063402922,-0.27018132914021614,-1.2402751805896959,-0.8229481414980941,-2.9126880323632376
297,1.4974780545345898,2.9803060719736503,0,0,0.1270185274476265,-1.7357894270575893,-0.2930432954495767,-1.0863192721802266,-1.7260494965442241,-2.3502682222944884
298,1.398585329372153,3.02284341125056,0,0,-0.06627961328919922,-1.7370856477748864,-0.31590526175893724,-0.9323633637707575,-2.629150851590354,-1.7878484122257388
299,1.273608940211251,2.9956089022448604,0,0,-0.04036964909492448,-1.4190507335234919,-0.14738626808224364,-0.6901877178301691,-2.5990813124637087,-1.3005299068512977
300,1.1314883582654,2.899388337181094,0,0,-0.006876554665672297,-1.0899691037078536,0.02775322324678535,-0.44496026064745414,-2.536730319034876,-0.8158094029261762
301,0.9835180051667901,2.7418116441357343,0,0,0.006989827197376485,-0.8403961402009021,0.13563945725269227,-0.15491112346045807,-2.441411308290684,-0.590992557071561
302,0.8421158847091733,2.536033447626068,0,0,-0.003196869948688617,-0.6882632459965023,0.16110496458026277,0.19006822207537022,-2.3056890806254042,-0.6846948315862154
303,0.7194324337113377,2.2990494672036674,0,0,-0.013383567094753721,-0.5361303517921026,0.18657047190783324,0.5350475676111985,-2.1699668529601244,-0.7783971061008699
304,0.625998887616475,2.0498438337890277,0,0,-0.031974048739937165,-0.49028349106394664,0.2120238817758459,0.6782094961036158,-1.9222927325448629,-0.7120760856283476
305,0.5695852683427165,1.8075122412949625,0,0,-0.05117671564172939,-0.4521791828351332,0.23747641038775497,0.8066697568826587,-1.666463322307715,-0.634097947827866
306,0.5543890755959674,1.589473437579901,0,0,-0.06476205629635794,-0.43299683885422086,0.25311445197705923,0.8559031081148564,-1.2910592166266583,-0.46352662439023223
307,0.5806245872871295,1.4098818252350573,0,0,-0.07042469724682071,-0.4405021099330134,0.25491010129481073,0.7933945050417123,-0.7470064758948047,-0.1623614966803903
308,0.6445389967935031,1.2783752572610239,0,0,-0.07608733819728349,-0.44800738101180604,0.2567057506125622,0.7308859019685683,-0.20295373516295123,0.13880363102945165
309,0.7388462099799157,1.1993025364224892,0,0,-0.04888890673949107,-0.5710604566548615,0.22005575425318305,0.9118833790348654,-0.21992480076840598,0.41288228900748214
310,0.8535362457020093,1.171541970930683,0,0,-0.017943105499815325,-0.7072902279884176,0.17902154154609634,1.1206494972180046,-0.30087319592252915,0.6838720941048202
311,0.9769808862658457,1.1889398271403855,0,0,0.13315684012416715,-0.9084854624680939,0.04310060452096695,0.662548131216698,-0.26908554529962897,0.5886207966370373
312,1.0972125301522386,1.2412958139403636,0,0,0.4799613573106173,-1.2154950922523848,-0.24736985574186368,-0.8817331243756937,-0.05367576785377152,-0.10315639207943894
313,1.2032111158481391,1.3157385914117237,0,0,0.8267658744970673,-1.5225047220366756,-0.5378403160046943,-2.4260143799680858,0.16173400959208592,-0.7949335807959151
314,1.2860142492606133,1.3982837655186509,0,0,0.6646407165666286,-1.3254752024194165,-0.38590984243015186,-1.1081302371495452,0.4752551195921926,-0.5958289859173888
315,1.3394944167138112,1.4753605617104655,0,0,0.42184188228109276,-1.0485472347508038,-0.1638515859799267,0.6634539281193041,0.804328480278862,-0.25550505918542343
316,1.3607306737029632,1.5351439201274493,0,0,0.2725742087074041,-0.9500779341173403,-0.008547655187171758,1.5199056991471063,1.0413706370909934,0.08454416245527804
317,1.3500042867332422,1.56861491895715,0,0,0.3001425767113662,-1.189014093049852,0.02054624445008177,0.6461491750418106,1.104412667411189,0.42407400894260155
318,1.310509278581633,1.5703395669476885,0,0,0.3277109447153283,-1.4279502519823637,0.0496401440873353,-0.22760734906348504,1.1674546977313844,0.763603855429925
319,1.2478618601081601,1.538974440874426,0,0,0.29288468939681755,-1.4337899152846036,0.09297140611338613,-0.4088206129708163,1.4115004703296152,0.5795229118971499
320,1.1694477139185222,1.4774920531915554,0,0,0.2451617460745427,-1.3914495813557102,0.1392454669087455,-0.44688829989914697,1.692958902342568,0.28721397315085945
321,1.083619004608952,1.3930952029383052,0,0,0.17251243750314177,-1.2328851246216108,0.15780741730361142,-0.32113918878963993,1.7174192609412817,0.11889435558006006
322,0.9987751621658839,1.2967815286721294,0,0,0.04476333948974863,-0.8174069690532372,0.1151116819990361,0.1667273425186547,1.1737847693444285,0.2246534262393723
323,0.9224216126439628,1.2025469267917224,0,0,-0.08298575852364452,-0.4019288134848636,0.07241594669446079,0.6545938738269493,0.6301502777475756,0.3304124968986845
324,0.8603586505563198,1.1262738134868207,0,0,-0.06027402783056049,-0.4699516060357565,0.061311911658439,0.7576945714084382,0.2628952851868251,0.5216435183797201
325,0.8161635761580196,1.0843998825514476,0,0,0.0014154498538261175,-0.6632281127118886,0.05839188910379826,0.7611194567081921,-0.05866757908388651,0.7350165425509134
326,0.791070093640567,1.0924703722224731,0,0,0.05826461520715026,-0.8459894233608128,0.0690892264214549,0.7191727159408373,-0.44508566757566187,0.8622103528056716
327,0.7842385870768862,1.1636450231636197,0,0,0.10248093958955366,-1.0013068853272251,0.11532682022350478,0.5588095388994089,-1.0007708772117183,0.7644830774067854
328,0.793300716075104,1.307195070990444,0,0,0.14669726397195706,-1.1566243472936375,0.16156441402555466,0.39844636185798044,-1.5564560868477748,0.6667558020078992
329,0.8150017112468705,1.5270222360664818,0,0,0.1419671921429364,-1.0334027656175968,0.15575974085856079,0.5059770895600532,-1.6563573658774777,0.7150306411535251
330,0.845774806243754,1.8202789277038445,0,0,0.12176192697453267,-0.8221165686363795,0.1335010648332774,0.6982068000522083,-1.6121551971957218,0.8094664058303289
331,0.8821516311276206,2.1762631467309523,0,0,0.1228454996039477,-0.675023576968396,0.11726554323837524,0.9131082041924399,-1.4810125261727594,0.8676700967231336
332,0.9210025681598605,2.575875716569231,0,0,0.19041086878646907,-0.7283961840454718,0.11983941515059894,1.1988098529932896,-1.0783679139087796,0.8127265420555545
333,0.959667999961825,2.992011478700986,0,0,0.2579762379689905,-0.7817687911225477,0.1224132870628226,1.484511501794139,-0.6757233016448,0.7577829873879756
334,0.9960586202872822,3.3912486012608087,0,0,0.3258944528479059,-0.8667285893181349,0.1375881382831778,1.738236019671166,0.31506668007126987,0.6849317004631001
335,1.0287746600372718,3.7370490728099086,0,0,0.3939462916644631,-0.963650570698702,0.15753502580864387,1.9798506827527567,1.5285894341439354,0.6052986907542759
336,1.0572450168481655,3.9943696730323976,0,0,0.4769896348709054,-1.034458672039433,0.13409615912020068,1.9744701892782985,2.9702195715449053,0.5076381865600801
337,1.0818440242959688,4.135144025393245,0,0,0.6170857719664906,-1.0058858322276676,-0.054454788952235364,1.029106396454858,5.27995228138699,0.34137089678501037
338,1.1039217733215545,4.143644735541819,0,0,0.757181909062076,-0.977312992415902,-0.2430057370246714,0.0837426036314174,7.589684991229075,0.17510360700994068
339,1.1256882446836998,4.020451533853657,0,0,0.716073867710938,-0.9839077910807692,-0.18845506115885433,-0.745891798655245,6.81880952819833,0.16365026153575468
340,1.1499188389957993,3.7838318078772506,0,0,0.5938804799330749,-1.0062394241460968,-0.025121135574939453,-1.5237395489790921,4.669421808752726,0.22147314585345312
341,1.1794907530287422,3.4678689390578747,0,0,0.5169198663697161,-1.0136425701764016,0.12065547194089862,-2.0042953699982347,2.576789112412084,0.312102303869199
342,1.2168039377564572,3.1175111728148965,0,0,0.6552481841254478,-0.949992413025705,0.18286664909466108,-1.0698669708083595,0.7542863933598872,0.5588754908034611
343,1.2631742070908654,2.7815308809782366,0,0,0.7935765018811798,-0.8863422558750084,0.24507782624842353,-0.1354385716184844,-1.0682163256923092,0.8056486777377232
344,1.3183012775702079,2.504864720826772,0,0,0.8714624565382495,-0.8552898208169271,0.0206278097484528,0.20078202459138408,-1.410816632013533,0.4449074718986726
345,1.3799109457397398,2.321830010151776,0,0,0.9177080614850288,-0.8413016313292185,-0.3538835205483996,0.2238529834382015,-0.9787180768842684,-0.23385518207611122
346,1.4436531117924198,2.25137683724037,0,0,0.9466797877896113,-0.84053757991323,-0.6349016480883249,0.15493533944198423,-0.6057660741398084,-0.9236169250882509
347,1.5033109160659157,2.2950248622492087,0,0,0.8687960633853808,-0.9215774628167366,-0.3375749507203372,-0.48301974081680255,-0.5986920333668886,-1.6814185473202174
348,1.551343808540658,2.437596381012884,0,0,0.7909123389811502,-1.0026173457202432,-0.040248253352349606,-1.1209748210755892,-0.5916179925939689,-2.439220169552184
349,1.5797479313058707,2.6503767331177297,0,0,0.7162174559331336,-1.2133291416566467,0.08349468475314602,-1.2318547594872047,-0.754539237093326,-2.9165438627603253
350,1.5811652866879975,2.8959752011026887,0,0,0.6434610748047777,-1.5028687073880294,0.10171576931878182,-1.022324849887676,-1.0208008958755763,-3.2233645603347587
351,1.5501073738585385,3.133983440738911,0,0,0.5496126759577321,-1.764464607664903,0.1026690828393216,-0.8574688285627999,-1.3510639057494127,-3.4178214720576983
352,1.4840948088587975,3.326547323332752,0,0,0.27539828101907127,-1.7871034237322705,-0.04404098826127574,-1.0746364934215051,-2.2286272068900392,-2.651412219621702
353,1.3844825850447764,3.4431315527033,0,0,0.0011838860804104562,-1.8097422397996379,-0.19075105936187306,-1.2918041582802102,-3.1061905080306653,-1.8850029671857054
354,1.2567670507854314,3.4639848298295335,0,0,-0.11448682118968867,-1.5729150059006645,-0.1618134501888555,-0.9893103373191918,-3.4436340043592315,-1.2332846716776953
355,1.110258690166174,3.3820420940867013,0,0,-0.11882358649516836,-1.1538832416697664,-0.00953098301881794,-0.3218952599253735,-3.401789823662157,-0.6621056680851155
356,0.9571333783031961,3.203198479499732,0,0,-0.12048164053757957,-0.7516024610326498,0.13117602138971546,0.3079183991808814,-3.3440290831718023,-0.12819856424457587
357,0.8110070912431718,2.9450504557988952,0,0,-0.08667824563948598,-0.5710753862181117,0.11864415778767277,0.4399550887874147,-3.075560947599469,-0.08770618120472136
358,0.6852746111182858,2.6343250235401743,0,0,-0.05287485074139237,-0.3905483114035737,0.1061122941856301,0.571991778393948,-2.8070928120271357,-0.04721379816486684
359,0.5914843168230626,2.303314398227712,0,0,-0.040415976637928896,-0.33778174344878437,0.15026921623172393,0.42974223652284116,-2.3897892758996333,-0.11089949758608376
360,0.5379876136423781,1.9857138341311438,0,0,-0.045210152948556986,-0.3882856347837479,0.240248412111531,0.06578360944399969,-1.8521801731170164,-0.2587936796449827
361,0.5290249963647763,1.7123326020085512,0,0,-0.050436054359801856,-0.43796392845836546,0.32658841237648756,-0.2782106088666376,-1.3153132704243058,-0.39229288897359044
362,0.5643220258880512,1.507203460608339,0,0,-0.06729973519675982,-0.4653870336999625,0.314828589878888,-0.08403508611474055,-0.7984534530822792,-0.137754624375046
363,0.6391940808058033,1.3846265272951792,0,0,-0.08416341603371778,-0.49281013894155956,0.30306876738128846,0.11014043663715656,-0.2815936357402526,0.11678364022349846
364,0.7451114652765981,1.347614799238183,0,0,-0.05052415610960034,-0.5690431968810301,0.2596093830725066,0.3773491511025964,-0.014046223156172821,0.30608709546800605
365,0.8706515883932808,1.3880357089683313,0,0,0.030007001279437832,-0.6905962156521752,0.18671700773919922,0.7123690640004029,0.022015031503951486,0.43482013747965037
366,1.0027459894375046,1.4884693177558996,0,0,0.11092534636098497,-0.8124312008184171,0.11343381162046379,1.045415772208656,0.06030931892419072,0.5623285901414792
367,1.1281015719579215,1.625473268163192,0,0,0.4878294390137486,-1.149815481216415,-0.25861245104020064,-0.12995443584377672,1.8056461690113559,-0.2463006526490962
368,1.234635171114166,1.7736337171407297,0,0,0.8647335316665121,-1.4871997616144126,-0.6306587137008651,-1.3053246438962094,3.550983019098521,-1.0549298954396715
369,1.3127268664503127,1.9095812128182192,0,0,0.9351163156812216,-1.459588539662841,-0.7331257779441409,-1.4446497553880515,3.719715098790213,-1.0862047434565274
370,1.3561060669470193,2.0151581937949956,0,0,0.6788096162615951,-1.0429662155198782,-0.5482761480661211,-0.4797611372898172,2.208106583861778,-0.2889776292365247
371,1.3622617454869848,2.0792015546577716,0,0,0.42250291684196856,-0.6263438913769156,-0.36342651818810123,0.4851274808084172,0.6964980689333425,0.5082494849834779
372,1.3323931682416676,2.0978782398564104,0,0,0.366504333904996,-0.8893190757559539,-0.0855474832767076,0.3720962372008321,0.44879427984676507,0.852839610315017
373,1.2710199855027162,2.073957167356569,0,0,0.31737515030651076,-1.1756004883470828,0.19552191728046098,0.22209863339293254,0.24443504633819846,1.1819069286497934
374,1.1853884305383702,2.015587455991352,0,0,0.3036160409445233,-1.3439385998225397,0.2705803638097646,0.39880843458713555,0.6825098922653882,1.1722231762463156
375,1.0847488127007305,1.9350308384750385,0,0,0.3331549941855311,-1.367897132076172,0.09345174607791994,0.9754551310238799,1.9070165337188623,0.7478593479802411
376,0.9795046746546177,1.8475012357241536,0,0,0.3626939474265388,-1.391855664329804,-0.08367687165392469,1.5521018274606244,3.1315231751723362,0.3234955197141667
377,0.8802127512758142,1.7699920855642464,0,0,0.17383843103786187,-0.9258227930691282,-0.06807025089945917,1.2939270996359122,2.2087107473891736,0.27931942217542693
378,0.7964655987527977,1.7198732378558346,0,0,-0.030856083622760253,-0.42425343131631293,-0.03848556048735125,0.9752071798075708,1.1301646003198742,0.26271633424730484
379,0.7357847340581293,1.7131611654035348,0,0,-0.1396958522979152,-0.17097341086266252,-0.01899859543070471,0.755575037849981,0.30221049425056473,0.37641586970635177
380,0.7027305828645906,1.7626159672534663,0,0,-0.11349724825968523,-0.2674787689671151,-0.013737116927587075,0.6755359034361215,-0.1727142330053568,0.6736833030465961
381,0.6984398735931584,1.8760149061854998,0,0,-0.08729864422145527,-0.3639841270715677,-0.008475638424469436,0.595496769022262,-0.6476389602612783,0.9709507363868404
382,0.7207144525921167,2.054964154113127,0,0,0.05307564064134684,-0.7225524612106514,0.0792280178881293,0.217696836836235,-1.5819195589723773,1.050626250710541
383,0.7646407384547631,2.294446800534967,0,0,0.2064305568720433,-1.110914730997954,0.17630452410696631,-0.19395551579324274,-2.568424319527531,1.1055637431631373
384,0.8235763554959842,2.583077843703168,0,0,0.2911896796692163,-1.2787340091960688,0.23734066085628158,-0.33548177345816493,-3.2415746116519037,1.0467731636114046
385,0.8902569492300467,2.903871723094814,0,0,0.26435379047926744,-1.0877630969443532,0.23974455120014876,-0.03755360838479819,-3.404944436047747,0.8029641605772653
386,0.9577830666359844,3.2353042198362636,0,0,0.2375179012893185,-0.8967921846926379,0.24214844154401594,0.26037455668856857,-3.568314260443591,0.559155157543126
387,1.020334046150437,3.552573625133207,0,0,0.24356459073344358,-0.820076092268221,0.3424373717685913,0.95339787822439,-2.1661260377510216,0.478066589154597
388,1.0735741028009362,3.8291605991240125,0,0,0.2548113734623591,-0.761428404026778,0.45820596811757613,1.7089020560469699,-0.5163584515842641,0.4227108396217642
389,1.1148080170544332,4.038915230896376,0,0,0.3098783625731291,-0.7761767903748275,0.40304686821488794,2.3299699471206288,1.2919972500431174,0.3574492312876394
390,1.1429794413374437,4.158825384980541,0,0,0.4476923847678701,-0.92952122438561,0.02511978284326554,2.6971776949909088,3.3998197301332045,0.27348208745665137
391,1.1585879461071695,4.172304706516611,0,0,0.585506406962611,-1.0828656583963925,-0.35280730252835685,3.0643854428611887,5.507642210223292,0.18951494362566337
392,1.163555575584323,4.07241990212547,0,0,0.5894817923710635,-1.0822477203015348,-0.4107002154115808,1.3900665071399825,5.305687544661044,0.02983445935032035
393,1.1610288678422753,3.864210426592873,0,0,0.5658477933080208,-1.0498691006301335,-0.402573728184222,-0.7053961018098799,4.627252194678668,-0.1454648236227956
394,1.1550816981640835,3.565322937879046,0,0,0.5471175535961502,-1.0233966859588202,-0.321313607595145,-2.0021013248964623,3.949238291323042,-0.19191258113130275
395,1.1502957218026104,3.2045588133384166,0,0,0.5392129689234508,-1.0099629490345696,-0.07860194969615726,-1.5354508657920496,3.2721547837652736,0.04609533408072013
396,1.1512274148093786,2.8184314284951384,0,0,0.5313083842476644,-0.9965292121050725,0.16410970829762206,-1.0688004065053855,2.5950712759430687,0.28410324938569753
397,1.1618046295096893,2.4462780161557216,0,0,0.6149365215080409,-0.9600209132414318,0.12559609326566,-0.4879048098311773,1.5380567835310355,0.40197100125021207
398,1.1847183679300861,2.124784091955342,0,0,0.7222361922713468,-0.9175452373093976,0.014354022972179213,0.12253604169847028,0.3827872754231798,0.48876896906622297
399,1.2208848870274973,1.8829164164486134,0,0,0.8209611280351556,-0.8723442673227355,-0.09912210397368855,0.3696527537073238,-0.45767672638189344,0.3867317120989123
400,1.2690531548510173,1.7381888779364683,0,0,0.8973378733145049,-0.8200404083648619,-0.21842081594679558,-0.3301562501326682,-0.4776683263198741,-0.20746367848778788
401,1.3256274586029393,1.6949028594455384,0,0,0.973714618593854,-0.7677365494069884,-0.33771952791990256,-1.0299652539726603,-0.4976599262578547,-0.801659069074488
402,1.3847665867815147,1.744576165599193,0,0,0.8988523787744375,-0.7702636411528355,-0.2479151795233284,-1.1800964431016467,-0.32856357723185425,-1.383124517099247
403,1.438807793559393,1.8683230683788985,0,0,0.7762467022293902,-0.7900998812232348,-0.09210074301768595,-1.1567041987786066,-0.09977555200843949,-1.9605713504339506
404,1.4790388757373587,2.0405930201654563,0,0,0.6785109985286901,-0.8996814718350327,0.00842231501318555,-1.0925353730983776,-0.10118638033772342,-2.437969679672744
405,1.4967938801650809,2.233488939482697,0,0,0.6583224155445179,-1.2890982506771544,-0.0634588039931067,-0.9012209933516522,-0.8203807943983817,-2.6034065333927954
406,1.4847709444592516,2.4208769274047306,0,0,0.6381338325603456,-1.6785150295192761,-0.13533992299939898,-0.7099066136049267,-1.5395752084590402,-2.7688433871128466
407,1.4383790914818668,2.5816336379121667,0,0,0.47184520928573376,-1.779769671251282,-0.13545039461076944,-0.8801966972496597,-1.8338768115486057,-2.501311979032473
408,1.3568534871597295,2.7016075908360846,0,0,0.25030556143543226,-1.772049303205032,-0.10841917758778394,-1.1872356623717915,-1.9674956174648848,-2.070043859958227
409,1.243877543736156,2.774150991769362,0,0,0.06090455226547634,-1.6763801080537195,-0.08058027628328975,-1.338984674148182,-2.0363583848300175,-1.6171988138272135
410,1.107529960963716,2.799363523853928,0,0,-0.006394409207349929,-1.2465731795373578,-0.049672797443639886,-0.9007515936867153,-1.8591981334079652,-1.0823780809582901
411,0.9595139500755995,2.7824281786692513,0,0,-0.0736933706801762,-0.8167662510209962,-0.018765318603990028,-0.46251851322524873,-1.682037881985913,-0.5475573480893668
412,0.8137809697395254,2.7315580260506045,0,0,-0.06284620315298832,-0.5775871263296047,0.013919343805857104,-0.07785630045232077,-1.8997945345543008,-0.3459341142572251
413,0.6847851582197817,2.6560695036139266,0,0,-0.017075913568899474,-0.42359863290309924,0.04739822084327085,0.28286535410075486,-2.2940376160331866,-0.29321520974782656
414,0.5856631107592594,2.5649477281542348,0,0,0.019393243815344328,-0.3094915892132324,0.07940700992692447,0.58347587807516,-2.642335306655761,-0.25333908829136015
415,0.5266190636838368,2.4660287286589266,0,0,0.01167904600332067,-0.3848341976297347,0.10443241066224136,0.5985392905214817,-2.772377683815575,-0.27447029724847055
416,0.51372682817417,2.365693558595616,0,0,0.003964848191297011,-0.46017680604623706,0.12945781139755824,0.6136027029678033,-2.9024200609753894,-0.29560150620558096
417,0.5482683049074673,2.2688408083922105,0,0,-0.009110543495052447,-0.5040824927438552,0.17817183189349464,0.5322448036907308,-2.6149246524731464,-0.07505248567329596
418,0.6266427763857413,2.1789108233854764,0,0,-0.024988934387109907,-0.5315519772310061,0.2392710009085536,0.40047483827512775,-2.1091274796626682,0.27185448929489214
419,0.7408182843863663,2.0978474460102463,0,0,-0.025879184085566435,-0.5701765901774839,0.2841809539218609,0.32555705675718827,-1.6270927539314715,0.5966945878596059
420,0.8792572336966709,2.0260310698672823,0,0,0.065730627317585,-0.6776456349154474,0.22917835273608544,0.601505364393716,-1.2917091558061256,0.785347857832495
421,1.0282208187403146,1.9623227459992045,0,0,0.15734043872073644,-0.7851146796534108,0.17417575155031007,0.8774536720302439,-0.9563255576807798,0.9740011278053842
422,1.1733251765753372,1.9043730063548692,0,0,0.4240189162495858,-1.0200463018720352,-0.19657571624057932,0.35700840089993674,0.3262840902433132,0.37902035915887905
423,1.3011778498800104,1.849262507558396,0,0,0.7969954576983734,-1.3323705581255316,-0.7590433485959498,-0.6469905375691266,2.1840297543168896,-0.6917667486254131
424,1.4008754009927245,1.7943807150985116,0,0,1.0960694352088765,-1.5841120467808352,-1.2226829282333151,-1.4264534775861857,3.611782135352169,-1.5751526880005964
425,1.465124664408118,1.7382849251966328,0,0,0.7650536826934647,-1.3193277527576694,-0.8437192511274331,-0.29153322023719325,1.3734323247393687,-0.8607652171319455
426,1.4908025165117518,1.6812336568927155,0,0,0.43403793017805314,-1.0545434587345035,-0.46475557402155093,0.8433870371117993,-0.8649174858734318,-0.14637774626329456
427,1.4788995512440397,1.6252281720630186,0,0,0.25179516726265044,-1.0512058923371987,-0.21950175341806952,1.0018069674108407,-1.04279979258563,0.29700902158102116
428,1.433946294600462,1.5736380869248272,0,0,0.17390463322336214,-1.2312520761318941,-0.06803459117404409,0.4752908357278952,0.2245693346951273,0.5503106976111863
429,1.363114548191839,1.5306543065379012,0,0,0.10120459817681342,-1.3952415648753247,0.07401189931899255,0.01650190372813789,1.3869376251208618,0.7822930013598474
430,1.2751855339220926,1.5008156284682492,0,0,0.09692470284378175,-1.3475748486408556,0.09187694245996446,0.45047963466596086,1.1652054778611267,0.7332475210466346
431,1.179516313254955,1.4887439955382056,0,0,0.09264480751075008,-1.2999081324063866,0.10974198560093636,0.8844573656037839,0.9434733306013917,0.6842020407334218
432,1.085078051969086,1.4990920775903214,0,0,0.05182186793386064,-1.1170391435200497,0.11035807824216555,1.1316763323505046,0.4194358216262698,0.6928862514759722
433,0.99961850843009,1.5366126618523108,0,0,-0.018505902829353705,-0.8250079238140589,0.09704737898176695,1.2281063890859498,-0.3486828483110394,0.7481813788589792
434,0.9290110189777387,1.606208103777593,0,0,-0.08257015886542059,-0.5480822592248754,0.0864712086422737,1.3177681672753632,-1.1060207421680288,0.8095090222328815
435,0.8768643258793635,1.7127929127826185,0,0,0.020850162863779807,-0.6750747828827901,0.149015553166377,1.2264481287274926,-1.575083792195187,1.0321444037714589
436,0.8444517610085486,1.860801506510461,0,0,0.12427048459298021,-0.8020673065407048,0.2115598976904803,1.1351280901796224,-2.044146842222345,1.2547797853100364
437,0.830963749370851,2.0532212118338373,0,0,0.20471243383518997,-0.8925523225938783,0.25577881956594684,1.113940114788306,-2.1257728095911816,1.2157031216916354
438,0.8340132360260689,2.290155995752172,0,0,0.26384287411935786,-0.9491781053269064,0.2830016548318227,1.1577967848806088,-1.8480665891636394,0.9338991457734556
439,0.8502656897257299,2.5671260808585665,0,0,0.3228238143237878,-1.0055686098511947,0.3100932475357153,1.2017422852514699,-1.5690068883513104,0.6520846044797648
440,0.8760509383203715,2.873529128611137,0,0,0.28768959744052547,-0.9138438383591381,0.25456338372064446,1.3016093318535447,-0.4378873140417224,0.36361881605870067
441,0.9078463088664993,3.1918359792481708,0,0,0.2525553805572631,-0.8221190668670815,0.19903351990557364,1.4014763784556192,0.6932322602678657,0.07515302763763652
442,0.9425819566925493,3.498069814627947,0,0,0.2654124037227666,-0.7893507433925688,0.13906188679024348,1.4070470712012668,2.004896882590588,-0.07652916656223371
443,0.9777827863198054,3.7638721182945614,0,0,0.32936112751990027,-0.8193477326992182,0.07436152511668037,1.3122294206369414,3.508770615039182,-0.0825909008580399
444,1.0116024481463772,3.9600378364691324,0,0,0.393309851317034,-0.8493447220058677,0.00966116344311726,1.2174117700726157,5.012644347487776,-0.08865263515384607
445,1.0428130113685419,4.060952836486185,0,0,0.4362888698132232,-0.8761810992790428,-0.11473455066150272,0.9444404737017658,4.800828376839899,-0.01486794791055652
446,1.0707953509257404,4.049070283044643,0,0,0.4785550188243224,-0.9029100308899856,-0.2411596206649811,0.6654128071564012,4.530687178552055,0.06163113500935185
447,1.0955447367307227,3.918523421818802,0,0,0.5224732839030144,-0.9390119491899245,-0.3180737934327849,0.10935360355465475,4.403141544219389,0.06788238816655952
448,1.1176766928340993,3.6771570360359327,0,0,0.5684116936949253,-0.9865747992477841,-0.334447923488518,-0.7854492306896697,4.449956343940382,-0.01176273405437605
449,1.1383981768015148,3.3465516737462653,0,0,0.6143501034868363,-1.0341376493056438,-0.35082205354425106,-1.680252064933994,4.496771143661376,-0.09140785627531162
450,1.1594033632485594,2.9599287962367167,0,0,0.6543292475228032,-1.019033260281185,-0.21150091185436376,-1.2239006925256042,3.2640280092238783,0.19361105027917025
451,1.1826637660982078,2.5581551939824196,0,0,0.6938781131402306,-0.9994040922603078,-0.06093806387978073,-0.6699915807830505,1.9388966197752484,0.5049598887456817
452,1.210106626229792,2.1844166795160596,0,0,0.7467734244473103,-0.9719575966443977,-0.02939932832428078,-0.2860213063859026,0.8694667109810723,0.5845604389322366
453,1.2432060269438319,1.878437363382524,0,0,0.8184493259257518,-0.9335108670177644,-0.16534661322934238,-0.14118223834852817,0.15984980604191537,0.33805396959411826
454,1.2825391700389461,1.6712575968793457,0,0,0.8901252274041934,-0.895064137391131,-0.301293898134404,0.0036568296888462746,-0.5497670988972415,0.09154750025599988
455,1.3273802388760896,1.5814679555123599,0,0,0.8764007185772223,-0.8846775996522112,-0.22493387485150873,-0.3888175150269495,-0.6805171919333076,-0.43085430405229846
456,1.3754154176183817,1.6134563016416263,0,0,0.8529966388818015,-0.8774714988103515,-0.12451022437823077,-0.8421927762455242,-0.7456565658970494,-0.9845270172188572
457,1.4226643228321003,1.757779480588275,0,0,0.8126158858522546,-0.9067928291371589,-0.0417101326761889,-1.1309033480119883,-0.8476685640618636,-1.4938911832698114
458,1.4636808156887526,1.993361754835804,0,0,0.744649367995594,-0.9954683748703436,0.012453056017130534,-1.1520466933169178,-1.0095956892807305,-1.931257429792849
459,1.4920730276250103,2.290950262521719,0,0,0.6766828501389335,-1.0841439206035282,0.06661624471044995,-1.173190038621847,-1.1715228144995973,-2.3686236763158868
460,1.501325487825649,2.617159983131975,0,0,0.60100635118174,-1.3352749513623534,0.07772086672875457,-0.9990464773257708,-1.4724424025987575,-2.4162433562671866
461,1.485831884570904,2.938495213949079,0,0,0.5241134752642546,-1.6120360201824362,0.08203228812000954,-0.7940931785298553,-1.7952903491850911,-2.4023740730486587
462,1.441972934512616,3.22488444543853,0,0,0.42283680266256224,-1.7606392410486802,0.05253490293892926,-0.791703821600521,-2.207173918048882,-2.2122818858108446
463,1.3690266286231993,3.4524430329252707,0,0,0.27557227090186787,-1.6675366628488075,-0.04072591724444201,-1.1713502136522382,-2.7869787384904394,-1.6898331670785631
464,1.2697029854582973,3.6053279149630337,0,0,0.12830773914117338,-1.5744340846489342,-0.13398673742781325,-1.5509966057039557,-3.366783558931997,-1.1673844483462814
465,1.1501607504866493,3.6766475833844945,0,0,0.06307834236717345,-1.2547281532348686,-0.05250974183259978,-1.3877782131851735,-3.4137923202921834,-0.8597713273919297
466,1.0194728511740716,3.6684507712655474,0,0,0.014738506317905464,-0.8883686617924111,0.0649426312758963,-1.1127937128174912,-3.351107943520614,-0.5963889970018034
467,0.88862670153667,3.59086447488283,0,0,-0.016274546426604013,-0.6215741820235337,0.14675023957338673,-0.7769280132053389,-3.358334712276734,-0.44354688919800545
468,0.7692372204553357,3.4604952413159142,0,0,-0.009086372651872543,-0.5742956676496138,0.14997005053885087,-0.30683448594659096,-3.5196980832831652,-0.5344183437002549
469,0.6721883577946548,3.2982373414166566,0,0,-0.0018981988771410738,-0.5270171532756941,0.15318986150431507,0.16325904131215693,-3.681061454289596,-0.6252897982025043
470,0.6063993808067867,3.1266462029193924,0,0,0.004160501965532334,-0.5356895546435237,0.1929443622573177,0.44558950109523626,-3.4195387316066332,-0.49138709137629516
471,0.577855380057705,2.967059897680761,0,0,0.009927606630991742,-0.5588068113760484,0.24213102873591558,0.6794451447549092,-3.0488394498253526,-0.29945440940014423
472,0.5889776959328263,2.836714526544245,0,0,0.009875746344378804,-0.5695648337930379,0.26714913088165837,0.8621336550945141,-2.5858239754782697,-0.1035121512640474
473,0.6383620889498685,2.7461983495630964,0,0,-0.005320852786113883,-0.5481560743921658,0.22926487873117168,0.9116519405049526,-1.8825416084817528,0.10286563695638172
474,0.720887611387725,2.697680442230146,0,0,-0.02051745191660657,-0.5267473149912939,0.19138062658068503,0.961170225915391,-1.179259241485236,0.30924342517681086
475,0.8281895898860797,2.684367884618784,0,0,0.06019881206450463,-0.6131947095208847,0.18572143451211645,1.128687855796934,-1.042914683681873,0.3841359982704409
476,0.9494791859700049,2.69153545695287,0,0,0.17114665346123295,-0.7336381871775678,0.19021952861960365,1.3333986858566362,-1.085267995094653,0.41758464683551644
477,1.0726639049071616,2.6992131443831338,0,0,0.3012083717167936,-0.896119871647444,0.087413330961911,1.114499478253488,-0.29452781856825483,0.18752981921203107
478,1.1856737127457897,2.6862359848122463,0,0,0.4907786058953118,-1.18948192737803,-0.3494705214944831,-0.42325329618823665,3.0899382388189958,-0.8629080695943414
479,1.2778375037985952,2.634929706721425,0,0,0.6803488400738299,-1.482843983108616,-0.7863543739508773,-1.9610060706299612,6.474404296206247,-1.913345958400714
480,1.3411101859430967,2.5353616816266085,0,0,0.5841194971185457,-1.4026404093326081,-0.7377431562233049,-1.2859499063109656,4.8253594472353765,-1.3334882466034808
481,1.37095270623651,2.388041776436355,0,0,0.3799602862089261,-1.181362837234871,-0.5057887042511813,0.2247554180374241,1.2754504580226198,-0.13796276278115582
482,1.3667306051895336,2.204357433602431,0,0,0.21978418322109802,-1.0652896715429319,-0.26737275531354887,1.2931000305170768,-1.3323828349216424,0.8244259674142055
483,1.331597101739996,2.004732167714452,0,0,0.22642717058877163,-1.3482356795122177,-0.004449646762782904,0.6836593511030329,-0.36711231316997744,0.9025738377403648
484,1.2719130526766493,1.8151277131018948,0,0,0.2330701579564452,-1.6311816874815035,0.2584734617879831,0.074218671688989,0.5981582085816874,0.9807217080665241
485,1.1962980470756075,1.6627890812853994,0,0,0.1630778309347856,-1.4005077757725917,0.27839013389174294,0.2381245459509301,0.7773032946899346,0.8439924311109596
486,1.1144244561348036,1.5720756636464222,0,0,0.05888237991113088,-0.9406000448690482,0.18985054995596634,0.7471828904893802,0.6055925649032484,0.6113612873432621
487,1.035698458187894,1.56100006895723,0,0,-0.024423137761227693,-0.5639707091901337,0.10907266219236601,1.1588802454486566,0.3236943710827785,0.45468588423277273
488,0.9680212268203524,1.6388420593272743,0,0,-0.008687533938275765,-0.5821720089505215,0.06509369956992714,1.1089800722752594,-0.48061286201559816,0.6581237285984926
489,0.9168465864363526,1.8049756596273185,0,0,0.007048069884676163,-0.6003733087109091,0.021114736947488263,1.0590798991018622,-1.2849200951139748,0.8615615729642123
490,0.8847071499562201,2.048863627876706,0,0,0.09973460432529545,-0.7425261975547214,0.10401843912167077,1.0052412522339165,-1.96674489836512,0.9422740501580384
491,0.871272212382349,2.3510460194285248,0,0,0.23260362895129352,-0.9494045350945792,0.25317814875360295,0.9493460002111499,-2.584611423324985,0.9589013912489177
492,0.8738703001549574,2.68489407861443,0,0,0.34082159346069535,-1.1112029200996332,0.38113816270245654,0.9428647275473164,-2.920755414367609,0.9214260824869224
493,0.8883080877637375,3.0189309648760236,0,0,0.2972580125003644,-0.9954349516468021,0.37856737760874204,1.2406352850049351,-1.522276983925811,0.5508298543877272
494,0.9097790486092888,3.319617555547951,0,0,0.2536944315400334,-0.8796669831939706,0.37599659251502754,1.538405842462554,-0.12379855348401322,0.1802336262885321
495,0.9336839673831344,3.554581080732137,0,0,0.27451410670669896,-0.8450796364890819,0.1886629709058065,1.67399384838724,1.8692058205351383,0.006621603897994491
496,0.9562553793985314,3.696205374066922,0,0,0.3343794921877714,-0.8597248889193043,-0.11072146368532572,1.711225025127716,4.222764928249826,-0.04752786416875402
497,0.9749497438596082,3.725257170440538,0,0,0.3851184696158707,-0.8739142539842317,-0.37169279621555706,1.636499202634248,6.185913315694909,-0.0847905027022098
498,0.9886180867172706,3.63392329851,0,0,0.3582770190142296,-0.8842282787479535,-0.3061276773251247,0.6100657783022688,4.830315641150318,0.0214959369617893
499,0.9974863484710004,3.427525336401395,0,0,0.3314355684125885,-0.8945423035116753,-0.24056255843469226,-0.41636764602971044,3.474717966605729,0.1277823766257884
500,1.0029837372130381,3.124405467265196,0,0,0.3364942679480615,-0.8903203300193117,-0.18698003247929632,-0.5217160985207894,2.7656573363694696,0.3159263185876756
501,1.0074611883678353,2.7539326489284583,0,0,0.36390254268760835,-0.8759142857688392,-0.14179263509822712,0.018257109200314807,2.509567248023452,0.5614204735034445
502,1.0138432748323343,2.353007294423787,0,0,0.3939276224199229,-0.8649433345936182,-0.10676986989687531,0.5148642413718996,2.1948574146025126,0.7894415223466098
503,1.0252521514145478,1.9616764875899189,0,0,0.45830037056589606,-0.899060740496926,-0.20516607042688537,0.44225678266137036,1.1107163198184475,0.7881140124713457
504,1.0446306388110072,1.6185179387653352,0,0,0.5226731187118692,-0.9331781464002338,-0.3035622709568955,0.36964932395084116,0.026575225034382324,0.7867865025960816
505,1.0743776157081903,1.3563918493762692,0,0,0.5672783954010526,-0.9599166598856064,-0.24806016368862482,0.2851766882799113,-0.6562267966304853,0.7093017062443362
506,1.1160000485975132,1.1990414788317187,0,0,0.5959414699664833,-0.9807041950360262,-0.06844112346882152,0.1911349456167043,-1.0153542078216813,0.5703970739333696
507,1.169788469998232,1.158858298611687,0,0,0.6278091694679095,-0.9998472007952104,0.10512057125039859,0.09958098757656454,-1.350124146644688,0.4276622181563238
508,1.2345363820131896,1.235950529257939,0,0,0.7446835922166936,-0.9753669881116342,0.11800352982691793,0.07401865700280502,-1.038781378338395,0.18332584698677865
509,1.3073423315759063,1.4185189207601194,0,0,0.8615580149654776,-0.9508867754280582,0.13088648840343725,0.048456326429045515,-0.7274386100321023,-0.061010524182766576
510,1.383548488641073,1.684468242686196,0,0,0.9110410838049018,-0.9152243481062847,0.05023290232823558,-0.24820068800820733,0.052305066377507696,-0.5433799549582963
511,1.4568763812019867,2.0041179824533284,0,0,0.8980913535361417,-0.86920247673728,-0.11707494965426611,-0.7960056458405484,1.265985414204013,-1.2462683296249788
512,1.519814956076758,2.3437526985312305,0,0,0.88496068170531,-0.823797571184423,-0.28404157006687614,-1.343721870794877,2.4758851900453984,-1.9486077523122065
513,1.5642920883630524,2.6695697136400214,0,0,0.7750148378004463,-1.1085083724391969,-0.2684277331322271,-1.843960397673362,1.662940003750225,-2.3572231696198718
514,1.5826118700208303,2.9514354838483112,0,0,0.6650689938955827,-1.3932191736939707,-0.25281389619757805,-2.344198924551847,0.8499948174550516,-2.7658385869275373
515,1.5685690576967215,3.1658677080923616,0,0,0.49175424181962596,-1.6145868244268315,-0.26221606347029225,-2.3475837143826714,0.14653552988562768,-2.9084140357949595
516,1.5185768096182102,3.297844269932943,0,0,0.2510521023512736,-1.7685944788133747,-0.29822060113543775,-1.822607258578788,-0.44049491451173955,-2.7680788438992607
517,1.4325926720580024,3.3413239288342504,0,0,0.010349962882921367,-1.922602133199918,-0.3342251388005833,-1.2976308027749048,-1.027525358909107,-2.627743652003562
518,1.3146265696686974,3.298637222382489,0,0,-0.029320096301546247,-1.596947582892564,-0.23317794699883235,-1.090015355142603,-1.7496536997848227,-1.7155125484335734
519,1.1726750891863469,3.179088014346587,0,0,-0.062216082477894966,-1.2551301058063435,-0.12751259465282058,-0.8930938556416077,-2.476334363915092,-0.7772712714973924
520,1.018038774079273,2.99715889539226,0,0,-0.06725782188191276,-0.9514984408276824,-0.03794717129867245,-0.6881223627804591,-2.834786360779417,-0.21008027361653858
521,0.8641104917165672,2.7706466763130915,0,0,-0.03827889347365747,-0.6945062286933763,0.03195409310297205,-0.4733187551888261,-2.7434905949271844,-0.09608330351072288
522,0.724829865151675,2.5189212758676462,0,0,-0.00929996506540219,-0.4375140165590703,0.10185535750461654,-0.25851514759719313,-2.652194829074952,0.017913666595092824
523,0.6130504695360677,2.261373434979908,0,0,0.01394164902494497,-0.4060837891569229,0.17779726922979966,0.041201658010468906,-2.4050410327508294,-0.14052417998593114
524,0.5390575792623716,2.0160426740505386,0,0,0.036770853535942775,-0.390867406436465,0.25417339471488126,0.3470221934008435,-2.146683850796517,-0.318545183759379
525,0.509420560497382,1.7984056092719864,0,0,0.03840841865397508,-0.39901422411335435,0.27670999418206627,0.5858258863187722,-1.7778692176021915,-0.4225591315475986
526,0.5262918656932488,1.6203383630620833,0,0,0.010260250126634094,-0.43999899506203544,0.22357289272290645,0.7304346100498985,-1.2538020265111898,-0.42255307330523395
527,0.5871990561862437,1.4893200261741646,0,0,-0.017887918400706894,-0.48098376601071663,0.17043579126374667,0.8750433337810247,-0.729734835420188,-0.4225470150628693
528,0.6853297591759928,1.4079898907473445,0,0,-0.054969209705659994,-0.5176560799716234,0.15341327140014596,0.8202624104550693,-0.2193760116982554,-0.018636675422476254
529,0.8102778609829371,1.3741803453721633,0,0,-0.09305991694706119,-0.5538410992969282,0.14047159035497875,0.7429510582620007,0.28943380784792566,0.43091363006105593
530,0.9491884543153398,1.3814959166593208,0,0,0.06375805509471144,-0.6890850476179018,-0.03395851503291466,0.4964840859464556,0.9287386065112728,0.690107256255042
531,1.088195319353504,1.4203946008514343,0,0,0.5369122316325351,-0.9851013419174103,-0.47048385093851736,-0.02452195274374671,1.7798363666350048,0.6403525603507548
532,1.2139852896760959,1.4795856855494596,0,0,1.0100664081703588,-1.2811176362169188,-0.90700918684412,-0.545527991433949,2.6309341267587367,0.5905978644464677
533,1.3152682253429326,1.547460652213101,0,0,0.9074210395099531,-1.3063592725200648,-0.7075926273530988,-0.3042659365518293,1.8043748475672003,-0.07395524453779018
534,1.3839198713861725,1.6132931040546465,0,0,0.7141494587804182,-1.2889831579354842,-0.4080839341386702,0.05697097846643978,0.7137658589027083,-0.8352726733763957
535,1.4156288850572696,1.6680887397696746,0,0,0.5468186955821063,-1.2284879636254202,-0.18090508988877255,0.15258399407957163,0.23335274139124845,-1.0295479589048415
536,1.4100036201619892,1.7051481040564862,0,0,0.428351984901373,-1.0867704649805094,-0.08997212663847731,-0.2521519155034437,0.9023499328703872,-0.15570050554742526
537,1.3702202437633832,1.7204948551869672,0,0,0.30988527422063983,-0.9450529663355988,0.0009608366118178861,-0.6568878250864589,1.571347124349526,0.7181469478099911
538,1.3023638479625688,1.7132624140238673,0,0,0.27629232535667686,-1.176117678666136,-0.0584594494684943,-0.2598898257125576,2.006845972599231,0.7206308430698092
539,1.2146088962817845,1.685979831774372,0,0,0.26013887041680966,-1.4837800692915541,-0.14877367169635078,0.30184499378934,2.394366589993243,0.5440707186957657
540,1.1163280993179847,1.6445733780008251,0,0,0.2106531276167813,-1.5473673908981975,-0.19259883080761986,0.6536320148201454,2.35494139947038,0.4324314654512384
541,1.0171612939606396,1.5978986820536731,0,0,0.08777361543185704,-1.0735301767718217,-0.1340605520530856,0.543138727685527,1.3754318589755188,0.46374031897741774
542,0.9260675578391642,1.5567541851532711,0,0,-0.03510589675306721,-0.5996929626454459,-0.07552227329855132,0.4326454405509085,0.3959223184806576,0.4950491725035971
543,0.8504326027906174,1.5325280832423656,0,0,-0.04704927266613823,-0.48096374379705575,-0.02854071380668952,0.24565560586163268,-0.27770221965407427,0.6320082829876694
544,0.7953639571048181,1.5357775922606252,0,0,-0.0304013158826026,-0.4537557476757449,0.015462357192381801,0.03895047988154309,-0.8724916715555054,0.7961964078189046
545,0.7633177727109346,1.5750391234498016,0,0,0.009034473059927543,-0.5166567430522032,0.06926294937523231,-0.06750353539869126,-1.425605551667672,0.8653007644442656
546,0.7541389853944966,1.6560252778043216,0,0,0.10769647087766361,-0.8137535107489592,0.14852757131050157,0.08659787121702929,-1.870403462864367,0.6872797658751881
547,0.765486900004478,1.7811753221657665,0,0,0.20635846869539967,-1.110850278445715,0.22779219324577077,0.24069927783274983,-2.315201374061062,0.5092587673061106
548,0.7935127303220391,1.9494010187659716,0,0,0.1941411329526064,-1.089155723528186,0.21489579895886138,0.4755233703061774,-2.354067536129877,0.43465169743072984
549,0.8336019652220376,2.155866155651532,0,0,0.14702840707710102,-0.9671327555842929,0.17299494989369055,0.7357521033479696,-2.2651808853145954,0.39259054275020405
550,0.8810147116945926,2.391745619098773,0,0,0.1197007447274635,-0.8602298296225335,0.13837962340584023,0.9877319875511389,-2.0696452014341906,0.3949492059638616
551,0.9313356284022284,2.6440741009072712,0,0,0.15390221174741806,-0.8003483862037044,0.12642138167280748,1.2140589600677603,-1.5424440597185654,0.5354480736914717
552,0.980737705314455,2.895943052515026,0,0,0.18810367876737258,-0.7404669427848755,0.1144631399397747,1.4403859325843817,-1.01524291800294,0.675946941419082
553,1.0261276084169806,3.12736628732663,0,0,0.26047516186342096,-0.8031094984689496,0.13563566548425746,1.7926833876842976,-0.010444551931157555,0.6617522252738754
554,1.0652545381529046,3.317057410580532,0,0,0.34724629046130484,-0.91197425508246,0.16930677900546443,2.192503230233001,1.1745274538288863,0.5891993264981895
555,1.0968346321202196,3.4451322400269166,0,0,0.44287283315745046,-1.000344985114258,0.10435586153994397,2.326098937629332,2.4579760427120267,0.5209508632538324
556,1.1206893880275821,3.4964115095833717,0,0,0.5720442374866964,-1.0110830625834197,-0.33418146834128876,1.4512209951224724,4.114460078420091,0.4690078706181705
557,1.1378447301588264,3.4636613025902205,0,0,0.7012156418159424,-1.0218211400525814,-0.7727187982225215,0.5763430526156127,5.770944114128154,0.4170648779825086
558,1.1505090744402124,3.34991558107077,0,0,0.664531419513479,-1.013956627756902,-0.6191560848255032,-0.36080913012664123,5.190380752648009,0.30733353050495543
559,1.1618575991842222,3.1691032209606145,0,0,0.5538957243340626,-0.997797618974284,-0.20158863923953832,-1.3257280632724064,3.6123658528792375,0.17183559287617717
560,1.1755963652855181,2.944584823886898,0,0,0.48101176193483763,-0.9787032562924771,0.13664433239499535,-1.9594835914673916,2.067537602862245,0.09794128788825016
561,1.195346274731847,2.705779373554184,0,0,0.5868557587654135,-0.9457120530318838,0.0992842495737862,-1.0254128192626912,0.6798248478702084,0.31569694787408586
562,1.2239433528980503,2.483601833814034,0,0,0.6926997555959894,-0.9127208497712903,0.061924166752577066,-0.09134204705799089,-0.7078879071218283,0.5334526078599215
563,1.2627767287750837,2.3057239826647637,0,0,0.7893367016343877,-0.9044769179913107,0.05063068847281041,0.3955434289011979,-1.4903096795325264,0.3961337760835376
564,1.3112786863203083,2.192622798232142,0,0,0.8811702814534229,-0.9091437662791878,0.052936293171302475,0.6491300131450725,-1.9569480024713715,0.07357073771091341
565,1.3666562420641535,2.155065987852799,0,0,0.9552608853304002,-0.9112639549144518,0.03628380590239756,0.7573940306940847,-2.134182108694576,-0.3132963438989167
566,1.4239241791725672,2.193279701602409,0,0,0.9202916876581504,-0.8977307268267049,-0.09689737161938283,-0.027588402415597364,-0.532550789772183,-1.095417649893899
567,1.4762707079450121,2.2977089347422597,0,0,0.8853224899859005,-0.8841974987389577,-0.23007854914116324,-0.8125708355252795,1.06908052915021,-1.8775389558888813
568,1.515756192313946,2.4510627095824176,0,0,0.7821909002528755,-1.0333152912301886,-0.26026478355043325,-1.3900631893559285,1.104409130718566,-2.3799128899024637
569,1.5343050876342428,2.631192799426003,0,0,0.6377580019027534,-1.2809874301097988,-0.22804379011920556,-1.8418320827826586,0.19067550073323525,-2.712780851550465
570,1.5248964339072226,2.8142660931880954,0,0,0.4890586223915228,-1.5207446599873615,-0.19919306039648776,-2.1832585962690896,-0.6656561580109398,-2.983381249946684
571,1.4827953997315384,2.977696402199118,0,0,0.3041706790744942,-1.6933671297144177,-0.19892912120493603,-1.588754044747486,-1.0351006560253657,-2.72582422758373
572,1.4066173231476042,3.1024349419717523,0,0,0.11928273575746558,-1.8659895994414741,-0.1986651820133843,-0.9942494932258822,-1.4045451540397917,-2.4682672052207764
573,1.299002159271099,3.1744441287218854,0,0,0.028610082870448354,-1.7162440191255959,-0.1496930316569725,-0.5663022213821715,-1.8877425247949118,-1.9048518164309929
574,1.166720653270414,3.1854051497194473,0,0,0.0038894163421726215,-1.3408364136555366,-0.06662447015920873,-0.2549473135499652,-2.4505684555960787,-1.1273314058531156
575,1.0201349286730481,3.1328463454350994,0,0,-0.018008449499419085,-0.9736326199025881,0.013663377324198877,0.049658005808166664,-2.977223002686726,-0.3962731021566605
576,0.8720707649110455,3.019890267789375,0,0,-0.002970708500843631,-0.7137735514089726,0.05756631103962365,0.2659467297412805,-3.03058447814857,-0.2731592845280378
577,0.7362829970507729,2.854733969586756,0,0,0.012067032497731823,-0.4539144829153571,0.10146924475504841,0.48223545367439435,-3.0839459536104137,-0.1500454668994151
578,0.6257691557349926,2.649871444057384,0,0,0.03617736072185713,-0.34704617501580504,0.15746314364364375,0.686288692267675,-2.9366956424702795,-0.22146762361376593
579,0.5511937099130639,2.421005165729419,0,0,0.06759850073867345,-0.3634598625292054,0.22320010353297526,0.8804824135823737,-2.6277896780108496,-0.4496494630924845
580,0.5196367241212377,2.185606740245998,0,0,0.09548106955362617,-0.38094271640984534,0.2858740309938385,1.0630774355454387,-2.297922474244098,-0.6637278068958619
581,0.5338028569841409,1.961170915872754,0,0,0.03004884589680729,-0.42662029408867014,0.2677734822349505,0.9398060042998869,-1.4152915745303034,-0.5058863285467602
582,0.5917483043767228,1.763333964733515,0,0,-0.0353833777600116,-0.47229787176749477,0.24967293347606254,0.8165345730543352,-0.5326606748165087,-0.34804485019765846
583,0.6871234631004052,1.6041466700824913,0,0,-0.06649262619033852,-0.529258397426283,0.2180967149603862,0.7923804533976962,-0.032761654578398955,0.0035738416034627398
584,0.8098896947423111,1.4908388751203903,0,0,-0.06583061299556972,-0.5966630494991786,0.17404666436601945,0.8599748496341925,0.1128593756298409,0.5345635379559095
585,0.9474378761503024,1.4253385842474466,0,0,-0.06418367178336486,-0.6646580500817962,0.1290862627598399,0.9247283153862785,0.25973844500819937,1.0633790005842139
586,1.085999280446677,1.4046249480010136,0,0,0.41186268760893846,-1.0169997080624251,-0.35435287302621526,-0.3788778807206426,1.0125633701107928,0.5449552787635461
587,1.21218882738213,1.4217739749350282,0,0,0.8879090470012417,-1.3693413660430538,-0.8377920088122703,-1.6824840768275637,1.7653882952133861,0.026531556942878367
588,1.3144707884230726,1.467387959669437,0,0,0.9636110411540747,-1.4161865917995289,-0.9010645665859712,-1.7172156612465888,1.843686872683845,-0.2579647115047747
589,1.3843256441758969,1.5310492785742162,0,0,0.6139328862488389,-1.1384309759818099,-0.5178951681273058,-0.40372277113620075,1.2052771779453981,-0.29390472782417437
590,1.4169588727335996,1.602528479759743,0,0,0.2642547313436032,-0.860675360164091,-0.13472576966864053,0.9097701189741872,0.5668674832069511,-0.32984474414357406
591,1.4115134385491597,1.672660460654424,0,0,0.27463801759405543,-1.1650130488768489,-0.05752540333410959,0.5801459191654579,0.8538101839760656,0.3735645511506296
592,1.370857571386054,1.7339688051717819,0,0,0.2970747118641555,-1.4888368788506403,0.009432351145812187,0.19551677174200244,1.171729958961212,1.1017242859623797
593,1.3010549092359263,1.7811656798012228,0,0,0.2897491206746094,-1.5766712229612334,0.025073552382995756,0.04108382939814998,1.5239993835598922,1.2508239471136364
594,1.2105929798791524,1.8115806975402944,0,0,0.246102710084281,-1.3765125126357918,-0.02191011654065826,0.16757403063404813,1.918187881268227,0.6932595859019909
595,1.1094124183485548,1.8254623585544922,0,0,0.2024562994939526,-1.1763538023103501,-0.06889378546431228,0.29406423186994624,2.3123763789765617,0.13569522469034548
596,1.0077926897308354,1.8260380523895658,0,0,0.06415411651354817,-0.8707543330924804,-0.042738057636089254,0.6018105347806404,1.8988483877862639,0.124987656703657
597,0.9152042886289261,1.819245753976357,0,0,-0.08092967519301222,-0.557600565256132,-0.011342260885346789,0.9225429232701543,1.4274515836217103,0.15345962005721292
598,0.8392897843376523,1.8131397880209412,0,0,-0.14634861047477654,-0.4313492559405881,-0.0026453793157621953,1.0849089907782103,0.906914943997817,0.3567812233766044
599,0.7851455121092148,1.8170707359113851,0,0,-0.09989034549535936,-0.5675740837781746,-0.025825679145873727,1.0248735954305017,0.3173688633329316,0.805652609422581
600,0.7550251213345519,1.840788875863783,0,0,-0.05343208051594216,-0.703798911615761,-0.04900597897598526,0.9648382000827932,-0.2721772173319539,1.2545239954685576
601,0.7484889362369427,1.893590569674745,0,0,0.029822878129306816,-0.8663381968066417,0.005451137298076469,0.73993759498745,-1.2488601140354865,1.2254693966857992
602,0.7629157900944222,1.983531225094803,0,0,0.11722634595484176,-1.0318442096306017,0.06866120122463111,0.49644986240834266,-2.269189340758456,1.142532773785198
603,0.7942173401542978,2.1166204146017513,0,0,0.1690580975612003,-1.0823034226021016,0.11595587755254239,0.3790165638620454,-2.8830695727977016,0.9900298939405922
604,0.8375743873699522,2.2958654005938044,0,0,0.16320754754672445,-0.946205310964567,0.13744251633115695,0.46599032399469725,-2.8378611805947322,0.7247199234582477
605,0.8880525099209468,2.520094838182297,0,0,0.15735699753224863,-0.8101071993270322,0.15892915510977154,0.5529640841273491,-2.7926527883917633,0.45940995297590326
606,0.9410299588205153,2.7826811795247686,0,0,0.18050840112717179,-0.8076709763325299,0.16397435008083286,0.789428232881359,-1.9736629736802227,0.4106452024569909
607,0.9924496269835946,3.070525394951594,0,0,0.20821646184697631,-0.8262351109488677,0.16643633900039756,1.049379642307079,-1.0331000856695147,0.3959030675416561
608,1.0389571402029867,3.3638531981594295,0,0,0.2638765192262246,-0.8658580529187443,0.1636506277739149,1.2950031036470933,0.11306199148131837,0.3731219735858606
609,1.0779960441209062,3.637370599437976,0,0,0.372141088135895,-0.9451128068032767,0.15098896005658607,1.5136619542129741,1.6461533119179994,0.33521188835660515
610,1.1079070208023383,3.8630636082785794,0,0,0.4804056570455654,-1.0243675606878093,0.13832729233925728,1.7323208047788548,3.1792446323546804,0.2973018031273497
611,1.128039621402212,4.014438673606841,0,0,0.5436603720901555,-1.0304885208275958,0.030140544047917127,1.4828959787823348,4.64450473096026,0.27665885120359746
612,1.138850124255201,4.071447229560172,0,0,0.597680153758064,-1.0216041953505657,-0.09764564034795885,1.1374317037193158,6.0958475034543875,0.2595586974004655
613,1.141939388092686,4.024942062759651,0,0,0.6428912086022659,-1.007999760621687,-0.18592324315479072,0.6482086437137369,6.662165852850078,0.26046888649721306
614,1.1399828504145935,3.879458431643835,0,0,0.668725112730423,-0.9840121831072792,-0.18729115340904012,-0.15725031488849886,5.281636266445883,0.3009976420228088
615,1.1365172990972194,3.6534598282530832,0,0,0.6945590168585801,-0.9600246055928715,-0.18865906366328952,-0.9627092734907347,3.901106680041688,0.34152639754840464
616,1.135570185645569,3.3768377753331893,0,0,0.736142459437959,-0.940105427877542,-0.07455122112339957,-1.2009816665952526,2.516705937626675,0.35906455496533085
617,1.1411429883063358,3.086177021788418,0,0,0.7817798558139059,-0.9212334621082966,0.06928024588340433,-1.2932594238770678,1.1313087540997036,0.3706848994395687
618,1.1565879641320531,2.8188383983364016,0,0,0.8183439599521537,-0.886361109852029,0.13327683488702752,-1.2954865431713287,0.3237587455040731,0.268761803355715
619,1.1839459368725722,2.6071165009170114,0,0,0.8313505654545078,-0.8099460548352775,-0.0100063571935669,-1.0639101295582118,1.0165058367031743,-0.12796050937473502
620,1.2233397460551887,2.473589155701784,0,0,0.8443571709619417,-0.7335309997886821,-0.15328954933012087,-0.8323337158546522,1.7092529281728295,-0.5246828222601259
621,1.2725393530949756,2.428393851716403,0,0,0.7975141636355144,-0.7017795025132033,-0.13216203962678588,-0.9923473810232567,1.288268738276141,-1.1399923251115212
622,1.3268220638103196,2.468695008735022,0,0,0.7318569263029565,-0.6840683708977424,-0.059350640698106326,-1.2754606864931506,0.5171737372900642,-1.8240165526484444
623,1.3792340638952656,2.5801785739549974,0,0,0.6822033005262856,-0.7412812428275012,0.012528262153907949,-1.4018197561405028,-0.2553388051567666,-2.420966421232799
624,1.4213082306255667,2.740098184958001,0,0,0.6822434858801064,-1.031145305290987,0.08151161335172809,-1.0414314836852894,-1.0322530438941104,-2.747536273844707
625,1.444206433895495,2.9212150470287646,0,0,0.6822836712339273,-1.321009367754473,0.15049496454954822,-0.681043211230076,-1.8091672826314544,-3.0741061264566154
626,1.4401458112838657,3.0959167043442952,0,0,0.5713665192955791,-1.565036265576374,0.021401558131906723,-0.38920563228339766,-2.2657702783068654,-3.01937400334343
627,1.4038683683748843,3.23986169035089,0,0,0.4186494922922284,-1.7917953755970313,-0.18231137254311325,-0.1231924872516297,-2.6017055446670967,-2.8209977072867347
628,1.3338588522643813,3.3346626070941543,0,0,0.26556198137583914,-1.894718607718473,-0.3240955080908433,-0.03837612380401808,-2.8469568442238047,-2.483610026014212
629,1.233034097502214,3.369356099619678,0,0,0.1110734253763113,-1.5293363568192655,-0.23168584772931766,-0.6387848159789425,-2.749271996384561,-1.6205282163256132
630,1.1087230630148193,3.340663494413004,0,0,-0.04341513062321651,-1.1639541059200578,-0.139276187367792,-1.239193508153867,-2.651587148545317,-0.7574464066370143
631,0.9719087385342106,3.2522614243568153,0,0,-0.07492147623240508,-0.8480656693677608,-0.014145514090671036,-1.0222988034803782,-2.635024912160833,-0.43836674301391926
632,0.8358649642627664,3.11340698704447,0,0,-0.05166452880950942,-0.5542165525654721,0.1255556439168506,-0.44146345019058003,-2.6545861226433765,-0.3615282038633122
633,0.7144410241369892,2.9372755062840854,0,0,-0.03623822080605722,-0.3193977018938851,0.23595506448515924,0.13622198686746517,-2.660465572141613,-0.327299842259997
634,0.6202927726602173,2.739288556266481,0,0,-0.057812631365038294,-0.36350399983077225,0.20790023089810433,0.6990236886717913,-2.6016970458485194,-0.49440972430099367
635,0.5633309697239511,2.5355813822089623,0,0,-0.07938704192401938,-0.4076102977676594,0.1798453973110494,1.2618253904761174,-2.542928519555426,-0.6615196063419904
636,0.5495794912168741,2.3416361859200507,0,0,-0.11340231464098889,-0.475316196346049,0.18244773433031986,1.2499321122487461,-2.370756927084698,-0.5536501015627381
637,0.5805416545911896,2.1710381046563674,0,0,-0.15390000021230957,-0.5553188596191424,0.20102424052635198,0.9385893201067456,-2.1394957406149966,-0.30250034102881634
638,0.6530912710106321,2.0343193856976898,0,0,-0.18369420112745255,-0.6230490660606051,0.21839879808562981,0.6786825581277913,-1.8961924948406723,-0.022695779703162444
639,0.7598516192303002,1.9379323967740025,0,0,-0.1478503785464613,-0.6155196878204631,0.22840252872314523,0.7342019834925358,-1.5790425536238082,0.4328314129021274
640,0.8899995167710198,1.883488450410755,0,0,-0.11200655596547007,-0.6079903095803209,0.23840625936066062,0.7897214088572804,-1.2618926124069443,0.8883586055074173
641,1.0304191288886129,1.8674667198532964,0,0,0.10931270039356726,-0.8036594576413076,0.021556658799889432,0.4878517985086782,-0.6628003583225553,0.8434051949807534
642,1.1671111365823108,1.8816043710258334,0,0,0.4428825339395401,-1.122305279196055,-0.33258561090357447,-0.030311283821300175,0.10692466748874477,0.4955586442247708
643,1.2867250870389473,1.9141054314117403,0,0,0.723050727540821,-1.4075557450497602,-0.6301870506590724,-0.4818427003552941,0.9609403244928494,0.15059585810010487
644,1.37803708613198,1.9516300430765112,0,0,0.5516014386188208,-1.410381804362867,-0.4496228889962669,-0.36987035194346507,2.527801555135121,-0.1699789406081876
645,1.4331736781681115,1.981756169889321,0,0,0.3801521496968205,-1.4132078636759742,-0.2690587273334614,-0.25789800353163606,4.094662785777392,-0.4905537393164801
646,1.4484109654722899,1.9953419055097,0,0,0.3245120811029798,-1.462788192916062,-0.19176672647253865,-0.19934734094043363,3.741878558061344,-0.23026445159674486
647,1.424447009665351,1.9881339562326863,0,0,0.34984654447785374,-1.5450594004311993,-0.18668326706137578,-0.17814945556375078,2.0468662064017225,0.43616864231272656
648,1.3661232208169194,1.9611815239855666,0,0,0.36394506223951295,-1.602689339695228,-0.17088173026469528,-0.18818333539779794,0.5009967315517138,1.0319422622966108
649,1.281636861331512,1.92004328182833,0,0,0.23164471526594155,-1.339255630043419,-0.015428897938542052,-0.6051518096064042,0.8983858483590087,0.7070575664082309
650,1.181347438491996,1.873180733534714,0,0,0.09934436829237017,-1.0758219203916102,0.14002393438761118,-1.0221202838150105,1.2957749651663035,0.38217287051985116
651,1.0763432835760205,1.8301179450918197,0,0,0.008675009785064983,-0.8234226149959066,0.18359834112097012,-0.7914657834852822,1.0933557839109431,0.37212580813491014
652,0.9769898615042748,1.7999000040286328,0,0,-0.04848546663757969,-0.5799049279502438,0.13712153578560338,-0.039538003595865095,0.40814947043390465,0.615492309192713
653,0.8917016699516365,1.7902064673408815,0,0,-0.09974635374857321,-0.35482756448666286,0.09251754254021001,0.6947930026016976,-0.27999097631565006,0.8557236058143144
654,0.8261434814428221,1.8072544507169717,0,0,0.003343269254905128,-0.6122029958217199,0.09691179072580235,0.9687409461439286,-1.0448969305323597,1.0139287852814272
655,0.7829721521745528,1.856377987871858,0,0,0.10643289225838348,-0.8695784271567769,0.10130603891139468,1.2426888896861596,-1.8098028847490693,1.17213396474854
656,0.762099389868423,1.9429225732150133,0,0,0.16939620189503166,-1.0030359827697084,0.11335755761527748,1.3123522560924452,-2.375410048354344,1.1401489304141879
657,0.7613320325555266,2.072926039072118,0,0,0.19525792789920104,-1.0219166175568144,0.1324891402147314,1.1931300587005838,-2.756741605074826,0.93231025961626
658,0.7771758874478836,2.2530554869646573,0,0,0.2210331746792739,-1.0404111080874203,0.15152963468064995,1.0742687610399733,-3.1365436427832885,0.7245321236310239
659,0.8055943863589416,2.489462197156518,0,0,0.21011709067608048,-0.8950726457519633,0.13192333423258706,1.108529690796063,-2.8674026702413906,0.542437645883715
660,0.8425815924326492,2.7855577656288633,0,0,0.19920100667288707,-0.7497341834165064,0.11231703378452418,1.1427906205521525,-2.598261697699493,0.36034316813640604
661,0.884505262472981,3.1391164330022128,0,0,0.20543387213034792,-0.6964439279115274,0.11033466970855209,1.2694237619929216,-1.9890503068948622,0.2204149000047995
662,0.9282611000163292,3.539463745779613,0,0,0.22986772582308482,-0.7408487722401371,0.12705741986150956,1.4940958848883095,-1.018906154805549,0.12523961729089583
663,0.9713262323278632,3.9657105950566747,0,0,0.2543015795158217,-0.7852536165687467,0.14378017001446702,1.7187680077836975,-0.048762002716235646,0.030064334576992167
664,1.0118001696867813,4.386940475833972,0,0,0.33092241495049074,-0.8522224261626927,0.12639522789943813,1.8551757651127387,1.4560725244051493,-0.014378317559300122
665,1.0484862104945427,4.76490939161602,0,0,0.4092746835663118,-0.9199398515388651,0.10787867808926896,1.9886551321391828,2.9786467372886123,-0.05713778823889155
666,1.0810155158843195,5.059208376785421,0,0,0.518192982988565,-0.9896813183652244,0.013007513273825867,1.808602474580004,4.8282614604089815,-0.15183617002398891
667,1.1099680406658834,5.234105325759817,0,0,0.6643708655132695,-1.0618900646723126,-0.17493890691451977,1.2463584687457494,7.076534195300899,-0.30984739039260273
668,1.136912257850145,5.2656411914138594,0,0,0.8105487480379739,-1.134098810979401,-0.3628853271028654,0.6841144629114948,9.324806930192814,-0.46785861076121654
669,1.1642793997441014,5.147243358216864,0,0,0.7031459024708151,-1.0994158064299722,-0.3213234994771184,-0.7737274357747832,7.758499888738568,-0.5200450587833128
670,1.195015064681153,4.8923142257165875,0,0,0.5776566594268907,-1.0571088522707845,-0.26339222049204764,-2.295446978441984,5.920121674679932,-0.5646836583945708
671,1.232009383892673,4.532966851406269,0,0,0.5784553608242615,-0.9912207754539349,-0.15229270317572424,-2.7398392217711898,3.8017070776978796,-0.4077163386241597
672,1.2773788055730122,4.115092782821465,0,0,0.7564023703006275,-0.8922546720693958,0.033387673822739626,-1.6730285615346177,1.290476114475064,0.03205032256537374
673,1.3317309011966003,3.690894140665346,0,0,0.9343493797769934,-0.7932885686848566,0.2190680508212035,-0.6062179012980453,-1.2207548487477515,0.47181698375490716
674,1.3935689981307486,3.310568657888953,0,0,0.9615042005703306,-0.7539347330752938,0.1208621375472271,-0.5877581020269906,-1.5506734205198625,-0.1893143693011177
675,1.4589838799068051,3.0148629990028133,0,0,0.9717106727993808,-0.7212810422264231,-0.009251289253683103,-0.687128118507617,-1.635422510631244,-0.9741815964904234
676,1.5217436510779891,2.829782158968806,0,0,0.947744309120119,-0.8063820574441424,-0.052779139133391675,-0.7688844094472563,-1.6277227420381395,-1.6699574925227356
677,1.5738362171764633,2.764088970050576,0,0,0.8684296296368896,-1.082205454505263,0.043932055482990735,-0.8221124843985401,-1.4702874162023987,-2.2214358785238804
678,1.6064430927433413,2.8095974801467247,0,0,0.7891149501536603,-1.3580288515663836,0.14064325009937315,-0.875340559349824,-1.3128520903666578,-2.772914264525025
679,1.6112341311330702,2.9438132294492765,0,0,0.6958805271710566,-1.5948589021018753,0.12515119526528953,-0.6989206266769104,-1.461290937212771,-2.805670988469902
680,1.58178768885648,3.1342399439393307,0,0,0.6004643036866419,-1.8255770797410933,0.09207224265777637,-0.4865053368843127,-1.657672939295782,-2.757122537313995
681,1.5148853508564544,3.3436161712216634,0,0,0.4396326174494037,-1.898794704156719,0.032241445778514934,-0.5516512177747888,-2.0787439943219836,-2.460468653140052
682,1.4114276218025195,3.535393219658347,0,0,0.15584347052526468,-1.6759681325031346,-0.07787316324428455,-1.1385119241252617,-2.9221493756898087,-1.6974660993588613
683,1.2767761426523832,3.678843091846787,0,0,-0.12794567639887436,-1.4531415608495502,-0.18798777226708402,-1.7253726304757346,-3.7655547570576338,-0.9344635455776708
684,1.1204373899989477,3.753250268826962,0,0,-0.15421691470761983,-1.1222773974447637,-0.09129834996756168,-1.3828801265700803,-4.07827853534371,-0.6163313022829356
685,0.9551318576487711,3.7507038934184487,0,0,-0.12775622843531687,-0.769290383746676,0.04773831971906366,-0.8500840291944537,-4.2823346779662375,-0.3892951221204757
686,0.7954045422591197,3.677109018115002,0,0,-0.10931612057953731,-0.5110004354651687,0.15650282271177607,-0.3545240152075863,-4.350918461023872,-0.2493744642080982
687,0.6559988850592072,3.551207150398071,0,0,-0.10849648519553784,-0.46075122286098746,0.19876216208781755,0.05923175122565631,-4.121881940602823,-0.30083858953155185
688,0.5502260229217134,3.4016313146595323,0,0,-0.10767684981153837,-0.4105020102568063,0.24102150146385898,0.47298751765889896,-3.8928454201817737,-0.35230271485500547
689,0.48852315949010255,3.262289942553735,0,0,-0.11237724461057834,-0.41136406171116235,0.24533010156773735,0.64114595677654,-3.369407467759944,-0.2793405628902511
690,0.47733414823064607,3.1666441367433737,0,0,-0.11849606426935158,-0.4253596441697099,0.23988689411913375,0.7461957999269239,-2.770320235163155,-0.1744058819614464
691,0.5183897664793253,3.1416789572048787,0,0,-0.11482895927273505,-0.435142113045913,0.238069085333813,0.8029102976526696,-2.246136930373247,-0.02170781840263562
692,0.6084301097123728,3.2025269617719014,0,0,-0.0857894536716135,-0.4340010555954909,0.24565100835464163,0.7343036028842957,-1.9161603592434429,0.2548284843610228
693,0.739395210827903,3.348731769064505,0,0,-0.05674994807049194,-0.43285999814506865,0.25323293137547026,0.6656969081159219,-1.5861837881136387,0.5313647871246812
694,0.8990982066490895,3.5630019841296074,0,0,0.0891120907461088,-0.5813141272875003,0.19393249560366824,0.9775530516703455,-1.4209552974235176,0.4728870906599158
695,1.0723698279926235,3.812986010107962,0,0,0.2716418821274793,-0.7767225480026857,0.11363931369244781,1.4088272289869563,-1.3074372232327593,0.30925664590828034
696,1.2426102800376517,4.056103725536458,0,0,0.46008225103583317,-1.0072475489824997,-0.1007739731710267,1.3293966088479605,0.1157824701303814,-0.1617034784609369
697,1.3936049271391209,4.2468274653911315,0,0,0.6668481100368866,-1.34664998889126,-0.7310208470763297,-0.33345215669911793,5.599675411913833,-1.5855259878192673
698,1.5113728755043292,4.34508666725799,0,0,0.8736139690379401,-1.6860524288000203,-1.3612677209816328,-1.9963009222461963,11.083568353697286,-3.009348497177598
699,1.5857606839739242,4.32389637297296,0,0,0.7101958784542194,-1.5644847836297104,-1.2005609480978425,-1.6934554533481916,8.739411256468655,-2.075293709764496
700,1.6115112118033308,4.1742636309470225,0,0,0.4075180596722103,-1.2695045179833948,-0.7423048352363351,-0.6511342586203267,3.4504151893759927,-0.25422760853939597
701,1.588646762548362,3.9061756152156923,0,0,0.20663223801394315,-1.097302255180464,-0.32740643288548005,0.18738120414581322,-0.7984992536977376,1.2256825796130624
702,1.5221637166440678,3.545767497455217,0,0,0.3900397646180333,-1.3886214001390127,-0.07619555230388206,0.2564728483044677,-1.1208137571465477,1.4176334800151047
703,1.4211611441978202,3.129904362270697,0,0,0.5734472912221235,-1.6799405450975615,0.17501532827771593,0.3255644924631222,-1.4431282605953581,1.609584380417147
704,1.297569670003537,2.6998418742146195,0,0,0.47998515041535017,-1.4766150626663261,0.1848602577366696,0.3510113068759326,-0.36110057727092937,1.2899190054719594
705,1.1646371716037947,2.29537462645109,0,0,0.26339606674259813,-1.0533157515917164,0.0873671318875667,0.3570487923118085,1.3454533021229211,0.742732326033336
706,1.0353280020701114,1.9503134786270035,0,0,0.07498336909138645,-0.6788181298862006,0.007982246406410813,0.3830415171430806,2.6557105584739786,0.31582324466270467
707,0.9208249256559768,1.6895753861158094,0,0,0.01944979594029851,-0.5344680420955991,0.01399536493084623,0.5031426467223387,2.0970429544109166,0.4561402765357744
708,0.8293504031593513,1.5277694684500454,0,0,-0.036083777210789425,-0.3901179543049974,0.020008483455281643,0.6232437763015968,1.5383753503478548,0.596457308408844
709,0.7654966095562885,1.4689732434338634,0,0,0.011387214234279217,-0.5240670524516833,0.033154538417032926,0.7479816877274371,0.8416094171114338,0.7169753694449307
710,0.7301583599262036,1.5073936120630733,0,0,0.11246298549970195,-0.8028463010372434,0.0500126569042599,0.8751326346428746,0.07297549862678485,0.8271898145534402
711,0.721028860926576,1.6287009344730807,0,0,0.19945941224195454,-1.036673593021615,0.06599424099418987,0.9787169035556249,-0.6837277555636843,0.9004379450072029
712,0.7334944437016518,1.8118987565603313,0,0,0.20031551826511215,-0.9954755844882793,0.0766130076617444,0.9381153974776203,-1.367436755866749,0.7475185720716878
713,0.761696976973487,2.0315975069582235,0,0,0.2011716242882698,-0.9542775759549434,0.08723177432929893,0.8975138913996156,-2.051145756169814,0.5945991991361729
714,0.7995419243615677,2.260522181573525,0,0,0.1896173423247868,-0.8707149573700798,0.1172331501927434,1.0510106429618826,-2.20807768543193,0.5574300262539759
715,0.8415007529616898,2.4720539617560005,0,0,0.17056117207883373,-0.7615435848865393,0.15895101461132966,1.3218368000356346,-2.0465809933672983,0.5902300654873309
716,0.8831496223343185,2.6426175768214715,0,0,0.16083402481486178,-0.67463000095376,0.18840319182788645,1.6207394233259422,-1.763536145693332,0.6224921874686357
717,0.9214632468456296,2.753773758823006,0,0,0.2297697753268171,-0.7753954643197705,0.11443033724975889,2.1563845432493935,-0.45558974530402846,0.6502185579686036
718,0.9549211923488532,2.793921433385405,0,0,0.29870552583877247,-0.8761609276857809,0.04045748267163132,2.692029663172845,0.852356655085275,0.6779449284685717
719,0.9834817030894619,2.7595197097217876,0,0,0.3457084696603389,-0.943190844963633,-0.10447782545894253,2.1703865945834853,1.8648398173946903,0.6379478978756667
720,1.008450820209586,2.655702149339666,0,0,0.37739355169912536,-0.9866598728651403,-0.2989732774702195,0.9103339569487717,2.6709715944623973,0.5506528761024998
721,1.0322451729131918,2.496113000213768,0,0,0.4073883633313675,-1.0257265643827962,-0.4634486777511173,-0.28763089427770927,3.380881337535927,0.45347842734591326
722,1.0580339331096724,2.3017983010936307,0,0,0.41545241742635874,-1.0076742461503794,-0.23842280462291413,-0.6800251193654471,2.8423387092626444,0.22812134169199919
723,1.0892560222446235,2.099068702378713,0,0,0.42351647152135,-0.9896219279179621,-0.013396931494710974,-1.0724193444531849,2.303796080989362,0.0027642560380851276
724,1.129037856478675,1.9164215126984725,0,0,0.4833836554543219,-0.9756528722791591,0.09016962768780906,-1.0420326803739521,1.5736964660947343,0.07826066222892222
725,1.1795710870727267,1.7808358768603678,0,0,0.5849001514858887,-0.9649667278983021,0.09608384637224476,-0.6717334809458136,0.6895865289394367,0.3956409278889448
726,1.241533957687836,1.7139667331315702,0,0,0.6867901596543097,-0.9546093846983711,0.10189013848947058,-0.30321851554553503,-0.1884160886484849,0.6847061702127916
727,1.313646525814745,1.728874573480667,0,0,0.7983758941214399,-0.9527871490421996,0.10489484438559142,0.018980833626931946,-0.9078832984107412,0.23876258867016512
728,1.3924408884382977,1.8278821326609818,0,0,0.90996162858857,-0.9509649133860282,0.10789955028171229,0.3411801827993989,-1.6273505081729975,-0.20718099287246136
729,1.4723082086527974,2.001953788058809,0,0,0.9471497742042069,-0.9771088896611217,0.039632648150633276,0.2933606808260988,-1.4447606674600157,-0.7776847896581593
730,1.5458584736795968,2.2317201682147045,0,0,0.915625417376932,-1.0290820417913873,-0.09445964719923286,-0.0962027083587623,-0.4290444009948472,-1.4632305417854967
731,1.6045967960244525,2.4900034343495476,0,0,0.883718894713711,-1.081633608405772,-0.22852717195547054,-0.48729546973255294,0.5851123994687285,-2.1481815386348515
732,1.639879246463658,2.7454760585169966,0,0,0.7069333397254859,-1.3534620519709848,-0.3532041872150732,-1.4581731226361698,1.0080759558438401,-2.6076609748064756
733,1.6440600509330767,2.9669048894367314,0,0,0.5301477847372609,-1.6252904955361973,-0.4778812024746758,-2.4290507755397868,1.4310395122189519,-3.0671404109780998
