id,ASVM,GSVM,walking_nonwalking,normal_abnormal,ax,ay,az,gx,gy,gz
1,0.9640353295336869,0.30479445922136356,1,,0.2583890319324132,-0.9280512713311886,-0.0136765460172434,0.0031957934,-0.294013,0.070307456
2,0.9535110152737953,0.30490884969183324,1,,0.27465026904776996,-0.9144597898656291,0.0004003559977706678,0.0031957934,-0.294013,0.070307456
3,0.9435838798661972,0.3057161858828348,1,,0.2615686600498831,-0.8808171198392761,0.0786299286370005,0.0031957934,-0.294013,0.070307456
4,0.9350279086561637,0.3075437913268159,1,,0.24271437414977748,-0.8477433241548933,0.0712798724803779,0.0031957934,-0.294013,0.070307456
5,0.9284885419149871,0.310477669227594,1,,0.22758885721823455,-0.8680438818020062,-0.021044748777933192,0.0031957934,-0.294013,0.070307456
6,0.9244337202196626,0.31433730526175707,1,,0.24574156307353107,-0.9144133438459554,0.04910526220467145,0.0031957934,-0.294013,0.070307456
7,0.9231347127663972,0.3186966269509764,1,,0.20726444068353436,-0.9238221588785509,0.08600910263174964,0.04512847848356355,-0.2479893120469454,0.06928470609870267
8,0.9246705637487925,0.3229564535510509,1,,0.15587369990521208,-0.9266898106337227,0.021004469773822743,0.24676656289949553,-0.04719073584118099,0.10659628758094547
9,0.9289441534206652,0.3264672761036066,1,,0.16970424263473063,-0.9318950388188068,-0.011897901968896145,0.257794,-0.036218993,0.10865697
10,0.9356986955254541,0.328690020724395,1,,0.18663535020775468,-0.9187825046949376,-0.020273117449345467,0.3520508530339419,0.027280354397255055,0.1592580166338925
11,0.9445293470203187,0.3293676034871265,1,,0.17604503214012407,-0.9128171279668632,-0.03071256574830519,0.35899413,0.03195793,0.16298546
12,0.9548915135341505,0.3286671731333793,1,,0.16635952444099686,-0.9303678872831623,-0.02634516937374535,0.35899413,0.03195793,0.16298546
13,0.966112176509078,0.3272496370901915,1,,0.1617905613907751,-0.9489174180389723,-0.02454892364180816,0.3151961332408102,0.17308472520181192,0.1454662722602294
14,0.9774118631633145,0.3262333745042267,1,,0.1702722540238609,-0.9507410067823262,-0.022875372846796284,0.3110572,0.18642128,0.1438107
15,0.987943200954728,0.3270403999695381,1,,0.1786731166875005,-0.9465885993851272,-0.02205353412555591,0.16918647074171875,0.25927381786216797,0.12847332313435547
16,0.9968485903887052,0.3311393312085398,1,,0.1814648641220688,-0.9689928925504694,-0.026553961626252436,0.15339808,0.26738137,0.12676647
17,1.0033351514990052,0.3397241607639928,1,,0.18863281024337936,-1.0053351996618451,-0.019962179937769647,0.04098757071255921,0.27966152059425387,0.10976319956838673
18,1.006760129757272,0.35338620736599763,1,,0.22722034438198352,-0.9961263839148466,-0.04111400695805137,0.0032719508237716464,0.2690827858731909,0.07208502522264659
19,1.0067156816924472,0.37184513056614543,1,,0.252302483811169,-0.9748606623785425,-0.06421867181345299,0.0,0.26738137,0.06711166
20,1.0031003942904848,0.39380124950191975,1,,0.25521411491182006,-0.9707466180325895,-0.06990252207904324,0.0,0.26738137,0.06711166
21,0.9961666238929994,0.4169548079492403,1,,0.24662224916434217,-0.9690794210038454,-0.06258288395950118,-0.0932336819138963,0.4008335079829608,0.008612093035260206
22,0.9865361969754853,0.4382100740023586,1,,0.24001172759500897,-0.9609491503030864,-0.040335859239173,-0.10865697,0.42290998,-0.0010652645
23,0.9751802949364621,0.45404947166546983,1,,0.2221800156531934,-0.9605877187266008,-0.022812556801374617,-0.22022940372453936,0.4535024292704643,-0.023559707300863163
24,0.9633619667944239,0.4610348745641801,1,,0.2090811116263521,-0.9589428612768217,-0.01884376202311212,-0.26208786137696083,0.340880389119403,-0.015249656456395264
25,0.9525423661755732,0.45637693142557756,1,,0.2143898045122832,-0.9340841563579017,-0.006617082941966581,-0.26631612,0.3174488,-0.0127831735
26,0.9442552179887304,0.4385081315291194,1,,0.2343418063266151,-0.9063695377221174,0.018306330174151765,-0.26631612,0.3174488,-0.0127831735
27,0.9399581412571182,0.40759394525230064,1,,0.23836266207114562,-0.9072081347090826,0.03874004840652186,-0.2480683188139304,0.366978514613541,0.006333556946332491
28,0.9408732841925642,0.36591257463527743,1,,0.22830148802729913,-0.918771840273083,0.035346041304049794,-0.24394555,0.37816888,0.010652645
29,0.9478321193695423,0.31802897268594316,1,,0.22923844226744922,-0.9196453968691628,0.029783843214943727,-0.20548327416250373,0.4149217284878491,0.006379058412487711
30,0.9611401081122672,0.2706909332038845,1,,0.23839818645014724,-0.9211985867148698,0.03483037498303491,-0.19600865,0.42397526,0.0053263223
31,0.9804770837922949,0.23239309443309036,1,,0.25423320759338575,-0.9238197610835613,0.040818512426610325,-0.13385145956436506,0.3769373878616839,0.021285602926453515
32,1.004848862017018,0.21259309648519722,1,,0.27198713242511097,-0.9354288133116752,0.0372475679520093,-0.09310001772021426,0.2821194920703424,0.03469978718823494
33,1.0326037086772646,0.22062038994359626,1,,0.27597317126643656,-0.9614123268210263,0.013041520798528876,-0.08628642,0.25885928,0.037284255
34,1.061522434030356,0.26438268432473494,1,,0.25840410303014644,-0.9914671398804967,-0.03364781277791732,-0.08628642,0.25885928,0.037284255
35,1.0889824034981022,0.34903437909275276,1,,0.24003098700011138,-1.0370308628369267,-0.08134491237840791,-0.10246895474335427,0.1585275554765462,-0.016927233731795107
36,1.112184357508965,0.4758134237968182,1,,0.23793852120437267,-1.113032376847624,-0.15952576488974415,-0.10759171,0.12676647,-0.034088463
37,1.1284188595062237,0.6412678477376186,1,,0.2517133031011941,-1.1336303041333824,-0.2747218988177695,-0.2378077961582347,0.03148640669378796,-0.1285745309619854
38,1.1353404358874406,0.8370701138727746,1,,0.2599722532699275,-1.0715033881018088,-0.35439689469939345,-0.28229508,-0.0010652645,-0.16085494
39,1.131216335811856,1.0505471579607428,1,,0.2572113013155471,-1.0069175608782783,-0.3853976288788107,-0.6017422280863338,-0.1007951111966042,-0.32369506591262664
40,1.1151241219833403,1.2659360190593132,1,,0.2675141640301566,-0.9877794968064708,-0.3698880250356732,-1.242714009372199,-0.24199741069568081,-0.6249480360577206
41,1.087083037544634,1.4662264128292093,1,,0.2636801161133884,-1.0051134125837602,-0.3264765355055037,-1.4444987,-0.28229508,-0.71798825
42,1.0481112797389363,1.6353102781197038,1,,0.2200017178950581,-1.0423776495050687,-0.2749522079603882,-1.8836495287590944,-0.5274375559426453,-0.7420513057256327
43,1.0002026905393322,1.7600712486294194,1,,0.18611645705540675,-1.0172320872014318,-0.16885282985669034,-2.066613,-0.6295713,-0.7520767
44,0.9462163815348346,1.8320459583503648,1,,0.23474943160205414,-0.9268873615047638,-0.0938453504873606,-1.9437954416823542,-0.8465244181365356,-0.43289821608992024
45,0.8896774092983823,1.8483748634555546,1,,0.3478674767657325,-0.8186292585224132,-0.10889369492252565,-1.8887138,-0.9438243,-0.28975195
46,0.8344971400762711,1.8119063899948022,1,,0.4579417140451244,-0.7177090917615032,-0.09877777076575182,-1.4243464338389085,-1.0746523115491224,-0.023064163874459143
47,0.7846346933061824,1.730483604790874,1,,0.48354753892339525,-0.6469511434312796,-0.031146104189637838,-1.200553,-1.1377025,0.10546118
48,0.7437318810724963,1.6155856904328907,1,,0.3742152433787724,-0.6113720993722521,0.03317880764391433,-1.200553,-1.1377025,0.10546118
49,0.7147622068830047,1.4805901300450874,1,,0.20799557006962502,-0.5906935372747211,-0.016324683921879437,-0.6503090441868229,-0.9503408991998185,0.012825166488770193
50,0.6997389980186659,1.3389597454300688,1,,0.12510851012931176,-0.5774116937192243,-0.13314449162557335,0.16034568064846094,-0.805120164795864,0.02698109164369662
51,0.6995251638172223,1.2026466819207022,1,,0.10804860795306724,-0.5990740197672435,-0.23643489797676367,0.4463458,-0.7797736,0.06178534
52,0.7137734627592984,1.0809444017023593,1,,0.10912800818906958,-0.6439017409398186,-0.2850730457170613,0.6915428415068301,-0.617648782955125,0.22123041922932885
53,0.7410027621900321,0.9799116398787919,1,,0.11871373881691956,-0.6856854015186086,-0.3405075573112378,0.8362326,-0.5219796,0.3153183
54,0.7787905676552334,0.9023624604064053,1,,0.13515986205459463,-0.7223467045252662,-0.371323284671017,0.893042733121923,-0.2966980111982359,0.3799643120729163
55,0.8240446953754927,0.8483050190683039,1,,0.1179203826740721,-0.768882884906054,-0.33387319026904827,0.9289106,-0.15446335,0.42077947
56,0.8733121807248511,0.8156500801803008,1,,0.06290652184769868,-0.8367283225334077,-0.27856111521213206,0.8608523698819766,-0.14237824684231465,0.3660784481625067
57,0.9230894133138642,0.8010039072567033,1,,0.03605750360826483,-0.8932768463011412,-0.23073616834233587,0.8149273,-0.13422333,0.3291667
58,0.9701081374401067,0.8003937518673868,1,,0.07668126314548267,-0.9365469052872901,-0.24528293919426503,0.8248341201316179,-0.1874725841125241,0.3130680911301906
59,1.011581720067944,0.8098268203423697,1,,0.09740836389223602,-0.9581031851223076,-0.2826567490266035,0.8319715,-0.22583607,0.30146983
60,1.0454021879362003,0.8256387685665105,1,,0.08947049742226605,-0.9764447320211271,-0.26278612891433994,0.7735483642035169,-0.09272761820521168,0.28279851937592826
61,1.070280674311897,0.8446370493622611,1,,0.09685591247080574,-1.019925572664863,-0.25437731038936834,0.7286409,0.00958738,0.26844665
62,1.0858225651394418,0.8640839521288084,1,,0.09603439301573499,-1.0740756644877612,-0.26638686859285166,0.7303973036541626,0.11555684912746984,0.26903210872476274
63,1.092524760485548,0.8815890765008766,1,,0.12865886511411517,-1.1390454240087384,-0.2290790407266182,0.7318367,0.20240025,0.2695119
64,1.091679200668493,0.8949863347166623,1,,0.2114224845447798,-1.2253141864874717,-0.19891612309240506,0.7603027138940611,0.18930587933320747,0.28146763438655453
65,1.0851704608107184,0.9022569336288137,1,,0.22844357788996003,-1.1873977130813784,-0.19793256572769244,0.7850999,0.17789917,0.29188246
66,1.075172859765134,0.9015342006897049,1,,0.19249324503849474,-0.9969670212271221,-0.16026458102636384,0.8022365141112209,0.07894904589383304,0.3283668652411668
67,1.0637854389533787,0.8911972922595631,1,,0.16661662326355386,-0.792146524681965,-0.11139014300347741,0.8181231,-0.0127831735,0.36218992
68,1.0526797395969125,0.8700350215473465,1,,0.19224899409564297,-0.7753578875186169,-0.05046663176504306,0.8181231,-0.0127831735,0.36218992
69,1.042852569058772,0.837441865548189,1,,0.20957432696612904,-0.9182962632795216,-0.025382796779401088,0.7900901915809241,-0.17886497407553337,0.31247116692949034
70,1.0345552557375528,0.7935976443213018,1,,0.1431895225174419,-1.0371288939345176,-0.059740035182256186,0.7944434577437125,-0.08712256819879259,0.13562039630916825
71,1.0274159692975577,0.7395808638776896,1,,0.07619025641245909,-1.1006338664213695,-0.10053221810941859,0.82877576,0.18535602,0.0031957934
72,1.0207085817319301,0.6773725284710034,1,,0.09407414152138734,-1.1206454940022466,-0.15434813306404557,0.82877576,0.18535602,0.0031957934
73,1.0136790682532402,0.6097228609392737,1,,0.17729446215193984,-1.1123703500829158,-0.2052435270958499,0.7568067103175478,0.16599882616999803,0.013618896221681208
74,1.0058319436565517,0.5398810489930562,1,,0.2361884293459615,-1.0807619463531324,-0.22124817304489153,0.4338721275875478,0.06610744157383318,-0.026724525582384362
75,0.9971011737415839,0.47122820279225414,1,,0.25416560919618103,-1.0706506321884341,-0.15320493628554344,0.15020229,-0.025566347,-0.08841695
76,0.9878712711148429,0.40689372511936667,1,,0.1763891998146311,-0.9652779582233453,-0.07152109201133716,0.0069539792697443795,0.074660190488287,-0.20755416213185218
77,0.9788627112224118,0.3494513567087587,1,,0.06992520563756385,-0.7224158108448305,0.018329581649063075,-0.17257284,0.20026971,-0.3568636
78,0.9709376209701088,0.3007681866484558,1,,0.1933877155502809,-0.7582222770587875,0.15181747279112523,-0.13287523750329222,0.06703178790483462,-0.18210289139887745
79,0.9649007646031806,0.26202981509600687,1,,0.26805864988090333,-0.9889118426609875,0.1736516262360473,-0.07989483,-0.1107875,0.051132694
80,0.9613573017157979,0.23391515958681863,1,,0.0687624240819471,-0.9693812888656068,0.10110244936707756,0.06286738056404831,-0.21313702757979733,0.04937562057577231
81,0.9606516822935875,0.2168603033136567,1,,-0.006606902624811522,-0.9494830512501945,0.023047035557625203,0.26631612,-0.35899413,0.046871636
82,0.9628754490409233,0.2113305352190052,1,,0.019088875540046398,-0.9855183641904856,-0.028117047003001612,0.26631612,-0.35899413,0.046871636
83,0.9679129331623887,0.21801493179052947,1,,0.050840437982857145,-1.0233424852686528,-0.054564775932162704,0.2364717318920183,-0.2607563626920382,0.044384603074002785
84,0.9754919569728417,0.2378796522072392,1,,0.03445668571952545,-1.0290450866529035,-0.09814265658564363,0.08860260776697579,-0.051946051778190123,0.03274103626773732
85,0.9852136741608956,0.27206553650460724,1,,-0.01663242089153196,-1.0226001253291204,-0.13916695370212737,-0.07456851,0.036218993,0.020240024
86,0.9965482680338038,0.32166986342899734,1,,-0.050680076057059625,-1.010232741478918,-0.13493021549829964,-0.192452365220799,0.11533040798867582,-0.004824979860708517
87,1.008800816303713,0.38748026354041853,1,,-0.04167006410533146,-0.9682272595685323,-0.09975701847466309,-0.39521313,0.2514024,-0.0479369
88,1.0210706135572754,0.469719250831407,1,,0.022573184470700468,-0.8717010355177907,-0.05182177630793209,-0.39521313,0.2514024,-0.0479369
89,1.0322401727826493,0.5678272034260544,1,,0.16037679423902573,-0.8172098668044155,0.020664196517353267,-0.5172880565745519,0.2826565257930026,0.0035404836996711314
90,1.0410280359864204,0.6802861062300884,1,,0.2859326602521753,-1.0287892318004142,0.07414431736178843,-0.7824319314904044,0.216764859056322,0.16830218694884133
91,1.0461174386011856,0.8044797272358909,1,,0.277733210106624,-1.262217636382904,-0.012414261760991524,-0.8479505,-0.027696876,0.29933932
92,1.0463387767827774,0.9365971831975051,1,,0.19735987373435895,-1.0775368276317805,-0.2478496524119935,-0.7806683065098962,0.22970060255092034,0.15683910274496538
93,1.0408594793555512,1.0716096899869192,1,,0.25470935013456114,-0.8683429176911054,-0.23705664656604394,-0.6402239,0.7669904,-0.14061491
94,1.0293375807339777,1.2033745781638112,1,,0.3686098053560869,-0.8659273595478003,-0.11154370642703335,-0.6402239,0.7669904,-0.14061491
95,1.012017742123104,1.3249312502238884,1,,0.3963476178933078,-0.9180008051763285,-0.21732436855804926,-0.7683842743176776,0.6279091212290194,-0.23569125685345954
96,0.989766494652635,1.4290370932852492,1,,0.3712451479799038,-0.9509781395678096,-0.4490354381134516,-1.0652645,0.3057309,-0.45593318
97,0.9640446560869845,1.5089422528931566,1,,0.20399574250791075,-0.9448596528651088,-0.3603063726271586,-1.2382809728383735,-0.0516524512802523,-0.47648655755583397
98,0.9368099072092416,1.5593253769223863,1,,0.0383199627015622,-0.8837835739510147,-0.06493214866655067,-1.6660736,-0.9353022,-0.5273059
99,0.9103470818265157,1.5772266655841112,1,,0.19205363462788638,-0.8460970605524379,-0.05967025818167865,-1.631846192046676,-1.124576750665767,-0.44246877552312275
100,0.8870385415604745,1.562755876078629,1,,0.32577338273698375,-0.8521796305175344,-0.016570811558215902,-1.3262647553151081,-1.5516609816935811,-0.22466580122085805
101,0.8691004201031899,1.5193609641574939,1,,0.3474486359155113,-0.8635479363454412,0.023565615994396768,-0.7392935,-1.3528858,-0.24181503
102,0.8583153222629261,1.4535305868168484,1,,0.19673075839382434,-0.8169374454207882,-0.11040982672558505,-0.7392935,-1.3528858,-0.24181503
103,0.8557925474701195,1.3739399998280344,1,,0.052725393823946684,-0.7736924624755374,-0.1379543957805854,-0.5762504438341283,-1.280131435302896,-0.25516205771611267
104,0.8617892204536383,1.2901821661254613,1,,0.015448591684743324,-0.7625547564568141,-0.1694244039940449,-0.07563378,-1.0567423,-0.29614353
105,0.8756275610852229,1.2113169376787407,1,,-0.05437893206382422,-0.7684718969787319,-0.17714743183935938,0.09169944080381096,-0.8861911438138521,-0.21519979532709158
106,0.8957369477825241,1.1445105399005422,1,,-0.06474857302790497,-0.8241640903893903,-0.15073803300498706,0.644485,-0.32277513,0.05219796
107,0.9198304451092538,1.0940245783246152,1,,-0.04821119815522452,-0.8892063543285226,-0.14474435110381875,0.6820904800090316,-0.19500994399425137,0.12133597867134194
108,0.9451980279039893,1.0607472068869304,1,,-0.021664142845151352,-0.9707617546247375,-0.17774995612518213,0.8159926,0.25992453,0.36751625
109,0.969071449899263,1.042346682889683,1,,0.04668024544812241,-1.0505631994542273,-0.18704383723052206,0.8126983772000149,0.36643751464990565,0.37959504288133583
110,0.9889974760848719,1.033994577039527,1,,0.10689983821583396,-1.0512710937076697,-0.16179388582989762,0.8000136,0.7765778,0.4261058
111,1.0031533140850277,1.0294878134024947,1,,0.13839090971062942,-1.0023061125057697,-0.18827940175058505,0.7940127276760252,0.8374142185141433,0.3954806572118761
112,1.0105515479905176,1.022524858733863,1,,0.18899139698341058,-1.0182433008945202,-0.23204539465248103,0.76912093,1.0897655,0.26844665
113,1.0111063208592832,1.0078752407295302,1,,0.23758754447878871,-1.02482145871274,-0.22704038482711925,0.7444212031284381,1.07548598090309,0.2566756813605419
114,1.0055597489045816,0.9822218941907774,1,,0.22378358694328815,-0.9705778235321079,-0.19111112539846076,0.6327671,1.010936,0.2034655
115,0.9952922197930015,0.9445414553088475,1,,0.1649005410774743,-0.9086081254741687,-0.15024433947919688,0.6068875218873734,0.9123808948806736,0.20187018531894868
116,0.9820602170684842,0.8959994653525368,1,,0.1385451697682031,-0.8653618841535184,-0.1266632405875096,0.47723848,0.41864893,0.19387813
117,0.9677172672257002,0.8394490682290264,1,,0.14159291860490428,-0.859298939869714,-0.09765920830452858,0.47626855622425135,0.3719308852296958,0.19614128901758573
118,0.9539721062145019,0.7787031530379738,1,,0.15268124531266153,-0.8973788612126603,-0.09504480688763842,0.4708469,0.1107875,0.20879184
119,0.9422211861020208,0.7177774344205087,1,,0.17121096295913865,-0.9568834181068661,-0.09242834513163188,0.48238073285111216,0.12348931366933717,0.19857198933835316
120,0.933466032918663,0.6602713990503256,1,,0.1677094144567891,-0.9585974035526532,-0.06439065237241248,0.5550028,0.2034655,0.13422333
121,0.9283010953648382,0.6089838697513098,1,,0.14963010713982453,-0.9484870419465001,-0.06270953367604483,0.5616475139891876,0.19721164772650812,0.12197620070475354
122,0.9269443732760755,0.565779951721039,1,,0.11232034607962234,-0.9428368353046127,-0.10295832337772629,0.60933125,0.15233281,0.034088463
123,0.9292837574893154,0.5316617780292714,1,,0.08482742490352721,-0.9305208064520863,-0.1168208058085183,0.605544276968541,0.14381211873509755,0.03953223852408977
124,0.9349220435035168,0.506959752760013,1,,0.06993984658201752,-0.9268819747536786,-0.0977035969133311,0.5752428,0.07563378,0.083090626
125,0.9432161761424971,0.4915546894998908,1,,0.05186109492983179,-0.9267294500354075,-0.06175222305890598,0.5667110053978124,0.08467953694659758,0.08884701795968315
126,0.953316500165388,0.4850574638634337,1,,0.02859168057850335,-0.9208118403329036,-0.05342301599726035,0.4809923726416201,0.17783558385811,0.14235654041422463
127,0.9642172169157032,0.4869019743718747,1,,0.016074744859011066,-0.9187103449554813,-0.0645691593198,0.42290998,0.26205507,0.13848437
128,0.9748289270549668,0.49634037072543397,1,,0.00818411521597898,-0.9427751397401624,-0.061261539209609646,0.4129172101888383,0.2696302342604933,0.13711439379866988
129,0.9840780355416889,0.5123597597813699,1,,-0.01542505583806002,-0.9752314924683505,-0.07716091539617766,0.2908172,0.36218992,0.12037488
130,0.9910272274896703,0.5335624475975745,1,,-0.03234000108562098,-1.0030647407661566,-0.09708009646968514,0.2774626397575217,0.3666842429788722,0.11941181117769847
131,0.9949994275614114,0.5580645625073182,1,,-0.013004725487021456,-1.0462947373670886,-0.08448020069907733,0.06924219,0.43675843,0.10439592
132,0.9956792346242996,0.5834686616513837,1,,0.02580009147515976,-1.059525909563036,-0.09849273099635644,0.061811600384716794,0.4416806026333928,0.1028814048240943
133,0.9931650245811116,0.6069530427051892,1,,0.07749866638012959,-1.02308135978509,-0.10417963312016344,-0.098004326,0.5475459,0.070307456
134,0.9879536310966456,0.6254942579531368,1,,0.10819819494751119,-0.9805140953457671,-0.07158383905112745,-0.10100428829464002,0.552121600863203,0.06842869155824642
135,0.980855755412896,0.6362042421402597,1,,0.10853173585507576,-0.9536126441589494,-0.03003976929885122,-0.2034655,0.70840085,0.004261058
136,0.9728582398829617,0.6367286428384215,1,,0.11433565672583001,-0.9347008976530754,0.012295668784214496,-0.2034655,0.70840085,0.004261058
137,0.9649622892490924,0.6256295993215645,1,,0.13692610959265591,-0.9197203778453723,0.0383363371069126,-0.20326671254335713,0.7080927295261774,0.004037422008642038
138,0.9580306944527839,0.6026730619994379,1,,0.17109321658795962,-0.9139047465571224,0.03688241714365744,-0.16098836325919047,0.6425613059953832,-0.04352574276452376
139,0.9526724551755686,0.5689593367197804,1,,0.1603137834376016,-0.9138863934167122,0.027442197868343243,-0.16085494,0.6423545,-0.043675844
140,0.9491829663747943,0.5268690795027899,1,,0.134450526295454,-0.9197947043270913,0.013882033626878792,-0.0082889745948184,0.4660789203691602,-0.0746013783780797
141,0.9475455378551008,0.47983425384220746,1,,0.1193374310207133,-0.9258334334002924,-0.012270012749627045,0.08139576329170531,0.39190947120806474,-0.11130491505574533
142,0.9474879064659824,0.4319738848057683,1,,0.11078917097977305,-0.9428347330401932,-0.04156023891894313,0.08522116,0.3888215,-0.112918034
143,0.9485770593762957,0.3876502702511855,1,,0.12232987983064506,-0.9852442486667669,-0.04918336450587909,0.026127018776420353,0.33774015101856064,-0.13094675049352747
144,0.9503285062434591,0.3510010760163317,1,,0.11372506254284272,-0.9990771346853171,-0.05346005386543565,0.022370555,0.33449304,-0.13209279
145,0.9523041970582213,0.3254923633007426,1,,0.08276243359061947,-0.9697660442413326,-0.06006341287332035,0.022370555,0.33449304,-0.13209279
146,0.9541784577824761,0.31352632837280964,1,,0.06302441101002695,-0.948021057443271,-0.05944254156587363,-0.09343809620950579,0.26775586272270463,-0.13405565872307948
147,0.9557627848858479,0.3161315998094848,1,,0.05397651202878406,-0.9372421492141025,-0.05623022753979597,-0.10333065,0.26205507,-0.13422333
148,0.9569935368589022,0.3327641238844312,1,,0.06143002744227002,-0.9308217420655301,-0.04818077570442195,-0.17863200272424884,0.2369546070085084,-0.10236505911181715
149,0.9578958539974409,0.3612496127280621,1,,0.09467605146783843,-0.9374734881250639,-0.023518093530163278,-0.2236606623740044,0.060574377959647374,-0.012177694428001642
150,0.9585396821589576,0.3978986191895985,1,,0.12540848375847813,-0.945272924737458,0.004486113858722634,-0.22796659,0.040480047,-0.002130529
151,0.9590006080988509,0.4378160033398085,1,,0.13320020371272243,-0.951046012319101,0.011851072771742818,-0.18689434954542758,-0.34317206301135356,0.03520787428104299
152,0.9593324863733224,0.4754027926847213,1,,0.14063548250692642,-0.9523785737778424,0.015430736575053918,-0.18109496,-0.39734364,0.040480047
153,0.9595535912660748,0.505011386833534,1,,0.15972066160528064,-0.945959868157537,-0.012702388251824431,-0.18109496,-0.39734364,0.040480047
154,0.9596448711507233,0.5216741307972975,1,,0.14845569926792648,-0.9428149430202817,-0.08790990311653829,-0.06179405983131573,-0.7306575967947367,0.005873681811769553
155,0.9595577665698031,0.5217933012606322,1,,0.1229244195495552,-0.9370930301748058,-0.08564310613782611,-0.041545313,-0.78723043,0.0
156,0.9592289002996911,0.5036693503437267,1,,0.16565808622343944,-0.9432888146003895,-0.015767238732665553,0.01839024214395952,-0.618158533376696,-0.020574891813671354
157,0.958598626655833,0.4677633694795911,1,,0.18759908923814858,-0.9582458354948792,-0.013881637855121991,0.029827405,-0.5858955,-0.024501082
158,0.9576296229084948,0.41663989255841943,1,,0.14895821217754515,-0.9580001876562814,-0.0370670823611471,0.004348404120115143,-0.3882135675417255,0.005370849383512901
159,0.9563212628015014,0.3546025447090055,1,,0.11665067274255836,-0.9485828469336774,-0.04909680989351134,-0.0010652645,-0.34621096,0.011717909
160,0.9547166184923698,0.28709482680752474,1,,0.09987542824906713,-0.9339329431642795,-0.06446860787252748,-0.018348248993612922,-0.2139961223978533,-0.0012443286604042346
161,0.9529015381360185,0.21997573312196292,1,,0.10869565499564199,-0.936437085149487,-0.0674552343970406,-0.041915498937399195,-0.037063286809297206,-0.0017117172263008823
162,0.9509976486328521,0.1587910525437466,1,,0.11412121870490842,-0.9463185828428232,-0.061032171748118764,-0.046871636,0.0,-0.0010652645
163,0.9491516790139146,0.10814853484272671,1,,0.1063887092682313,-0.9462761903383259,-0.06449888815967182,-0.048536383883994845,0.01498274423938724,-0.002730013868613898
164,0.9475223356312957,0.07127347331870193,1,,0.10460754443428419,-0.9477185100232666,-0.07067472974185576,-0.049002163,0.01917476,-0.0031957934
165,0.9462647479860934,0.0497793780930883,1,,0.1058996791032106,-0.946254706034333,-0.0838855958673253,-0.049002163,0.01917476,-0.0031957934
166,0.9455127023744636,0.04364839393102489,1,,0.11239868147883494,-0.9342464656388247,-0.09695410258602538,-0.04655905053504957,-0.037831202612027895,-0.0007526806292584966
167,0.9453606542214366,0.05138765377412286,1,,0.13993564013945645,-0.9117392682199389,-0.1004409870098744,-0.052242750060270994,-0.08516200589061311,0.009654569712778446
168,0.9458498176214819,0.07031378315390298,1,,0.16964989681446227,-0.8964349176161132,-0.09604639121616737,-0.054328486,-0.094808534,0.0127831735
169,0.9469637114677517,0.09691617435671213,1,,0.16326301444942792,-0.9136139421241233,-0.08511643537210795,-0.06378856304519943,-0.045143133582930255,0.006476455839887706
170,0.9486367333480019,0.1272564378950886,1,,0.12301558778181453,-0.9485039016054657,-0.07231632604567763,-0.06711166,-0.027696876,0.004261058
171,0.9507744726332377,0.1573711066630322,1,,0.06390908541871547,-0.9628146510392341,-0.024752903529140818,-0.06249318411944027,0.1693581450032432,-0.008054881173996173
172,0.9532787251947266,0.18365111740353476,1,,0.08092770608611824,-0.9705559703855828,-0.07316060274768765,-0.060720075,0.24501082,-0.0127831735
173,0.9560668110874492,0.20317268744851702,1,,0.10562253145921574,-0.9667808375096293,-0.07811749146391804,-0.0802758913631905,0.2269593015482291,-0.003757411802884237
174,0.9590758612638332,0.21395461017798467,1,,0.15063108734724423,-0.9652214949858764,-0.09412956990795819,-0.08841695,0.21944448,0.0
175,0.9622479634100567,0.21512322179271862,1,,0.16430267074547653,-0.9448443370280742,-0.10815708615949678,-0.08841695,0.21944448,0.0
176,0.9654996255546998,0.20697914104325085,1,,0.14418218989158213,-0.9206776029014883,-0.12879929539706658,-0.1118547729502478,0.020955400130841483,0.022705391928446006
177,0.9686864753272277,0.1909735500570909,1,,0.11438923714310274,-0.9160428973901615,-0.13119445405889515,-0.12250541,-0.06924219,0.033023197
178,0.9715786540610898,0.1696088934662648,1,,0.08867240498262319,-0.9277426474596363,-0.12903926288298548,-0.08666662387141645,-0.15812238255947914,0.03230641952798765
179,0.9738615507630053,0.146275688393011,1,,0.06627201832872903,-0.9410733770848746,-0.14131957607994766,-0.06924219,-0.20133498,0.03195793
180,0.9751698183405566,0.12502693407304682,1,,0.05369332433730883,-0.9548307597101771,-0.15243175612838433,0.006787862126590373,-0.13093678255849867,-0.0257685881219586
181,0.9751521609155356,0.11028330589815058,1,,0.05485688204500295,-0.9761691162427848,-0.16048550989418478,0.07630624641128492,0.08195209705666065,-0.07688229869821375
182,0.973553898727424,0.10646305585341094,1,,0.0642862638549637,-0.9895104339255598,-0.15616088346715037,0.09267801,0.1768339,-0.08841695
183,0.9702973098526829,0.11754067305433288,1,,0.06838273008621701,-0.986457776050948,-0.13556580576255226,0.09267801,0.1768339,-0.08841695
184,0.9655383589071762,0.14655547160856197,1,,0.07390304675211394,-0.9806391656097699,-0.1301598386390206,0.03783207777880276,0.1380404357965187,-0.05096119210823347
185,0.9596829485072587,0.19511462805938623,1,,0.08736473887000197,-0.9647978388223413,-0.14873505418381958,0.0053263223,0.11504856,-0.02876214
186,0.9533547371668804,0.2629616119547188,1,,0.104703148814941,-0.9408978655297997,-0.15216432085736395,-0.03284500835399505,-0.06856870462775577,0.012699821585415999
187,0.9473172547440604,0.34769971014458934,1,,0.11696993242201048,-0.9258131210362496,-0.12799679852011706,-0.056459017,-0.18216023,0.03834952
188,0.9423628894934077,0.44475772575735406,1,,0.1270257387930022,-0.915419461921312,-0.08853636193873833,-0.055817022426981826,-0.2797431676504405,0.06210325953826159
189,0.9391882896775169,0.5476546346677167,1,,0.1321184892415885,-0.9111008785883014,-0.05393652647031085,-0.012329097958791812,-0.4827739142442879,0.10119654083823225
190,0.9382786531646176,0.64856812999453,1,,0.12802250007563387,-0.9071826110403114,-0.036368352334797266,0.017044231,-0.5773733,0.11717909
191,0.9398221140762566,0.7391530339966869,1,,0.12395284970995622,-0.8966099861220347,-0.01927124780949616,0.04224895781304326,-0.7759374079814125,0.17435078892532518
192,0.9436705276364826,0.8115043819613796,1,,0.10459810393448823,-0.8989784365573142,0.004941510703048501,0.060720075,-0.9214538,0.21624869
193,0.949355002985379,0.8591271352625848,1,,0.05488215674628061,-0.9411229918240703,0.018310646759102035,0.060720075,-0.9214538,0.21624869
194,0.9561541802748054,0.8777657850893407,1,,0.02088292229662546,-0.9909806586090418,0.013800424876492873,0.02057562986157484,-0.9952487033167794,0.2788267824215829
195,0.9632023084554885,0.8659636876946504,1,,0.029444386357988926,-0.9893226839323248,-0.0037029212392147032,-0.011717909,-1.0546118,0.3291667
196,0.9696162034401937,0.8252604259960963,1,,0.04640802307791957,-0.9666544116415177,-0.018187558356577916,0.022596158961862216,-0.8801335086874353,0.290781490106259
197,0.9746182960271172,0.7599903005862662,1,,0.03654028313195418,-0.9761825164366728,-0.030820998299981823,0.051132694,-0.7350325,0.25885928
198,0.9776368411860163,0.6767090642358136,1,,0.006763937231473473,-0.9963756543712038,-0.048993468608365454,0.09595486910886755,-0.6062396433330127,0.13006642919171085
199,0.9783704422940191,0.583337283430842,1,,-0.01048902362401819,-0.9975260645353131,-0.08422164218327904,0.13528858,-0.49321744,0.017044231
200,0.9768096214397828,0.4881524116684558,1,,-0.0010191381845997694,-0.9894569639994139,-0.14099509954893674,0.1070214484379527,-0.4427800099387495,-0.0306219132447137
201,0.9732135505229754,0.3987792782968304,1,,0.015030644302804768,-0.9726621330738053,-0.18920828791384686,0.02364955596350643,-0.25545819456126007,-0.056556627400762324
202,0.9680467077489036,0.32132250926380834,1,,0.021872681205899164,-0.9395895151913941,-0.1862861120844681,-0.03089267,-0.12144015,-0.039414786
203,0.961888023497979,0.2597609043588532,1,,0.01664753989361452,-0.9082154491452693,-0.15770204253114384,-0.054719847366054473,-0.0716678228419019,-0.025118479083314375
204,0.9553317380842072,0.21568568513050834,1,,0.007258649566607447,-0.9056313398724228,-0.12708565096465793,-0.07882957,-0.02130529,-0.010652645
205,0.9489014598964313,0.18841168497135144,1,,0.01293034865151316,-0.9233975247948651,-0.08867301175772482,-0.07882957,-0.02130529,-0.010652645
206,0.9429946833642894,0.1754269614136823,1,,0.0331162276596395,-0.9366613935556952,-0.0821070912168587,-0.10032271300502588,-0.1963208651979001,0.003676116202702031
207,0.9378653281985472,0.17308278965627907,1,,0.032837981473977505,-0.9440242738244768,-0.10429101401094137,-0.1140000120380972,-0.41081169454261773,0.017663602000301325
208,0.9336407554214672,0.17737785942611412,1,,0.0034742386364919613,-0.9451531399522246,-0.10328735462735596,-0.10333065,-0.43888897,0.015978966
209,0.930361702103703,0.18467432902427453,1,,-0.020183838624292606,-0.9378431081274156,-0.0717113947802122,-0.07027107317601179,-0.3401964031981398,0.013061944730299665
210,0.928030854450955,0.1922099876848604,1,,-0.028117292818696245,-0.9200074113337775,-0.0497845270193371,-0.03089267,-0.22264028,0.00958738
211,0.9266575042769748,0.19833426783496122,1,,-0.015013685131393022,-0.9139774925281302,-0.04537156047968712,0.020563215161385776,-0.17165217365672092,0.02362080294639138
212,0.9262891778625659,0.20247202215415555,1,,0.011653664241808293,-0.9423594016909006,-0.06141228087199106,0.08628642,-0.10652645,0.041545313
213,0.9270237933047776,0.20487982745618874,1,,0.0037653880552490928,-0.9666671810710094,-0.0972070835059001,0.10432389504723169,-0.04835559318433271,0.02350783901104276
214,0.9289976167307937,0.20629007303963176,1,,-0.027582824358243548,-0.9528628487481271,-0.09470818741975616,0.128897,0.03089267,-0.0010652645
215,0.9323474046265494,0.20753938894655044,1,,-0.01947737540133073,-0.922207519053813,-0.051908076410624795,0.128897,0.03089267,-0.0010652645
216,0.9371517156445429,0.2092593725938811,1,,0.012981795751264956,-0.9067417140221063,-0.018001775809267057,0.11502966581176484,0.10282945903324542,0.01930237976676565
217,0.9433649420850083,0.2116789211250272,1,,0.02779251160929487,-0.9121288753866398,-0.014214795029598935,0.09864404021333885,0.1774687048083509,0.07585069249135751
218,0.9507634744116248,0.21455669758229456,1,,0.023875979270653346,-0.92663984689469,-0.04065551531380446,0.10439592,0.13209279,0.11611383
219,0.9589228115238494,0.21723545072570366,1,,0.0220784598446296,-0.9354206337059531,-0.07117964779418799,0.10439592,0.13209279,0.11611383
220,0.9672375080500201,0.21879081520664437,1,,0.024825259399874764,-0.9411481691102463,-0.07700246957420862,0.12294347774276075,0.1240286333076978,0.12700044096685062
221,0.9749855915916945,0.21823610655031472,1,,0.03822620814553471,-0.9585004799150514,-0.07945551104327912,0.16832578588705827,0.12100119117261682,0.14841147919199615
222,0.9814284340559106,0.21473931817337877,1,,0.0774869696165945,-0.9898730722343138,-0.10299692643721381,0.19387813,0.13848437,0.15446335
223,0.9859278262566022,0.20780797147303695,1,,0.12275032686934659,-1.0139583060289368,-0.1368738221905332,0.19387813,0.13848437,0.15446335
224,0.98805591457198,0.19740351717389956,1,,0.13763432423059516,-1.0162553048866116,-0.14275357689506704,0.17206693739566256,0.12903285411478316,0.12574527575638966
225,0.9876730732902133,0.1839617172005295,1,,0.10861834793587974,-1.0006919254966484,-0.1128419758480372,0.12996227,0.1107875,0.070307456
226,0.9849552580294727,0.16831720016090715,1,,0.07791182039625795,-0.9852045516699036,-0.10029428934810615,0.08916546610885838,0.11894685951275079,0.03696050432855006
227,0.9803645388556936,0.15155308085374847,1,,0.061692751707817156,-0.9685661201388892,-0.0972829827863938,-0.012707034045303102,0.09252723856102843,-0.04060465313265368
228,0.9745700989877304,0.13481280805688947,1,,0.03497182135603023,-0.9523800745779293,-0.08814523451739684,-0.054328486,0.004261058,-0.0628506
229,0.9683374334911254,0.11911663021701288,1,,0.0017008186008110283,-0.9458037900668916,-0.08145601859148889,-0.05499056264405047,-0.01394603153212484,-0.05920918296369362
230,0.9624083265073561,0.10521905359674785,1,,-0.012575843263785169,-0.9438689332488289,-0.06524754718724014,-0.056459017,-0.054328486,-0.051132694
231,0.9573934701802592,0.09352989788279877,1,,-0.012080018911207111,-0.9382021467557065,-0.042925921089824175,-0.042745682845537585,-0.06025015270872492,-0.034926026602285234
232,0.9536948533746384,0.08410529548493129,1,,-0.01321528658152419,-0.9350796742898394,-0.030406013174412633,-0.00958738,-0.07456851,0.004261058
233,0.9514681594949802,0.07670085720621293,1,,-0.013390799622748764,-0.9391619961870197,-0.03822050236277343,0.006016209555418478,-0.07688015301765559,0.009751209760053656
234,0.9506278148728415,0.07086936414379916,1,,-0.012541525751182194,-0.9479447643583898,-0.06229185103647884,0.0479369,-0.083090626,0.024501082
235,0.9508900017504197,0.06607975550053331,1,,-0.015105962881242363,-0.9566029803788662,-0.08567088653187639,0.0479369,-0.083090626,0.024501082
236,0.9518428730182776,0.0618327563322155,1,,-0.017149971727360408,-0.9610240884707401,-0.09181347433063318,0.0479369,-0.07582764607362759,0.023694084567094747
237,0.9530295158835137,0.057751787302094036,1,,-0.014720342606434154,-0.9621155417240641,-0.08369849475006008,0.0479369,-0.054328486,0.02130529
238,0.9540286730783477,0.0536357441730165,1,,-0.011572539249973882,-0.9620571948841592,-0.06903569219070664,0.03830382319810048,-0.03835785883335725,0.01978427756026458
239,0.9545206493757893,0.049470862624005074,1,,-0.005447100518562944,-0.9578816405324657,-0.0626383359816777,0.0015229364929770332,0.015008391672232248,0.012935730660128056
240,0.9543301068743874,0.04540879853384126,1,,-0.002811460719962529,-0.9559448885867662,-0.07857222505534868,-0.018109497,0.022370555,0.0063915867
241,0.9534421998802469,0.04172398722968793,1,,0.008726544738748902,-0.9539521696552767,-0.08392683445827322,-0.0224862093111934,0.017072428808128395,0.0033969938691329176
242,0.9519926974912345,0.03876374642857484,1,,0.025213908262823017,-0.9506465026770299,-0.06721997373276842,-0.03834952,-0.002130529,-0.007456851
243,0.9502359796048553,0.03690051131161335,1,,0.026500572055238623,-0.9438366352149185,-0.054565265405467474,-0.03834952,-0.002130529,-0.007456851
244,0.9484970556914203,0.0364899816479404,1,,0.019141915207678946,-0.9431475480734854,-0.05258063524062842,-0.037139898790872934,-0.00958985581532484,-0.009069678332576072
245,0.94711505876671,0.037834616715552286,1,,0.018545453814698295,-0.9498245805585767,-0.05170084559459463,-0.03195793,-0.041545313,-0.015978966
246,0.946386023993486,0.041150081820872424,1,,0.015090860259731788,-0.9447473121406698,-0.05272912847409845,-0.02465021812891242,-0.04135300449832325,-0.018478973091798568
247,0.9465124544515766,0.046532905264720995,1,,0.020447496311515313,-0.9299685398511844,-0.038422670909589,0.008522116,-0.040480047,-0.029827405
248,0.9475665918906088,0.05393021670016955,1,,0.025725554366160447,-0.9289368924635929,-0.034231912288510996,0.012766851899646757,-0.03535099150174158,-0.031419181107642254
249,0.9494732585280701,0.06311605323138023,1,,0.02432271742875821,-0.942677885919918,-0.03706258695507808,0.034088463,-0.00958738,-0.039414786
250,0.9520158343117794,0.07368185888644735,1,,0.019841673769199302,-0.9475519790712329,-0.053536243806809894,0.03747716528441329,-0.00991011355810986,-0.03780111805797022
251,0.9548651259376647,0.08504995299504033,1,,0.010266798150149605,-0.954820896985992,-0.06936706466549396,0.054141547644063745,-0.0030660251932383407,-0.02783515269272288
252,0.9576265890580605,0.09651698508847179,1,,0.0003075842098274905,-0.959656458836239,-0.07127655069365049,0.040480047,0.0479369,-0.022370555
253,0.9598981049700549,0.10732948155265759,1,,-0.0006342893989046132,-0.9656375261983842,-0.06520419256731193,0.03398759335043411,0.06171680181648646,-0.023695545281811396
254,0.9613291159222201,0.11678581779791285,1,,-0.009079641232043814,-0.9587205641059029,-0.06974763526125027,-0.011717909,0.1587244,-0.033023197
255,0.961672275508951,0.12434966717183335,1,,0.0013716462393429125,-0.9713480297527669,-0.06437406796185093,-0.011717909,0.1587244,-0.033023197
256,0.9608202909814515,0.12975244263569874,1,,0.02366172538204732,-0.9599115862119336,-0.052405557780943045,-0.01227717678565834,0.1652119068176403,-0.033918025541053935
257,0.9588227669502563,0.1330608184743254,1,,0.11450354961356583,-0.972434054316493,-0.016391100922051125,-0.014600037815394302,0.19117942118618014,-0.044520852811011626
258,0.9558803762605995,0.13469247696334116,1,,0.06843655719292381,-0.945632097403195,-0.0921835928157789,0.007456851,-0.07350325,-0.07137272
259,0.9523166305463667,0.1353768146090326,1,,0.032838721295254274,-0.9503083188789193,-0.0744046233585307,0.006285689281756844,-0.07548521576093409,-0.06930066449035505
260,0.948530814975901,0.13607183954005764,1,,0.06995098796200923,-0.9709893073666683,-0.05844344989272408,-0.0063915867,-0.096939065,-0.046871636
261,0.9449389331866312,0.13785742393606895,1,,0.0541312114442015,-0.9261022531734769,-0.06700551725427603,-0.008616465222048054,-0.07928836223339446,-0.04790991276847245
262,0.9419124905212426,0.14182479054240296,1,,0.026586455837622952,-0.8973735200514391,-0.044388006443128576,-0.03834952,0.15659387,-0.06178534
263,0.9397270750914662,0.14897421343824194,1,,0.02339842372572981,-0.908705077578404,0.029339740397984627,-0.03882244281648795,0.15638368197194394,-0.06404486006841173
264,0.9385322436481414,0.1601231451925064,1,,0.056572730842186815,-0.9314953124835341,0.03197004445151016,-0.0479369,0.15233281,-0.10759171
265,0.9383493125579188,0.17582147954826832,1,,0.08108478005198828,-0.9386752302158538,-0.036481682044934786,-0.0479369,0.15233281,-0.10759171
266,0.9390951389168966,0.19627236019502578,1,,-0.00923916759896965,-0.9566105253947944,-0.09924513761000159,-0.044331415553540005,0.1516772676530892,-0.10942722937134454
267,0.940621847039479,0.22126427099464768,1,,-0.07648801449034182,-0.9859681502867614,-0.07111628364676202,0.06924219,0.13102753,-0.16724652
268,0.9427589146101402,0.2501287815384328,1,,-0.04985626617507401,-0.9493158220343101,-0.06467608409668375,0.07032685439881368,0.12851567581898787,-0.16540068764589372
269,0.9453467529671175,0.2817441745542883,1,,0.003143498349172803,-0.870080509288363,-0.11491960146010133,0.12996227,-0.00958738,-0.06391586
270,0.9482578760643623,0.31460488516503526,1,,0.09266796902838695,-0.9002994004781572,-0.03298063530431923,0.1297090054086927,-0.011111188384239898,-0.06339666769005176
271,0.9514074858658006,0.34696602039572255,1,,0.18091025497583102,-0.9841660518205846,0.08710665294507292,0.06608947901265097,-0.39388861188139984,0.06702333574145702
272,0.9547548775867905,0.3770484500528647,1,,0.17736911332978195,-1.0317547580681816,0.11503495238976416,0.08384713361819077,-0.6140392895049617,-0.07110580934635745
273,0.9582923763692753,0.4032604381717437,1,,-0.0364891646058036,-0.9582881697032074,-0.06817921736350945,0.084155895,-0.6178534,-0.07350325
274,0.9620178683073912,0.4243768861484758,1,,-0.14741951454709792,-0.875538758271824,-0.16661573690766288,0.2615149386081516,0.04105612347234036,-0.16630739582900533
275,0.9658950924994473,0.43963407882822025,1,,-0.0366097117720348,-0.8874407903013044,-0.10951737859814027,0.26738137,0.0628506,-0.16937704
276,0.9698165122259071,0.4487382126607726,1,,0.03394887853242433,-0.9364106415957205,-0.11703708151434815,0.26738137,0.0628506,-0.16937704
277,0.9735859626086857,0.4518196452760472,1,,0.0985518777873898,-0.9848667488059832,-0.14260684726048015,0.2034276014724811,0.46789112130167704,0.09049858343018163
278,0.9769291032728882,0.4493691897997686,1,,0.15620377322829784,-1.0025908870031062,-0.09707523733380456,0.20026971,0.4878911,0.10333065
279,0.9795263156018725,0.442173867149215,1,,0.2131119532864432,-0.9959528397120578,0.026978244029346687,0.08529869513549475,0.14897655570625032,0.2173019210711939
280,0.9810551085476765,0.4312493895601169,1,,0.13723240016080251,-0.9489547818503266,-0.012032029946533546,-0.006338276135540851,-0.5143920323532634,0.1762881341085004
281,0.9812312519372619,0.4177579131857259,1,,0.0562443726560055,-0.9429095031336521,-0.024654908380650497,-0.0127831735,-0.5635249,0.17257284
282,0.979845535725429,0.4029005482753686,1,,0.0678160290451171,-0.9591236918180119,-0.021405526935169453,0.08205997221846463,-0.3544828785927528,0.07192297111136385
283,0.9767986136697099,0.3877827340361679,1,,0.0782026308992638,-0.9548243887180196,-0.027397228911135038,0.09161274,-0.3334278,0.06178534
284,0.9721352630257657,0.3732679483234185,1,,0.08523632194911378,-0.988648402488275,-0.028740164439380735,0.09161274,-0.3334278,0.06178534
285,0.96607303137697,0.3598549666987995,1,,0.06428129707534873,-1.0159742655740724,-0.02231276737208976,0.09634218271077236,0.0808711949968225,-0.06685543602564686
286,0.9590139925398808,0.3476221807418298,1,,0.027650603283877365,-0.9932124683507777,-0.03638773950793043,0.096939065,0.13315806,-0.083090626
287,0.9515273596456284,0.33626960048664506,1,,0.015254674525674458,-0.9528990988019073,-0.05681366964816296,-0.010793496420483276,0.3729801099849323,-0.1880127774853137
288,0.9442968731492846,0.3252559256641858,1,,0.0260838079423324,-0.9342119954574525,-0.04061687718338962,-0.025566347,0.40586576,-0.20240025
289,0.9380375646296829,0.31398737687608164,1,,0.037151274694771315,-0.9273366471729472,-0.000192616885251075,-0.13908278581815542,0.4224779049160268,-0.19317126616294597
290,0.9333963832135775,0.30198902856996646,1,,0.04215408774689458,-0.917983907407017,0.01694663620291102,-0.15659387,0.4250405,-0.1917476
291,0.9308562311960558,0.2889960318725343,1,,0.02709670510443662,-0.8996788832469254,0.009419749879873273,-0.15204521510851202,0.19123912105509333,-0.13079548269049265
292,0.9306625147225028,0.27494050125475944,1,,0.009452518475165875,-0.8980210385941608,0.002688496208638105,-0.09491609398844414,-0.017786833836331412,-0.03897832610009144
293,0.9327865765330152,0.2598602099467244,1,,0.018192552155620097,-0.9194181569770695,0.022261302709924984,-0.084155895,-0.05006743,-0.023435818
294,0.9369325457499185,0.2437906359220615,1,,0.0706182766058131,-0.9484051397273017,0.009876262686498721,-0.03412799815101933,-0.17206527818334505,0.05906632288185899
295,0.9425847529197126,0.22670400155710033,1,,0.09051945371773301,-0.9550937723746599,-0.026224833184660862,-0.023435818,-0.19813919,0.07669904
296,0.9490846614462093,0.20853008241476095,1,,0.08023277829531765,-0.9500357044285169,-0.045587982620871687,-0.023435818,-0.19813919,0.07669904
297,0.955722064685258,0.18925337824192892,1,,0.06852081451009479,-0.9535560988404421,-0.0483563602249494,0.08351408456516224,-0.1972766862673542,0.08532403684358827
298,0.9618256908989018,0.16904987698685328,1,,0.061137443353380824,-0.9640788857659018,-0.0485523399143926,0.10865697,-0.19707392,0.08735169
299,0.9668414066042161,0.14841274381735364,1,,0.05497524651319066,-0.9739755211502871,-0.04199146599418911,0.13154969050943524,-0.16315879648671167,0.0720898776535968
300,0.970389581915479,0.1282190183815411,1,,0.04371612670161289,-0.979385263668226,-0.03490526400984475,0.13741912,-0.15446335,0.068176925
301,0.9722960878429319,0.10970523321114094,1,,0.019923276479261273,-0.9820265862550313,-0.051522699711064296,0.07521477479549174,-0.09474717580079214,0.029195539283302117
302,0.9725943765474715,0.09434444819730436,1,,0.012604211490655041,-0.9808205115532772,-0.05195798068250317,0.00502042425642731,0.012476699099148243,-0.022088768937467515
303,0.9714997118754353,0.08364386449264223,1,,0.013518543364981706,-0.9694830250505234,-0.038228012465046916,-0.010652645,0.039414786,-0.034088463
304,0.9693607011185739,0.07890212968676283,1,,0.01576724525564396,-0.9569179366823319,-0.020587021901508493,-0.030787690057245087,0.0386093829880172,-0.04294788176670647
305,0.9665969552533714,0.08097229673730669,1,,0.01892778292812688,-0.953939112744923,-0.013554014372809446,-0.037284255,0.03834952,-0.04580637
306,0.9636337681183117,0.09007115397518192,1,,0.015243830146207485,-0.9548466929058386,-0.0070721367870832325,-0.037284255,0.03834952,-0.04580637
307,0.9608443057106059,0.10566510842185763,1,,0.006287679158157276,-0.9551601209383429,-0.009453894846487804,-0.017632424750520504,-0.06069570858969346,-0.027726687055975318
308,0.9585071292530091,0.12645260010970952,1,,0.0013446157780538698,-0.9562303765297264,-0.03613954304196212,-0.010652645,-0.0958738,-0.02130529
309,0.9567831093624021,0.15045376177476455,1,,-0.019331875530273917,-0.9465384353211838,-0.07834156320630421,0.03797713369678188,-0.08506718082106968,-0.008954869737473828
310,0.9557121860061243,0.1752074937355675,1,,-0.03424456616678847,-0.9444619068653759,-0.10315120332052342,0.056459017,-0.080960095,-0.004261058
311,0.9552275712726466,0.19806230091624774,1,,-0.004484510704161021,-0.9627747828218384,-0.08944659587850436,0.06863951132660588,0.15199182960675858,0.007158154403897704
312,0.9551828990484957,0.2165294054768252,1,,0.022008732928170703,-0.9656717954960796,-0.07619170497510103,0.07350325,0.24501082,0.011717909
313,0.9553866806845143,0.22864661313219556,1,,0.047787225135482364,-0.9475265903005232,-0.058014370749293984,0.05857697596714894,0.35397261553568243,0.03858520155854187
314,0.95563869757305,0.23328558433370652,1,,0.09218123009265693,-0.935591133325875,-0.02399679651310937,0.05219796,0.40053943,0.05006743
315,0.9557644257670559,0.23033356339770933,1,,0.12964066713355862,-0.9414963167199123,0.018807730467223414,0.011854365356005665,0.3088494426422266,0.09041102003050781
316,0.9556447958826922,0.22070073388784212,1,,0.15457613734414186,-0.95179503840983,0.03671482408213048,-0.0063915867,0.26738137,0.10865697
317,0.9552382529845691,0.2061441984829324,1,,0.1638170980258437,-0.9624910874913497,0.02524867029029809,-0.017884189741831653,0.11079465993542865,0.10219238423201757
318,0.954590843789428,0.18894658093751399,1,,0.14581423489659978,-0.9615944920432876,0.01294771461566395,0.013469151133590578,0.037992572086997675,0.012484853011490417
319,0.953830118621901,0.17152430541559213,1,,0.11726023227925486,-0.9452911625886029,-0.012710261402717644,0.03195793,0.039414786,-0.03089267
320,0.9531414411995233,0.15605412609266217,1,,0.10538514265856916,-0.9406164436073093,-0.030483216146012074,0.03195793,0.039414786,-0.03089267
321,0.9527299915051803,0.14419235087788138,1,,0.08341707267647477,-0.94576609177235,-0.028960509990486483,0.020925618543047624,0.09181827254055447,-0.08260663723631381
322,0.9527759572851509,0.136926830768132,1,,0.051632196353190773,-0.9454960472039381,-0.018428802235443017,-0.004797884528539032,0.14076617486867218,-0.10602953140999877
323,0.9533923654364432,0.1345622811684776,1,,0.02988441842314805,-0.9407806516733858,-0.010377263185060985,-0.015978966,0.15233281,-0.10333065
324,0.9545945786331345,0.13680964405711032,1,,0.023477382389345096,-0.9381884473632057,-0.005716370393825554,-0.015978966,0.15233281,-0.10333065
325,0.9562883600405215,0.14293772234970017,1,,0.028472626521247428,-0.9427904397610541,-0.008368883177867804,-0.007438813348196792,0.119486071640587,-0.06785616776167445
326,0.9582799747805977,0.15194889924552266,1,,0.025659336609373525,-0.9525636039058875,-0.013960709673809222,-0.0014826598111673196,0.13405452633155007,-0.02637029615955009
327,0.9603072394705054,0.16275252456836772,1,,0.015423988664288998,-0.9639156783049952,-0.017048878508379908,-0.0010652645,0.15659387,-0.013848438
328,0.962085480016811,0.17432048097745959,1,,0.021814630210154333,-0.9756944010567516,-0.019712522003349497,-0.0010652645,0.15659387,-0.013848438
329,0.9633584098505454,0.18581451062978374,1,,0.033791875531640744,-0.98442890387473,-0.041209911845902794,-0.012316924828736066,0.21097689829629776,-0.008847699860958997
330,0.9639424614754085,0.1966746772526432,1,,0.03612957960067638,-0.9782212986868154,-0.06210261525116652,-0.020240024,0.24927188,-0.0053263223
331,0.9637549010751835,0.20665707209926748,1,,0.05787076592805747,-0.96152085745759,-0.056530431952921324,-0.04901556239225508,0.25110860871584867,-0.013897758435150486
332,0.9628207383498935,0.21581135475554736,1,,0.097341051351082,-0.9507535499360837,-0.03651818732076725,-0.1264905884776268,0.1920556920941023,0.0033206470560791517
333,0.96125930067794,0.2243975822534379,1,,0.11574297091393386,-0.9494163857842053,-0.01739526285113674,-0.16937704,0.14594123,0.02130529
334,0.959256089169431,0.2327554750527837,1,,0.10241437421260972,-0.9489218549990979,-0.02208938752392791,-0.16937704,0.14594123,0.02130529
335,0.9570277119269869,0.241152810882763,1,,0.07193012323972023,-0.9458231616128279,-0.030251036426972792,-0.15651605237598615,0.09975857790571047,0.03241250947791674
336,0.9547873853129122,0.24964793765189053,1,,0.05855161759911345,-0.9462857463874127,-0.03595870214462647,-0.11998735601957944,0.11715360167619338,0.01732169945061042
337,0.9527167011273935,0.2580013963607714,1,,0.05456309478750969,-0.9489913978205011,-0.04801100285595055,-0.098004326,0.16405073,-0.0031957934
338,0.9509469791994793,0.265662019323042,1,,0.04418698030852443,-0.9488866452930997,-0.052597555462453364,-0.10361612483978924,0.2240969824322927,-0.022275911035679448
339,0.9495511507585339,0.27183444805783114,1,,0.037788289923582,-0.9489656769024947,-0.04669170635031884,-0.10865697,0.27803403,-0.039414786
340,0.9485452463110547,0.27561257359336355,1,,0.03151590327389894,-0.9501626302666519,-0.04101162034551965,-0.13703496433796375,0.2922230220460232,-0.048146475107454456
341,0.9478975319212524,0.2761450656685592,1,,0.030934322136369968,-0.9421286502128199,-0.04473942840826075,-0.16405073,0.3057309,-0.056459017
342,0.9475430835890292,0.2727921613976091,1,,0.05962463575602049,-0.9350078317248512,-0.04726379911121082,-0.181565707774912,0.24787840037023362,-0.03788252646232146
343,0.9474016082864246,0.26523943440239633,1,,0.08306632553534209,-0.9441478852942758,-0.04566558579179988,-0.19920446,0.18961707,-0.01917476
344,0.9473959819456099,0.2535507415126727,1,,0.07151289188705648,-0.9546019855044721,-0.051825992400565075,-0.18012236495237596,0.15661020969466133,-0.00731291876684212
345,0.9474681497518251,0.2381617012941899,1,,0.0468456650467314,-0.9558214817696077,-0.06662822931077189,-0.15978967,0.12144015,0.0053263223
346,0.9475885117503277,0.2198295595419527,1,,0.03594417623450254,-0.9517017302697985,-0.08726261584416897,-0.1592914076358793,0.09004978289615316,-0.00015453517359014638
347,0.9477558285101462,0.19956079971512514,1,,0.05077954099287372,-0.9449669384746919,-0.09655324284621046,-0.1587244,0.054328486,-0.0063915867
348,0.9479873286342022,0.17853410416408086,1,,0.07546800576193623,-0.9368104710248614,-0.08493838929702027,-0.16737055352726993,0.06873873466417485,-0.00927363643283497
349,0.9483021439079898,0.15802632926291774,1,,0.09063703706947314,-0.9290074565030451,-0.0747624764396964,-0.17789917,0.08628642,-0.0127831735
350,0.9487039307519677,0.1393381350438745,1,,0.08732775059900272,-0.9258225653876051,-0.07518793797166008,-0.17789917,0.08628642,-0.0127831735
351,0.9491693200843195,0.12370950802641295,1,,0.08498996089388323,-0.9306122621012821,-0.07944812426762499,-0.1453838491164891,0.07666921011383758,-0.02789592731712616
352,0.9496471647648941,0.11221766739545473,1,,0.08457653537569382,-0.9402166420168518,-0.08295197517814709,-0.06574859529102932,0.03957133415803414,-0.055150093211975955
353,0.9500698645770516,0.10566045799904822,1,,0.08350538028114972,-0.9472792850033184,-0.08236923245146795,-0.015978966,0.0063915867,-0.06498113
354,0.9503736718240953,0.10444185050599321,1,,0.07719627697974246,-0.9532733787376432,-0.08197080212823589,-0.0029035814102882198,-0.015836568043540396,-0.06105851445942901
355,0.9505214872602412,0.10848490632677772,1,,0.0688211231982515,-0.9574062571811064,-0.0862131046027363,0.015978966,-0.0479369,-0.05539375
356,0.9505204617570523,0.11719675141225469,1,,0.07078821275789703,-0.9551896080550156,-0.0838647397968024,0.0008700287799582619,-0.07815477365212384,-0.049518052038991615
357,0.9504280231344125,0.12950061129652068,1,,0.07570961958656104,-0.9520415986000237,-0.0773436259501515,-0.022370555,-0.12463594,-0.040480047
358,0.9503432203026517,0.14393648029299472,1,,0.08043865611083788,-0.948040489391829,-0.07337816302841911,-0.022370555,-0.12463594,-0.040480047
359,0.9503845058704516,0.15881934868316977,1,,0.08489907086187085,-0.9378820417654328,-0.07255744120762554,-0.025542157887841112,-0.1452513597013709,-0.03453329181789883
360,0.9506590930418746,0.17243471107212607,1,,0.08286837945508291,-0.9293728479649943,-0.0759426723185003,-0.03089267,-0.18002969,-0.024501082
361,0.951231709030647,0.18324554731546355,1,,0.07760127715091925,-0.9308804194600498,-0.07993606312275603,-0.022482545416971523,-0.20029044521558245,-0.024118803789291203
362,0.9521010591084786,0.19008242296911504,1,,0.07021213231676209,-0.9409633896139218,-0.08035160173187994,-0.007456851,-0.23648871,-0.023435818
363,0.953190362726784,0.19228901073922608,1,,0.0598870707932743,-0.9455595859025165,-0.07791576472110222,-0.005621090098909982,-0.2309814259180969,-0.02013144824017466
364,0.9543546513319925,0.18980039932615383,1,,0.05563238890676734,-0.9482747740330032,-0.08169949374172947,0.0025526065171487186,-0.20682057448610192,-0.005923131792236118
365,0.955403556402895,0.18314149880809047,1,,0.06265492072626824,-0.9523175836459458,-0.09106548068509099,0.011717909,-0.18002969,0.00958738
366,0.9561353074822014,0.17334580572242686,1,,0.06885376717347207,-0.9494382336793433,-0.09750648684400359,0.012745202710404734,-0.17557808274292255,0.007190361128087693
367,0.9563760364346561,0.16180706926157648,1,,0.06630412957576809,-0.9461239057170391,-0.10160723069147885,0.014913702,-0.16618125,0.002130529
368,0.9560179794388561,0.15008500148829848,1,,0.053501110739902186,-0.9486318664567109,-0.10996158532333876,0.008157016657076407,-0.1507373985642641,-0.008165371655122468
369,0.9550502380137543,0.13969070860055618,1,,0.03667678099108647,-0.9567856864538755,-0.11705399192661814,-0.007456851,-0.11504856,-0.03195793
370,0.9535760334593554,0.13187935340411666,1,,0.02019166755807604,-0.964096664970758,-0.12389008870706666,-0.007456851,-0.11504856,-0.03195793
371,0.951811114022349,0.1274775319801805,1,,0.014128021430059737,-0.9640229619201849,-0.1188996635947029,-0.016950670441272516,-0.08122682801069973,-0.03462806757078057
372,0.9500600078610035,0.12677040512496238,1,,0.0188930099125856,-0.9493251334964243,-0.10541918518262373,-0.04676964563531314,0.03164252558192784,-0.029355204861732744
373,0.9486707857563341,0.12946759960829937,1,,0.023993056887338823,-0.9365030670716706,-0.09632578503885401,-0.060720075,0.099069595,0.0031957934
374,0.9479742871726669,0.13475654594995218,1,,0.03286828862172365,-0.9322268413108653,-0.09644507281017788,-0.060720075,0.099069595,0.0031957934
375,0.9482184981581664,0.14143800809583484,1,,0.04359014355574724,-0.9340962247262581,-0.10055846665927114,-0.05167588912104282,0.11157185032721872,0.01862410938891599
376,0.9495110874306558,0.14812383818418956,1,,0.057753235458790624,-0.9305124260211305,-0.10269265957116984,-0.012606855441573535,0.15482556372763012,0.07532393633618457
377,0.9517824388907256,0.1534648933046712,1,,0.07405640347724439,-0.9219644947223407,-0.10170984562742957,0.024501082,0.17257284,0.10759171
378,0.9547784931591883,0.15637016402095547,1,,0.0851689874655623,-0.923855158256821,-0.0989625678485771,0.024501082,0.17257284,0.10759171
379,0.9580880250963534,0.1561783340236958,1,,0.08626512159767191,-0.936078817546487,-0.10789299018489554,0.035422027275436904,0.1635107795929613,0.10828879089861912
380,0.9612028939041465,0.152751205796963,1,,0.07392861828287543,-0.9500451107963546,-0.11965831746010512,0.07456851,0.13102753,0.1107875
381,0.963602809878809,0.14647342435423383,1,,0.06812886286012843,-0.9633446001908917,-0.12424273443874077,0.07936632480582076,0.11227243397240416,0.10686201486109723
382,0.964849690509919,0.13816114780046046,1,,0.07968995111811296,-0.9790309508896572,-0.12196135171430705,0.09100854009744863,0.032630993186911164,0.08588891506209131
383,0.9646726998099415,0.12889973670091873,1,,0.10279918464704846,-0.9889484189754286,-0.12677200528061203,0.0628506,0.0053263223,0.0628506
384,0.9630252149500161,0.11984379502736327,1,,0.11332356208645543,-0.9788275727369763,-0.13103063268404172,0.0628506,0.0053263223,0.0628506
385,0.9600999578748045,0.11201922678850103,1,,0.09421011956842246,-0.9612593600978212,-0.11510237594265195,0.05164440061762474,0.012236812724176177,0.05220471063495853
386,0.9562977241807581,0.1061649190737432,1,,0.06064677822478825,-0.9427835739644669,-0.07859496938150809,-0.0010652645,0.04474111,0.002130529
387,0.9521561919844524,0.10264200338917469,1,,0.036655770509261346,-0.9302452031458129,-0.05635019514203731,-0.005686766623839975,0.0541552801152182,-0.0028333065460569885
388,0.9482546819950322,0.10142360986113612,1,,0.029773687786215614,-0.9240977060984833,-0.06176703703889118,-0.026687672748886657,0.1071313780654598,-0.02248267565289823
389,0.9451154345599008,0.10216017696629881,1,,0.043672412181286625,-0.919095060201968,-0.07225478247294603,-0.00958738,0.12783173,0.011717909
390,0.943120971838303,0.1042983233062869,1,,0.06489862908702075,-0.923766237188923,-0.07173869023849362,-0.0057138706885347095,0.13245014641674885,0.01752817303712476
391,0.9424616074711636,0.10721994245733003,1,,0.07496174221490043,-0.9324318618643874,-0.0699741865629854,0.018109497,0.16085494,0.053263225
392,0.943119482678984,0.11036627583395624,1,,0.08531995047361682,-0.9359547936776118,-0.07064364065497758,0.021141397831973444,0.1520228810600663,0.054185977260334826
393,0.944887986057971,0.11331952710075897,1,,0.08813256817267717,-0.9386151805829223,-0.06930391666531728,0.04261058,0.08948222,0.060720075
394,0.9474196756015769,0.11582937750445323,1,,0.0762965034957379,-0.9415532196590635,-0.0686851550827872,0.04342198561738383,0.0788180295230061,0.06025641455394056
395,0.9502924069162096,0.11778889474083008,1,,0.058253803075673766,-0.9474813628073113,-0.06791305965461018,0.05006743,-0.008522116,0.056459017
396,0.9530818771967153,0.11917805890712471,1,,0.05073821317260192,-0.9613171115610024,-0.07636412630941947,0.05056860203873219,-0.015939465748788968,0.056960189321012655
397,0.9554285881921104,0.11999882061207263,1,,0.053064759344273627,-0.975383225402014,-0.09199000289871422,0.05539375,-0.08735169,0.06178534
398,0.9570882651607622,0.12022234606641748,1,,0.05931536209944366,-0.9685424424780074,-0.08944851500229192,0.05539375,-0.08735169,0.06178534
399,0.9579576640985373,0.11976018371829165,1,,0.06132900572206934,-0.9560126561453645,-0.06943418881200075,0.054354100298027515,-0.08824281803713226,0.060968472342166104
400,0.9580727759158193,0.11846173223126724,1,,0.0542138165514645,-0.9475488058272861,-0.05781977482221452,0.040480047,-0.10013486,0.05006743
401,0.9575826066518182,0.11613429349649308,1,,0.03982102878484879,-0.9436146542379352,-0.06474998968189065,0.040598952363723115,-0.09965923921482933,0.04858111577187356
402,0.956706740473176,0.11257953082753237,1,,0.035876044144656616,-0.9467865861374034,-0.07787480995277608,0.04261058,-0.09161274,0.023435818
403,0.9556870199304398,0.10763962912662652,1,,0.03519550344654522,-0.9498042433226782,-0.08155673923369475,0.0428359225492287,-0.0917028771043062,0.02312033826185037
404,0.9547428728514311,0.10124623086976353,1,,0.029972417832593284,-0.944438785833383,-0.07545303565081767,0.0479369,-0.09374327,0.015978966
405,0.9540373845309225,0.09346458390516575,1,,0.02179284879059242,-0.9389358924914232,-0.06882955389544079,0.04781585842384235,-0.09368274915510823,0.01619078887190177
406,0.953658420971537,0.08452457355406313,1,,0.01546692473057679,-0.9439066980915293,-0.06738851533245573,0.04362548958342756,-0.09093295604986047,0.02381347578159042
407,0.9536162967478441,0.0748305141805035,1,,0.018959188264596166,-0.953242372124229,-0.06678452008162816,0.041545313,-0.0628506,0.039414786
408,0.9538564850190175,0.06494382549391321,1,,0.03042655905508955,-0.9558970499267113,-0.07507693788627363,0.041480247020634776,-0.06243231865920584,0.03934971996828078
409,0.9542829802735902,0.05553715778576096,1,,0.046623431627159595,-0.9563806356494267,-0.08643892726630445,0.03409910805190024,-0.01498213448384323,0.03196857506046556
410,0.9547860476546598,0.047324217624706975,1,,0.054899986099690955,-0.9554103766605991,-0.0874262749682853,0.034088463,-0.014913702,0.03195793
411,0.9552679264515821,0.040974989268719716,1,,0.05471058937799537,-0.9558839782587014,-0.07927837301537284,0.016305627479027956,0.016467769618413515,0.0058067067281359274
412,0.9556614827052146,0.037029785367462306,1,,0.04921715390170218,-0.9544608780816524,-0.06982110338431516,0.015978966,0.017044231,0.0053263223
413,0.9559391119909805,0.0358266031388134,1,,0.047202195877427,-0.9523048307469061,-0.06724530482972849,0.0067201442889474475,-0.00250217177421312,-0.011133806570528934
414,0.956111603128776,0.03745430700996062,1,,0.0485432162834069,-0.9534028620367655,-0.0692735753348007,0.0063915867,-0.0031957934,-0.011717909
415,0.9562186477536779,0.041739499701710696,1,,0.047903806047508914,-0.9525215419277253,-0.0695918856593892,0.01044389310521962,-0.04777115938767175,-0.013744062059958402
416,0.9563139819345853,0.04826844366598374,1,,0.046019417861827026,-0.9466971884109022,-0.06706217548094051,0.010652645,-0.05006743,-0.013848438
417,0.9564487668378414,0.056438689009836014,1,,0.041568170321123456,-0.9481979849493971,-0.06394384491101442,0.010652645,-0.05006743,-0.013848438
418,0.9566567781082644,0.06553015812556051,1,,0.03717848812258564,-0.9533273191578078,-0.06032965939762833,0.014622274039688656,-0.0788472421680544,-0.012856030507176174
419,0.956944253967567,0.07478344325519574,1,,0.04070548029611885,-0.9532444805623573,-0.059628801405866384,0.01687788725432243,-0.08685265813835717,-0.01671154354768299
420,0.957285999033476,0.08347370364445715,1,,0.04214923425069875,-0.9536541794141173,-0.05936674534305587,0.017044231,-0.08735169,-0.017044231
421,0.9576279877528815,0.09097106518931397,1,,0.03671277758576974,-0.9536947887402937,-0.05823884333508081,0.011246853145175697,-0.09025037620631389,-0.024774069349142745
422,0.9578956621972184,0.09678222648695048,1,,0.03372233204587278,-0.9567784521864723,-0.05944686255372978,0.010652645,-0.09054748,-0.025566347
423,0.9580064585550915,0.10057212680253742,1,,0.03279994239306722,-0.9582119075650289,-0.06112774643352247,0.010652645,-0.09054748,-0.025566347
424,0.9578847343915028,0.10216778082582627,1,,0.027481958808744066,-0.9530909982740284,-0.059770715038183514,0.002074997290642652,-0.10103127209211062,-0.030331707285872388
425,0.9574771612329303,0.10154801532713811,1,,0.023836977867599744,-0.9518248983918789,-0.058941881722553664,0.0010652645,-0.10226539,-0.03089267
426,0.9567667001602439,0.09882315908078196,1,,0.01979074337578719,-0.9530309188674821,-0.06380267600246142,-0.008312072763592417,-0.09195031808575165,-0.03089267
427,0.9557832239789387,0.09420866851409757,1,,0.020571734083786312,-0.9585316251205119,-0.06575318047763745,-0.00958738,-0.09054748,-0.03089267
428,0.9546085221797371,0.0879969107809304,1,,0.028170265949886693,-0.9605825843307972,-0.06784623437638071,-0.01974714281324331,-0.06560988273211708,-0.029969054804692166
429,0.9533731524836657,0.08053174109614912,1,,0.03684818814491622,-0.9599394284611485,-0.0727470794691106,-0.02130529,-0.06178534,-0.029827405
430,0.9522430986857071,0.0721903179136899,1,,0.041221348284233905,-0.9560535951275355,-0.07580119476896859,-0.03855649934088585,-0.02819087683357932,-0.027103529930631868
431,0.9513959596189049,0.06337501226553599,1,,0.040938992898842445,-0.9494353629823777,-0.0753745873311318,-0.05142103102797883,0.00994996898960263,-0.0221426506391176
432,0.9509892399362334,0.05451506061728885,1,,0.03914962763950588,-0.941369828142799,-0.07133601176190134,-0.053263225,0.015978966,-0.02130529
433,0.9511263774056722,0.046073412039249535,1,,0.03337427757376494,-0.9351673284280502,-0.06815525966734834,-0.05149996207770326,0.029203422606317607,-0.016015505371193006
434,0.9518282495640401,0.03855048602536137,1,,0.031836096519405395,-0.9323502966488159,-0.06604415504220477,-0.051132694,0.03195793,-0.014913702
435,0.9530180245940599,0.03247505882767341,1,,0.03987794625222796,-0.9343380733584993,-0.06926501842156985,-0.027783254200537934,0.04147066921311185,-0.007130555373118923
436,0.9545248913420168,0.02837442545839835,1,,0.05101287668988317,-0.9463051694385674,-0.07560327461130875,-0.022370555,0.043675844,-0.0053263223
437,0.9561078199468553,0.02672125995626031,1,,0.056157871079199236,-0.9580001459024893,-0.08159782291822633,0.00307666782974576,0.024166306099058697,-0.00023687789330533604
438,0.9574953655598779,0.027861861307532536,1,,0.05593907878302998,-0.9591307477842722,-0.0880036115989591,0.00958738,0.01917476,0.0010652645
439,0.9584333916957768,0.031937634561736955,1,,0.05320194028823498,-0.9601595414171727,-0.09453913473928013,0.00958738,0.01917476,0.0010652645
440,0.9587307902816675,0.038816625739079444,1,,0.04739341713127952,-0.9650795936675521,-0.09806383377321984,0.004629672510762649,0.00017021436603633096,-0.004718727700053821
441,0.9582940443851068,0.04805327604868795,1,,0.04535214674051745,-0.9620861201943761,-0.09136087152421696,0.0031957934,-0.0053263223,-0.0063915867
442,0.9571441489337141,0.05889167407788415,1,,0.04778396786661144,-0.9572453891911256,-0.08189189062475229,-0.028426980800434966,0.016566367724288777,-0.02098671345897553
443,0.9554130942916845,0.0703204856572369,1,,0.04768171158678716,-0.9546669277898079,-0.07649286834466706,-0.03834952,0.023435818,-0.025566347
444,0.9533210530845321,0.08117738903374697,1,,0.05521910577667717,-0.9488961035211557,-0.0718188820574062,-0.06856853147986851,0.04967864254083312,-0.03669966505438271
445,0.9511388937729934,0.09028958745496832,1,,0.0645570328357072,-0.9415074144769747,-0.0696785916192209,-0.07882957,0.058589544,-0.040480047
446,0.9491431254724747,0.09662794291977377,1,,0.07139317921636534,-0.9361282357005438,-0.06953865749259423,-0.09054315923639461,0.07655038366364914,-0.042822767926144034
447,0.9475715418044219,0.09944799344499289,1,,0.07213772197614118,-0.9318796318480913,-0.06712509989744128,-0.094808534,0.083090626,-0.043675844
448,0.9465875273059149,0.0983926056828773,1,,0.07109946658996327,-0.9319669786446313,-0.06372631053540671,-0.08408538768648677,0.08232468882649664,-0.043675844
449,0.946259212696758,0.09353779077097778,1,,0.07203971501928853,-0.9326209037488138,-0.06276557845951472,-0.07989483,0.082025364,-0.043675844
450,0.9465566544071115,0.0853737160658178,1,,0.07511488452439605,-0.9375081970037977,-0.0665500854778033,-0.05138207770217914,0.06101596534571418,-0.033921479332844943
451,0.947366503201282,0.07472501298305155,1,,0.07381798363857614,-0.9461595914886624,-0.07697819457312272,-0.039414786,0.05219796,-0.029827405
452,0.9485199969568171,0.06262566120211244,1,,0.06806159942039952,-0.9522554758623633,-0.09060941908860973,-0.009286408137862263,0.02794828939088276,-0.020274504247978702
453,0.9498274841675355,0.050171619961892656,1,,0.061946244845554325,-0.9520306041573512,-0.09816525635608947,0.008616612884997092,0.007607196029145749,-0.014527115053118876
454,0.9511118560020928,0.03837716877761095,1,,0.05744121335804692,-0.9502633982033702,-0.09865419501613927,0.010652645,0.0031957934,-0.013848438
455,0.9522344719501632,0.028058052672541696,1,,0.05439343395664527,-0.9472009394716204,-0.09688490097642206,-0.0013335100524191378,0.002490725502460375,-0.010323098512301876
456,0.9531098191327456,0.019757091261496582,1,,0.0515717333687509,-0.946836340531391,-0.0971809363487198,-0.007456851,0.002130529,-0.008522116
457,0.9537081395530602,0.013718322004896052,1,,0.051974659311581045,-0.9490809685478397,-0.09847865822236686,-0.007456851,0.002130529,-0.008522116
458,0.9540476537374607,0.009906622607047248,1,,0.05618230410764234,-0.9486284257828803,-0.0990666366758576,-0.012897106810102865,0.005530688961110441,-0.005121955655868033
459,0.954179500881642,0.008062838669072184,1,,0.06074749912451636,-0.9438231057402551,-0.096532775726579,-0.015978966,0.007456851,-0.0031957934
460,0.9541693054920448,0.007780417440927354,1,,0.06393002837733323,-0.9408826185950954,-0.0915470896745092,-0.015323542198643856,0.014011092705174796,-0.0031957934
461,0.9540795514209114,0.008588463729907599,1,,0.064228268861636,-0.9400656066488197,-0.0896801264826999,-0.014913702,0.018109497,-0.0031957934
462,0.9539565484996624,0.010027700517378996,1,,0.06097443124739211,-0.9416679794671231,-0.09162267858305043,-0.009194565230101797,0.018744955799333052,-0.002560333765528284
463,0.9538244724040137,0.01170946566151889,1,,0.05680296417221483,-0.9476911398959935,-0.09682881748995946,-0.0009386605511316806,0.014160289883778567,0.0010035151315519466
464,0.9536868752000389,0.013352723230522126,1,,0.05349092453134527,-0.9522861151880176,-0.10077921159471563,0.002130529,0.010652645,0.0031957934
465,0.9535338608396128,0.014798939506012762,1,,0.051983191328568726,-0.9511007353251977,-0.09977232287946601,0.002130529,0.010652645,0.0031957934
466,0.9533516609383964,0.016008388727113933,1,,0.05121990887630288,-0.9512097587524067,-0.09689442408719101,-0.0045337486503573094,0.00701758430833442,0.001984106559650724
467,0.9531311604772902,0.017043301793922352,1,,0.05093585855701698,-0.9511011598087065,-0.09353968091270248,-0.00958738,0.004261058,0.0010652645
468,0.9528729020330238,0.01804324772945033,1,,0.05280734509729453,-0.9482669955972535,-0.09101384323874732,-0.015507804371511195,0.00899739766394008,-0.0013029054153356032
469,0.9525876863467512,0.01919677639027587,1,,0.05784436020566243,-0.9452447520579549,-0.08821378677022204,-0.020240024,0.0127831735,-0.0031957934
470,0.9522934863873742,0.020711494836685346,1,,0.06307206187473526,-0.9417985793666228,-0.08525869596677232,-0.020819962634507364,0.018002614405474474,-0.005515544453822452
471,0.9520105371285944,0.022783384498811992,1,,0.06666756983598394,-0.9406737005096051,-0.08478159347016341,-0.02130529,0.022370555,-0.007456851
472,0.9517568245565048,0.0255660779869302,1,,0.0677506206323113,-0.943308169176343,-0.08458771306950796,-0.01397376403809405,0.019550736630036227,-0.00971270506067695
473,0.9515456637523074,0.029142143512672466,1,,0.06740583175702203,-0.9464214048590532,-0.0850325854640557,-0.007456851,0.017044231,-0.011717909
474,0.9513858768992943,0.033500473680431464,1,,0.06929050751130618,-0.9475892379150883,-0.08684637174218798,-0.0008803448644528028,0.004439260988324964,-0.013362035366685397
475,0.9512838272234015,0.038525307789041785,1,,0.07069702650319169,-0.9472170736952383,-0.0873042594314479,0.0053263223,-0.007456851,-0.014913702
476,0.9512458175389262,0.04400180170347903,1,,0.06739698012305992,-0.9469790517116222,-0.0870662374478318,0.0058605635019389635,-0.025086812569725395,-0.01705066700836002
477,0.9512793761490735,0.049639672485391216,1,,0.05977482927485719,-0.9467392340464134,-0.08634433501359717,0.005340202532838576,-0.058381342260678815,-0.022854605349966885
478,0.9513925730670005,0.055111039448914524,1,,0.05056446010783279,-0.9466052039856403,-0.08453010229565013,0.004261058,-0.07456851,-0.026631612
479,0.9515913741867557,0.060093506157639434,1,,0.04486253349297157,-0.9459218374494645,-0.08118776519532266,0.004261058,-0.07456851,-0.026631612
480,0.9518758175824913,0.06430758445709872,1,,0.046133109770269604,-0.9458235524046026,-0.07760427597943823,0.004261058,-0.07356445906249452,-0.018599170568489948
481,0.9522362752080473,0.06754006469569547,1,,0.05213109810698455,-0.9467432523939686,-0.07927512756833484,0.011675324315334882,-0.06354086773038867,0.0007925933518706343
482,0.9526511613459869,0.06965063544834149,1,,0.059270665812128434,-0.9453864603352587,-0.08566819395588444,0.020240024,-0.053263225,0.0127831735
483,0.9530872007746255,0.0705650467410113,1,,0.0670933934603484,-0.9424998452551426,-0.09037326538898492,0.024067837151442773,-0.053263225,0.0127831735
484,0.9535028692149189,0.07026177648943835,1,,0.0718018691398184,-0.9421524774887479,-0.09158401696807779,0.02876214,-0.053263225,0.0127831735
485,0.9538549044354856,0.06875949143743708,1,,0.07169562579387728,-0.946688165213821,-0.09328388122595313,0.02876214,-0.053263225,0.0127831735
486,0.9541068450790531,0.06611024214407869,1,,0.07176673423553721,-0.9517393146737239,-0.09716433820662229,0.026026063109867013,-0.05691132823363542,0.007767031179185782
487,0.9542375428721469,0.062399762952460476,1,,0.06998785174356685,-0.9539006539336028,-0.09909044772261594,0.022370555,-0.06178534,0.0010652645
488,0.9542469920271309,0.05775282340416073,1,,0.0660496151659499,-0.9530713275572811,-0.09805996779677471,0.016197397511475618,-0.0631081579243903,-0.0024622536213798206
489,0.95415717598665,0.05233920894431805,1,,0.06258309825204605,-0.9493060452044494,-0.09610576848255377,0.007456851,-0.06498113,-0.007456851
490,0.954007071826898,0.046375177280008194,1,,0.058562163738034294,-0.9442637597451079,-0.09314407068131991,0.0031865229320567124,-0.05772157287778436,-0.008737949692974745
491,0.9538429571184508,0.04011643023550991,1,,0.05752590974633223,-0.9419647242967212,-0.09061449058133107,-0.002356451027232495,-0.03763886986016149,-0.007714946518031902
492,0.953706838131494,0.033841497765485104,1,,0.059800270117908096,-0.9427989848387359,-0.0908167194812983,-0.0010652645,-0.023435818,-0.0031957934
493,0.953626422118064,0.027827883974463775,1,,0.06269036730542277,-0.9435976804589938,-0.09305809017472691,-0.0010652645,-0.023435818,-0.0031957934
494,0.9536094121018831,0.02232581742384635,1,,0.06650816700764761,-0.9447494298483372,-0.09445219390162093,0.0025014661080397524,-0.018283873974398762,-0.0012142764327358181
495,0.9536434132319735,0.01753494515876298,1,,0.06866880504997058,-0.9458853102786351,-0.09609873037590676,0.008522116,-0.00958738,0.002130529
496,0.9537010508737742,0.013588037255442912,1,,0.06701941957109302,-0.9481141523052795,-0.09824731158829692,0.008903717116591162,-0.00844257618453777,0.0009857251128933494
497,0.9537485339961352,0.01054375646676136,1,,0.06528029062951063,-0.950342727726766,-0.09724683206433202,0.007339932826701489,-0.005642437700838141,-0.002938137156136288
498,0.9537551385950919,0.008388649426524996,1,,0.06437657032590681,-0.9522986854278295,-0.0956446009364452,0.0031957934,-0.004261058,-0.0063915867
499,0.9537010629254294,0.00704706713870567,1,,0.06267861996693641,-0.9493596262749955,-0.09492094727455667,0.0006859764027200471,-0.00246833154933013,-0.006750131922818243
500,0.9535818187303146,0.006396777817617331,1,,0.062424766213493,-0.9445067973761635,-0.09443881308793411,-0.004261058,0.0010652645,-0.007456851
501,0.9534085398376297,0.006287561874172561,1,,0.06376086654787402,-0.9442900238389629,-0.09354699965570884,-0.004261058,0.0017486961248089682,-0.007456851
502,0.9532048110806406,0.006560022913718414,1,,0.06200520010219398,-0.9466883869203253,-0.0922129423969641,-0.004261058,0.0031957934,-0.007456851
503,0.9530013287675316,0.007062178513584408,1,,0.060248841123551646,-0.9469310651440406,-0.09021390683955237,-0.004261058,0.00092128249624444,-0.007131920927539184
504,0.9528297562307839,0.00766206258147474,1,,0.06015153427763446,-0.9468835233963111,-0.08936747492897576,-0.004261058,-0.004261058,-0.0063915867
505,0.9527168316351116,0.008255438891211062,1,,0.059186909798307756,-0.9465101798751192,-0.0884489839439788,-0.004261058,-0.004261058,-0.0063915867
506,0.9526794979286237,0.008768590873220912,1,,0.055861769881010256,-0.9463025931688764,-0.09004199440567541,-0.0036569624364901224,-0.005771296767003433,-0.0051833956580430015
507,0.9527216883460842,0.009156856197292455,1,,0.05486849025115805,-0.944699532858895,-0.09116485265255879,-0.002130529,-0.00958738,-0.002130529
508,0.9528333153033659,0.00940005926251792,1,,0.056058670112154645,-0.944564223204936,-0.08836192561320047,-0.00041154370425659336,-0.008154892388019655,-0.0009845388028377289
509,0.9529918156234519,0.0094962773675213,1,,0.05635149890763632,-0.9460209772228799,-0.09011835738293113,0.004261058,-0.004261058,0.002130529
510,0.9531661973607514,0.009455463475776544,1,,0.05679440555371767,-0.9474745441891808,-0.09322636692311374,0.005347815706135176,-0.00290261086733103,0.0018588395734662059
511,0.9533229441823661,0.009294270775042203,1,,0.05904030660778252,-0.9489927384340042,-0.09249948592974763,0.008522116,0.0010652645,0.0010652645
512,0.9534325618657141,0.009032899998994629,1,,0.0603824727181404,-0.9498617561825005,-0.09316762911450713,0.007232408578616819,0.003386737814904807,0.0002914400616983977
513,0.9534752721218915,0.00869399086647398,1,,0.060683196226285874,-0.9485083876887187,-0.09313308983533793,0.0031957934,0.010652645,-0.002130529
514,0.9534445391877262,0.008302777152008613,1,,0.06043911316133376,-0.948265823098795,-0.09194039768949037,0.0024619406151730468,0.01089726248778125,-0.0018859113974033202
515,0.9533477038960652,0.007887251375822397,1,,0.05815069603133736,-0.9475852765914825,-0.0917695613986947,0.0,0.011717909,-0.0010652645
516,0.9532037721459077,0.007477161053017675,1,,0.05702333212231319,-0.945774165826546,-0.08961064681783266,0.00023012753253696006,0.008956378717570749,-0.0015255195434710662
517,0.9530390946878355,0.007101302263437676,1,,0.05558037394305665,-0.9456480053953397,-0.0886533280987901,0.0010652645,-0.0017372517012291366,-0.002523806219798104
518,0.952882088173849,0.006783542276630532,1,,0.05534221185852813,-0.946464768113542,-0.08870252137242053,0.0010652645,-0.004261058,0.0
519,0.9527582009599401,0.006538821236275115,1,,0.05621417679538711,-0.9459274954120135,-0.08899317192603504,0.0010652645,-0.004261058,0.0
520,0.9526860668630551,0.006370612752307747,1,,0.057712221378452166,-0.9461239057170391,-0.08956861279659252,0.001264397571921707,-0.002468860390091233,0.0005973991970718227
521,0.952675364477064,0.006270857012467204,1,,0.05963340210273034,-0.9462124363067101,-0.09045142719554576,0.002516687829238732,0.00590556058010814,0.0028096345888862888
522,0.9527264656079943,0.0062224785128374635,1,,0.061948944514904014,-0.946654328519629,-0.09068342397283068,0.004261058,0.008522116,0.0010652645
523,0.9528316040378138,0.0062036835492886525,1,,0.061788035008277474,-0.9470189723584287,-0.08991503891873046,0.0037298360400791542,0.008167967976851825,0.0007111165267194362
524,0.9529770635210649,0.006192696964877405,1,,0.06312442650220833,-0.9476807175765837,-0.08988942459292804,0.0010652645,0.0063915867,-0.0010652645
525,0.9531457959056028,0.006171668876016125,1,,0.06348451474334806,-0.9470776780186337,-0.08843221943435561,0.0009045251204646169,0.00607010798619669,-0.001226003879535383
526,0.9533199427291972,0.006129052164688607,1,,0.06196398248516847,-0.9481840649455583,-0.08736027985979598,0.0,0.004261058,-0.002130529
527,0.9534829157740511,0.006060428738839233,1,,0.061842862187364345,-0.9471129250647281,-0.08857488090242627,0.00043386415523967816,0.004405679362453057,-0.002130529
528,0.9536209281237271,0.005968179577644799,1,,0.06377340632022523,-0.9457591863850267,-0.08953742852684364,0.0031957934,0.0053263223,-0.002130529
529,0.9537240705717559,0.005860446357798825,1,,0.06383838329912314,-0.9466716758550222,-0.08904586361496068,0.0031957934,0.0053263223,-0.002130529
530,0.9537871062373091,0.005749664971287889,1,,0.06273802933628249,-0.9472660959500508,-0.09017376601088493,0.0031957934,0.005206159667974459,-0.002250691643305618
531,0.9538100565667014,0.0056507952447140295,1,,0.0625476310497067,-0.9486450682681139,-0.09058083855575902,0.003081163132468549,0.003802536886831262,-0.0031957934
532,0.9537984334137287,0.005579373189921087,1,,0.0629096983585232,-0.9491547750210918,-0.09031485590406636,0.002130529,0.0,-0.0031957934
533,0.953762803551156,0.005549638873431362,1,,0.0643220025606254,-0.9477880108246427,-0.08980612958123546,0.0018325593464901231,-0.0004966160705355116,-0.0031957934
534,0.9537174122804153,0.005573075899304599,1,,0.06512579887766214,-0.9474065261378096,-0.08934680840519417,-0.0010652645,-0.0053263223,-0.0031957934
535,0.953677859050076,0.005657588780202957,1,,0.06396070343747101,-0.9479039733387279,-0.09152611328139992,-0.0010652645,-0.0053263223,-0.0031957934
536,0.9536581825954851,0.0058072645328798795,1,,0.06082913745378584,-0.9458623321102345,-0.0907645822957657,-0.0010652645,-0.005477692860254947,-0.0032714786978895625
537,0.9536680166560094,0.0060224074039461565,1,,0.060975372754148396,-0.945667715526022,-0.08951733366162912,-0.0009245773244775864,-0.007175476675368739,-0.0043314015745544235
538,0.9537106101466645,0.006299493474272987,1,,0.05978013297101201,-0.9460417698587998,-0.08782482594876313,0.0010652645,-0.0031957934,-0.0053263223
539,0.9537823940773716,0.0066309110960719245,1,,0.058857995339896906,-0.9448573339875175,-0.08642226468908813,0.0012820006123675618,-0.003141609374451329,-0.005163770218267549
540,0.9538743786282412,0.007004733506329599,1,,0.05880534289080171,-0.9487154082968264,-0.0904857516853345,0.0053263223,-0.002130529,-0.002130529
541,0.9539750316183647,0.007405132532170334,1,,0.05738504509378894,-0.9526495869864884,-0.09375922016929594,0.005193691260995345,-0.002064213477385041,-0.002163686758194848
542,0.9540736487032454,0.007814206601347351,1,,0.057189912778840786,-0.9504629586898521,-0.09299749630607462,0.0010652645,0.0,-0.0031957934
543,0.9541629361655286,0.00821584265948724,1,,0.05909818899084174,-0.9478375856123143,-0.09062724560641201,0.0009599155977381035,0.00012290704824356377,-0.003230909700204551
544,0.9542398400608256,0.00860169228099759,1,,0.058864034009903136,-0.9480764747554089,-0.09183306587738845,-0.0053263223,0.007456851,-0.0053263223
545,0.9543044324668155,0.008978420628802027,1,,0.0600800823275704,-0.9478328136305275,-0.09280460640764254,-0.005326975060528226,0.0074588092818604216,-0.005326975060528226
546,0.9543574626367957,0.009374312009306177,1,,0.06321701713546952,-0.9454197070287864,-0.09111548921495548,-0.0074320178174088775,0.013773938441736341,-0.0074320178174088775
547,0.954397641829978,0.009842602873423792,1,,0.0644551463613257,-0.946352127439527,-0.09061511879414291,-0.007456851,0.013848438,-0.007456851
548,0.954419775903432,0.010459100972942755,1,,0.063524267303618,-0.9456549754469898,-0.0917957117659879,-0.00434617460719481,0.006590192142534046,-0.008493743779845759
549,0.9544145518350258,0.011312910525075175,1,,0.06302515355428764,-0.9470547469003723,-0.09277443200216116,-0.004261058,0.0063915867,-0.008522116
550,0.9543702163630003,0.012491038453095616,1,,0.06300980457138779,-0.9480371892574448,-0.09163463299945661,-0.004261058,-0.001777281105259256,-0.009543224032328369
551,0.9542757094075837,0.014059552335043485,1,,0.06231106609754584,-0.9508725969771685,-0.09111818807724116,-0.004261058,-0.002130529,-0.00958738
552,0.954124255362666,0.016045126199380734,1,,0.059971957361380064,-0.9505474117155166,-0.0920176341503836,-0.004261058,-0.002130529,-0.00958738
553,0.9539162029347531,0.018420995502662102,1,,0.058459029666613434,-0.9493734638690211,-0.09207246103409422,-0.008261905214572651,-0.0031307407097498803,-0.011587803607286326
554,0.9536601685755062,0.021100645828453633,1,,0.05791565556400235,-0.9468024066063288,-0.09139162190883575,-0.008522116,-0.0031957934,-0.011717909
555,0.9533721893800045,0.02394119522205823,1,,0.05697821201158242,-0.9441294436949986,-0.09201695075461312,-0.014429448317929711,0.0056652060935539,-0.01565613023720789
556,0.9530733035818835,0.026756649284557253,1,,0.057574298258754854,-0.9457128174751952,-0.09296592259008622,-0.01686226886667731,0.01808298725984878,-0.015978966
557,0.9527863719119646,0.029339350931933603,1,,0.05852534753520056,-0.9474345043292409,-0.0966032626695007,-0.017044231,0.01917476,-0.015978966
558,0.952532881667138,0.03148644191673053,1,,0.06037378251766861,-0.9478093293926546,-0.09431692316360638,-0.017044231,0.01917476,-0.015978966
559,0.9523301477127771,0.03302732901145891,1,,0.06363021161335009,-0.9458646414412414,-0.09140112413438699,-0.017044231,0.0296709294844061,-0.01216217815517827
560,0.9521891106076303,0.033848000231267786,1,,0.06853156457399993,-0.9428219980133036,-0.09304336329599473,-0.014212240754066643,0.03655664960570473,-0.006997924695541821
561,0.9521129861096085,0.033908352886582595,1,,0.0706213462768126,-0.9413849102849011,-0.09436925531590036,-0.013848438,0.037284255,-0.0063915867
562,0.9520971333258316,0.033249440033363505,1,,0.06954794456498241,-0.9450705064698035,-0.09600456008352709,-0.013848438,0.037284255,-0.0063915867
563,0.952130362245927,0.03198889777571197,1,,0.06957115935658717,-0.9460585246253327,-0.09791653574838553,-0.010157747506224422,0.02898020268822119,-0.004546241712955459
564,0.9521974455601727,0.030304786409918825,1,,0.06981311454808467,-0.9469609621156968,-0.09671320191490199,-0.00958738,0.027696876,-0.004261058
565,0.9522821354377072,0.02841022647685871,1,,0.07047190497809586,-0.9458531410110188,-0.09626054698894379,-0.008680364065561903,0.024975826493791525,-0.004261058
566,0.9523698648961656,0.026522883601049502,1,,0.07058074571846656,-0.9441958165972121,-0.0945789489665881,-0.007625038001310929,0.021809850530284444,-0.004261058
567,0.9524495988275717,0.02483414031446789,1,,0.0709893835108969,-0.9441302237568941,-0.09345320584682243,-0.007456851,0.02130529,-0.004261058
568,0.9525147403853574,0.02348271482924345,1,,0.06844515109084656,-0.9447756737824593,-0.09470652659299421,-0.006576416164639589,0.01514224458213802,-0.0033806229166913095
569,0.9525632836003777,0.02253678874926656,1,,0.06909690297959814,-0.9455041015210246,-0.09460227517849927,-0.0063915867,0.013848438,-0.0031957934
570,0.9525974138755857,0.02198752212370146,1,,0.07094569376471563,-0.9470232622601645,-0.0943164445286232,-0.0063915867,0.013848438,-0.0031957934
571,0.9526226143567661,0.021755130313977123,1,,0.06934457820745393,-0.9457699564114045,-0.09387670663726258,-0.008967912657104275,0.016424763715255784,-0.004913344064941572
572,0.9526462519456999,0.021706504648098177,1,,0.06809247597185726,-0.9455859144217058,-0.09378202546231384,-0.008738234419132577,0.023837398835428167,-0.007024614019720383
573,0.952675710247628,0.02168104637928074,1,,0.06828082358183699,-0.9450556553085678,-0.09397529747100312,-0.008522116,0.025566347,-0.007456851
574,0.9527163499913649,0.021519648221983188,1,,0.06914709670403188,-0.9449027955519979,-0.09498171263900916,-0.008522116,0.025566347,-0.007456851
575,0.9527697552187875,0.02109126024604897,1,,0.07239432775129866,-0.9441441264297166,-0.09638538851848107,-0.005212900720536649,0.026393651208174947,-0.0033203322889799216
576,0.9528327529010805,0.020312405218661265,1,,0.07401703096650289,-0.9439259074199651,-0.09727508228410842,-0.004261058,0.020908096706626012,-0.0004952390258290248
577,0.9528975595615335,0.019156957734339185,1,,0.0738721163648422,-0.9452278574872183,-0.09800337388756865,-0.004261058,0.01917476,0.0
578,0.952953159855754,0.01765574329361603,1,,0.07467657785901871,-0.9448987324577625,-0.09817806284511021,-0.004261058,0.01917476,0.0
579,0.9529877352108821,0.015887403618271186,1,,0.0731484730594228,-0.9431959425896809,-0.09616693004976438,-0.003463582372665142,0.01359243150699689,-0.001594951104946233
580,0.9529917022612533,0.013963221912351042,1,,0.07271554200185826,-0.9454198420186334,-0.09820666450099824,-0.0031957934,0.011717909,-0.002130529
581,0.9529607013590585,0.012009233482165224,1,,0.07223987339854618,-0.9485237436387299,-0.10041236869658386,-6.173119258398772e-05,0.005449784732270516,-0.0013470134297581796
582,0.9528976984413198,0.010149031937683357,1,,0.07027083293520933,-0.9485887226296538,-0.10033194822547235,0.0010652645,-0.0045475852663695885,-0.0010652645
583,0.952813356984246,0.008490156914000112,1,,0.06801959358567326,-0.94585752731578,-0.09696334378482933,0.0010652645,-0.007456851,-0.0010652645
584,0.95272420046366,0.0071157802051094714,1,,0.0656663963893002,-0.9443809682099111,-0.09764920356715424,-0.001969592062075448,-0.008215565514440018,0.00045216381664926254
585,0.9526488100611121,0.006081858565793859,1,,0.06686028928457377,-0.9450322564868529,-0.09928441911138855,-0.0031957934,-0.008522116,0.0010652645
586,0.952603065019274,0.005418563433727432,1,,0.06935426944509294,-0.9430053653275103,-0.09742793346445908,-0.0031957934,-0.008522116,0.0010652645
587,0.9525958704111898,0.005134155790805947,1,,0.07009230063273392,-0.9399452234085626,-0.09781977604317733,-0.00024875815404753023,-0.0018912865409923185,0.002538782088395207
588,0.9526267765817159,0.005219653180022358,1,,0.07059291799251177,-0.9422119560457799,-0.09908977794265361,0.0010652645,0.0010652645,0.0031957934
589,0.9526863811809985,0.005653265537955117,1,,0.06983304335805414,-0.9455001683884389,-0.0990685370416844,0.005391879554516532,-0.00037694063099275965,0.0031957934
590,0.9527595051830932,0.006404120784406953,1,,0.07001254444952126,-0.947837255423986,-0.10005334442377474,0.008168834121910681,-0.0017772472877294573,0.0024838106791067872
591,0.952830125388912,0.007434997525391462,1,,0.0701749007220021,-0.9487277814451786,-0.10078192650306605,0.008522116,-0.002130529,0.002130529
592,0.9528863899932345,0.008703810661507841,1,,0.07089041717061295,-0.9470544975618495,-0.10038565367367219,0.008522116,-0.002130529,0.002130529
593,0.9529240872262952,0.010163778590259225,1,,0.07147144907758875,-0.9453337479090845,-0.10108005295230364,0.00783280271657295,-0.0035091549197725914,0.004198467750242586
594,0.9529476306801387,0.01176260697628691,1,,0.07218179427742573,-0.9438105341372861,-0.10019285276382371,0.008137465767759191,-0.006302901025445736,0.003965093467289128
595,0.9529685738181638,0.013441441916781956,1,,0.07099034709619795,-0.9438109129673917,-0.09893592624871893,0.008522116,-0.007456851,0.0031957934
596,0.9530024189103252,0.015134538412091803,1,,0.0697873493636859,-0.9444750769022203,-0.0986665120097077,0.008522116,-0.007456851,0.0031957934
597,0.9530647956857331,0.016770457626682528,1,,0.06749189137706442,-0.9451111321279999,-0.09957163426665465,0.009180116137730295,-0.01272085395490452,0.00253779301519475
598,0.9531679828274263,0.018275161235623786,1,,0.06618471139481882,-0.945093413973304,-0.09894054170369476,0.010236918519322817,-0.017278043648389235,0.003429605428902029
599,0.9533184269054182,0.019576730021945838,1,,0.06662650811018042,-0.945197322596379,-0.09744173908536762,0.010652645,-0.018109497,0.004261058
600,0.9535155644657132,0.020610856311792727,1,,0.06604458718661245,-0.9462640310118502,-0.09695694248290701,0.010652645,-0.018109497,0.004261058
601,0.9537519534481123,0.021326037613534347,1,,0.06530815642166604,-0.9465688102725175,-0.09738859080577432,0.011280233774748209,-0.017481907046973402,0.006771414277271222
602,0.9540144773603585,0.02168761227109736,1,,0.06392734036839623,-0.9476486539114402,-0.09825871808566511,0.011717909,-0.017044231,0.008522116
603,0.9542862157294507,0.021680235936722154,1,,0.06230578948957239,-0.9480029618665706,-0.09894811627873648,0.013560386236478752,-0.01397343541369138,0.007907956536819019
604,0.9545485204034302,0.021308843698672825,1,,0.061927694227421046,-0.9470331885553056,-0.09943298409704093,0.014913702,-0.011717909,0.007456851
605,0.9547829203836655,0.02059842943887912,1,,0.061758136319944125,-0.9478487934969806,-0.09991817223095084,0.014913702,-0.008721683873282987,0.007456851
606,0.9549726546151759,0.01959304453791506,1,,0.06222197251503655,-0.9479973370233599,-0.09986084698258778,0.014913702,-0.006982627868299412,0.008047892556680791
607,0.9551038170504093,0.018354249860402926,1,,0.06276557845951472,-0.9470774779183514,-0.09910832652019251,0.014913702,-0.007456851,0.008522116
608,0.9551662257360449,0.016958890328724396,1,,0.06263365405752995,-0.9468565718160636,-0.09906227805501795,0.014338279734365552,-0.009183118877240732,0.008522116
609,0.9551541680403527,0.015495659683305133,1,,0.061740267066425145,-0.9473773447083561,-0.09978972374111038,0.013848438,-0.010652645,0.008522116
610,0.9550671050313179,0.014059737820975944,1,,0.06105600791299781,-0.9488587443466686,-0.10051632119245492,0.012730451803756251,-0.007857679404441464,0.007404129646332504
611,0.9549102467134971,0.01274504070525771,1,,0.06105600791299781,-0.9485251007013018,-0.09897130800478926,0.011717909,-0.0053263223,0.0063915867
612,0.9546947271991689,0.01163436268765486,1,,0.06031074446998851,-0.9480902741388803,-0.09595905912331368,0.009008976733488671,-0.0015338170861966681,0.00422444095799401
613,0.9544370461685068,0.01078868674615521,1,,0.059223957522106636,-0.9496660463442403,-0.09414774617631702,0.0063915867,0.002130529,0.002130529
614,0.9541575585511505,0.010237777084492,1,,0.059580661520389634,-0.9484724112140889,-0.09269469260582665,0.00481550798992618,0.002130529,0.003181248205805602
615,0.9538780488263993,0.0099744487613471,1,,0.0615096847712378,-0.9461308601144289,-0.09111642904332865,0.0031957934,0.002130529,0.004261058
616,0.953618739428794,0.009954434822438709,1,,0.06334986390515653,-0.9466976757940144,-0.08931118270613604,0.0026860828225781213,0.005188792751620886,0.00477076852957361
617,0.9533953492222217,0.010102641558133243,1,,0.06456180210615262,-0.9472441774207094,-0.08793483278237837,0.002130529,0.008522116,0.0053263223
618,0.953216923976005,0.010325133773845861,1,,0.0666836687936681,-0.9449266252291567,-0.0885846447121563,0.002130529,0.008522116,0.0053263223
619,0.9530850610866689,0.010524843044554186,1,,0.06927571380227115,-0.9428163728557281,-0.08907210627424308,0.0016436475617132068,0.011930285382429316,0.0033787966382632585
620,0.952994869317581,0.010618075774157373,1,,0.07099588288800968,-0.9452567073843553,-0.08752995471759087,0.0010652645,0.015978966,0.0010652645
621,0.9529375427738073,0.010548587617881066,1,,0.07201814388260015,-0.9494835129604894,-0.08786110969913802,0.0024803076242477136,0.01550728517997561,0.0005935834585840955
622,0.9529038243223334,0.01029635920830465,1,,0.07122540057652577,-0.950294212555285,-0.08931074780149888,0.004261058,0.014913702,0.0
623,0.9528871394939481,0.009879274194305065,1,,0.06911472202016097,-0.9482164602994242,-0.08921184262706049,0.004718023559695407,0.008973149037609011,0.0
624,0.9528851809699475,0.009347517794755247,1,,0.06731577736659836,-0.9468951133243977,-0.08921885931371824,0.0053263223,0.0010652645,0.0
625,0.9528993503842879,0.008772241228838086,1,,0.06577958902921054,-0.9451944363041934,-0.08875460636435736,0.004001018219729969,-0.0024688797278768393,0.0
626,0.9529324097871612,0.00823125438201484,1,,0.06590461944724486,-0.9436909542274319,-0.08879800573823131,0.002130529,-0.007456851,0.0
627,0.9529854531161701,0.0077947932044038016,1,,0.0669173876910056,-0.9444143514859814,-0.08924063648074906,0.0025574869477935605,-0.006175977236779313,-0.00042695798787355845
628,0.9530555377538028,0.007513848973978242,1,,0.06605369117056635,-0.944606282265232,-0.09079043099023319,0.0031957934,-0.004261058,-0.0010652645
629,0.9531349831999707,0.007412625775413567,1,,0.0642477811813267,-0.9456573297603351,-0.09163960097632985,0.004429985570298409,-0.004261058,-0.0018880592930720305
630,0.9532126458454764,0.00748583267842736,1,,0.06285169755523226,-0.9478725745992156,-0.0907856007154291,0.0063915867,-0.004261058,-0.0031957934
631,0.9532767078673549,0.0077008393624936776,1,,0.06187941308568531,-0.9494523216705765,-0.0902373676983448,0.004412816421697028,-0.0038653038848981565,-0.003987301518751345
632,0.9533179512774734,0.008004206318495192,1,,0.06141164606202364,-0.9491213565885787,-0.09094009090825221,0.0010652645,-0.0031957934,-0.0053263223
633,0.9533323219156208,0.008331733202292085,1,,0.06075885023731493,-0.948461976015542,-0.09100846059667429,-0.0008343754019424004,-0.0031957934,-0.005706250244723349
634,0.9533218783578279,0.00862088822419249,1,,0.06128933721864916,-0.9474083296066874,-0.09076630131069297,-0.004261058,-0.0031957934,-0.0063915867
635,0.953293838348667,0.008824152878353317,1,,0.06114493079191151,-0.9461959229899882,-0.09019068836834743,-0.005350897285919292,-0.0006528347024303269,-0.007118146439927502
636,0.9532581188078814,0.008921392802942072,1,,0.062112493250218906,-0.9451483843582529,-0.08987171217623421,-0.007456851,0.004261058,-0.008522116
637,0.9532242518382213,0.008928992569858692,1,,0.06316221202726158,-0.945055203443372,-0.09116864659868659,-0.007456851,0.0059911055850384995,-0.008868125387083328
638,0.9531986914094736,0.008903429479140704,1,,0.06498989075138308,-0.946034019606992,-0.09167389867705564,-0.007456851,0.00958738,-0.00958738
639,0.9531832961301876,0.0089374480169901,1,,0.06746409960043213,-0.946292506070313,-0.09164227813416613,-0.007126999205980261,0.007278417163182989,-0.008267972669099467
640,0.9531753191367714,0.009148139161705355,1,,0.06718213637801301,-0.946344605100737,-0.09194884768927065,-0.0063915867,0.002130529,-0.0053263223
641,0.9531687640933751,0.009657882352436416,1,,0.0647474413633759,-0.9468565718160636,-0.09131171596853449,-0.005763037232876887,-0.0013264934084506012,-0.004383498025560226
642,0.9531566347612472,0.010570826658177303,1,,0.0642309188152937,-0.9468565718160636,-0.09210824264535106,-0.004261058,-0.00958738,-0.002130529
643,0.9531334556776248,0.011948824360749667,1,,0.06429941807596963,-0.946925069360726,-0.09328461786694207,-0.003663503375078582,-0.00958738,-0.001234197062617873
644,0.9530974353350153,0.013791209675527886,1,,0.06420949590641127,-0.9471672059208823,-0.09511241595068679,-0.002130529,-0.00958738,0.0010652645
645,0.9530517392139662,0.0160226446346649,1,,0.0634333041920847,-0.9470202977229334,-0.09710238495250875,-0.0024138045838707524,-0.0053382460557944,0.00021543766861160886
646,0.9530045239053411,0.01849257571470371,1,,0.062625184169593,-0.9458723717521959,-0.09836671331874261,-0.0031957934,0.0063915867,-0.002130529
647,0.9529676457698824,0.02098849391018733,1,,0.06093471316539518,-0.9453928721558172,-0.09872633801602651,-0.004804371423232984,0.010681128187567383,-0.0037391071239014483
648,0.9529542515270968,0.023262870528849188,1,,0.06189500025863345,-0.9461239057170391,-0.09811858516817427,-0.00958738,0.023435818,-0.008522116
649,0.952975699809529,0.025070474796935003,1,,0.06467228595376615,-0.9462401312076929,-0.09781760998022516,-0.010854780775034545,0.026477580383573923,-0.008522116
650,0.9530383992300707,0.026209620007600277,1,,0.06871861716556844,-0.9461624336385779,-0.09727667113432709,-0.014913702,0.036218993,-0.008522116
651,0.953141213398024,0.026558968616676545,1,,0.07283792877754067,-0.9436728508564728,-0.0970960504355025,-0.013719398409051425,0.03598013214727427,-0.007327812274515408
652,0.953274131970507,0.02610175277037708,1,,0.07520444109539474,-0.9407343796320011,-0.09857958045388938,-0.00958738,0.035153728,-0.0031957934
653,0.953418881582366,0.024931737955618177,1,,0.07667572371230061,-0.9430212381405161,-0.09956271492475104,-0.007586485238071541,0.031818903118518045,-0.0025288284654437876
654,0.9535518669882403,0.023239317863392464,1,,0.07498064319638116,-0.9453899519106785,-0.10101157390526402,0.0,0.01917476,0.0
655,0.9536491808159041,0.021280657604875613,1,,0.07086699377762813,-0.946745435765713,-0.10052597518712618,0.001234326027543739,0.01464889787969456,0.0
656,0.9536925757676724,0.01933654501044308,1,,0.0654923333277341,-0.9490837629099645,-0.10022148413366186,0.0063915867,-0.004261058,0.0
657,0.9536746540842862,0.017669527508629938,1,,0.0632378591659883,-0.9526472879851564,-0.10057690520347945,0.006202291104083652,-0.006154013959163486,0.00037859122737234275
658,0.9536014540086298,0.016487558190813587,1,,0.06203290216332795,-0.9519765823337303,-0.1000485046268099,0.0053263223,-0.014913702,0.002130529
659,0.9534912654001212,0.01592012783475705,1,,0.06223090016607106,-0.9438665887830336,-0.098145088567121,0.004289962246448221,-0.011459168590852192,0.001957802319003223
660,0.9533697931597145,0.01600974496921734,1,,0.06332873867817455,-0.9399609023635864,-0.09712365079538292,-0.0010652645,0.0063915867,0.0010652645
661,0.9532632368885118,0.01671865211577547,1,,0.06381452612281627,-0.9413193872752109,-0.09914700189572295,-0.00200810037100167,0.009534373079267192,0.0004367072182460805
662,0.9531917053563721,0.017948167270949958,1,,0.0642309188152937,-0.9436993918337421,-0.09735218158162053,-0.007456851,0.027696876,-0.0031957934
663,0.9531651114913748,0.019565844821036172,1,,0.06436057658283388,-0.9470834850223044,-0.09505288549274832,-0.007739624323444418,0.028262422115990973,-0.0039027267218834922
664,0.9531824993065473,0.02143398875649439,1,,0.06550777644239042,-0.9486262075684814,-0.09375202992620144,-0.00958738,0.03195793,-0.008522116
665,0.9532343924007068,0.02343283451904058,1,,0.06882703612903994,-0.948365612771961,-0.09393970240689277,-0.008836094640322251,0.031081430770255967,-0.007269973655508512
666,0.9533069108022666,0.025473611919272922,1,,0.07885100618694621,-0.9430876521528883,-0.09708891626918624,-0.0031957934,0.024501082,0.002130529
667,0.9533862704777093,0.02750025589251499,1,,0.08933166554043133,-0.9427689769159167,-0.0986051641078959,-0.0020999428704130993,0.02351481651925694,0.0030072094730477063
668,0.953462573234613,0.029482380194448814,1,,0.09488287596133611,-0.9476575805665661,-0.1021931820289511,0.007456851,0.014913702,0.010652645
669,0.9535321133644018,0.03140481795173133,1,,0.09034873264300519,-0.9479125486521558,-0.10045517842722813,0.007832748936959417,0.012376391057849502,0.009055078812031
670,0.9535976730017436,0.03325963698749268,1,,0.07886788279880683,-0.9438169530763612,-0.09601155382963669,0.011717909,-0.013848438,-0.007456851
671,0.9536666747862248,0.035044830156994826,1,,0.06347941180740076,-0.94548176024021,-0.09364643270835322,0.011007198674534343,-0.016928182644844813,-0.008720336014813415
672,0.9537477011677596,0.03677024869836077,1,,0.050665742433922904,-0.9465809266554913,-0.09490887604821512,0.0018564018718218302,-0.055599345378300184,-0.02381576424388769
673,0.9538464717625695,0.03846686975475937,1,,0.045093936410984435,-0.9461968308349249,-0.09333361535115603,-0.002130529,-0.058589544,-0.013848438
674,0.9539625286783584,0.040192117107814194,1,,0.04391926594371117,-0.9474262804415152,-0.09013221288711752,-0.002130529,-0.058589544,-0.013848438
675,0.9540875760650878,0.04202388424312897,1,,0.04741647285646783,-0.9488226843185452,-0.09039990532112238,-0.0018076746689762104,-0.057082890556247094,-0.012933684087355457
676,0.9542058771886082,0.04403998461265808,1,,0.04828825855073237,-0.9490056511635555,-0.09132061070867424,0.004261058,-0.02876214,0.004261058
677,0.9542965696348755,0.046286443658494866,1,,0.052723160689050204,-0.9477733609709402,-0.09680731701650584,0.004411099706627405,-0.02703666047942178,0.0045236309689918024
678,0.9543373720087214,0.04874420751033051,1,,0.05881862305563076,-0.946154031320869,-0.09945943491811494,0.008522116,0.020240024,0.011717909
679,0.9543089623808119,0.05130649249008476,1,,0.06704859263248317,-0.9473693149345754,-0.10185600234872749,0.008373743394939402,0.020960690938865757,0.011675516827125544
680,0.9541992354650575,0.05377680904747187,1,,0.07350310010903499,-0.9485495604048391,-0.1025782669139145,0.0010652645,0.056459017,0.00958738
681,0.954006627616532,0.05589155072296102,1,,0.07253264313163447,-0.9466019431934085,-0.10306065218671445,0.0010198723198575194,0.05649615604292211,0.00955024094545666
682,0.9537417942720344,0.057363505554326184,1,,0.07204899080321653,-0.9439418553871096,-0.10257699985829649,-0.010583082057471722,0.06598947888598175,5.691513182763285e-05
683,0.953427210297336,0.05793660262212158,1,,0.0747040665767616,-0.9456173334727933,-0.10112428629027748,-0.010652645,0.066046394,0.0
684,0.9530946558681601,0.05743939087440821,1,,0.07592863571925239,-0.948027605252898,-0.09991267183936596,-0.020043438717957815,0.06813323933392436,-0.007303951322519686
685,0.9527808835442844,0.055825219555919396,1,,0.07476338886002427,-0.9464112962912546,-0.09750706053885283,-0.020240024,0.068176925,-0.007456851
686,0.9525220352928787,0.05318996442704702,1,,0.07473255393024121,-0.9407123768551986,-0.09603143912876079,-0.02126792728718165,0.06098161356884528,-0.010540557001839338
687,0.9523477086051361,0.04976258643734176,1,,0.07309119879179268,-0.9414446616338119,-0.09480764874514126,-0.02130529,0.060720075,-0.010652645
688,0.952275868258048,0.0458692402439782,1,,0.0755759628823344,-0.9431082916469278,-0.09475892787037367,-0.013206634432050612,0.03642411067192773,-0.006603317168509789
689,0.9523097435580473,0.04187738356867991,1,,0.07617123419845168,-0.9461947925931081,-0.0961442650110233,-0.0127831735,0.035153728,-0.0063915867
690,0.9524373130115968,0.03813129511929155,1,,0.07665493491044294,-0.9463681277500473,-0.09828093595837963,0.0001747071271122484,0.00624768602524647,0.0025792536837711895
691,0.9526332808503754,0.03489316153411106,1,,0.0791866605475793,-0.9427313403593595,-0.1006952988256151,0.0010652645,0.004261058,0.0031957934
692,0.9528630385005391,0.03230309553598421,1,,0.08049755279253085,-0.9397611201518429,-0.10108947260618383,0.011858335284865058,-0.017325083569730112,0.008101734967290417
693,0.9530880535208027,0.030366624916861096,1,,0.07835681603987288,-0.9424381304989374,-0.10289844523244904,0.0166863454781705,-0.03186006904355539,0.004618943563824418
694,0.9532720919553286,0.02897059504150162,1,,0.0727825341817077,-0.948968761369209,-0.10395739631024946,0.017044231,-0.033023197,0.004261058
695,0.9533873581754752,0.027920935148896837,1,,0.06160136147271548,-0.9517699546690069,-0.10069913977453081,0.017044231,-0.033023197,0.004261058
696,0.9534192305690523,0.02699118747782483,1,,0.05460754015858853,-0.9513231177710472,-0.09772718243974689,0.006453023912190164,-0.040725893589736835,-0.004404475482684363
697,0.9533683434949267,0.02597009158359186,1,,0.05485159995271919,-0.9431302191851789,-0.0943720725809218,0.0053263223,-0.041545313,-0.0053263223
698,0.9532495833576452,0.024699043985054923,1,,0.05951208367815748,-0.9404784831041084,-0.09076791459452817,-0.008886021439742438,-0.017858074471443417,-0.0053263223
699,0.9530886731941447,0.023094501721783137,1,,0.06720531014000787,-0.9465249283234289,-0.09209045409289557,-0.010652645,-0.014913702,-0.0053263223
700,0.9529176007606381,0.021154914029948478,1,,0.07198484850963668,-0.9503366824175596,-0.09274405393152471,-0.004128210828985892,0.013048156608018883,-0.0006660124153357467
701,0.9527698725451552,0.018955074977447355,1,,0.07678238410417107,-0.9460915429026717,-0.09089360263691308,-0.0031957934,0.017044231,0.0
702,0.952675957286341,0.016631970428103555,1,,0.07762901324718499,-0.9435012942558889,-0.09207708491077189,0.005963866052399672,0.018876162993661745,-0.001831931993661745
703,0.9526590276235403,0.014365565868429391,1,,0.07599398654245104,-0.9448624852325344,-0.09711579851751546,0.007456851,0.01917476,-0.002130529
704,0.9527313395592827,0.012356808105048198,1,,0.07240713197997155,-0.943083083568488,-0.10123616030182488,0.005656329317769065,0.00387032439112341,-0.002130529
705,0.9528918914122745,0.010804506534640707,1,,0.06995636609065582,-0.9422946036539119,-0.09917570063472239,0.0053263223,0.0010652645,-0.002130529
706,0.9531260213037901,0.009882864271292173,1,,0.06899876562078877,-0.9444349643603789,-0.09664955556640117,0.004446561682339831,-0.006852582545491953,0.001388514131329757
707,0.9534072868475443,0.009721558157458822,1,,0.06907127480952269,-0.9481042576549594,-0.09682454868557169,0.004261058,-0.008522116,0.002130529
708,0.9537014476754629,0.010389817918910494,1,,0.06654070111026218,-0.9464337199595926,-0.0957686201532297,0.011172084513552883,-0.01024987272975722,0.002130529
709,0.9539718514474299,0.011885111893697727,1,,0.06357996936298996,-0.946469809577084,-0.09745869871782882,0.0127831735,-0.010652645,0.002130529
710,0.9541852215980375,0.014126518478278054,1,,0.060675641228089064,-0.947779419272351,-0.10026799743250583,0.011934739474162855,-0.008955776948325708,0.0004336609483257077
711,0.9543168104882934,0.01695313540334301,1,,0.06027221993974395,-0.9490432982642361,-0.10202317709034221,0.011717909,-0.008522116,0.0
712,0.9543540107590239,0.020128790923738333,1,,0.06242306340634172,-0.9496805793243802,-0.10194810309072491,0.005057075353053079,0.003966947283423952,0.0008326042449480605
713,0.9542977636705893,0.023355115070828835,1,,0.06471481628152428,-0.9461877837452396,-0.09918917206815203,0.0031957934,0.007456851,0.0010652645
714,0.9541615200868234,0.026294723620334037,1,,0.06839488092361905,-0.9451470175850061,-0.09973460550989256,-0.0008928681057010501,0.02708242506056269,-0.0005702001329857451
715,0.9539680557495652,0.02860428702640733,1,,0.06991789138084828,-0.9473800546830583,-0.10069011940978782,-0.002130529,0.033023197,-0.0010652645
716,0.9537449121560865,0.029974089446526124,1,,0.07395503443536461,-0.9458704248323928,-0.10012877090270828,-0.00694441219868511,0.041046337170793784,-0.00026295063355248177
717,0.9535194697647906,0.03016785735709253,1,,0.07777564223672957,-0.9420449042749929,-0.09751546754879582,-0.007726193310797671,0.03730846547501871,0.0015918446312453223
718,0.9533146893090992,0.029055681927902147,1,,0.07918476211448693,-0.9420844518208868,-0.09780196299923134,-0.007456851,0.035153728,0.002130529
719,0.9531464237023051,0.02663420042705118,1,,0.07684613462155615,-0.9444458050288868,-0.09835853828210758,-0.007456851,0.035153728,0.002130529
720,0.9530228313750552,0.023031125599003312,1,,0.07434525411519083,-0.9460405760591846,-0.09699258087282023,-0.003559266412172782,0.01878387119443158,0.0013510120092586465
721,0.952945804125417,0.01849461791500094,1,,0.07251421293311447,-0.9463681277500473,-0.09682319308942595,-0.002130529,0.0127831735,0.0010652645
722,0.9529136945031518,0.013370903030167634,1,,0.07116954235305045,-0.9463681277500473,-0.09730756201081747,-0.0013658571714672896,0.003607111916519196,0.00030059267146728956
723,0.9529242920608639,0.008075135794713247,1,,0.07099879229897868,-0.9463681277500473,-0.09796685291557672,-0.0010652645,0.0,0.0
724,0.9529770538625381,0.0030603236485402165,1,,0.07175618840015685,-0.9460246340112298,-0.09834980971451898,0.0004330101700921137,0.0014982746700921137,0.0
725,0.9530739254311926,-0.0012126521926006514,1,,0.07085455439348272,-0.9453690302424261,-0.09910316324080681,0.0010652645,0.002130529,0.0
726,0.9532185215644114,-0.0043033316044421436,1,,0.07000371228281652,-0.9458126280638097,-0.0993991832073134,0.0003394380817570764,0.0014047025817570764,-0.0014516528364858473
727,0.9534138470042284,-0.0058196686160486635,1,,0.06984807248142842,-0.9461239057170391,-0.09956319882850419,0.0,0.0010652645,-0.002130529
728,0.9536590621082641,-0.005447733412951494,1,,0.06968633207766806,-0.9461239057170391,-0.10012863117887967,-0.0014109808866900385,-0.0010512068300350579,-0.002130529
729,0.9539460336286048,-0.0029841739917217023,1,,0.07088406166155592,-0.9453237795552625,-0.09957594496578136,-0.002130529,-0.002130529,-0.002130529
730,0.9542565757469719,0.0016297596652131068,1,,0.07282193719324566,-0.9436384439192933,-0.09994514288325514,-0.002130529,-0.001441197963276596,0.0006267951468936153
731,0.9545613547496724,0.008276738912793681,1,,0.07601442732135956,-0.942948917316311,-0.10240976000381517,-0.002130529,-0.0010652645,0.002130529
732,0.9548212948930208,0.016641321923010512,1,,0.08313429999278818,-0.9451115019175265,-0.10308759119433943,0.0005645079374068298,-0.0017390237343517074,0.003478047468703415
733,0.9549918864203149,0.026206014921754738,1,,0.0899708094438548,-0.9466738208309162,-0.10251262279814444,0.002130529,-0.002130529,0.004261058
734,0.9550301291062777,0.03627393272929402,1,,0.0957038721533663,-0.9433764967382746,-0.10006023802245544,0.005430448557013424,-0.010050336060742095,0.004261058
735,0.9549031878327329,0.04602382866784865,1,,0.09973296038393477,-0.9412394650568747,-0.09641760617169043,0.007456851,-0.014913702,0.004261058
736,0.9545973619231798,0.05459770522516828,1,,0.08991096738702897,-0.94479194155,-0.09159866446379326,0.012621996017886243,-0.04719586093765972,-0.0015497307057527054
737,0.9541255913705592,0.06121332526129373,1,,0.06478646379103908,-0.955444791922198,-0.09480228083732244,0.015978966,-0.068176925,-0.0053263223
738,0.9535313448472288,0.06528532090598033,1,,0.041485397134094854,-0.960154866877199,-0.1014557058903253,0.012828662205595013,-0.10472046167233373,-0.010366809613113183
739,0.952886693199363,0.06653204378012316,1,,0.036415360536675545,-0.9517044119806637,-0.09955370507170314,0.010652645,-0.12996227,-0.013848438
740,0.9522833277090461,0.06504410685140352,1,,0.04580378544609995,-0.942041716754907,-0.0903782346413968,-0.0065393285835634194,-0.09066632791021872,-0.009550444575290055
741,0.951817399403421,0.061296870758144356,1,,0.05726407862089461,-0.9384854104552532,-0.08516663180115334,-0.01917476,-0.06178534,-0.0063915867
742,0.9515714365684472,0.05610191049502721,1,,0.06288557138940297,-0.9382016438002178,-0.08927040148481634,-0.015586427909511815,-0.01214674304058257,-0.003401309892428104
743,0.9515978619969011,0.05050696640003071,1,,0.06563789228203748,-0.9414226767473944,-0.09591903284731211,-0.0127831735,0.026631612,-0.0010652645
744,0.9519081023079886,0.045663865061014795,1,,0.067428657355503,-0.9456617025294873,-0.10029161941355487,-0.005211863000655672,0.0371149637374152,-0.006306941188797616
745,0.952469465438084,0.04268602996306992,1,,0.07054934034466236,-0.9439379678515935,-0.10210499276484301,0.0010652645,0.04580637,-0.010652645
746,0.9532099536879444,0.04251305936469671,1,,0.07354239610660661,-0.9417588141909429,-0.1010313520284484,-0.004598658598868026,0.050903900762396634,-0.014050998487136599
747,0.9540297532275596,0.04579403472108807,1,,0.07003145237108813,-0.9449045729959874,-0.10231989433820729,-0.00958738,0.05539375,-0.017044231
748,0.9548173494762949,0.052797666493629,1,,0.06163321313605037,-0.9482284312463354,-0.10616852576155694,-0.012339766911329934,0.041631815443350324,-0.014291844088670066
749,0.9554677073317056,0.06335715535097243,1,,0.054535255212372014,-0.950174542315149,-0.10869829376224992,-0.014913702,0.02876214,-0.011717909
750,0.9558995453926938,0.07685909035399247,1,,0.04970458759305351,-0.9528366440892851,-0.10795070738936893,-0.015976672404497183,0.03886035759541519,-0.013312364357284162
751,0.9560686101981419,0.09228575361804439,1,,0.04439808239911158,-0.9550237757610579,-0.10611819689160536,-0.017044231,0.049002163,-0.014913702
752,0.9559743034951846,0.10831614141449773,1,,0.040570479054636815,-0.9547107831813114,-0.10587599972845455,-0.02318030003442575,0.08070518538451027,-0.01798173699722426
753,0.9556581435112549,0.1234821394092417,1,,0.04268679467515997,-0.9511619252981468,-0.10482795618543851,-0.029827405,0.11504856,-0.02130529
754,0.9551942261735529,0.13636440253579726,1,,0.05226329431238658,-0.9451473184288227,-0.10277481075755139,-0.037739989115856465,0.14422621772817146,-0.01883260662236301
755,0.9546737227762192,0.14580099843932187,1,,0.0680669132409329,-0.9403683728255832,-0.10293555508672936,-0.046871636,0.17789917,-0.015978966
756,0.9541869148127681,0.15107436501285063,1,,0.08594799659214314,-0.9393708853268838,-0.10463769287816212,-0.04735059598042269,0.1884362904685316,-0.0073576830252315255
757,0.953806745235785,0.15204117949867832,1,,0.1012130726209899,-0.9403138450926573,-0.10531187053702142,-0.0479369,0.20133498,0.0031957934
758,0.953577170620926,0.149176271179972,1,,0.11332655879070043,-0.9400381975461874,-0.10609955614057447,-0.03958877612445193,0.18927657691145078,0.007833640065250998
759,0.9535081058362177,0.14351496415799797,1,,0.12207460360250277,-0.938483473080222,-0.10676024264017288,-0.02876214,0.1736381,0.013848438
760,0.9535771286261043,0.13649603915855138,1,,0.126212646224957,-0.9374473401300577,-0.10684143656139561,-0.01889195551849859,0.14806535230155116,0.00891334569607558
761,0.9537368340348581,0.12972673451731245,1,,0.1257689052372936,-0.9384161168081883,-0.10710360950553849,-0.0053263223,0.112918034,0.002130529
762,0.9539258706330086,0.1247082995786366,1,,0.1206519722914423,-0.943279119285101,-0.10877899758669587,0.0016039263609471438,0.0704702604281964,-0.0022008765909811126
763,0.9540811349490752,0.12257191426636424,1,,0.11196515223607001,-0.9486583058099052,-0.10950848700465636,0.011717909,0.008522116,-0.008522116
764,0.9541483987250574,0.12387673163027359,1,,0.09739740070797136,-0.951741012476228,-0.10847375747655834,0.015059960366631217,-0.03617782411696986,-0.01269968030632957
765,0.9540891090946898,0.128511667949568,1,,0.07977355770921166,-0.9470491167963226,-0.10334651378918151,0.020240024,-0.10546118,-0.01917476
766,0.953882480635619,0.1357207418161987,1,,0.06754953617769245,-0.9378748754298171,-0.09786491932528761,0.017432789993159694,-0.13273145837223746,-0.02318509483329153
767,0.9535239682148424,0.14424387711018544,1,,0.06374247474927729,-0.9362083273233877,-0.09496242010696959,0.0127831735,-0.17789917,-0.029827405
768,0.9530227645348504,0.15254035702559735,1,,0.05838113293543476,-0.9406133270507651,-0.09775731119985791,0.01393326879158558,-0.18748329952916795,-0.02484365699705234
769,0.9524010424339058,0.15904804354160545,1,,0.047728982085402855,-0.9458336739592608,-0.10075214440261121,0.015978966,-0.20453078,-0.015978966
770,0.9516960588401717,0.16243008270492962,1,,0.049545284613028345,-0.9481117923077538,-0.09669473770968853,0.02002118140121919,-0.1975487703253107,-0.015611492060776678
771,0.950963863256706,0.1617695186149378,1,,0.057068709089228786,-0.9511831281883156,-0.0913423293308902,0.027696876,-0.18429075,-0.014913702
772,0.9502815139503147,0.1566867465696755,1,,0.05658583128212324,-0.9539347539629999,-0.0947327715553194,0.027696876,-0.1684543765920197,-0.017377138487474537
