id,ASVM,GSVM,walking_nonwalking,normal_abnormal,ax,ay,az,gx,gy,gz
1,1.0133319553540843,1.1252614244284347,1,,-0.0039062500446125845,0.7813110491350258,0.6397705026691072,0.8386294,-0.41758367,0.58056915
2,0.9893825118300206,1.7018937322831604,1,,-0.0039062500446125845,0.7813110491350258,0.6397705026691072,0.8386294,-0.41758367,0.58056915
3,0.9674792566709529,2.2384452764420875,1,,-0.026163734691761798,0.7919412877935178,0.6181028131897773,0.8386294,-0.41758367,0.58056915
4,0.9498226459767117,2.7013406918090874,1,,-0.07968449076585296,0.8175029547684693,0.5660002894007333,0.8386294,-0.41758367,0.58056915
5,0.9380342270275052,3.06320045204118,1,,-0.06711028403987009,0.7809493655773984,0.36515958174321883,2.0839445517703576,-1.0740100064353126,1.5068218759818204
6,0.9329544658222163,3.305801868947055,1,,-0.011981164532988487,0.7044031779744753,0.06855453525747347,4.1310496622923205,-2.1530731705569486,3.0294378068140344
7,0.9345630224296799,3.4224841763287377,1,,0.16569176056515467,0.7077634190545845,-0.1471141574490252,4.515378501600581,-2.3090984432512713,3.1582076924417772
8,0.9420541360385242,3.4192994059228092,1,,0.42245803852170133,0.7626976043616062,-0.31054416161025417,3.826502941962635,-1.8693680858115738,2.3873486067896312
9,0.9540659084207993,3.314322120121559,1,,0.2602226228492159,0.9546477602313909,-0.2881639247090452,2.2475911348625752,-1.2577176944837605,1.783990388894855
10,0.969012165976417,3.1350015684425845,1,,-0.1736053502428672,1.2354102485295153,-0.14534341421063326,0.0917670551195862,-0.5346305194931732,1.2892045000785481
11,0.9854234783346405,2.914044342353067,1,,-0.09881696803267503,1.202315933687953,-0.0469204490566531,-1.0100753067053967,-0.13067889499116692,1.3188066379637697
12,1.0021956756363155,2.684728226997029,1,,0.30805384751179354,0.9643003066712272,0.022514763587633393,-1.4237588793410747,0.06490485133103768,1.6907887448873467
13,1.0186783511794686,2.476587138606035,1,,0.4691820464364675,0.8469517560436782,0.06551948017751912,-1.6436028830851241,0.29468956381954187,1.6662327819748137
14,1.0345961131766024,2.3121402311213926,1,,0.470599756784942,0.8080258982907981,0.09134676327017373,-1.737468687615458,0.5467018123031528,1.3839629167547554
15,1.0498511120051908,2.204977967358448,1,,0.5050552783611528,0.8100901406556038,0.13067460742571793,-1.6208221377530305,0.5908028383414555,1.24981402420744
16,1.0642828718369135,2.1592378372671965,1,,0.5592719592900641,0.8366721060039619,0.17807764562462938,-1.3782602189613644,0.5105443300523207,1.2042618655082917
17,1.0774574211832775,2.170345169735738,1,,0.5282992514857161,0.9052585661201636,0.20171790062946762,-1.027576753978416,0.30845550026095797,1.4351829601547943
18,1.0885347883648253,2.226810349916353,1,,0.42433678276019626,1.0098342270409963,0.20499834441926798,-0.5842553930399443,0.0019831770247934312,1.9029846913528725
19,1.0962378588511603,2.3128005059517287,1,,0.4729298839105365,0.962154685499106,0.15668191274856075,-0.6000046896107789,0.2087536134722967,2.385191506227395
20,1.0989265678062965,2.411115641490367,1,,0.6474825887980322,0.7887635427021014,0.06576381154525009,-0.9947919866364752,0.8392899908453946,2.879292075131033
21,1.0947710906145263,2.5061191640577047,1,,0.7305985969598179,0.7185026562944378,0.1323356255872578,-1.5233439375603097,1.0885264714457332,2.540532711420361
22,1.0820105622784686,2.5861545211314074,1,,0.7536664016860322,0.715969354458745,0.3023340370318157,-2.139741658109908,1.0873561179385844,1.6548185232407293
23,1.0592731207987367,2.6450637254200946,1,,0.7333412903702244,0.6507717111987504,0.4564844549242326,-2.260823111795737,1.1198861137398957,1.463346100317353
24,1.0259178430581148,2.68259760174947,1,,0.6783185617942198,0.5354667341028789,0.5979625823950372,-1.9858423539256636,1.1793634070831551,1.8269996591695699
25,0.9823453949424249,2.703714162471784,1,,0.6426052050928928,0.4366528278378227,0.6767494311510026,-1.5720543038061063,1.1276079223084088,2.1262168164559014
26,0.9302185835330656,2.7169463363505435,1,,0.6200634615078775,0.3490880709357444,0.7127723167665669,-1.063580837243388,0.9999765822408746,2.3814795993235736
27,0.8725387154331623,2.7321634074128185,1,,0.5664314341602389,0.32444521738379434,0.7045098124434714,-0.7476668993481225,0.743897048466639,2.2533834208105183
28,0.81353782252562,2.75815181460104,1,,0.49588720594988184,0.33403003078510607,0.6721573570361727,-0.5364996887686513,0.41794547150296596,1.916751229989532
29,0.7583693801608662,2.8004905309793333,1,,0.4493279585526449,0.32985402622924737,0.6321658462824264,-0.20346500024844258,0.008042644226719247,1.8700586695741102
30,0.712610013030305,2.860165894348367,1,,0.42027210142725513,0.3156358637480227,0.5865996233983752,0.21850425976651866,-0.46312483330504467,2.0349537903143626
31,0.6816193799009745,2.9332332468559392,1,,0.36868431812631347,0.28609757026632754,0.46174311120494704,0.7613919638815763,-1.1639314584032239,2.158341060025768
32,0.669840414382325,3.011594205408676,1,,0.30255324031669406,0.24667085554464704,0.2857084607820982,1.3823268138539695,-2.0129593104671546,2.2549369711164178
33,0.6801495621791288,3.08467652159078,1,,0.36737758865034836,0.2178720316952389,0.21553796228525413,1.7879007926976789,-2.282756985034919,2.3165504729301603
34,0.7133750615038457,3.141570373899253,1,,0.4968316485812068,0.19431833248554417,0.19761401703490591,2.087188903465675,-2.2666903728562926,2.360899298409034
35,0.7680807442967519,3.173072660182856,1,,0.6386932614480255,0.10162613635971873,0.2094709883287514,2.053551158751437,-2.390028639262346,2.3420254707482737
36,0.8406643734558545,3.1731514592718075,1,,0.7868368830289907,-0.02607124271599874,0.23640619364721413,1.8513513094663268,-2.5839483256727194,2.2911416826578783
37,0.9257577284661244,3.1395403985583954,1,,0.9262537093992178,0.010671972297133887,0.2199596630776654,1.3816890765193794,-1.9680900162618375,2.1324937852335797
38,1.0168596562075511,3.0734441073266705,1,,1.0613683143739157,0.12848272366005958,0.18212637902479964,0.7801706162665232,-0.9530194119280471,1.9207192809186657
39,1.1070962883586724,2.9785993702404863,1,,1.1490646984939599,0.14099198184363318,0.3023308517850994,-0.10867859290471388,-0.14870882314335068,1.87845528282221
40,1.189988800927776,2.860099866290363,1,,1.2106795606105651,0.09558208699011182,0.509461090844585,-1.1555688030252567,0.5396770866569814,1.929427426591115
41,1.260116792837594,2.7233842723737056,1,,1.2424851995028905,0.0952930465530541,0.584311478368334,-1.676487796643633,1.387495769717788,1.7446857216661402
42,1.3135906120372505,2.5736142777685247,1,,1.2550315287842373,0.12415593989542222,0.5736977599752073,-1.8575843659816003,2.338321667734469,1.4076526965683873
43,1.348283694584904,2.4154335308071464,1,,1.2300740889111603,0.11962668208346088,0.6181233550406972,-1.5607012773127198,2.2530912990357352,1.206919346832046
44,1.3638194421810637,2.2529380224251803,1,,1.1875526762943123,0.09945902718566008,0.6883252659951755,-1.0399681096673736,1.6826493238274,1.070018616111858
45,1.3613480954636472,2.089677526185039,1,,1.1262056644354557,0.10216258887703432,0.6829937003404056,-0.4560642245775384,1.4927698842215888,0.8553857704406683
46,1.3431800706786166,1.9286117231707987,1,,1.05674294349242,0.11472592400116256,0.6450996794600651,0.1550725333104743,1.4669508204779185,0.6072426377949091
47,1.3123586735757538,1.7720603675633326,1,,1.013430287168658,0.07826778497829028,0.6144481613895698,0.4513560842947133,1.486244080964362,0.5370527123580353
48,1.2722544873598582,1.6217305493362264,1,,0.9871993663913221,0.00978785703364447,0.5885275883761196,0.5419713404059671,1.5350055969696128,0.5831053145887353
49,1.2262451349631873,1.4788671566930927,1,,0.9805925131837286,-0.06561025754611899,0.6442094574968693,0.566671156690425,1.3479235704244852,0.6764109591603087
50,1.1775102468505898,1.344505133201418,1,,0.9850863785912324,-0.14492177280897003,0.7460512647255517,0.5540846791202794,1.0274322605621042,0.7964461652576473
51,1.1289312118471844,1.219757120040538,1,,0.9915299547360074,-0.2229392085047989,0.7446829364612856,0.6988012858286362,0.5400912899661054,0.6270523288874911
52,1.0830528995352853,1.1060641286946324,1,,0.999125453003325,-0.30019207987227176,0.6823363114074703,0.9364552196381385,-0.04582728600191376,0.28665891069972244
53,1.0420539721283197,1.0053507353531148,1,,0.9032378623590828,-0.23485131082200097,0.5715801459963568,1.1094220371194998,-0.44138877644178676,0.04979459526441793
54,1.007689022485246,0.9200346252126514,1,,0.7630104175916897,-0.10841281752580746,0.4400817321176931,1.2546720809174512,-0.7553871281651596,-0.14271014955234645
55,0.9812006551747275,0.8528432860477014,1,,0.7711929008796983,-0.06553171288828855,0.34968906642399655,0.98520914383957,-0.575044091228876,-0.12239508673841629
56,0.963232197902282,0.8064165083568842,1,,0.8638168391220673,-0.07019262636404451,0.2826845208036161,0.47978512341125623,-0.11343344238922841,0.019009005844551983
57,0.9537824913631501,0.7827420691972138,1,,0.8912152422092265,-0.07321640178626254,0.3436062227174944,0.014557275398304835,0.2507061666959756,-0.04299130775640228
58,0.9522292368062901,0.7825563902676679,1,,0.8887843410362268,-0.07549147212931855,0.4630318669057191,-0.43228783461494785,0.5702697774016527,-0.1980136545777051
59,0.9574204259918158,0.804882302811902,1,,0.8638674750148974,-0.07595521557916149,0.4933657154681936,-0.4858397653344332,0.5281540835418493,-0.3164633180552928
60,0.9678127740606989,0.846841654409319,1,,0.8305390210652025,-0.07574137478250625,0.4903719535017835,-0.3922679143887367,0.35074078025966604,-0.4212318096787728
61,0.9816305909970164,0.9037998984570224,1,,0.8228754066188109,-0.05642329644143312,0.5178159028559213,-0.4908458172886846,0.3892804799074894,-0.4736503273186896
62,0.9970246484214387,0.9698206174579085,1,,0.8247145199495131,-0.03003163529554798,0.5565297953863119,-0.6605695691399892,0.5077794792643836,-0.5066856123511808
63,1.0122195331473796,1.0383491291065834,1,,0.8375864890137127,-0.05616786178612628,0.5589655889782574,-0.7810289289611808,0.6338949947008938,-0.5169089754949223
64,1.0256435503765335,1.1030014092838187,1,,0.8543635335919615,-0.1008963162174098,0.5485607617620104,-0.8840511736935246,0.7627063731512649,-0.5190580666090434
65,1.0360365673142005,1.1583085116753806,1,,0.8331733356854399,-0.10931435908694055,0.6097452144533896,-0.9063048304126805,0.91076624063865,-0.5603533294955074
66,1.0425303113692557,1.2002685033989153,1,,0.7997197256221134,-0.10600414581581506,0.6940529909995989,-0.9024702483083354,1.0650433661683067,-0.614292798435963
67,1.0446946379868314,1.2265954939873682,1,,0.8046650572562634,-0.09940891533007694,0.6954371546808982,-0.7765470380660255,0.9897519929556509,-0.5731733813355028
68,1.0425437170613794,1.2366259936649742,1,,0.8283262510194437,-0.091212548823095,0.6564038787638783,-0.5911171377716241,0.8025676305715742,-0.48572172370818
69,1.036499160305025,1.2309315442694355,1,,0.7856302952356387,-0.08380074821648997,0.6793301168105954,-0.34440508819281024,0.44466499775415386,-0.7540135634832057
70,1.0273129419277853,1.210765136884138,1,,0.7143545482053182,-0.07672685740527405,0.7289420999416114,-0.07129903261914758,0.013234606021973561,-1.1755228780387348
71,1.0159599868048559,1.1775070157818115,1,,0.7154792740450483,-0.05885889102609346,0.7006325037939461,0.2620144038528274,-0.08183661696145911,-0.998509696903308
72,1.0035160688078084,1.132262216706845,1,,0.7386919218993683,-0.03769787023302823,0.6485506076303638,0.6136958955626349,-0.07429145073491565,-0.6388993909152364
73,0.9910392512202794,1.0757125196479975,1,,0.7478966272784938,0.004986308230498967,0.6012510907094656,0.5378601000026847,0.35118257119670304,-0.4573093183798324
74,0.9794716860361249,1.0082596160679247,1,,0.7506225698039416,0.05762508444008671,0.5561634548308965,0.2642948296426175,0.9699513563107537,-0.35805474085423483
75,0.9695731101972562,0.9304230967477741,1,,0.7383847903469795,0.08150262463382928,0.624028148887417,0.14773559723678173,1.0854650633355751,-0.38136321574228754
76,0.9618885200011826,0.8433855452717998,1,,0.7207735609848868,0.09505204842522473,0.7324538536380797,0.08755699583468171,1.0202606327513262,-0.4486838973248268
77,0.956742854099543,0.7495309047436133,1,,0.6900619170012868,0.10332695731932685,0.7191177031590916,0.25827470040448147,0.6123429234779114,-0.4107093175626476
78,0.9542500387418026,0.652823731071532,1,,0.654311385951825,0.10957309947226661,0.6589475964375496,0.5178033665989767,0.07260545365595145,-0.33223442145672033
79,0.9543264917221094,0.5589213758983874,1,,0.6677177997689883,0.10514186022129854,0.6259318997187053,0.566211037513358,-0.1009932723481871,-0.3241837296748054
80,0.956708217977326,0.4749690668275257,1,,0.6951793033683031,0.09765771451881361,0.6006802671742402,0.5542544086919353,-0.16990459440462208,-0.3362689214387022
81,0.9609784298860684,0.40907492407154994,1,,0.7063825677228415,0.09496626533256045,0.6132616495994998,0.4181323347742295,-0.0348687050812464,-0.294280695485461
82,0.9666129319228172,0.36949877266427256,1,,0.7108224133254135,0.09426857530929912,0.6415815457498412,0.2303575031935096,0.1850091135051514,-0.22979795711825496
83,0.9730435025248442,0.3636278990882284,1,,0.7017499715427679,0.10285470541510705,0.6914827246418428,0.19493315222212232,0.24197950400055615,-0.19212249800083156
84,0.9797301172967433,0.39685645364549493,1,,0.6889022195141519,0.1140347191612099,0.7474136773668498,0.20207526818152236,0.2534338342335071,-0.16193694748560333
85,0.9862263477251632,0.4715213968303737,1,,0.6936857133524441,0.15226472644649827,0.7156739299311662,0.2740964343521449,0.06763535548144994,-0.10554942875937376
86,0.9922217161088528,0.5860653394104524,1,,0.7027306836569032,0.19703272376895445,0.6627441527009152,0.36179888282398764,-0.1658391755017455,-0.042828887962217774
87,0.9975502052218057,0.7345905972448398,1,,0.7737307040004779,0.03826998892324948,0.6416845967555207,0.28599740940581203,-0.4468427003584198,-0.046719235425609074
88,1.002162667904549,0.9069378263315159,1,,0.8601035064210126,-0.17099441767653117,0.6285329348914532,0.16962603616777072,-0.7396394985209332,-0.0671376088899013
89,1.0060694354953426,1.089367983829271,1,,0.7834934758744471,-0.04975040896796055,0.6237884776771193,0.21964972309208122,-0.7693621752375707,-0.1419854308015526
90,1.0092675532521742,1.2658535837998603,1,,0.6675605245280928,0.15123547201643495,0.6210724294634082,0.30981960002936293,-0.7356128733277646,-0.2299654632407656
91,1.011675192742088,1.419898853511967,1,,0.5941844071620578,0.19228421715937322,0.6631056539250648,0.1061377796483103,-1.0994877964456151,-0.08116663115257586
92,1.013100018741652,1.5367064062632416,1,,0.5359024145344644,0.1766062081768145,0.7210106204738891,-0.201767820913432,-1.6043927021945203,0.1516132994375987
93,1.0132611392576913,1.6053912965720898,1,,0.7504004584574979,0.07849980768643551,0.7008420948932595,0.2804435804084503,-2.1681829411932774,0.5466093679927669
94,1.0118633047367789,1.620837706959092,1,,1.0349995047915164,-0.04078964170686174,0.6606096740536872,0.9657050092503188,-2.747105961399658,0.9832929217434312
95,1.008696645565368,1.5847586517366499,1,,0.943604719449118,0.05807567924020088,0.5420273119154859,1.0348082019770448,-2.0510024271538105,0.6358832516217133
96,1.00372250546045,1.5056198062747523,1,,0.7830345606046574,0.1970771311987451,0.409030121853621,0.9905505555596479,-1.1203194119961013,0.14421605134074977
97,0.9971159912664298,1.397336135429199,1,,0.821797544657226,0.20067660392500233,0.3939866510682302,0.7589224367937198,-0.8381801924115615,-0.012549234751948106
98,0.989260016831367,1.2769649781226804,1,,0.9268087548863054,0.1592753265151954,0.4181450138323323,0.46502187718049093,-0.771584036060021,-0.05801011091211001
99,0.9807038954535935,1.1618728633153739,1,,0.9233012425405561,0.1560796929670613,0.36813625418156626,0.27160781850062243,-0.5669593086030466,-0.08653394668655245
100,0.9721020855298019,1.0669587479880147,1,,0.8830534307413915,0.16581903288699296,0.29301733647086525,0.1122146558684307,-0.3156033732052305,-0.10932354667699172
101,0.9641429922240948,1.0024700617057372,1,,0.8911324220379124,0.14483571241112442,0.3160366777449155,-0.08221583545203241,0.16877254462049304,-0.14072286555964036
102,0.9574741548672833,0.9727914935868491,1,,0.9144328588021396,0.11417570594925405,0.36996652956562487,-0.28768199921675014,0.7265425353827243,-0.17483397904157755
103,0.952630301610487,0.9763631099995822,1,,0.8829362965004663,0.11669412209585248,0.36405588714557785,-0.3238995181668245,0.9805351570322134,-0.21156285681180073
104,0.9499718862817896,1.0066403763463958,1,,0.8343059927137788,0.12958665593875673,0.3394345200629559,-0.3071969394586866,1.1395436910808867,-0.24911024824865904
105,0.9496431430120019,1.0538029140710714,1,,0.7984303658872587,0.1701210420599858,0.37990075739757123,-0.2900341830969679,1.2816532857591048,-0.40100703799157117
106,0.9515596198453062,1.1068018847057095,1,,0.7663920392583805,0.2189715997687933,0.4399488839701592,-0.27273298031844534,1.418678760624634,-0.5873063420291558
107,0.9554321928319164,1.1553222625902329,1,,0.8036993000578571,0.25200164414650994,0.461908221796263,-0.34707364246432465,1.4406528749454952,-0.4836699774598421
108,0.960825499517704,1.1913078476646912,1,,0.8537646873446995,0.28212104744400135,0.47686002521327264,-0.43827447617108517,1.4414599637126915,-0.3266915607546
109,0.9672367883900266,1.209825208844035,1,,0.7839047445904832,0.2375688332016246,0.575247799746463,-0.7383366515318477,1.061938217267532,-0.334282950006946
110,0.9741733440114481,1.2091990644032788,1,,0.6952925149108213,0.18134049018322507,0.6866821530045385,-1.0710577136043715,0.6229458368265518,-0.3676075203866587
111,0.9812078370681017,1.190505615839809,1,,0.7219701338090873,0.16253998733630254,0.6687006701192333,-0.754598165805374,0.6112352970268008,-0.11118136101198006
112,0.9880002030798382,1.1566328485896997,1,,0.7714434019167503,0.1511398925188999,0.6251304815340306,-0.309779585508301,0.6840089255801182,0.20253567031948666
113,0.9942869067409117,1.1111851852489099,1,,0.7526123672098045,0.1620791317914394,0.601833396569567,-0.05677237530111737,0.7043542603535532,0.2755323216004694
114,0.9998490358096601,1.0575112038023207,1,,0.7245319720403112,0.17604343016564045,0.5812815741852871,0.17026088499764563,0.7176000688623139,0.3159320574470642
115,1.0044769967313056,0.998068460520464,1,,0.7572909294466806,0.18977656411405533,0.5718478016933068,0.06596019165843828,0.7104169702070972,0.29095442893864426
116,1.0079498432944867,0.9342278167361345,1,,0.7991273313979071,0.20347520749541845,0.5640728812231774,-0.08777668846991675,0.7001858070268889,0.2562222686113927
117,1.0100406402848374,0.8664916850010264,1,,0.7746079498926643,0.16809811101733474,0.6289754893160724,-0.28107324318399907,1.0453628501186882,0.13681187649781082
118,1.0105479871189273,0.7949862610676847,1,,0.7420459704281047,0.12677283003020348,0.7026869171988893,-0.4791645952880652,1.4336168510992935,0.007138129354019475
119,1.0093429309782584,0.7200155841821828,1,,0.6870400901893088,0.10063510579049428,0.7712374973306637,-0.3156454859051285,1.0755935373179597,-0.07226603071099993
120,1.006414520213835,0.6424650192423159,1,,0.6267492687118714,0.0780736470369263,0.8385728350276417,-0.066976736503394,0.5418417768801974,-0.139833040663346
121,1.0018979180189407,0.5639244986430819,1,,0.6391936476624571,0.09298850583996038,0.7788921977516915,0.13638504898815795,0.19082181993417538,-0.15313641144085957
122,0.9960755112624475,0.4865308112079032,1,,0.6610014497506203,0.11272780474579434,0.7028604085295361,0.3339143311147664,-0.1366745165949526,-0.15945425919120396
123,0.9893510930230524,0.41263292633451326,1,,0.650869991310134,0.11775471409869132,0.703386083531043,0.2067305629344979,0.0007707645717168848,-0.17523051497658307
124,0.9822056788144998,0.34441783180415364,1,,0.6337489049135634,0.11956194559407182,0.7206656903635505,0.008486182357646518,0.2399644543056165,-0.19307666065141232
125,0.9751468789216652,0.2836054518220731,1,,0.6261433590564186,0.11360873178127238,0.7467691486483569,0.044447630640577274,0.13693720152349784,-0.19434783122856072
126,0.9686613185606098,0.23126879183192706,1,,0.6196494336040884,0.10674893056889571,0.7739034230735954,0.10776937164713675,-0.0060688390981532125,-0.19368268717884182
127,0.9631746083736803,0.18778899792284337,1,,0.6139930700263463,0.1246484574194893,0.7294410345495645,0.12046691104555407,-0.04427608666788656,-0.17218827482866736
128,0.9590200780599971,0.15292392242551542,1,,0.6084365852170837,0.14550052009166267,0.6764407846084795,0.1271275432064222,-0.06998613781335157,-0.14820998404338662
129,0.9564174102025723,0.1259525269870813,1,,0.6141609883400393,0.1473420086842428,0.7034300604331593,0.04606271033768825,-0.01299219730349339,-0.1280050050661638
130,0.95546315310808,0.10585376937211101,1,,0.6212190480123799,0.1469360167101546,0.7398759105357384,-0.04537326019394917,0.053779228905207796,-0.10824611699951675
131,0.9561338196074304,0.09148436069232946,1,,0.6128815513300702,0.14642487771933324,0.7362244188031573,0.024967675840359273,0.018936575189807507,-0.0674554623642788
132,0.9582991198158811,0.08173000460993986,1,,0.6035600334404618,0.1459070181590444,0.7300100684540396,0.10564873228363607,-0.022400836284619762,-0.02532054289014725
133,0.9617409166158741,0.07561443226772065,1,,0.6184593907531872,0.16133828701179032,0.7124797598004408,0.10940531995990044,-0.029054604649216373,-0.004291557002723234
134,0.9661744490047407,0.07235784474549958,1,,0.6350063742595979,0.1778544960967687,0.6941796825245071,0.10792911705560088,-0.03334901657967412,0.015301696800097978
135,0.9712706720187056,0.07138311790037986,1,,0.6399143715323398,0.17812507391969956,0.7043488939337479,0.026308936927849507,-0.0009870837036999604,-0.0046190709096657675
136,0.9766797713550052,0.07227653346930435,1,,0.644233490392202,0.17757369856840644,0.7159585185906493,-0.05936615480185837,0.03322948931289033,-0.02653906385318177
137,0.9820553168088608,0.07471866971690341,1,,0.6460231203506728,0.1753504274406718,0.7264958829650978,-0.03813888062161076,0.024377893678658162,-0.033320399597752
138,0.9870771476574949,0.07840645970563437,1,,0.6477055134689071,0.17305627684230507,0.7369877892376119,-0.012379516054781938,0.013700437302235972,-0.03945993700166565
139,0.9914703253276668,0.08298689592516356,1,,0.6459938879725601,0.17394836415896395,0.7326988545316323,-0.020602093419908922,0.040380666560498144,-0.03800565745394652
140,0.9950180425943295,0.08801731984535106,1,,0.6441554318130283,0.17495951760630352,0.7278575764064769,-0.03009453776926289,0.0684569105803974,-0.03626760550059653
141,0.9975679069305297,0.092958878003793,1,,0.6495996112278827,0.1809586834208451,0.7327424841435966,-0.06328261205948886,0.09516547760170822,-0.029478937834194682
142,0.9990324815940602,0.09720099174970483,1,,0.6552533436639941,0.18710137599537768,0.7379072564412866,-0.09715251245169307,0.12183469066665831,-0.022544942036742874
143,0.9993855422819298,0.10010892848900683,1,,0.6451761277846373,0.17906247718285268,0.7452175132529804,-0.04210370173556316,0.06374475296773748,-0.03173065877874959
144,0.9986553308071021,0.10108672692626466,1,,0.6346930787169174,0.17065771610272054,0.7525831201270529,0.015239068839969368,0.0034681653731297502,-0.04133223819956252
145,0.9969159629052528,0.09965282076619061,1,,0.6386574114356238,0.17629373100666487,0.7374070243701979,0.0007781892189044722,0.030631214633881677,-0.04709069582263589
146,0.9942784660312846,0.09552978993736135,1,,0.6429496316273458,0.18224840535117862,0.7217193381930228,-0.015312294827605332,0.059778731534991233,-0.05276193270522342
147,0.9908831910546132,0.0887466355793115,1,,0.6448201833917404,0.1778029863365847,0.7319978558382702,0.005919692625753747,0.05023142618121546,-0.06414060180696922
148,0.986894832655869,0.07974153105398027,1,,0.6465860621742734,0.17290803888097805,0.7433987237073436,0.028764887955064978,0.03901159516787407,-0.07576596612293905
149,0.9825000305683187,0.06944057484766557,1,,0.6319888019589841,0.1739410778746931,0.7363879004690479,-0.009002743649679781,0.0839121504345542,-0.07207056053084296
150,0.9779064961931471,0.05927966649474237,1,,0.6172005538409079,0.17504330735745866,0.7291621789750832,-0.047477838307694774,0.1294677337338818,-0.06819633341456821
151,0.9733427595960594,0.05113587952308329,1,,0.6156342689400539,0.17526200436835027,0.7240098408016021,-0.04554454483968239,0.09674234251613073,-0.05741385231220669
152,0.9690586361415737,0.04714363250230342,1,,0.6141305935680471,0.17547386367184173,0.7188774849809403,-0.04341221227631374,0.06365696412220632,-0.046601774116589244
153,0.9653270082624866,0.04938985316809448,1,,0.6077232824942322,0.17272787321163532,0.7255593976495192,-0.04674044957966138,0.07284289855955743,-0.04220850251581827
154,0.9624465837705777,0.059508130318863796,1,,0.6013207548708843,0.16998394597643776,0.732236884388797,-0.050058927306104756,0.082008207676882,-0.037811406013788636
155,0.9607432542658232,0.07821900642750526,1,,0.6075800369683264,0.17270138231201734,0.7271989180379035,-0.02754381195050074,0.03657830053933307,-0.023289822186522577
156,0.9605655556385799,0.10488718603322396,1,,0.613836162232715,0.17541410818145725,0.722186632087605,-0.0051355767679411414,-0.008766998725995134,-0.008774943818377018
157,0.962268386621555,0.13718281112767278,1,,0.6178253085536503,0.17474417051231372,0.7356158549892403,-0.059479715234894405,0.006646008737787447,0.000924621632085417
158,0.9661790166531719,0.1709388799997619,1,,0.6218144548808174,0.17407423284212364,0.7490450779118548,-0.11382385378674424,0.02205901622564827,0.01062418709770054
159,0.9725408429845349,0.20028713304575407,1,,0.6224058846658637,0.17333998517806054,0.757505743044573,-0.06325972253903163,0.011187352600361548,0.001333353238151775
160,0.9814338277592364,0.21813121328270044,1,,0.6229893624281181,0.1726176262376504,0.7659008611363162,-0.012582942083944323,0.0002954209326655901,-0.008019957476582842
161,0.9926763935215283,0.21698163065871112,1,,0.6243716629555399,0.17661090180807845,0.7544125042312659,-0.03845082367837241,0.011688012426586035,-0.01994867277580592
162,1.0057212296949045,0.1901320335496374,1,,0.625730065997649,0.18047134948109478,0.7434216482537226,-0.06377726222756107,0.023095567068082197,-0.031581982893989974
163,1.0195651654576012,0.1330989814299089,1,,0.6255778386155684,0.17593535495361842,0.7638792892989336,-0.05487749189606226,0.0354489851043256,-0.024541862074376468
164,1.0326985287122064,0.04518178127407082,1,,0.6253835662652001,0.17156301037612978,0.7838211563994092,-0.045704494110397495,0.047590354996073864,-0.017649929712684535
165,1.043120400596793,-0.06906361001018589,1,,0.6212910993370342,0.182363453536304,0.7559430960737163,-0.01119924433319817,0.04007170273697185,-0.02449727492270613
166,1.0484424696440773,-0.1986886490150155,1,,0.6174542533463799,0.1927945992352286,0.7293462971070979,0.021391026089815506,0.03297455707298881,-0.031278706186057104
167,1.0460959026391474,-0.3258247066177442,1,,0.6227906814131662,0.18997304769528073,0.7487291499205572,-0.01474011049687254,0.04100369786672143,-0.035694733471865484
168,1.03364223598364,-0.4260162969256616,1,,0.6284285584765558,0.1860233747219838,0.7661690584506073,-0.049383711352223185,0.04831564024535807,-0.039494157074398344
169,1.009170592552644,-0.46960444441798777,1,,0.6419147127416374,0.15270286275373268,0.7330240714257468,-0.0452990573658924,0.03695519592648768,-0.02724019559470642
170,0.9717419205250291,-0.4242368038197121,1,,0.655400867027787,0.11938235073342815,0.6998790843491071,-0.04121440337318056,0.025594751589869968,-0.014986234095871328
171,0.921820881392103,-0.2584206984939517,1,,0.6248477033639551,0.1290282094500304,0.706542899043787,-0.05312995002645212,0.05712449986127183,-0.008788485226248376
172,0.8616213374213709,0.05415882093307298,1,,0.5946527462778347,0.13915395990833163,0.7131902280119342,-0.06035027271299435,0.07744434246537661,0.0007913472419529815
173,0.7952845738914599,0.5300346593122062,1,,0.6154119707868414,0.1155376933005026,0.6796958639825726,0.038849167249774344,-0.16100565566367875,0.08155667297031137
174,0.7288132200378755,1.1717163730770899,1,,0.6344050152283802,0.09041557734097837,0.6467008433521587,0.14526784600515225,-0.39485188417019884,0.16472324726054485
175,0.6697022491665601,1.964558246776012,1,,0.6123438855229556,0.030290575832843565,0.6253128683934174,0.4194949378138915,-0.5216852572897929,0.30370591366644806
176,0.6262450845509754,2.875463705520844,1,,0.5820360197623061,-0.031745715233877266,0.5988140483087284,0.7176328498954462,-0.7147656482936908,0.4605925627690054
177,0.606548520176607,3.853981620771767,1,,0.38262809657570185,-0.13297316710761603,0.4675168939051293,1.5060642545666567,-2.266247043946732,0.9846019688808086
178,0.61735971475205,4.836014470936954,1,,0.18856904658257867,-0.23294034324443474,0.33929002630319893,2.311817360754423,-3.7796932805962635,1.4791220694971203
179,0.6628775107623105,5.7498988664781105,1,,0.07353359878249371,-0.31428835754376444,0.25642320300898647,3.3734791436673706,-4.731212699518301,1.5379707704945376
180,0.7437661641859625,6.524144411250727,1,,-0.036100354298707345,-0.3944677141859971,0.17426082420035438,4.349453487686243,-5.657857894145387,1.6652642879286295
181,0.8565909853498239,7.0957640239405215,1,,-0.0512947959678945,-0.4542143068074943,0.10441492575176681,3.827272197863358,-6.149603162509405,2.989244115882039
182,0.993843700418611,7.4179867026051864,1,,-0.033946557135091496,-0.5154542113467323,0.04796440715286465,3.3343477029488926,-6.60081527986272,4.2891458030830805
183,1.1446258067745223,7.46621877423144,1,,0.7328739363571043,-0.611085744319539,0.30001538445981796,3.5152200903786044,-6.118531072221791,5.034517262194673
184,1.2959252313001737,7.241367262528053,1,,1.4996944310472293,-0.7067172774417413,0.5520663621605261,3.6960924780908755,-5.636246863827436,5.779888722470687
185,1.4342821597353757,6.770011674629351,1,,1.7689535006611077,-0.40985152579891493,0.18794923429324423,4.6529353444402135,-3.8313274552602157,4.194083718931105
186,1.5475387376150798,6.101371917664022,1,,1.9962090626228053,-0.09172486372999679,-0.21407249043913354,5.617348063128038,-1.951665516034874,2.4565401485679246
187,1.6263495282770666,5.301518735076062,1,,1.7921404774037095,-0.07108800443673896,-0.3922741399161038,4.142529907647085,-0.9081026253333034,1.1182335646824897
188,1.6652056343074746,4.445716273799202,1,,1.5982951924021598,-0.0574947030816329,-0.5416208611739115,2.7907912025340704,0.023530264823832102,-0.11973368373250631
189,1.662859147662707,3.610056931571754,1,,1.520342773024387,-0.12374822932961532,-0.36386379313103023,2.8342996001706067,-0.3136921071891092,-0.22023917869513251
190,1.6221691905137798,2.8635633291230276,1,,1.4449634636904172,-0.18769092034937618,-0.22157556744397075,2.7148451131917475,-0.6374084210047872,-0.30746182509599795
191,1.5494827442426355,2.261703424741907,1,,1.4052786845659806,-0.2195773929274565,-0.5713158946769389,0.3347475847672114,-0.7737668722237806,-0.21042300846684675
192,1.453699442525613,1.8419039898099974,1,,1.3655939053795485,-0.25146386555535,-0.9210562224562724,-2.04534994737552,-0.9101253236557936,-0.11338419168610119
193,1.3451651083325629,1.6212855483880217,1,,1.0985523804481556,-0.1946842830308596,-0.6155868339068213,-0.6748280125743087,-1.4300353823085854,-0.10448295949877906
194,1.2345233897142749,1.5965510347384224,1,,0.82388706413258,-0.1335645309139627,-0.2814865755403927,0.8566120684639426,-1.9562021581571634,-0.09318428844072484
195,1.131646444248617,1.7457663795684142,1,,0.9347958921825279,-0.06460220564013686,-0.28772805897761367,0.09567245515721098,-1.0675047934599529,0.6871125925841349
196,1.0447551173333456,2.0316828736265067,1,,1.043621985217441,0.0016039132041938643,-0.2933960977113153,-0.6598493863753774,-0.19037103635812613,1.4609965734861288
197,0.9798066550641283,2.406238847450028,1,,1.0020814817395003,-0.13117896970511167,-0.2576633235965376,-1.0242259266602487,-0.14809162701224796,1.771890273438042
198,0.9401756317753297,2.815868604357502,1,,0.953660521278202,-0.26020780944448235,-0.2280332802147743,-1.3784259869968585,-0.11748314009719191,2.098904702852218
199,0.9266076501495843,3.207181161168893,1,,0.50482730092966,-0.17076787422730583,-0.553555264725887,-1.1403997439682922,-0.766070890951347,3.364074489496694
200,0.9374048641116006,3.5324591684966724,1,,0.08113365735515109,-0.0948203871100683,-0.8677233427729052,-0.9155823628847938,-1.3415803454168147,4.5855222491087915
201,0.9688002171428807,3.754339988910391,1,,0.32058527679216053,-0.374783938650429,-0.8823919706871363,-1.0391954390736584,0.010608737336989742,4.653646868183257
202,1.015474201358737,3.8490662519605623,1,,0.5438417830440028,-0.619362640442457,-0.8791514693749087,-1.0906434358982007,1.1974661096150905,4.6304251254113895
203,1.0711579877183353,3.8078873889905576,1,,0.617248095804078,-0.5365322986699306,-0.7102013256360915,-0.4743621777467558,0.8545417360972667,3.7619935030746947
204,1.1292617625390855,3.636529887138844,1,,0.6929017755115334,-0.4609447760620014,-0.5452344497225428,0.10127026036253436,0.5166317665745335,2.9126681545385043
205,1.1834768892702012,3.3530221491448713,1,,0.825475284090511,-0.5687986168681596,-0.48115316833559046,-0.35262390509971325,0.3057233374374717,2.547253977837802
206,1.2283164503610065,2.9844226145941164,1,,0.9455295986899652,-0.6908213075270331,-0.4084422816463581,-0.8382403275138144,0.12843242842700953,2.162929744464525
207,1.2595634272239957,2.563069160480527,1,,0.8025159801520824,-1.1105764193588044,-0.1543960496111372,-1.9904418547189227,0.6575521309070621,1.3812453224905152
208,1.2745861150469153,2.12285480784692,1,,0.6616882573092234,-1.4873468779371224,0.06096394081914019,-3.018785131170826,1.137564121063502,0.6258466331526087
209,1.2724736822035572,1.6958439411012491,1,,0.5649369339372247,-0.9973748934441359,-0.5037453457633848,-1.5496509442606632,0.6273683183946962,0.4004734097574902
210,1.2539619480505129,1.3094073174032055,1,,0.47506599653675513,-0.5378076349703914,-1.0237102235562991,-0.14999467060918006,0.12492804606402147,0.18849741725897845
211,1.2211634200408135,0.9840355702952122,1,,0.5062560238716555,-0.6132140672331577,-0.7563935005624988,0.027191913105490653,-0.24105301179389962,0.21224682028751554
212,1.1771659710166529,0.7320260658042954,1,,0.5343733757653786,-0.6875252913164319,-0.504612099539876,0.19280215386837626,-0.5775177812516591,0.2314539176955209
213,1.1255937370979814,0.557206200366727,1,,0.5123648653394146,-0.7439699164664748,-0.5062650212230625,0.16956258311196767,-0.43247077298536524,0.17656045074215357
214,1.0702186362604054,0.4557163709688025,1,,0.49390511642875895,-0.79157714105235,-0.5067568458813393,0.14629874561214268,-0.3011790247741763,0.13598234162408115
215,1.0146782184885312,0.4176980007770658,1,,0.5275294683695803,-0.7094805068678481,-0.49020760035197075,0.12267875302182775,-0.37176907505801976,0.3055064146495748
216,0.9623133035234792,0.4295994247507359,1,,0.5545401810069691,-0.6366915948534191,-0.47589917828347955,0.08879081759595357,-0.4450780067124138,0.42749552515020056
217,0.9161040465942869,0.47674757675511026,1,,0.5152138363503204,-0.6572623104975135,-0.4840669796795147,-0.048088084267989654,-0.5456582441273539,0.072692754572086
218,0.8786638507649224,0.5458195096618627,1,,0.47329902361225307,-0.655100241028136,-0.5006232194784247,-0.20586099232981694,-0.6540452861361874,-0.24366785221933193
219,0.8522462723147284,0.6268690379251621,1,,0.39853243112947506,-0.3644229392662361,-0.6236420961532899,-0.6288120976897577,-0.8615131040942221,-0.07213619614077862
220,0.8387265025271858,0.7146135442573671,1,,0.3375261004741509,-0.13095415992820506,-0.7286464880838133,-0.9805317967564401,-1.027021123731372,0.135366033978151
221,0.8395308268493782,0.8087669409207626,1,,0.43578234784709324,-0.5596222552522732,-0.6251495211735435,-0.5078124295608271,-0.7068824505671871,0.7591950991144331
222,0.8554995524211298,0.913329017535145,1,,0.5148949172509116,-0.9234192158678373,-0.533123288655162,-0.0717153245085468,-0.40596328187244596,1.3014824623829686
223,0.8866825283592678,1.0349133626995264,1,,0.39564426389115576,-0.6150335688159874,-0.559954668570092,-0.015091278505669624,-0.30419303993503216,0.9988499065031045
224,0.9320915016132565,1.1803926769066215,1,,0.27639361034510607,-0.3066479212823764,-0.5867860485269379,0.041532767585665806,-0.2024227978386326,0.6962173501504668
225,0.9894742961550377,1.3543142119789673,1,,0.2596303559841191,-0.4231282398620109,-0.5062179270086431,0.10785829251670269,0.027037066575723127,0.591084809190184
226,1.055213401048139,1.556635260083704,1,,0.2581803847096136,-0.5083888356771243,-0.4742864270519457,0.16505726835966672,0.11734306869936455,0.4912965531414485
227,1.124453423806059,1.7813049088050403,1,,0.3997381005286585,-0.30078104783844184,-0.8974598570249261,0.13687852255711544,-1.094075909825403,0.4410822996151612
228,1.1915124537747148,2.016059459903492,1,,0.5434315304025775,-0.16118983802688774,-1.225471581192622,0.0651661419041251,-2.151715860355567,0.4216070612993261
229,1.2505499178274708,2.243541577232418,1,,0.705837375259133,-0.6175372953921413,-0.7197080419399032,-0.3879734865697032,-1.8619950289898468,0.6714568646270679
230,1.296385447807892,2.4435786338916783,1,,0.835052458741031,-1.055055211024962,-0.2710859098976382,-0.7894641466541291,-1.659052496870777,0.9120186804776977
231,1.3253174152178497,2.5962400672795156,1,,0.5357872641326716,-1.249490798734327,-0.5601379137013118,-0.5241859961861006,-2.576385250889187,1.0326760578736427
232,1.3357796149284937,2.6851584435182736,1,,0.24780930189006448,-1.411120612273178,-0.7746050229258098,-0.28906542047035605,-3.1961033800129455,1.3548084383456613
233,1.3286912158280664,2.7005291144268724,1,,0.014364298565918145,-1.4142531248161563,-0.6287238477693003,-0.1996476775497233,-2.3779309023028636,2.650343965678001
234,1.3073956686373245,2.6412077759284243,1,,-0.21191663723521395,-1.4032613259843083,-0.5120584890401985,-0.13101488114435755,-1.646877226198377,3.6954647470239097
235,1.277150937622686,2.5154462106660085,1,,-0.3626840389479301,-1.2433908899800263,-0.7033452034183535,-0.2814677768036604,-1.8341075155462212,2.101065240496181
236,1.244221164142934,2.340062115529552,1,,-0.48266722019545694,-1.054822133230975,-0.8343935570814922,-0.33515908639340536,-1.7584213007029381,0.6096279635555516
237,1.2147148479544456,2.138172809693067,1,,-0.31038417387527395,-0.5937907425986881,-0.39353727510190895,0.5298067323584711,0.8134013479595695,0.0957169165732169
238,1.1933980294214512,1.935914179390643,1,,-0.14480807738099022,-0.21997373985557483,-0.047855952816351716,1.207769679010849,2.976949332541854,-0.3457360694505006
239,1.1827530900619103,1.7587101764555717,1,,-0.040538445650595126,-0.6433604955685716,-0.5721438790610482,0.17638860666347556,1.4085660941221343,-0.12486899446675158
240,1.1825167714335343,1.6276571207819968,1,,0.05281495481513615,-1.0118060672625695,-1.024054432338913,-0.7375260797749992,0.03294734143441569,0.06991960507710401
241,1.1898053791717362,1.5565325302210151,1,,0.05357901484252856,-0.914251253705382,-0.8620742539005727,-0.6551138364669934,0.29231928443803923,0.04351567237142134
242,1.1997726883912443,1.5498781670864339,1,,0.06255419886862623,-0.841901493957826,-0.7314029993282071,-0.6191649609314409,0.5384771695519136,-0.0013012997793402814
243,1.206624922078506,1.602491250411363,1,,0.1390724032546918,-0.9768833339679889,-0.8582725274764194,-0.9654142115241674,0.67593892340942,-0.19758015405513135
244,1.2047705834909908,1.700438776137834,1,,0.21171825939085132,-1.1012030505333152,-0.9651142142500964,-1.2955240589694843,0.8396619142759825,-0.4109363256429026
245,1.1898882852284076,1.8234271612206565,1,,0.25207146973967115,-1.1366081991807546,-0.9049378720493807,-1.4910426979367937,1.2223850396494043,-0.7667052383401584
246,1.1597266792058227,1.948101219605569,1,,0.26936241943771294,-1.1418626521251125,-0.8360747032662987,-1.685990086140121,1.5395176045519596,-1.1101740279421417
247,1.114506264596364,2.051682361310181,1,,0.1193259178790522,-0.9283597535310759,-0.7041845593254997,-1.8767927812594416,1.380760075418314,-1.3643996866015264
248,1.0568761606792043,2.11531817637613,1,,0.0007072564883652917,-0.7084995141358922,-0.5985189481693716,-2.0428544426861035,1.196041031790447,-1.5338418735002723
249,0.9914730195874039,2.126604954390804,1,,0.09887337136760674,-0.4447732864574889,-0.6738040148667647,-2.0382016484645002,0.8321861541415653,-1.1182735758993119
250,0.9242029574189352,2.080933181495378,1,,0.178210315980131,-0.22480645964277077,-0.7465560790591595,-2.022158308627075,0.5294023139158395,-0.7329870710372299
251,0.8613967657323874,1.9815420326641866,1,,0.1236545582869966,-0.31600918296814495,-0.8012961671342776,-1.9251177237514143,0.6608896671742029,-0.5630319410853013
252,0.8089733267046546,1.8383937503634444,1,,0.09499498314736883,-0.3669953680686479,-0.82445147171472,-1.775015183143509,0.7430486410542487,-0.3641196150662909
253,0.771708298852595,1.6661514556942845,1,,0.23034809345352858,-0.16327133015834422,-0.6475655095965135,-1.2888463576645732,0.5127878228396586,0.01819223285030755
254,0.7526718730178492,1.4816527135172148,1,,0.3306237652090282,-0.018637067494963647,-0.5288219563479225,-0.8515421343323861,0.3860626481696179,0.29194309566873544
255,0.7528823186374477,1.3013184330959895,1,,0.3236759055981867,-0.054626437479867035,-0.5878061582971452,-0.563605577264026,0.5758217385842485,0.23384839963434997
256,0.7712122180284591,1.1389176909759788,1,,0.32457310930370853,-0.09461921768179862,-0.6351735931637627,-0.269218453527004,0.7111172477212544,0.1899987266962026
257,0.804566921557749,1.0040177590526196,1,,0.3710109936132988,-0.15785183954793353,-0.6151055652475511,0.06261428524415319,0.5302510577497853,0.22884157223363308
258,0.8483257875892107,0.9012982740326078,1,,0.3996318448549982,-0.21045682298906251,-0.5977541113433458,0.443458904326044,0.34819184117462426,0.24168629916898143
259,0.8970023649493828,0.8307314555930625,1,,0.32868490578686954,-0.20367085937174734,-0.5955838196548838,1.0981989967536407,0.15946557425527405,0.10924447829014189
260,0.9450439028177136,0.7884625516905448,1,,0.3400980786290446,-0.29566090809445106,-0.6463062820396276,1.5361031907226637,0.014192645216643643,-0.05663664777652285
261,0.98765109792507,0.7681040691259217,1,,0.800359227422514,-0.9259626740792848,-0.9852848564378306,0.7922902707764666,0.10573268520089994,-0.40475604715844016
262,1.0214601311596607,0.762122114979773,1,,1.0618458741804058,-1.3335287878503346,-1.1907261557736557,0.22058933255063626,0.17666349790377373,-0.6922772778222934
263,1.044920039603292,0.7630530270801652,1,,0.29648402644611194,-0.5904655875799869,-0.7063277201577504,0.5380010664364328,0.14112917697070854,-0.6667546458074589
264,1.0582619899771313,0.7644012458212917,1,,-0.1720618769641104,-0.12461031030485514,-0.39710077955360773,0.7186211624691944,0.1609852579033102,-0.590657679234814
265,1.0630934216336385,0.7611740044973176,1,,0.14767164978400169,-0.39495976766336216,-0.5530917251613017,0.5359520334482346,0.327946356055319,-0.38024613606157015
266,1.0617839535748705,0.7500780289063428,1,,0.4168636980087967,-0.6178013449941767,-0.6912699275340215,0.3778008020283487,0.45374169121658514,-0.23739138312256455
267,1.0568520336710328,0.7294468318481484,1,,0.44142182714448497,-0.6106924097504437,-0.7432298138889275,0.33832258019400835,0.38028401142757834,-0.42152909140538514
268,1.0505006597247255,0.6989927651879226,1,,0.44483209661878914,-0.5820195740065186,-0.7910402031443027,0.2959638302092761,0.3135049136428483,-0.524469790449011
269,1.0443537524144364,0.6594825404815325,1,,0.3944969953471995,-0.4985440372125107,-0.8283050214492961,0.24628447847685273,0.26369882702506375,-0.4210556420337737
270,1.0393755117748709,0.612419152025376,1,,0.3681246079283718,-0.435343076492077,-0.8565137260502241,0.20891027223710862,0.2504364958507304,-0.31862491258034686
271,1.0359267244860524,0.5597855438152946,1,,0.4501956441074645,-0.46389484655443064,-0.8437389269953488,0.2272230849371405,0.40255317730989215,-0.22064465141451325
272,1.033907033828786,0.5038720214189002,1,,0.5250532829372684,-0.4922443062503037,-0.8212939752516824,0.24464760376549688,0.5226029648955166,-0.13425385523845954
273,1.032934864410341,0.44717331308568375,1,,0.5688856769489704,-0.5197236174187513,-0.7572571289531891,0.2582515186517094,0.5047311605438468,-0.09771002758938736
274,1.0325229188207088,0.39231125011014617,1,,0.6001505502639186,-0.5387594200191997,-0.700313103612382,0.2535865707030323,0.4672991723701327,-0.06420450366316016
275,1.0322183581523576,0.34192935935828633,1,,0.5784739836979451,-0.5222264328619515,-0.6732480145674736,0.17196293440746102,0.3474687279159681,-0.04349801743966418
276,1.0316924110950867,0.2985229032908567,1,,0.5637552891744451,-0.5102713697737689,-0.6515199711522941,0.10138745447490503,0.24414423312361513,-0.014500764802784146
277,1.0307797830050998,0.2642035043239491,1,,0.5771637593475707,-0.5168225429815059,-0.6513669092734682,0.07547409381277984,0.2075449609321538,0.04801187206329754
278,1.02947848536542,0.24043352222902334,1,,0.5853983102629803,-0.5281963762599904,-0.6547514902227903,0.0481250664384743,0.16141440135091997,0.10092877264991287
279,1.0279231747445214,0.2277868221968041,1,,0.5735117142354822,-0.5583253249274982,-0.671893810322518,0.015192793441470493,0.07821707922579527,0.11652827251965174
280,1.0263418862640499,0.22579485227601892,1,,0.5564178600228483,-0.5791759032335361,-0.6845597092624127,-0.015790272270993923,-0.0018375128321260952,0.13277190616138215
281,1.0250020442262915,0.23292356395253297,1,,0.5193884762985562,-0.5645050578709966,-0.6800880241050696,-0.039310969785946524,-0.06986044019726592,0.15148154934583416
282,1.0241508450284935,0.24670288924342132,1,,0.4874462883982165,-0.5512690627563033,-0.6796268949814194,-0.05641882855837999,-0.13542163926437914,0.16992503308719772
283,1.0239579082600696,0.264000904027525,1,,0.4741528105050356,-0.543292960703534,-0.6938677156046827,-0.050018417740023344,-0.19195860241112842,0.1873928261298603
284,1.0244713345502918,0.2814053041627994,1,,0.4613446774333853,-0.5384955530342581,-0.7083011741999832,-0.05095779269313546,-0.24517830566546597,0.20322416065110863
285,1.0255982324593795,0.2956522421226231,1,,0.4502869633148122,-0.5451622569085837,-0.7234293908529477,-0.0783684520522262,-0.2864341546655767,0.2131535302594212
286,1.0271161110609697,0.3040320184855668,1,,0.44216562179805774,-0.5504962285547093,-0.7386065239828156,-0.10319307432371705,-0.31231331707557386,0.21735024945047215
287,1.0287139856504528,0.30470444746881475,1,,0.4404956415851757,-0.5529021191065145,-0.7538911291993614,-0.12233604048391784,-0.30440910981648966,0.2089520414110275
288,1.0300544425430254,0.2968731264216222,1,,0.4419968570656708,-0.5558090911416235,-0.7669829746473212,-0.1356075266037538,-0.28701271911181103,0.19741174691375235
289,1.0308425241286918,0.280794578485215,1,,0.4605984822648192,-0.5614181035362611,-0.7682505450786867,-0.11721754381881316,-0.2184305164460838,0.16892801173544242
290,1.030885449339217,0.2576305456620892,1,,0.4717203234165164,-0.5633462658638421,-0.7662862477883253,-0.09501633537144231,-0.15682973911260217,0.13547411526150846
291,1.0301294422899852,0.22918289030876016,1,,0.4578554850046059,-0.5529783216803842,-0.7535256971588534,-0.0600834925371609,-0.11855084299515417,0.0854170884088168
292,1.0286660112303085,0.19757302537299154,1,,0.4456923418878003,-0.5428081229136688,-0.7438133738468075,-0.029572717296630285,-0.08800461320649007,0.04306781377712314
293,1.026708317882758,0.16493534906576235,1,,0.43889993402748934,-0.5332620301122305,-0.7437215872454289,-0.013018467888189491,-0.08186351873866941,0.025045042757159564
294,1.024546012289401,0.13318465921752098,1,,0.4336114301175174,-0.5240243333316819,-0.7443365983797896,-0.003944694325976211,-0.07506632777356122,0.018275716438878434
295,1.022491357335271,0.10389402397436906,1,,0.4329383608433783,-0.5157330943339616,-0.7471207498897467,-0.01782826951607767,-0.06625559692488434,0.04604286351070847
296,1.0208295117074575,0.07828915236403028,1,,0.4349557506073523,-0.5117902070160849,-0.7498963770756448,-0.02826295178467309,-0.057715120200941834,0.07062439099294499
297,1.0197822235251575,0.05733625929074633,1,,0.44500915738872326,-0.5208352252864865,-0.7526465433399634,-0.02839628339243369,-0.04998185390767823,0.08569092775488285
298,1.019488614840515,0.04187966099247925,1,,0.4509229922067984,-0.5314467534186361,-0.7553130958911248,-0.027581116764942636,-0.04620727928776386,0.09189123555297496
299,1.0200011072447037,0.03277689005213917,1,,0.44464258870017803,-0.5466728637079249,-0.7577333414594642,-0.023971889860412893,-0.05409411077331694,0.07197364755167558
300,1.021290632658328,0.030983741564430706,1,,0.4357839144260263,-0.5568677173894094,-0.7598171026688975,-0.016773306760731146,-0.05894500719877606,0.050529713124293815
301,1.0232543470172069,0.03755704345693232,1,,0.41963156382167777,-0.5528296374047379,-0.7609489824914043,0.0005792146187200277,-0.05520753977549039,0.024767893550936428
302,1.0257212763351848,0.053564458542476386,1,,0.4080600373141193,-0.5511565801411903,-0.7592142950015367,0.018381456266140433,-0.05193291117419847,-9.22986539584178e-05
303,1.0284555281157957,0.07991272017277233,1,,0.40912823557760514,-0.5560092561859635,-0.7495699778594531,0.037424597105597486,-0.049935379257499614,-0.02246465877119975
304,1.0311609137092357,0.11712352210338176,1,,0.409471163344982,-0.5586067468697202,-0.7439788506824737,0.05966507133770574,-0.04946716004173502,-0.05167316768613862
305,1.0334931622972092,0.16509692085352914,1,,0.4078145303681434,-0.5549867226586996,-0.7495623122567376,0.0907205497282913,-0.053215234829254464,-0.09972884464240567
306,1.035085386322545,0.22290505509726835,1,,0.41339027717148596,-0.5558535317721558,-0.7502676652669501,0.11989131476439013,-0.060644654182373026,-0.14829350763810664
307,1.0355892140058929,0.28865566213851274,1,,0.43787580316011837,-0.5684516146682317,-0.7382187163171814,0.1441343086942317,-0.07769931655974677,-0.19818896573499817
308,1.0347289741526873,0.3594574590969867,1,,0.46420124162206416,-0.5746909150893388,-0.728624745074285,0.16476728829000817,-0.10097655780891027,-0.250256313920298
309,1.0323608712458483,0.43150953510547985,1,,0.4934387670694637,-0.5708659721099896,-0.7229163436079258,0.179686585645245,-0.13410246888513624,-0.30576118052446893
310,1.0285247504490875,0.5003246971247288,1,,0.5144481694560776,-0.5675649984713309,-0.7192151187471101,0.19225409607626864,-0.17255505380680536,-0.35903252284434606
311,1.0234742105050958,0.5610815168317536,1,,0.5143869291427232,-0.5656058096591774,-0.7206538876423276,0.19879913196235607,-0.22464822758816602,-0.40658423875232397
312,1.0176724121264054,0.6090811472087769,1,,0.51082425392737,-0.5602687394323239,-0.7224080552099594,0.21732674995738815,-0.27852178416005186,-0.460015131518248
313,1.01174621148632,0.6402636229687081,1,,0.4985644670584233,-0.546541448431786,-0.7249456323149582,0.2656175529144164,-0.33681758171052056,-0.5280491398354018
314,1.0063997211941902,0.6517173408410474,1,,0.47675989946151826,-0.5307096060960177,-0.724996666448762,0.3112409857755347,-0.3863452413253916,-0.5803573348039889
315,1.002298763550758,0.6421006023410607,1,,0.43166228123990735,-0.5097418237364257,-0.7189795495516185,0.3503549779489463,-0.4144751671346285,-0.5942883085082278
316,0.9999477567577228,0.6118934075116399,1,,0.39208956373400916,-0.48710092450270503,-0.7156888314855049,0.37348089938993867,-0.4143674233598151,-0.5556333819411202
317,0.9995873020476777,0.5634176643832539,1,,0.36525494163492433,-0.4606025218578094,-0.7186840415612633,0.35974505924512434,-0.3491554988024816,-0.39573750263553237
318,1.0011406782680983,0.5006049496819739,1,,0.35160587357229284,-0.45707718179881474,-0.729634508719088,0.32456626192736115,-0.2787988254626484,-0.23672005365170418
319,1.0042281852208292,0.4285439394617348,1,,0.3679299520952451,-0.5057737636908438,-0.7586687126149437,0.24064374851964546,-0.19674720824102998,-0.07969943468855333
320,1.00825034983504,0.35288817687500085,1,,0.38994770523135847,-0.5625758840144308,-0.790260377454201,0.13699177712195876,-0.1392038163686156,0.010221210846450527
321,1.0125192871160393,0.2792320698788832,1,,0.4244831060488549,-0.6371981788249623,-0.8274746670201697,-0.010035768333040344,-0.13554220502063086,-0.04737865961744506
322,1.0164006512563157,0.21255977949743698,1,,0.43843553988928974,-0.6336815662406737,-0.8172558565863167,-0.047673670569882046,-0.11140467168915344,-0.09895948376566888
323,1.0194255911313845,0.15684088791590137,1,,0.4241511575525147,-0.5229698164751272,-0.7419657796953788,0.06475499696763157,-0.05917717209330936,-0.14228305807501207
324,1.0213462115671759,0.11480188162045821,1,,0.40521703767606765,-0.47931787164025236,-0.7144526115776934,0.11318365799003546,-0.01388165264386269,-0.1498726889427922
325,1.0221322425121873,0.08786121822450103,1,,0.3797993817873845,-0.5291732809352182,-0.7535589681276971,0.07237150958852925,0.021748000452254702,-0.10763535548773791
326,1.021926884368509,0.07619153451315915,1,,0.3532596929083778,-0.5688562672001654,-0.772917377189082,0.022563454345258877,0.034805069292615974,-0.05078742728710297
327,1.0209860778929278,0.07886844106383255,1,,0.3247436823292822,-0.5906217954283225,-0.7574922325261497,-0.04308977235717947,0.008103337964910648,0.031795246948935235
328,1.0196193841363317,0.09407389644211918,1,,0.31845474225761616,-0.5988018791311299,-0.7539582657967923,-0.06475719333391403,0.015718308988306697,0.08258201340138438
329,1.0181410524625627,0.11933212314315694,1,,0.3419643833825818,-0.5887687227538635,-0.7663661313950468,-0.02745532268811962,0.06933974957664926,0.09074179776473247
330,1.016833026115672,0.151760818583417,1,,0.3671582240939736,-0.575742006731797,-0.7687515808220111,-0.011973903543659025,0.1189241525133014,0.10547834626223096
331,1.0159185089523506,0.18832076896290467,1,,0.39520673401011325,-0.5576412945074365,-0.7541493276322786,-0.03347751219064442,0.16166589477257212,0.13136231790296365
332,1.0155441601191042,0.22604679047695792,1,,0.4176929833994657,-0.5432512472772064,-0.7427873162859555,-0.059175977605887914,0.17750238422705156,0.16037313873940343
333,1.0157700478355338,0.262244735737862,1,,0.43049144695591757,-0.5353240630506436,-0.7370688322278568,-0.09218062272830395,0.14647801056453433,0.19482999112833826
334,1.0165680228480223,0.29464347765529075,1,,0.43967281999716884,-0.5319179004628429,-0.7347846583015437,-0.12031048788828416,0.13654199193869024,0.22502184887280038
335,1.017829761749651,0.3214962092621491,1,,0.4420616399990956,-0.5370017878960192,-0.7389497932134327,-0.13928597854353333,0.16620790481155914,0.2472044511401484
336,1.0193846925686665,0.34163020704810587,1,,0.44453032003272386,-0.5465390975375563,-0.7400825153261908,-0.15548149895603425,0.18275635996703693,0.264747905587909
337,1.0210258485562624,0.3544473064790638,1,,0.4471443887924902,-0.5641840590663745,-0.735694595996494,-0.16661596081714516,0.1754239040013779,0.27384558658867164
338,1.022539599361835,0.3598795209615365,1,,0.4446402713262055,-0.5743818099852516,-0.7318855564125742,-0.17068959972784664,0.16674533315705858,0.2777666021021253
339,1.023734295040978,0.3583070272888524,1,,0.43423926124733203,-0.5730891970191107,-0.7289696752451131,-0.1638690355009182,0.15598983030312522,0.27370049688416026
340,1.024463546574103,0.3504494653756751,1,,0.425211849625262,-0.5753217727827723,-0.72847876945924,-0.15641993998595338,0.1492340029854374,0.26349674671184253
341,1.0246416449023354,0.33724496779444235,1,,0.4185963650057517,-0.5837442929181899,-0.732245922981581,-0.14786719467687243,0.14950128019663608,0.2425157917289816
342,1.0242504215482897,0.3197330008280336,1,,0.4160360031204271,-0.5858470741612303,-0.7346644388518988,-0.13862686202636385,0.14779291779469952,0.22228508753882067
343,1.0233379224529517,0.2989560534953892,1,,0.42037977335910326,-0.5771900547287839,-0.734786804119512,-0.12821586344813385,0.14272088976209998,0.20333173809233213
344,1.022009697458829,0.2758913804191535,1,,0.42681080025827234,-0.5708256176724945,-0.7326617546658135,-0.11820425320305603,0.13684793894494537,0.18722860935183258
345,1.0204138461721446,0.2514179697402761,1,,0.4367241966527742,-0.5682861145433743,-0.726787128758374,-0.10885898058509863,0.12963873219172334,0.17588077573763383
346,1.018721470063631,0.22631671080706586,1,,0.4448105670563176,-0.5632738663880943,-0.7244800558883694,-0.1034190492845908,0.11878372946084227,0.16676681062878349
347,1.01710472248736,0.2012947369281069,1,,0.4499152209598946,-0.5542260846382913,-0.727995249318983,-0.10435265661508693,0.10197876746355902,0.16129853125178514
348,1.0157150816849223,0.1770196313584134,1,,0.44969648719610955,-0.5494663674000161,-0.7243320396559654,-0.10047441677571207,0.09432617572967815,0.1500923333147821
349,1.0146648205475892,0.15414703931479332,1,,0.4409076425388593,-0.5516099964087755,-0.709112333553529,-0.08884959402618837,0.10140796608899932,0.12964867200525212
350,1.0140147958061738,0.13332721840563416,1,,0.44621746800858114,-0.5477851222997786,-0.7067399072234916,-0.07925922878678873,0.07833363424522281,0.10592990040721445
351,1.0137710890992149,0.11518225116849895,1,,0.4735742931980905,-0.5346269149424185,-0.7244576007830641,-0.07285027591939795,0.008102229256564189,0.07708962754470369
352,1.013891146295381,0.10025463357153153,1,,0.4852290960568407,-0.5317489970383524,-0.7323400758971756,-0.0644929437609351,-0.020536816629010708,0.062291825644429796
353,1.0142972824139136,0.08893689963225192,1,,0.4728811837807943,-0.5445859249259704,-0.7251880578978533,-0.05315724405712691,0.014403816997035595,0.06895988482394816
354,1.0148933289619937,0.0813979419329572,1,,0.4593233861179385,-0.5514522501334141,-0.7211304874388428,-0.040317508795151384,0.02486910085395685,0.06385843896463544
355,1.0155802148679391,0.0775237076554516,1,,0.44393949881831324,-0.5493070975194756,-0.7217433911113416,-0.02520772071907731,-0.0016064542368021525,0.040993186042016926
356,1.0162681614953528,0.07688891806979836,1,,0.4299360112580163,-0.551195736797889,-0.7273089692919215,-0.0056021301950424105,-0.020840163669786787,0.012388961292084019
357,1.0168852944417783,0.07877305650475129,1,,0.41794505685259936,-0.5589653828012854,-0.7400952254143125,0.02055804851978314,-0.029515732325856435,-0.02458231193557111
358,1.0173833600408757,0.08222713781364527,1,,0.409103926778061,-0.5663457969934851,-0.7465088421490557,0.042433125932752384,-0.03173484228240586,-0.05684931471460744
359,1.0177407427713978,0.08618694901189634,1,,0.40476701306625523,-0.5731696137270536,-0.7438096501282633,0.05818055264062422,-0.024721282713625694,-0.0823892592594021
360,1.0179621207744396,0.0896156983325556,1,,0.40717445102100064,-0.5734023885197793,-0.7405983738815316,0.0730731746730135,-0.01975382252229631,-0.10010306864944818
361,1.0180739573416235,0.09164912087792117,1,,0.41973942057871944,-0.5637085283960017,-0.7366158579300072,0.08667839273633611,-0.017867951187299766,-0.1060300942903205
362,1.0181158761052687,0.09171333263049714,1,,0.4304244164800675,-0.5565169410998787,-0.7333970133270373,0.08648392399032748,-0.018919281376159093,-0.10162303268730898
363,1.018129260511337,0.08959138366910942,1,,0.4385344634818485,-0.5527526490166851,-0.7312241486502931,0.06738839841788738,-0.023993616849974166,-0.08306165199268101
364,1.018145423536854,0.08542675355414221,1,,0.44024918152085973,-0.5506504146312496,-0.730934418035749,0.05218272558097067,-0.027411082713368323,-0.0636573371158683
365,1.01817601403431,0.07966720847400695,1,,0.4334045368535212,-0.5507726404288807,-0.7331650311848972,0.04218314304849064,-0.028611032016501267,-0.043124858245692545
366,1.0182079618728654,0.07296609662010703,1,,0.4268508711802712,-0.5522347363954208,-0.7369450829471572,0.033332822476095154,-0.024766657474345626,-0.024088608429355656
367,1.0182044040989218,0.06606674517811578,1,,0.42068261885289954,-0.5554715442441429,-0.7427774284251623,0.02600474551689864,-0.014240873296046395,-0.00703417404660566
368,1.018111897247746,0.05969752286810008,1,,0.4195014609258535,-0.5562150185814301,-0.7430010065603765,0.01964647717911756,-0.0046802842332113745,0.0079110945175063
369,1.0178730577775943,0.0545005646433706,1,,0.4248937532676022,-0.553672049446321,-0.7358317121615116,0.014566506006119407,0.0036080887026864305,0.020076288103357407
370,1.017442821582618,0.05100744598901922,1,,0.42603465415488767,-0.555070334764727,-0.7327260457265555,0.015414840456028474,0.01406526249627107,0.029303867837278924
371,1.0168057961013999,0.04966230753592392,1,,0.4217481815506249,-0.561500069247649,-0.7348080518210744,0.023831315635642742,0.027291151562596237,0.034781257170825516
372,1.015991470173607,0.05087975754221739,1,,0.41537129672819373,-0.5691603647353258,-0.7413424759473054,0.05066199398650953,0.017519772615459412,0.02125184684256386
373,1.0150832806388304,0.05511414618225391,1,,0.4063955761817989,-0.5783505144309408,-0.7534122212349014,0.10038552016848763,-0.0208421975582161,-0.015907137214928493
374,1.0142172416130648,0.06291086156693299,1,,0.3922411735124247,-0.5816686098079522,-0.7565434787300621,0.12829138970911683,-0.036487773196344324,-0.031863109747613486
375,1.0135669995222631,0.07491104868695196,1,,0.3718430571417078,-0.5779070225962583,-0.7488979870674687,0.12989265184079118,-0.024745171871409843,-0.022255525934387798
376,1.0133153657363259,0.09179012889465456,1,,0.3674208244257733,-0.5748437612043082,-0.7386554560003376,0.12299618988043938,0.003146113086063422,-0.011541466115400528
377,1.0136168989146601,0.1141275441486456,1,,0.3819361647345474,-0.5726082847666869,-0.7253344333293295,0.10602665313514355,0.05017980563173688,0.00048419379645263567
378,1.0145600268989325,0.14222670994833506,1,,0.42112134932182793,-0.5606909798056954,-0.709966390898386,0.08029956803344537,0.07185467697023301,0.019373028028485374
379,1.0161385551919515,0.17592386553642583,1,,0.48874992950288415,-0.5376108934367795,-0.6922382122964379,0.04447536158228996,0.06429178821647853,0.04617484214605539
380,1.0182405077562922,0.21443588551953077,1,,0.5376801714597063,-0.5187530696889603,-0.6834755886328268,0.004587411146292754,0.0501791900280631,0.09645505478102878
381,1.0206578833801883,0.25629565210615335,1,,0.5644205646550258,-0.5049059248778847,-0.6853526434700522,-0.04012309946166168,0.028293865833317028,0.17459774903761074
382,1.0231157103236195,0.29940775438446066,1,,0.5659831734421649,-0.5072739008512208,-0.6907272768481096,-0.09126905262337476,-0.0017675533301423796,0.25466153430003946
383,1.025314364256806,0.3412299196156239,1,,0.5395840083411299,-0.5276499562215557,-0.6999862273791451,-0.1495620359749659,-0.04090912476432557,0.3368588315823052
384,1.0269764949093592,0.37905449153755666,1,,0.49660440867426353,-0.5504777519260603,-0.7241342194745171,-0.18758406453719084,-0.07465817079502192,0.38657068884907064
385,1.0278893150352335,0.410339599273366,1,,0.44105064611931344,-0.5751648825863821,-0.7595736667963543,-0.21023313706913746,-0.1043176681045361,0.4116464475429311
386,1.027934259807562,0.43302901450303366,1,,0.3873138620807394,-0.5896984830485089,-0.7661690768246393,-0.2038233750129032,-0.12785686970600324,0.4228808138202734
387,1.0270990113895824,0.4458047203775172,1,,0.3348225871100269,-0.5972720053085213,-0.752992373077556,-0.1774942591984447,-0.1472007090726929,0.4246271329322156
388,1.025471296018722,0.4482329097587642,1,,0.3115872726980807,-0.6023365917943725,-0.7520798290220942,-0.15262209953506212,-0.14587803769547406,0.42700018270122303
389,1.0232184247283267,0.44078597737668007,1,,0.3069951044019065,-0.6058023773668617,-0.7589825306837654,-0.1286783745449753,-0.13138578409241222,0.42977261197365213
390,1.0205592865374522,0.4247444822295403,1,,0.3047035383278358,-0.6079768770708631,-0.7581861070723367,-0.10727153729181133,-0.10423407358776521,0.4066090849920546
391,1.017735383654661,0.40200101101231756,1,,0.30473577092943027,-0.6088470711592807,-0.7496129296699394,-0.08842716670199581,-0.06429526385637802,0.3572480955103392
392,1.0149853601837064,0.3748011764154685,1,,0.3172720245585135,-0.6059165105434046,-0.7459005423192903,-0.08875546543204826,-0.03463657470784059,0.3172833077535226
393,1.0125249191695427,0.3454644700689844,1,,0.3380148324748221,-0.600491464371793,-0.7453783557551372,-0.10166704052335346,-0.011724864691052451,0.28348537152209896
394,1.0105319727265725,0.31612774275940986,1,,0.3526167138851275,-0.5964600703280981,-0.7455351763402798,-0.09991730794085969,0.014394115818239357,0.25977830405589974
395,1.0091355704981484,0.28854619744236193,1,,0.36107478028661427,-0.5938229839456278,-0.7463713234532457,-0.08349937157111671,0.04372187531589862,0.24616685178810596
396,1.0084068657137166,0.26397295690229455,1,,0.3689764173951514,-0.5758299036743119,-0.7471281480579731,-0.06723133945193634,0.04324634189987766,0.24018663593537817
397,1.008351404315263,0.2431223091244332,1,,0.37651021265426426,-0.5476853505697945,-0.7478325344859771,-0.05106240541741451,0.023068578728117742,0.23925124429309494
398,1.0089040875147453,0.22620736880415282,1,,0.37758841919561587,-0.5408458880151049,-0.7481452720062155,-0.049303415944780854,0.012898865568738944,0.23350854984272706
399,1.0099301361606237,0.21303260835729568,1,,0.3745227202904405,-0.5476823711692258,-0.7482066062668804,-0.056794310619683486,0.00915341747786346,0.22468000078605016
400,1.0112358803160915,0.2031165881822543,1,,0.36779401283332236,-0.561522474311409,-0.7434848970850712,-0.05132351041763018,-0.0032477524742415362,0.21957644589946673
401,1.0125915362307936,0.19582018715635174,1,,0.3588024243647375,-0.5796891735968323,-0.7358083877527459,-0.037845419769119724,-0.020996130437181265,0.21677406464280805
402,1.0137647606713052,0.19045984716860995,1,,0.3631453416322976,-0.5994692940884748,-0.736893336005454,-0.016957071559215466,-0.04416194401041118,0.19900151513215183
403,1.014559803196658,0.18639248944137563,1,,0.3755760669082247,-0.6202280065554302,-0.7432923910036644,0.008425836930367246,-0.070613607038018,0.17214907554866885
404,1.0148538609801019,0.18306716021110309,1,,0.37268068692527,-0.6259316410778317,-0.7383143933844999,0.03705713450309909,-0.10074178007875194,0.13501612478712005
405,1.0146212867062099,0.18004609179958125,1,,0.36074515165344856,-0.6227549866728646,-0.7266256026091029,0.06760450535001244,-0.13303855497611805,0.09181917964544335
406,1.0139386823914942,0.17700285050115616,1,,0.34830058680250736,-0.6163949383487348,-0.7256120463388445,0.0931040088831461,-0.13521804565555678,0.05199189538858923
407,1.0129691141833514,0.17370684286103436,1,,0.33558189541453204,-0.6083205439938297,-0.7303474003628021,0.11588509559911088,-0.12117854225355555,0.01397926720820092
408,1.011929477723888,0.17000243113216318,1,,0.3274135176612896,-0.6042926067713471,-0.7326621468192911,0.13238347213803803,-0.09784626019345988,-0.01894024054326693
409,1.0110490526817462,0.16578871750184213,1,,0.32181300237581933,-0.6025481924433082,-0.7336108803373131,0.1453363489570323,-0.06926981717919792,-0.0489855655224008
410,1.0105285123839844,0.16100378496854734,1,,0.3114595968099127,-0.6065648079743753,-0.733257295443408,0.14038117599639477,-0.053527025812753634,-0.05698635209779189
411,1.0105074899679487,0.155615331362954,1,,0.29848905989154456,-0.6137536768240258,-0.7321866019746716,0.12556511499365008,-0.0448509560862867,-0.05284853461378557
412,1.0110461127062556,0.14961828736637184,1,,0.2861389758483664,-0.6240584949354523,-0.7358239610126869,0.1254884614128147,-0.025604186717049577,-0.052785743832138424
413,1.0121224640190918,0.14303876716002595,1,,0.2741234393546439,-0.6360434294965452,-0.7419998968654558,0.13335928038471448,-0.0006577075707989887,-0.05492020304454443
414,1.0136444011159396,0.13594190485534233,1,,0.2778399201202406,-0.6421126870429563,-0.741641179676226,0.1323056072478054,0.026283473696968918,-0.05812272064405597
415,1.015471315897818,0.1284388171557207,1,,0.28990263944739125,-0.6450435262235185,-0.7378156614816918,0.12651726219993262,0.05428289552571057,-0.06189187059837239
416,1.0174400016234095,0.1206863899517617,1,,0.30171954638485843,-0.6437924916952875,-0.7354092636336956,0.11030232426632158,0.06587603924797536,-0.05652879462800364
417,1.0193890552115372,0.11287451613950678,1,,0.31341808892326445,-0.6405277879047198,-0.7336862051803764,0.089066739861724,0.06956917919379652,-0.0467683398996098
418,1.0211778408470298,0.10519945163487887,1,,0.3229420043497101,-0.6365307122929464,-0.7315032103042891,0.06219905564308952,0.06933546640154122,-0.032124914595337895
419,1.0226982127900128,0.0978279377922675,1,,0.3313249360669323,-0.6321493757312487,-0.7290788959205814,0.03237632049445173,0.06704141191312456,-0.014919491575487292
420,1.0238792022993068,0.09086214089126826,1,,0.33972290576433434,-0.6285458326015319,-0.7297131849622206,0.007687080653563107,0.06248228026671534,0.003007996177637478
421,1.024686206399351,0.0843176497845644,1,,0.3481323940208,-0.6255380528421705,-0.7326902603769151,-0.013070076011459777,0.056188176436210095,0.021488560950669474
422,1.0251166872788737,0.07812432824893606,1,,0.35513048955431953,-0.6206095916764229,-0.7342658558395233,-0.028237709375905706,0.049905563426533225,0.03708246607999963
423,1.0251941698512874,0.0721532752235742,1,,0.36109642614630216,-0.6142765261081958,-0.7348165416367343,-0.03931769490716671,0.04363135373156534,0.05056534178508059
424,1.0249618018119768,0.06626480508231503,1,,0.36383596740254537,-0.6120610766138841,-0.735723693523878,-0.042620047250280985,0.040157198155734285,0.058759149488615596
425,1.024476227640504,0.060365253918051004,1,,0.3642642564301592,-0.6127953119306607,-0.7368862025351768,-0.04035083438194146,0.038688882118826685,0.06316409409079225
426,1.0238021075961696,0.05445701102719384,1,,0.3623961538975701,-0.6157677412827028,-0.7347719108822035,-0.036027728260974154,0.03304392319174538,0.059776627333403325
427,1.0230072814669502,0.04866748186917981,1,,0.3589156969902395,-0.6203116630578095,-0.7303568949184794,-0.03026253194410043,0.02446643806195202,0.050917912213521
428,1.0221583973778976,0.04324811235100275,1,,0.3602652115404738,-0.6209874795283151,-0.7276320929166507,-0.02465419162355255,0.019783094935350826,0.038643805021957335
429,1.0213168515986821,0.038542352650857765,1,,0.36374881980737056,-0.6199541970284493,-0.7256541017526019,-0.019115157190340102,0.016820354946181455,0.02486062749716295
430,1.0205350459533635,0.034929238747669754,1,,0.3641104508952426,-0.6184158580439381,-0.7257401901377728,-0.01352559344973234,0.00984825414580276,0.010073027750988041
431,1.0198531340411268,0.03275507259392654,1,,0.3626078425073219,-0.6165759325423732,-0.7270588110988224,-0.007905856943423955,0.0004820267357733156,-0.005314346859637266
432,1.0192965287714169,0.032268099159615246,1,,0.36073249020395454,-0.6143433558510999,-0.7279687487650094,-0.0008311854745564459,-0.005741619317891013,-0.01543543121202352
433,1.0188744840897535,0.03356960260632596,1,,0.35864359022399983,-0.6118858264629179,-0.7286445488177361,0.007077028724827174,-0.0101648578008098,-0.02253941981632631
434,1.0185800331114065,0.0365900797853024,1,,0.3574297277087582,-0.6130247301426864,-0.7299027418759753,0.013522136391624948,-0.016871193843515393,-0.02739199715575467
435,1.0183914140073695,0.04109280958849484,1,,0.3566893457906641,-0.616109654801412,-0.7314760663369168,0.01917556073973394,-0.024812908277143157,-0.03102634145174394
436,1.0182748465353078,0.04670133345737817,1,,0.3569305627243571,-0.6157313739895949,-0.7305186747338038,0.023420954066448108,-0.03201807790115793,-0.034959115192456765
437,1.0181882841192713,0.052943571590978684,1,,0.35765439679765587,-0.6136503585870646,-0.7283170203190572,0.026974068756846534,-0.03886111469926839,-0.03903861603650345
438,1.0180857527116207,0.059303921207749945,1,,0.35705749921348273,-0.6124589863573182,-0.7280546475170986,0.028662115303943723,-0.043788114353678007,-0.03900918699607084
439,1.017922092156406,0.06527534513152582,1,,0.3557389590711716,-0.6117537116451784,-0.7288518905271169,0.029331095982138223,-0.04766819887091479,-0.036734654900750986
440,1.0176580763362102,0.07040543168483174,1,,0.35500424207539577,-0.613842916771311,-0.7288445849854466,0.025877448024779072,-0.05470303837935531,-0.03454938457171659
441,1.0172657487077965,0.07433281140319571,1,,0.35457540187218306,-0.6173962065729036,-0.7284157601352412,0.02026387129542104,-0.06339071801320456,-0.03241088029814454
442,1.0167333881602754,0.07681234019124433,1,,0.352867678228238,-0.618855273232988,-0.7291852475352055,0.014300329891932088,-0.06932502681816625,-0.03062844990970497
443,1.0160691004525604,0.07772867573154178,1,,0.35051182776964446,-0.6192530061206194,-0.7305620289851363,0.008159429500349306,-0.07386395162098332,-0.02902647462170475
444,1.0153019476219738,0.07709838983877772,1,,0.3439384425251732,-0.6169455934985572,-0.7309774184045779,0.0036419378672996197,-0.07465793770376108,-0.02814106235234008
445,1.014479942876615,0.07506100783530799,1,,0.3352760197508859,-0.6132982629388664,-0.7309166092498813,-7.144376680033434e-05,-0.07359697344337948,-0.02761057947517546
446,1.0136650068006692,0.07185976217944859,1,,0.3280374357718938,-0.6120199942471948,-0.7365536094131075,0.005392941553996205,-0.0658045672826263,-0.03141218506452054
447,1.012925703466157,0.06781357194892337,1,,0.3215302226481789,-0.6119586208768869,-0.7451173535106322,0.0155715902549074,-0.0545544801717998,-0.037439016690974915
448,1.0123289110450187,0.06328271999357472,1,,0.3197267906607375,-0.609135003065645,-0.7441936706972568,0.02241631980037375,-0.04061258803082544,-0.04031424115495884
449,1.0119315763046628,0.058631612455245806,1,,0.3202174696181749,-0.604964193499867,-0.7386428147151882,0.027635042466880574,-0.02535785861308583,-0.04165237528796437
450,1.0117736581916565,0.054192555875188696,1,,0.3229151300979996,-0.6080040632472975,-0.7360085328772745,0.029389557504553132,-0.007805173079451117,-0.03989789569945076
451,1.0118733383959957,0.050234480883740135,1,,0.32664201211438976,-0.6144066192684151,-0.7347343897279025,0.029528546044680994,0.010819159781554172,-0.036701181717754036
452,1.01222527299378,0.04693996723157479,1,,0.330374641671798,-0.6158119939535456,-0.734201617827238,0.02639017905624065,0.016100605986239358,-0.03196346547024091
453,1.0128019495949225,0.04439292729950207,1,,0.3341090284525312,-0.6156895497610431,-0.7338955099029754,0.022249806083383436,0.0173026496716639,-0.026754609165727344
454,1.0135574485126513,0.04257808151773231,1,,0.33778363843524606,-0.6152583879682512,-0.7329243240840154,0.020580796962259906,0.019750341947324574,-0.027739824947324573
455,1.0144325462728803,0.04139202693482862,1,,0.3414405817411516,-0.6147359865657388,-0.7317565785371277,0.01964218441165061,0.02256617808868335,-0.03055566108868335
456,1.0153602524734149,0.04066431582305707,1,,0.3455479223276196,-0.6154075151893961,-0.7288473390345741,0.018715937093454364,0.023687458972839533,-0.030537438365818025
457,1.0162712894273105,0.04018571421612702,1,,0.3497780807678706,-0.6164046140126483,-0.7254632153112277,0.01779306162562767,0.024346655240524324,-0.029746402250538005
458,1.017099383400129,0.039740048244544635,1,,0.35252012774797076,-0.6184602470854315,-0.7254276570663196,0.013963114507664976,0.023778332489230055,-0.02997408933274291
459,1.0177863294295162,0.03913597516710576,1,,0.3548069090490881,-0.6208397230386583,-0.7264165428623038,0.009243791858230651,0.022834468465650425,-0.030513439697052603
460,1.0182866098806451,0.03823547192314973,1,,0.35526145203167403,-0.6214830475484392,-0.7266235666613982,0.003822022863188729,0.0186253578173622,-0.03168201397551711
461,1.0185710868585416,0.036976423519719415,1,,0.3552308493760139,-0.6216666685947714,-0.7266235666613982,-0.0017857420020234319,0.01355166524019356,-0.03301719607434495
462,1.0186292220430408,0.03538708650056423,1,,0.3539040743329257,-0.6202368597450579,-0.7265012970876464,-0.005597032002743759,0.010702919736426017,-0.03617047231129887
463,1.0184695258595002,0.03359031610113689,1,,0.3522452051415118,-0.618393671754598,-0.7263477006546264,-0.008948044643546014,0.008424231058137062,-0.03978956499901654
464,1.0181183644131262,0.03179552132873888,1,,0.35274575861791696,-0.6157394201043509,-0.7275563243471099,-0.010883749306172039,0.008313575580073415,-0.03896761725833306
465,1.0176175749937446,0.030276870899133817,1,,0.3537554417255463,-0.6128939430224737,-0.7290861202847296,-0.012485765131881972,0.008714079849806463,-0.037098600173549295
466,1.0170213431594486,0.029337832150715202,1,,0.35868055277567973,-0.612016616033379,-0.7304423364097651,-0.012347973754081525,0.007156432901738615,-0.031202827801277522
467,1.0163924812005387,0.029264787393409097,1,,0.3644982549370533,-0.6115879637049819,-0.7317589819407545,-0.011813562521866283,0.005152390718222708,-0.024389085280329424
468,1.0157978723180903,0.030275711111638407,1,,0.36677046903058635,-0.6091750299549271,-0.7285531090668462,-0.013581268656883288,-0.00024834184327043776,-0.013414266849049514
469,1.0153027720237224,0.03247268506255045,1,,0.3682697316438919,-0.6063295032281497,-0.7243612824434532,-0.015850859150480276,-0.0063895865018783055,-0.0015322927227965177
470,1.0149640751320526,0.03580823152476678,1,,0.3675192528896912,-0.6032315848197005,-0.7256043173958284,-0.01437041489509648,-0.011206587209807039,0.008142391261300843
471,1.0148233430668008,0.040074260544636205,1,,0.366295561981755,-0.6000805781762328,-0.7279905248884316,-0.012101185739900282,-0.01574504552019943,0.01735279229205012
472,1.0149008513110873,0.04491879510826377,1,,0.36996514833001876,-0.5982309447950174,-0.7312817685157109,-0.0021004841279855125,-0.019496316605698467,0.028083689193884827
473,1.015191838964868,0.04989027995520476,1,,0.3746291814747338,-0.5966457857997532,-0.7347569400533965,0.009471462597424051,-0.023087609865918134,0.03912359212187296
474,1.0156656489402027,0.05450336185887769,1,,0.3754780157334105,-0.5959685454322937,-0.7315961269738721,0.013223087108306997,-0.027466560006887464,0.05407745629748832
475,1.016267951317444,0.0583148021620534,1,,0.3755392419882474,-0.5954787353935984,-0.7270653841159409,0.015360287688166906,-0.03200811368422318,0.06983931690622372
476,1.01692601058485,0.06099486973812629,1,,0.37238244157713296,-0.6046452795283559,-0.723252833314094,0.014165015470138922,-0.03143033964287257,0.07896016275590874
477,1.017556834578343,0.06237929852732174,1,,0.36859033917636097,-0.6157181785998151,-0.7195820678101148,0.012311847332893797,-0.02984190924290498,0.08676994116524886
478,1.0180776545165822,0.06249038724897158,1,,0.35231817167471197,-0.6284538000584248,-0.7225257830610805,0.014505541266427538,-0.029780333926308467,0.0684185988955745
479,1.0184174377771733,0.06152281104504858,1,,0.3333658172022844,-0.6415465035187515,-0.7268900073501888,0.017568328989134595,-0.030046662119529183,0.044448961000731035
480,1.0185274300475073,0.0597985853960621,1,,0.31985979095791234,-0.6412199842387553,-0.7286165344344816,0.012734097060994477,-0.02680265934247047,0.013336737188441148
481,1.0183886351058782,0.05770353331576231,1,,0.30752260815923727,-0.6380135485192198,-0.7297769819674271,0.00620507572233957,-0.02280529998249079,-0.019308366002539743
482,1.0180148813938812,0.055621515323991434,1,,0.30924521444450553,-0.6323535496847061,-0.7330844930639634,-0.001216390749905719,-0.011093014435892804,-0.03725617178626023
483,1.0174513048708795,0.053881010183498335,1,,0.31395808510838513,-0.6261717220946655,-0.7368486459759206,-0.008827664244300782,0.002260097195288397,-0.05207812659437883
484,1.0167690176030884,0.052722426344324634,1,,0.32387023460486025,-0.6202706075102232,-0.7375370462561,-0.016997123185150974,0.015272860655502436,-0.05341279979003799
485,1.0160570497044474,0.0522869078343429,1,,0.3348457414626839,-0.6144269044079326,-0.7375963930901963,-0.02528074229187835,0.028216016026146613,-0.05198905188277503
486,1.015412499585583,0.05262163550992042,1,,0.3435590287054952,-0.6101339219876385,-0.7369350933066512,-0.02853125272296457,0.035785787835534905,-0.03862615773426483
487,1.0149295936863403,0.053694356338384826,1,,0.3516065638347407,-0.6062973035547551,-0.7360617133210232,-0.030300561840714987,0.04177421830249835,-0.021749673870560825
488,1.0146883098397375,0.055410752865101165,1,,0.3588368808833386,-0.6028930879858769,-0.7342620813254852,-0.03381667380782834,0.04265687230844983,-0.000710323955611705
489,1.014743416581521,0.05763075707834644,1,,0.36588275793671754,-0.5995864625014559,-0.7322534012133117,-0.037727026048289605,0.042387190923086765,0.02126855351289491
490,1.015115143765354,0.06018242555165191,1,,0.3690826799214916,-0.5978910265350382,-0.7291539252593382,-0.031208287441536878,0.03395614651210055,0.03632939442896742
491,1.0157830557144518,0.06287367911409661,1,,0.3715544428514648,-0.5965006389163372,-0.7258479276933476,-0.02271499721114593,0.023979901969587117,0.05008043558562281
492,1.0166847982218414,0.0655030239071108,1,,0.37757406682656297,-0.5949180817330201,-0.7267982434136917,-0.011806993163935143,0.018156636057463746,0.05710113935160074
493,1.0177209748616955,0.06787052177137734,1,,0.38414561636408523,-0.593305629555047,-0.7284106955916648,-0.0005233424324636057,0.012979431284597337,0.06307483329376948
494,1.0187663676321042,0.0697898353956194,1,,0.3876972871847979,-0.6028753953968351,-0.7250131669521783,0.008285176566365168,-0.003449902136356095,0.06838533426164897
495,1.0196862616006586,0.07110120735332752,1,,0.3907541278203083,-0.6142774529985986,-0.7207947147203116,0.016688126321890366,-0.02172298269489817,0.07358716598882636
496,1.0203552731947756,0.07168410169524246,1,,0.37936624424685983,-0.6223014952118691,-0.7193103981304724,0.019158647025456475,-0.034868122740671206,0.0636688416128309
497,1.0206753721423991,0.07146755217778569,1,,0.3656763917338846,-0.6297872033822974,-0.7182618043227769,0.020683752129320252,-0.047196053675142596,0.05134090876946914
498,1.0205899951433386,0.07043646498437685,1,,0.3487716184029829,-0.6343726434566815,-0.7213057135682162,0.014582752242990991,-0.056421172095444394,0.031662860576916946
499,1.0200920924388455,0.06863304926988008,1,,0.3308906706026675,-0.6380774497736501,-0.7255922652747564,0.00616617146472011,-0.06470415641712639,0.009753032666704731
500,1.0192251588669767,0.06615347871682153,1,,0.32326780627383706,-0.6350426182106093,-0.7306345884792591,-0.0019142980847481473,-0.06506227413249696,-0.009507134124859476
501,1.018077384458657,0.0631401828982693,1,,0.31864623367595724,-0.6300359154565708,-0.7358980339467605,-0.009896428795709877,-0.06310174854905264,-0.027992067766343356
502,1.0167699012943026,0.059769854511741285,1,,0.3196913960498725,-0.6227652625019888,-0.737941105913449,-0.014900639427128042,-0.050085806787516306,-0.038908936364357015
503,1.0154407774141228,0.05623699585555588,1,,0.32156913792053576,-0.6151619808663973,-0.7395110276554229,-0.019467322070320144,-0.035445558793046325,-0.048713874422542824
504,1.0142269693942594,0.05273332910948582,1,,0.3261700341879817,-0.6083499874978839,-0.7395300584828016,-0.022115869689524094,-0.020179957583231736,-0.04303639231547061
505,1.013246811689597,0.04942483064812412,1,,0.3311105527055783,-0.6016366808079925,-0.7393556676481007,-0.02452519425713357,-0.004836364492247663,-0.03542799718983344
506,1.012585617652719,0.046429961782482376,1,,0.33896504925696486,-0.599804687070436,-0.7384399274120742,-0.02577942259960179,0.008842016774211668,-0.017842685991728894
507,1.0122864670551985,0.043803840394093914,1,,0.34759911842604985,-0.5992785843812816,-0.7373258549715931,-0.02672462961374053,0.02207490620058518,0.0024117361040142705
508,1.0123473159845646,0.04153270192706847,1,,0.3514523743211853,-0.5994288957175367,-0.7353695570934715,-0.023021746484619684,0.027300545776401883,0.013123930892185623
509,1.0127244492214778,0.0395408077969531,1,,0.3542323072978366,-0.5997310662962709,-0.7332241742548946,-0.018275337607850373,0.030728506945347383,0.02169383510172707
510,1.0133413129059152,0.037708735447977586,1,,0.3587461713946621,-0.6014021906039366,-0.7328132371155857,-0.010396651179042178,0.0314253,0.025740450242513577
511,1.0141010726994595,0.03589906280013444,1,,0.3637024070840681,-0.6034225711350796,-0.7328448028419066,-0.001718838076722249,0.0314253,0.0286330549892456
512,1.0149008341400563,0.03398390879380235,1,,0.36645523084211445,-0.6056715949934651,-0.7304663246854642,0.0012560839320359316,0.02393505184251464,0.030034608979458578
513,1.0156453418450628,0.031868888100789375,1,,0.3688591708332304,-0.6079568217761713,-0.7277062450691187,0.0033280217482583125,0.01525881298469224,0.03120007302250627
514,1.0162582120399803,0.02950937570715443,1,,0.3663851760754054,-0.6104405054032448,-0.7268740165930134,0.005249666547276518,0.008366438401304785,0.03066468062799316
515,1.0166893399402195,0.0269168839201621,1,,0.36274270737968023,-0.6129717279345651,-0.7265035908904924,0.0071353097464745855,0.0019013755691111034,0.02972186039391337
516,1.016917891403628,0.02415526962153336,1,,0.3570371112528814,-0.6150646041300963,-0.7274724243817389,0.007237195579009204,-0.003594161869615477,0.02417952929895201
517,1.016951020902264,0.021328152400182567,1,,0.3509073863790644,-0.6170673670022742,-0.7287165769369476,0.006972384354469602,-0.008890388518146303,0.017691650817507922
518,1.0168190286079337,0.018560289891325587,1,,0.3459278838391486,-0.6176560389840128,-0.7295662075532198,0.004313249619438208,-0.009527324970405114,0.009984175630295713
519,1.0165680568668594,0.015976645858173256,1,,0.3412041021420033,-0.617930326071847,-0.7303281268795719,0.0011218017510858666,-0.009128394161623112,0.002005556059278883
520,1.016251647751133,0.013683260908565155,1,,0.34133398311064367,-0.6166533945017726,-0.7300930528151002,-0.0014346599502030482,-0.006868867851347368,-0.0028554820222037383
521,1.015922535563608,0.011753535789719336,1,,0.3425627589365617,-0.6150252588339776,-0.7296322541819273,-0.0038473574351576708,-0.004188092890433651,-0.007010683201553862
522,1.0156258999117722,0.01022213940766622,1,,0.3456911526435027,-0.6128432328444481,-0.7305934605695306,-0.005257388943319966,-0.0001859155608319261,-0.007944574076076854
523,1.0153949375688645,0.009086814547658206,1,,0.34921268002450284,-0.6105465769896531,-0.7318489566977116,-0.006459914640822282,0.004089731385919059,-0.008211801646507652
524,1.0152490725913768,0.008316488882633559,1,,0.3515048622287012,-0.6090694658166234,-0.7327201857753951,-0.007996114845798189,0.005797348989034071,-0.004352680872155946
525,1.0151945465536427,0.00786286254409777,1,,0.35355474778420243,-0.6077538820434758,-0.7335156780950539,-0.009598080322728793,0.006998823222050332,0.00031971872796769896
526,1.0152266827357186,0.007672284701545473,1,,0.3549349559883733,-0.6078778703577581,-0.7330775155752425,-0.00906916987209366,0.005285257483240256,0.002970542100926749
527,1.0153329182618678,0.007695184557641978,1,,0.35618802039483216,-0.6082751733746508,-0.7324051334498927,-0.00813569494952149,0.003018247221667271,0.005237552462646545
528,1.0154957671278901,0.007891341879760767,1,,0.35682356550389444,-0.6077172498958943,-0.7322481410748157,-0.006072753698047269,0.0016484219706264472,0.005930884877672796
529,1.0156951547465058,0.008230555877973781,1,,0.3573444237768286,-0.6069819199671754,-0.7321868678465054,-0.003800045846548718,0.0004452235929522741,0.006331950886432588
530,1.0159099505081002,0.008689475411486193,1,,0.3567456063354882,-0.6072887431092755,-0.7311113117587296,-0.001532749258141181,-0.0006416181139154405,0.0066185702854404385
531,1.0161189010674745,0.00924621022068973,1,,0.35595122103403937,-0.6077775936391738,-0.7298585962247527,0.0007336021776072502,-0.0017081364160081163,0.0068851998985077455
532,1.0163014101080075,0.009874688455460181,1,,0.3539115979552529,-0.6090245282164227,-0.7310643784773351,0.0028136553307882314,-0.0017476534112807844,0.0071573376899038135
533,1.0164386203552098,0.010540552527616183,1,,0.35165850468206206,-0.6104014205831957,-0.7326916191883437,0.004861771511059093,-0.0016111123325960603,0.00743041974473265
534,1.016515015683049,0.0111998230142848,1,,0.3515756294089966,-0.6118325259659796,-0.732146128819706,0.0030543923496996928,-0.00348553312365881,0.008872578605692249
535,1.0165203882577707,0.011800805399070661,1,,0.3517253160660484,-0.6132694408522418,-0.7313678072166769,0.0008338558716594573,-0.005575449860805161,0.010440016477356859
536,1.016451695312132,0.012288954623320593,1,,0.35282668741930784,-0.6150048754963786,-0.7299649461317916,-0.001590037162430539,-0.0066844370937948015,0.01029886649248516
537,1.0163142046439766,0.012613788195088588,1,,0.3540774195030535,-0.6167871608797034,-0.7284640676312969,-0.0040458456908499165,-0.007639473817734591,0.009889564746625126
538,1.0161214352623664,0.012736532703765752,1,,0.3536577002683196,-0.6147982221550393,-0.7281375204460431,-0.004747287622980156,-0.01003275847160895,0.007787219908347182
539,1.0158937009724804,0.012637023340651728,1,,0.35307753191530794,-0.6124470522301958,-0.7279237693777632,-0.005280220262364331,-0.012564188796345974,0.0055222559783445575
540,1.0156554620506253,0.012318434757674674,1,,0.3523136047183999,-0.6118867985826657,-0.7289484492788362,-0.006284560968492114,-0.01242383389249611,0.004008743979027429
541,1.0154320240203614,0.011808695476779402,1,,0.35153227586728764,-0.6114961416880869,-0.730090406507801,-0.007333543225972761,-0.012030465429005908,0.002566393208820809
542,1.0152462452806161,0.011157940743738465,1,,0.35129849175333505,-0.6109675866996881,-0.7302246434817191,-0.0044839370504511904,-0.011612610901659295,0.0015297450651016072
543,1.015115807894483,0.010432077577045281,1,,0.35113764529042807,-0.6104206625024672,-0.7302246434817191,-0.0011150054796252688,-0.011191494620021203,0.0005471399862752799
544,1.0150513773090575,0.009703376634419891,1,,0.35107786140649555,-0.6103551879205497,-0.7312580063409857,-0.001315758891083282,-0.008054096876311352,0.0005326322
545,1.01505574386711,0.009039789331295922,1,,0.3510195920337781,-0.6102969282829208,-0.7323068550499003,-0.001570007160529032,-0.004875993269567962,0.0005326322
546,1.0151238594314984,0.008495187029388219,1,,0.3506859542441444,-0.6097723866812992,-0.7324764303557839,-0.0005269859584906618,-0.004170403729000878,0.00148455284819763
547,1.0152435905236616,0.008102710581616678,1,,0.3503183884567723,-0.6091903947243413,-0.7325376708505557,0.000675871131526178,-0.0037694513388965897,0.0025537591381673726
548,1.015397027990148,0.007872787263258752,1,,0.3515445263683236,-0.6086638238275538,-0.7318296587216397,-0.0007593963069344057,-0.0034886802793971665,0.004940741870784021
549,1.0155622847832853,0.007796217478307585,1,,0.3529523203825641,-0.6081435700223471,-0.7310339644005954,-0.002495366704751301,-0.0032216079213020716,0.007477929523397347
550,1.015715772949832,0.007851379942176344,1,,0.3528123289298926,-0.6093079611628278,-0.7320336880597593,-0.0026631611,-0.0035571620104233085,0.010011835984165121
551,1.015834887385364,0.00801348097784319,1,,0.3525067248630766,-0.6106526088453381,-0.7332255209445117,-0.0026631611,-0.003957196962145941,0.012545391362701261
552,1.0159008535074747,0.008263260513990496,1,,0.35230948880784213,-0.6118463366656829,-0.7310057429343323,-0.0015599759759676746,-0.0036270132327178477,0.010576803021802587
553,1.0159013447022207,0.008592858872086568,1,,0.35212347684748324,-0.6130244331326872,-0.7284326111495546,-0.0003425296885350142,-0.0032211979220922635,0.00814191019296876
554,1.015832459003656,0.009007537798643632,1,,0.353044268915364,-0.6132394603666257,-0.7290626896804193,-0.0013759223094780648,-0.004798557996815238,0.007003166549386803
555,1.0156997449533967,0.009523221130692414,1,,0.35403897536439644,-0.6133901720915154,-0.7299066844045621,-0.0025596300351657824,-0.006508358121853617,0.005950982096388022
556,1.0155180798080987,0.010160872896765693,1,,0.3529299009036962,-0.6118655290681018,-0.7306639743615823,-0.00316019585569291,-0.00715493775569291,0.00523766111370679
557,1.0153102995610255,0.010939289589779664,1,,0.35161918657418584,-0.6101803092886174,-0.7314129539784453,-0.0037048696137718263,-0.007699611513771827,0.004556818980021116
558,1.0151046268609338,0.011867989912960996,1,,0.3508374908162677,-0.6102886897319454,-0.7313849080606738,-0.003069372300785245,-0.009173084847361769,0.004263752551629542
559,1.0149311657124593,0.012941708284520721,1,,0.35007692227976067,-0.6104847173499716,-0.731296969679208,-0.002420972382221486,-0.010673756449534779,0.003964582276186751
560,1.0148179544697087,0.014137652580979706,1,,0.3492015294305077,-0.6109515935362398,-0.730188158237121,-0.003439538980858774,-0.011565001805021052,0.002691374195218682
561,1.0147872001600209,0.015416217129425867,1,,0.34832613657988715,-0.6114184697232375,-0.7290793467933018,-0.00445810558108727,-0.012456247161899631,0.0014181661122616043
562,1.0148523167775108,0.016725271569174367,1,,0.3486662719845703,-0.6105366950193452,-0.7302885737888427,-0.00614668933484463,-0.01463442353091421,0.0023280824776415357
563,1.0150162402990608,0.018007500576060667,1,,0.34909510209311806,-0.6095565119140931,-0.7316669434868844,-0.007884162923795507,-0.016906504725441272,0.0033972971367543956
564,1.0152711926063456,0.019209616098438655,1,,0.35129540807800125,-0.6104984073758261,-0.7334670576889526,-0.010236459019973464,-0.016420070851226883,0.006832573412776159
565,1.0155996916337449,0.020291748554480894,1,,0.3536100243769055,-0.6115643312836937,-0.7352943863459822,-0.012628428565554429,-0.01575563471387629,0.010420527606401882
566,1.0159763463424727,0.021235121231122287,1,,0.3516898887163293,-0.6098509057455554,-0.7320203005329592,-0.012532297101135525,-0.015587212389332998,0.012785093330570624
567,1.0163700348066305,0.022046319395542812,1,,0.34947684262585216,-0.6079452374380485,-0.7283933587494752,-0.01226406801774161,-0.015453098477125142,0.015065039406338507
568,1.0167464178130907,0.022757056202042422,1,,0.352354232358025,-0.6093581367534173,-0.7316637485386327,-0.011490817202592553,-0.013800265821378674,0.01555988042325113
569,1.0170710331736015,0.023419192935590947,1,,0.3555019709655718,-0.6109472824751995,-0.7353004499548192,-0.010690745096288638,-0.012066775256313212,0.015959915975699596
570,1.017313087427701,0.02409570406404603,1,,0.3553023526937247,-0.6095666317150461,-0.7334639218880531,-0.009254679479264448,-0.015669770485448566,0.014835176614151539
571,1.0174495972273134,0.024849057779530424,1,,0.35493536000628256,-0.6080374852984337,-0.731353721599464,-0.007786812935810486,-0.01953960048642118,0.013634195511726835
572,1.0174691492767716,0.02572893495997619,1,,0.3544635926478308,-0.6105847121537048,-0.7341188476059363,-0.006264559836000298,-0.01864658747144632,0.01318431986455398
573,1.017374452283263,0.02676130739241844,1,,0.3539537769507092,-0.6131941046247286,-0.7369034056476967,-0.004875712725923146,-0.017740909434735733,0.012751275778005043
574,1.0171829370616128,0.02794069754603896,1,,0.3525343834982298,-0.6124548495525342,-0.7341829114112219,-0.007198191460345336,-0.02238586641909348,0.011848089738087146
575,1.0169248848674564,0.029226955204493987,1,,0.3511149900435329,-0.6117155944791848,-0.7314624171704972,-0.00952067019839571,-0.027030823410707592,0.010944903696758287
576,1.0166390522306694,0.030547127306263886,1,,0.3515490490828026,-0.610625995123442,-0.7321558771015393,-0.009457890430379277,-0.02664628520774238,0.008717637198129588
577,1.016366454586703,0.031802153661523225,1,,0.3520379202297893,-0.6095260350427218,-0.7329502978201369,-0.009324571468552924,-0.026113009861041373,0.006451213695691467
578,1.0161435536052688,0.032877443362828315,1,,0.3505001388656906,-0.6079464483743182,-0.7319274936041541,-0.010882439503466077,-0.02857115808405969,0.011205828430116535
579,1.015996313076032,0.03365590745846823,1,,0.3489075979413806,-0.6063539023333452,-0.7308555885006138,-0.012486002918599994,-0.031110133700427246,0.016150149570603563
580,1.0159364176846062,0.03403161773973489,1,,0.34611562130306933,-0.6085443277558804,-0.7342866411050798,-0.011731077395149357,-0.03128994828395728,0.0175549166582689
581,1.0159604334542598,0.03392200239699149,1,,0.3433001136196926,-0.6108089691270583,-0.7378060346569157,-0.010929882030134036,-0.03142347984198026,0.018890243269440676
582,1.016051909168341,0.03327668801590056,1,,0.3438043989725875,-0.6121663485951944,-0.7366480887550737,-0.011971324187629175,-0.02826821093105703,0.01561980960645735
583,1.0161856268474263,0.032081920014306216,1,,0.34435456150872923,-0.6135111903502072,-0.7354255053414257,-0.013038230288917752,-0.025067493127961808,0.012285727601756346
584,1.016332759588421,0.030360694327111186,1,,0.3450863524807512,-0.6111961735116768,-0.7353520984667924,-0.012125568518345084,-0.02160200698479296,0.010930653381468433
585,1.016465740416125,0.028169792277218605,1,,0.34582008073494863,-0.6088421199704485,-0.7352909489122522,-0.01119179232530293,-0.018133696770210306,0.009596687606077778
586,1.0165620122596235,0.02559535480983289,1,,0.3468601296556104,-0.6102867767070868,-0.7376039142093097,-0.012513434178232741,-0.016515707488434495,0.011579616016706394
587,1.0166062253653574,0.02274828101124698,1,,0.3478956244796998,-0.6117482927859685,-0.7399232128316687,-0.013846455948543137,-0.01491345424368418,0.0135796444359115
588,1.016590762475725,0.019759799980815573,1,,0.34532905240568346,-0.6079289840604158,-0.7366844266584824,-0.012779902233607181,-0.014780135091892825,0.012246452417392834
589,1.0165148231781715,0.016776571854978137,1,,0.34277057333609995,-0.6041389726073487,-0.7334753369761491,-0.011702479066979077,-0.014622812403348165,0.010912674729322468
590,1.0163827392289297,0.01395419906310826,1,,0.3420967017126157,-0.6071713770019345,-0.7371816283465847,-0.008093902430926501,-0.00887582007218608,0.009442513487268848
591,1.0162024403495216,0.011448353331781314,1,,0.34147940904284085,-0.6101650736168547,-0.7408076254356009,-0.004497935525084366,-0.003197428870726295,0.00796985735251268
592,1.0159847085480038,0.009403651298512323,1,,0.3456611422248857,-0.6098755767011708,-0.7376230626276427,-0.0019715261760798017,-0.003337784936887191,0.00628558466398754
593,1.0157431899213418,0.007941399164332742,1,,0.34915214563137614,-0.6096058279901645,-0.7347323216130253,0.00010650904393279523,-0.0036073886314649203,0.004837273757441435
594,1.0154946283524076,0.0071478554901586,1,,0.347286528581995,-0.6094892269245781,-0.734120173323918,-0.0012926042744061154,-0.004879309738776983,0.005218850247242491
595,1.0152587790266001,0.0070645784726410185,1,,0.3454114883711995,-0.6093293795428624,-0.7335961467734422,-0.002695886940276186,-0.006092544562795899,0.005570821371442494
596,1.0150577756406314,0.007681984608086072,1,,0.34308418768067406,-0.6070939436287569,-0.7373014856196274,-0.004299275559759027,-0.004489156093828604,0.004501895541500853
597,1.0149150048312354,0.008936842353238208,1,,0.34082033110185433,-0.6049695036642861,-0.7408615968826207,-0.005913557321503483,-0.0028821548519632465,0.003465749688100232
598,1.014853617695867,0.010714263891434435,1,,0.34082033110185433,-0.6068056976715309,-0.7392395973886315,-0.007916535588371694,-0.0011462402537300526,0.0035992815725581126
599,1.0148947517922637,0.012854736947916095,1,,0.3407870685049438,-0.6084874696339895,-0.7377497761766965,-0.009638067573034747,0.0007731408248664677,0.0036454915867541768
600,1.0150554950433155,0.0151665825933798,1,,0.3397748165058293,-0.6056242702996348,-0.7401502447171039,-0.0030760331399293855,0.008092332918619945,0.0011216321019265967
601,1.0153466681383327,0.01744371015747798,1,,0.3387625645051334,-0.6027610709608072,-0.7425507132612613,0.0034860013034272047,0.015411525023807484,-0.0014022273868437639
602,1.0157705952244382,0.019487593512173686,1,,0.341107219959057,-0.604393826519272,-0.7426171658142728,0.005169506884918982,0.02002538003825918,0.0017958697388164608
603,1.016319098605587,0.021131137897954497,1,,0.3437687862392909,-0.6063652649733194,-0.742281435611866,0.006364633569412379,0.024267109739702326,0.005455697313461221
604,1.016971983261615,0.02226093182784965,1,,0.34725711046013974,-0.6074056387849752,-0.7370489288315876,0.005697058113729838,0.025068199865395276,0.00866005916985263
605,1.0176963412387896,0.02283382544052726,1,,0.35065203734995215,-0.6083857869926784,-0.7321709864562557,0.0050415970794205804,0.02579584415884116,0.011674954828939906
606,1.018447120311135,0.02288419918307522,1,,0.3520976701960992,-0.6081089677271121,-0.7346931512298799,0.004638975926612898,0.024990601853225797,0.010735504968449527
607,1.0191694115204277,0.022519638378548253,1,,0.35352568983134464,-0.6080156211822073,-0.7370605660444698,0.004187597329153224,0.02394092334113202,0.01005775340880252
608,1.0198026249117458,0.021904670640586155,1,,0.3546842568525402,-0.6107290994596541,-0.7370605660444698,0.002990311638770949,0.01915178097922345,0.013383546826689173
609,1.020286181289225,0.021234338805653452,1,,0.355868376639915,-0.6133411755922668,-0.7369497818393571,0.0018642128,0.014393808731271537,0.016400658947162937
610,1.0205658509941926,0.020701303536159392,1,,0.35745671345191904,-0.6143491796687696,-0.7350865116284334,0.0018642128,0.010128914015385099,0.014534767546496387
611,1.020599728189006,0.020461606514663992,1,,0.35879197455011375,-0.6151058720925275,-0.7332341521333468,0.001700424958115586,0.005625717501164184,0.012668522014063481
612,1.020363130203852,0.020604937999121876,1,,0.35624887897568996,-0.6120112418943537,-0.7315489981694266,-0.0009733929979585854,-0.0025294269561315576,0.010796849500031647
613,1.0198522835264383,0.021135011195192323,1,,0.35387548854426515,-0.6090864148712001,-0.7302915187843715,-0.0035359634130322512,-0.010332341994334727,0.009220919287856887
614,1.0190871411143978,0.02196429390361828,1,,0.3537838089316595,-0.6084446167343448,-0.7347841874395912,-0.00460279411605216,-0.013399480184147513,0.01162128813180251
615,1.0181136951423575,0.022925010791858443,1,,0.3538070667694464,-0.6081829427814969,-0.7385878905155152,-0.0055733469705146815,-0.01608130426165491,0.014060645793948686
616,1.0170056027185568,0.02379553475705719,1,,0.35530812414252233,-0.6128086866494079,-0.7335332709189973,-0.005306014681064054,-0.013808981357237786,0.01700129917103864
617,1.015864177735837,0.02433873921298975,1,,0.3563190148077412,-0.616882678882388,-0.7288598975107284,-0.0052195124479317775,-0.01222832957748095,0.01931394375910634
618,1.0148153881488984,0.024347046032091355,1,,0.3516748933767032,-0.6145911588359002,-0.7285849293979583,-0.007219231365085207,-0.018627429411549074,0.014381303730088698
619,1.0140027455021703,0.02368780619094517,1,,0.3471680654710821,-0.6123972273046469,-0.728709931477171,-0.00910963761467461,-0.024742596428232535,0.009678049175331264
620,1.0135757213464014,0.022342122369962497,1,,0.3441959577631216,-0.6112941779712125,-0.7333059550092372,-0.009778104564313527,-0.027683852512674845,0.007538954233672227
621,1.0136741642672507,0.02043025997153077,1,,0.3414806874490217,-0.6101556097174199,-0.7376722715644228,-0.010254162081697578,-0.030119735277040472,0.005520548074088967
622,1.0144098459111526,0.018217667303539103,1,,0.3413584684359725,-0.6086584395695561,-0.7397194476901899,-0.008787638286420285,-0.027453327784906983,0.004720625726327036
623,1.0158467811635061,0.016097665231076967,1,,0.3412815965333814,-0.6071268294284824,-0.7414154788751466,-0.007048460876818552,-0.024452067466837635,0.003957615135726472
624,1.017982558203736,0.014550122539082408,1,,0.3416493165665875,-0.6052575628881737,-0.7396688163968101,-0.0026361341687250153,-0.018167844643451544,0.0035564946400045067
625,1.0207336168197572,0.01407949922177513,1,,0.34238333391558273,-0.6039584511856545,-0.7382982934628327,0.0010897553190449699,-0.01212724962224364,0.003410749191840938
626,1.0239279213972365,0.015139730235406318,1,,0.3463861866540945,-0.607747398403581,-0.7402844379491772,-0.0013101175472198703,-0.008260787974059077,0.005543969383907919
627,1.027308308504665,0.018056639165351503,1,,0.34995537875877075,-0.611569384537555,-0.7422809992382313,-0.004035276160077449,-0.004632027612516585,0.007280492048893371
628,1.0305486799918862,0.02296021748908979,1,,0.34975972192365645,-0.6156781998672677,-0.7443679945832936,-0.009584421103022817,-0.0030668842040586534,0.005573063041169399
629,1.0332833593642607,0.029738877297551904,1,,0.34939556167873503,-0.618401141049848,-0.7455573976492574,-0.013994211071313744,-0.00011493651349818891,0.0018995350329278175
630,1.035147826369576,0.0380257226048977,1,,0.348472312091025,-0.6165257927349325,-0.7437686160337909,-0.01462365489171177,0.0074383868732167124,-0.008297451454050557
631,1.03582702497156,0.04722314109333421,1,,0.3490732403476908,-0.6156723163452403,-0.7435442801178451,-0.016153805033455017,0.014640289515872075,-0.018763497852160395
632,1.0351054327772833,0.056566732270587526,1,,0.36127790697138557,-0.6225984665148085,-0.7552302462945318,-0.02454113431678176,0.019166786374800078,-0.03127792793319357
633,1.0329109564119177,0.06522303630145333,1,,0.37214842660767666,-0.6282474180643527,-0.7655781796268468,-0.0317100711498465,0.026298723557141294,-0.044745394901244254
634,1.0293430373383974,0.07240843778589946,1,,0.3728234253397934,-0.6241360467725069,-0.7657008964170205,-0.029568080579033047,0.05334137675770748,-0.06549594834943065
635,1.0246756401295438,0.0775103548301723,1,,0.3719694662945805,-0.6184200673151405,-0.7633668453951059,-0.028140708492690895,0.07868947317768106,-0.08241125580398821
636,1.019329565790812,0.08018832062151413,1,,0.36054999455985,-0.6016158104200632,-0.7440558628340309,-0.031651543820108916,0.09232772323229618,-0.0728239740740303
637,1.013815724750311,0.0804338803238217,1,,0.3503562554097484,-0.5856907641728853,-0.7264663757429812,-0.035371977697583906,0.09732855836167667,-0.05854538912978785
638,1.008659386227154,0.07857546971131864,1,,0.34688700604948003,-0.5745891541238485,-0.7183211824693205,-0.04024228993788724,0.054943683072892685,-0.018529851751571465
639,1.0043215854199212,0.07522640950741563,1,,0.34342600307885207,-0.5669427474110967,-0.7121710144774165,-0.043142116759153915,0.018740763219998045,0.018893094446088332
640,1.0011350678297148,0.0711869437386041,1,,0.3400197228305905,-0.5822249534651934,-0.7192597669257604,-0.0329658688031244,0.02356109080223956,0.039111693417206855
641,0.999267785036546,0.06732005191604648,1,,0.33777609473152087,-0.5973035911097139,-0.7248424978197949,-0.024827236367535116,0.027123517642308973,0.055197628297317544
642,0.9987188708613197,0.06442303520547174,1,,0.3425568375023692,-0.6111523339663315,-0.7213263302095091,-0.028999222427787127,0.02308611221768381,0.046315334139646135
643,0.9993434754994098,0.06311402304697857,1,,0.34706223596134933,-0.6214653326882378,-0.7185668577796038,-0.03292229104567748,0.018282700770750154,0.03454331492825172
644,1.0008967951154204,0.06374797037412602,1,,0.35015526068504094,-0.6136417944974007,-0.7196888398693397,-0.035568542082494145,0.00955007493274529,0.007948502044109722
645,1.0030854452670301,0.06637238564843698,1,,0.35317833808757093,-0.6086824996401051,-0.7207982161663046,-0.03913657161397841,-0.001381527575924946,-0.016712049389404463
646,1.0056154601631624,0.07072840876660882,1,,0.35580617882224613,-0.6199075855229168,-0.7218363635578952,-0.04791310214630751,-0.02473842778835503,-0.030443074421618616
647,1.0082291550719655,0.07629674060362861,1,,0.3581080067288644,-0.6241322165727069,-0.723357128184761,-0.053276874789104055,-0.04734107105557379,-0.041158506063515475
648,1.0107266033016673,0.08238059260660618,1,,0.3595240373096652,-0.6093361719849012,-0.7261891941744528,-0.04936796983302096,-0.0678943509393885,-0.04368038103821802
649,1.0129710734309558,0.08821131647537946,1,,0.35992798011214244,-0.5954469656906267,-0.7296313488921196,-0.04666105400888612,-0.08482191137757544,-0.04624764458556732
650,1.0148812606547564,0.09305898446273189,1,,0.3548968042323057,-0.5864276666517573,-0.7363498050842493,-0.050409066012632175,-0.0822786158664033,-0.04905865409100344
651,1.016415899588605,0.09633088045977363,1,,0.35138856328830226,-0.5787752138885797,-0.7429514105008707,-0.05366350097250481,-0.07969228567403765,-0.048362556231788284
652,1.0175574176386737,0.0976449223000719,1,,0.35545321633875027,-0.5779194939634097,-0.7489719678206282,-0.054463591683445195,-0.07689196267787293,-0.030227136573955295
653,1.0183002294251036,0.0968707657803114,1,,0.35922742694154514,-0.5772355798920403,-0.7543950980920793,-0.05587867055834977,-0.07438639268885745,-0.012448247793032394
654,1.0186465743904727,0.09413687530700672,1,,0.3615865163959642,-0.577388754556215,-0.7569073878037664,-0.06029015298556601,-0.07331694617581486,0.003593517667883924
655,1.0186095657279763,0.08980584237966382,1,,0.3647826598410662,-0.5779772714434406,-0.7593695001628111,-0.06351214270126786,-0.07236674463779506,0.017371618612790338
656,1.0182204403800745,0.08442241283516289,1,,0.371841118808841,-0.580574534524576,-0.7616000853435938,-0.06124560221709292,-0.07196676054433582,0.020704770329785564
657,1.0175355652894544,0.07863991555851041,1,,0.3757377196514095,-0.5819722472744543,-0.7623653686278095,-0.05743291089399272,-0.06830729906563734,0.021118091892183534
658,1.0166388602819523,0.07313241291720231,1,,0.36529263757895586,-0.5779289915139012,-0.7564842767833421,-0.046607126525937737,-0.04986336925010038,0.008287530689502836
659,1.0156369334780586,0.06850260944707758,1,,0.3569839806273284,-0.5747954490892321,-0.7519101980136007,-0.03480689506391488,-0.034486077442320545,-0.0031087772565095337
660,1.01464689417996,0.0651986072942537,1,,0.35790118501826473,-0.5755903799930734,-0.7529802774649126,-0.01879864621635435,-0.032351644796956465,-0.008311457612266107
661,1.0137794530134385,0.06345399968778775,1,,0.35819646046298176,-0.5752820052237112,-0.752671254226603,-0.0005828077456084459,-0.03034461702249982,-0.014156048447823559
662,1.0131215030519611,0.06326358248696494,1,,0.35586914537160774,-0.5703211391387953,-0.7465467408282502,0.026942138760991694,-0.0288748383998293,-0.022707489303380846
663,1.012722576292279,0.06440062347137379,1,,0.3542735610529615,-0.5674058666435061,-0.743471859340862,0.0515383653503746,-0.025291406085614383,-0.030423921422791253
664,1.0125886229717418,0.06647262525448656,1,,0.35563172389681913,-0.5727479566852186,-0.7527073001195393,0.06431235025904042,-0.013175875800709043,-0.034769708568611925
665,1.012684678792112,0.0690036378463427,1,,0.35710231286820365,-0.5783379283053109,-0.7592315702648851,0.07556581842162088,0.0002642197798505242,-0.04017699196899087
666,1.0129454737829036,0.07152517791607325,1,,0.35909832887660137,-0.585086382285889,-0.7530850997007013,0.07971310410538808,0.019894712824625738,-0.050545211369342063
667,1.0132907738602221,0.07365624658433507,1,,0.3591059398915407,-0.5891531420270485,-0.7484271000376395,0.08234534061432106,0.030994610157906933,-0.05671526075163659
668,1.013641301552555,0.07515594063383567,1,,0.3531426426425494,-0.5851671407372707,-0.748238774900402,0.08042809166361019,0.01647829527085385,-0.050278779743920234
669,1.0139317343044796,0.0759389672219537,1,,0.35118495487910373,-0.5859951263940467,-0.7473974968125093,0.07369107151706412,0.004364781520787627,-0.0440974954636883
670,1.0141187902275126,0.07605363159890942,1,,0.3583484875600213,-0.597785098330184,-0.7450693718794582,0.05597889367885979,-0.0022772855719888773,-0.03849732262037115
671,1.0141838494784428,0.07563145492552899,1,,0.35974305975633736,-0.602797937601586,-0.7429316818023134,0.03825864613559666,-0.011740366380244933,-0.02771818408220216
672,1.014130638568359,0.0748248318367355,1,,0.344742414264567,-0.5885503632301639,-0.7413352020270755,0.020515464619202527,-0.02922068607254068,-0.002220575793816328
673,1.0139795102486422,0.07375163754024261,1,,0.3350735007818595,-0.5786141645991896,-0.7419486663474152,0.00330560594658785,-0.0414151453262364,0.024450845889141842
674,1.0137607621799292,0.07246227363700747,1,,0.3428578624269603,-0.5827911334669026,-0.7497963206863294,-0.012158435469936271,-0.03630648876833287,0.05496471297529872
675,1.0135094930374375,0.07093624443613909,1,,0.348096021381308,-0.5877877645119153,-0.7552964284344192,-0.019636486305883265,-0.028539120692396672,0.07806853485432777
676,1.013263116469753,0.06910515270970978,1,,0.3475370584714816,-0.5946505791226043,-0.7554517088796722,-0.008932260889216457,-0.014718473786686394,0.08430137661134073
677,1.013060575501989,0.06689105658790011,1,,0.3439530752282999,-0.5977151373436952,-0.7534734019952631,0.000496426117593302,-0.009315184628706834,0.08424043367283304
678,1.0129411312743428,0.06424616160445981,1,,0.3344890186498984,-0.5933965960975512,-0.7473478006878946,0.0074457052483776895,-0.020273663385403116,0.07194555132744171
679,1.0129412293312754,0.06118191442404901,1,,0.3298754924361278,-0.5923074740370523,-0.7423637560543235,0.013459295681723708,-0.024972108612030332,0.06078692325837056
680,1.0130897285036384,0.0577807394351701,1,,0.3343936232865402,-0.5972980889014358,-0.7395288174350781,0.01771134922124304,-0.0178853519870955,0.051767418829179034
681,1.013403224159911,0.05418945085754912,1,,0.33956196877888695,-0.6011659930147988,-0.7389480054785792,0.020772656,-0.013045526793597596,0.04354970354792762
682,1.0138832792882024,0.050597986224888127,1,,0.3464019598318407,-0.602147505042609,-0.7441623579473531,0.020772656,-0.013982367685068947,0.03739331868025394
683,1.0145162595918027,0.04720972167037957,1,,0.34998658307706615,-0.6014312961942535,-0.7469218175791347,0.020384913634493476,-0.014337191845523962,0.032790551347744244
684,1.0152751960278157,0.0442102154293736,1,,0.34560689648482257,-0.5965615858310938,-0.743675342298066,0.019048553314679122,-0.013268102686441177,0.03198873435298337
685,1.0161226215796324,0.04174024487693641,1,,0.3420176822688808,-0.5943090846180334,-0.7428375643047533,0.01735208236932675,-0.011799306498151934,0.03214285102575074
686,1.017013745369749,0.03987712311255846,1,,0.34029680580780364,-0.5982425436663404,-0.7476929139394507,0.014804464297737864,-0.009385774263950302,0.03455638502213635
687,1.01789993859683,0.038626152958214886,1,,0.3392223863341845,-0.6013037989869628,-0.7507230049152451,0.011959371997849189,-0.007117546394431974,0.036340117011899306
688,1.018732628796658,0.037922194946535016,1,,0.3395792723680702,-0.6024339281567508,-0.749711832787994,0.008455648852588964,-0.005171033557610461,0.036729418906832755
689,1.019467351123019,0.037639976971266226,1,,0.340503589186617,-0.603446389551195,-0.7485251951844928,0.005165215170279528,-0.002202199134528739,0.03698325304849242
690,1.02006740340807,0.037611010995951474,1,,0.3430523796049781,-0.6041219848544107,-0.7468362248830884,0.002485398850636028,0.003693396537248561,0.03684926229036984
691,1.0205066065855015,0.0376446600053257,1,,0.3456426148677927,-0.6051116410416285,-0.7449248901316867,-0.0008379699539882919,0.007989483,0.037246563735814836
692,1.0207709481965501,0.03755079494556575,1,,0.34834416593865913,-0.6069448264323744,-0.7424163116000402,-0.005889842195618946,0.007989483,0.03907085118886399
693,1.0208591149985375,0.037161476738060875,1,,0.34968814317550184,-0.6075378760787389,-0.7421189098321787,-0.009577448187088021,0.007894446634789054,0.03916833362582396
694,1.020781985056203,0.03634926283368416,1,,0.3487551359203451,-0.6060509137281392,-0.7455301941665134,-0.01097684487203284,0.007640010960743643,0.03636954025593432
695,1.0205611064922493,0.03504023569416617,1,,0.34762887343405274,-0.604826096203313,-0.7473939939352167,-0.011609947885868435,0.007980839044107395,0.03319452081970734
696,1.0202261792155503,0.03322072344559712,1,,0.34600599548712646,-0.6042749223862028,-0.745281162674887,-0.010273876369590323,0.00985133946790856,0.029052698667727483
697,1.0198116962034158,0.03093772182808862,1,,0.34551125419915374,-0.6038216164562471,-0.7434474098379106,-0.009058229997570687,0.011710944863869371,0.02516028707375706
698,1.019353172758311,0.028293878777902605,1,,0.34782114934934566,-0.6036116177867545,-0.7423074678956657,-0.008141969996726724,0.013543464374057663,0.021887929717243067
699,1.0188836117722313,0.02543830661848133,1,,0.3496585959178042,-0.603509725312105,-0.7415968512640534,-0.007181942763838031,0.014157704340877122,0.019475439647262744
700,1.0184308264214266,0.02255442025841266,1,,0.3500956700212704,-0.603728267579644,-0.7421587865451478,-0.006092186217959751,0.011160873801349662,0.01961165968223747
701,1.01801595711902,0.019845662378392092,1,,0.3503134769308903,-0.6037924937205177,-0.7421694611247491,-0.006145130964039983,0.007807039605572154,0.01888858429203753
702,1.0176531564609779,0.017519654595966504,1,,0.35001281315548644,-0.6034918299451139,-0.7408766460708361,-0.008900062781672836,0.0036090484192343587,0.016133652326624785
703,1.0173501751214662,0.015771225816658102,1,,0.3492790685477742,-0.6030324913807502,-0.740389529424088,-0.010300982771673458,3.052490761334688e-05,0.01380576488583673
704,1.017109526382674,0.014764978648598827,1,,0.3473574078859113,-0.6021379169074867,-0.7421123976036892,-0.007987925466433596,-0.0018488340850394932,0.012649236233216798
705,1.0169299492134352,0.014618479255600725,1,,0.3461348135225683,-0.6018718611115106,-0.7433252459056822,-0.006201679349727727,-0.004583288048297215,0.01101474976993846
706,1.0168079096597569,0.015387628382483875,1,,0.3458580390273055,-0.6024561759539665,-0.7438480495959487,-0.005128196082088986,-0.00847466493127697,0.008733597889188338
707,1.016738853362144,0.01705609520105233,1,,0.3452827656327355,-0.6025977545457291,-0.744078835894537,-0.004797108687055604,-0.011947371416839972,0.006647646938833188
708,1.0167179295246282,0.019530696964881133,1,,0.34432805610660455,-0.6021765500598951,-0.743938425016641,-0.005409715948103537,-0.014887886085845951,0.004809825155689389
709,1.0167400352525011,0.022644198132956088,1,,0.3430664393686286,-0.6018844369670402,-0.7438103172826865,-0.006590306454876292,-0.018177826684530864,0.003059865935116214
710,1.0167992731103561,0.026166213055369494,1,,0.34096087549936305,-0.6019473051359318,-0.7437160412812988,-0.009332762601407951,-0.02242863429090322,0.0015515150931403531
711,1.0168881648262778,0.029821846387622617,1,,0.33973696373824563,-0.6019302516773505,-0.7441185663473482,-0.012267301889388661,-0.026208932822577444,0.0014848140799095905
712,1.0169970800441042,0.03331656219679816,1,,0.34034831055589904,-0.601746832311359,-0.7455552390291814,-0.015601683976485602,-0.02900981351531473,0.004419070246440706
713,1.0171142473500046,0.036364725822953727,1,,0.3411910434152957,-0.6017440221918323,-0.7462800382029314,-0.018500358177437507,-0.03203177892863077,0.0074430717180956965
714,1.0172264654732643,0.03871848992580791,1,,0.3425083462382126,-0.6021116394417869,-0.745544793466694,-0.02050540081302545,-0.035507186431340765,0.010651139734268228
715,1.0173203702951161,0.04019333571007906,1,,0.34355138966798876,-0.6014866088488202,-0.7453808535714942,-0.02142660905886431,-0.03799969491265363,0.012737472014427726
716,1.017383971381107,0.04068674433266417,1,,0.34405102076307237,-0.5988947647174262,-0.7463488862096694,-0.020200328485824506,-0.03854470599940529,0.012601218475305915
717,1.017408173652423,0.040187247868766054,1,,0.3432314917821535,-0.5973242337191556,-0.7479516946526804,-0.01869476681679665,-0.037638301672699284,0.012765626852283064
718,1.0173880609703914,0.03877246972540164,1,,0.3402673903440283,-0.5974140622507045,-0.7505864648256245,-0.016735174917186645,-0.034372315990920804,0.013418824479181676
719,1.0173237433829432,0.036596492504018655,1,,0.3378777138418285,-0.5978713886341541,-0.7521936104606031,-0.014028764467587199,-0.0308066794675872,0.013436885292477899
720,1.0172205519367203,0.03386861667250711,1,,0.3365917862696531,-0.5990348566571116,-0.7518261908907944,-0.009887353308303178,-0.026665268308303177,0.012234540198111016
721,1.0170883966299804,0.030826910784002497,1,,0.3357223794354904,-0.6001768231504861,-0.7502097433978961,-0.007423446904231314,-0.023502626541364986,0.009634880724211311
722,1.0169402789006887,0.02771061366702633,1,,0.33563054861570707,-0.6012786498138257,-0.7462615652766579,-0.008091167198554173,-0.02216718695561777,0.00442666408327554
723,1.0167902462966183,0.024735299477976393,1,,0.33555974412922285,-0.601816677226341,-0.7447288704519627,-0.008270363443907141,-0.02049968185831543,0.00020930607397233198
